"consent","trial_type","trial_index","time_elapsed","internal_node_id","subjID","study","MID","cond","drift","rt","responses","key_press","expt_phase","like","value","connected","gems","bombs","no_reward","GemPrChosen","BombPrChosen","GainOverPainPr_0","GainOverPainPr_1","GainOverPainPr_2","GainOverPainPr_3","LosePr_0","LosePr_1","LosePr_2","LosePr_3","WinPr_0","WinPr_1","WinPr_2","WinPr_3","Q0","Q1","Q2","gender","age","ethnicity","target","respCharCode","respKey","respChoiceNum","respChoice","practice","trial_counter","trial_label","button_pressed"
"INL_behavioral_consent_30min_online.html","consent","0","6847","0.0-0.0","69469015","wem/bandit_either_3","A1L3937MY09J3I","either","1","","","","","","","","","","","","","","","","","","","","","","","","","","","","","","","","","","","","","","",""
"","survey-text","1","9961","0.0-1.0","69469015","wem/bandit_either_3","A1L3937MY09J3I","either","1","2098","{""Q0"":""A1L3937MY09J3I""}","","","","","","","","","","","","","","","","","","","","","","","","","","","","","","","","","","","","",""
"","text","2","23987","0.0-2.0","69469015","wem/bandit_either_3","A1L3937MY09J3I","either","1","13020","","32","","","","","","","","","","","","","","","","","","","","","","","","","","","","","","","","","","","",""
"","text","3","27857","0.0-3.0","69469015","wem/bandit_either_3","A1L3937MY09J3I","either","1","3868","","32","","","","","","","","","","","","","","","","","","","","","","","","","","","","","","","","","","","",""
"","text","4","32598","0.0-4.0","69469015","wem/bandit_either_3","A1L3937MY09J3I","either","1","4739","","32","","","","","","","","","","","","","","","","","","","","","","","","","","","","","","","","","","","",""
"","text","5","41154","0.0-5.0","69469015","wem/bandit_either_3","A1L3937MY09J3I","either","1","8553","","32","","","","","","","","","","","","","","","","","","","","","","","","","","","","","","","","","","","",""
"","text","6","57687","0.0-6.0","69469015","wem/bandit_either_3","A1L3937MY09J3I","either","1","16531","","32","","","","","","","","","","","","","","","","","","","","","","","","","","","","","","","","","","","",""
"","text","7","62106","0.0-7.0","69469015","wem/bandit_either_3","A1L3937MY09J3I","either","1","4416","","32","","","","","","","","","","","","","","","","","","","","","","","","","","","","","","","","","","","",""
"","text","8","65173","0.0-8.0","69469015","wem/bandit_either_3","A1L3937MY09J3I","either","1","3066","","32","","","","","","","","","","","","","","","","","","","","","","","","","","","","","","","","","","","",""
"","identification","9","73543","0.0-9.0-0.0","69469015","wem/bandit_either_3","A1L3937MY09J3I","either","1","8343","","","","0","0","0","","","","","","","","","","","","","","","","","","","","","","","","the village of Zur","","","","","","","",""
"","identification","10","78878","0.0-9.0-1.0","69469015","wem/bandit_either_3","A1L3937MY09J3I","either","1","4311","","","","3","3","0","","","","","","","","","","","","","","","","","","","","","","","","the village of Nyx","","","","","","","",""
"","text","11","84932","0.0-10.0","69469015","wem/bandit_either_3","A1L3937MY09J3I","either","1","5051","","32","","","","","","","","","","","","","","","","","","","","","","","","","","","","","","","","","","","",""
"","text","12","87316","0.0-11.0","69469015","wem/bandit_either_3","A1L3937MY09J3I","either","1","2382","","32","","","","","","","","","","","","","","","","","","","","","","","","","","","","","","","","","","","",""
"","text","13","89471","0.0-12.0","69469015","wem/bandit_either_3","A1L3937MY09J3I","either","1","2152","","32","","","","","","","","","","","","","","","","","","","","","","","","","","","","","","","","","","","",""
"","text","14","92330","0.0-13.0","69469015","wem/bandit_either_3","A1L3937MY09J3I","either","1","2857","","32","","","","","","","","","","","","","","","","","","","","","","","","","","","","","","","","","","","",""
"","bandit","15","95195","0.0-14.0-0.0","69469015","wem/bandit_either_3","A1L3937MY09J3I","either","1","1352","","","","","","","0","0","1","0","0","","","","","0","","","","0","","","","","","","","","","","74","J","0","img/none_selected_demo.jpg","true","0","",""
"","bandit","16","97559","0.0-15.0-0.0","69469015","wem/bandit_either_3","A1L3937MY09J3I","either","1","855","","","","","","","0","0","1","0","0","","","","","0","","","","0","","","","","","","","","","","75","K","0","img/none_selected_demo.jpg","true","0","",""
"","text","17","100672","0.0-16.0","69469015","wem/bandit_either_3","A1L3937MY09J3I","either","1","3110","","32","","","","","","","","","","","","","","","","","","","","","","","","","","","","","","","","","","","",""
"","text","18","109620","0.0-17.0","69469015","wem/bandit_either_3","A1L3937MY09J3I","either","1","8946","","32","","","","","","","","","","","","","","","","","","","","","","","","","","","","","","","","","","","",""
"","text","19","115987","0.0-18.0","69469015","wem/bandit_either_3","A1L3937MY09J3I","either","1","6364","","32","","","","","","","","","","","","","","","","","","","","","","","","","","","","","","","","","","","",""
"","text","20","118446","0.0-19.0","69469015","wem/bandit_either_3","A1L3937MY09J3I","either","1","2457","","32","","","","","","","","","","","","","","","","","","","","","","","","","","","","","","","","","","","",""
"","bandit","21","120498","0.0-20.0-0.0","69469015","wem/bandit_either_3","A1L3937MY09J3I","either","1","544","","","","","","","1","0","0","0.8","","0.5","0.5","","","","","","","0.8","0.2","","","","","","","","","","74","J","0","img/none_selected_demo.jpg","true","0","80_20_practice",""
"","bandit","22","122307","0.0-20.0-1.0","69469015","wem/bandit_either_3","A1L3937MY09J3I","either","1","300","","","","","","","0","1","0","","0.8","0.5","0.5","","","0.8","0.2","","","","","","","","","","","","","","74","J","0","img/none_selected_demo.jpg","true","0","80_20_practice",""
"","bandit","23","124083","0.0-20.0-2.0","69469015","wem/bandit_either_3","A1L3937MY09J3I","either","1","268","","","","","","","1","0","0","0.8","","0.5","0.5","","","","","","","0.8","0.2","","","","","","","","","","74","J","0","img/none_selected_demo.jpg","true","0","80_20_practice",""
"","bandit","24","125822","0.0-20.0-3.0","69469015","wem/bandit_either_3","A1L3937MY09J3I","either","1","231","","","","","","","0","1","0","","0.8","0.5","0.5","","","0.8","0.2","","","","","","","","","","","","","","74","J","0","img/none_selected_demo.jpg","true","0","80_20_practice",""
"","bandit","25","127384","0.0-20.0-4.0","69469015","wem/bandit_either_3","A1L3937MY09J3I","either","1","53","","","","","","","1","0","0","0.8","","0.5","0.5","","","","","","","0.8","0.2","","","","","","","","","","74","J","0","img/none_selected_demo.jpg","true","0","80_20_practice",""
"","bandit","26","129136","0.0-20.0-5.0","69469015","wem/bandit_either_3","A1L3937MY09J3I","either","1","243","","","","","","","0","1","0","","0.8","0.5","0.5","","","0.8","0.2","","","","","","","","","","","","","","74","J","0","img/none_selected_demo.jpg","true","0","80_20_practice",""
"","bandit","27","130942","0.0-20.0-6.0","69469015","wem/bandit_either_3","A1L3937MY09J3I","either","1","298","","","","","","","0","0","1","","0.8","0.5","0.5","","","0.8","0.2","","","","","","","","","","","","","","74","J","0","img/none_selected_demo.jpg","true","0","80_20_practice",""
"","bandit","28","132652","0.0-20.0-7.0","69469015","wem/bandit_either_3","A1L3937MY09J3I","either","1","202","","","","","","","0","1","0","","0.8","0.5","0.5","","","0.8","0.2","","","","","","","","","","","","","","74","J","0","img/none_selected_demo.jpg","true","0","80_20_practice",""
"","bandit","29","134657","0.0-20.0-8.0","69469015","wem/bandit_either_3","A1L3937MY09J3I","either","1","498","","","","","","","0","1","0","","0.8","0.5","0.5","","","0.8","0.2","","","","","","","","","","","","","","74","J","0","img/none_selected_demo.jpg","true","0","80_20_practice",""
"","bandit","30","136410","0.0-20.0-9.0","69469015","wem/bandit_either_3","A1L3937MY09J3I","either","1","245","","","","","","","0","1","0","","0.8","0.5","0.5","","","0.8","0.2","","","","","","","","","","","","","","74","J","0","img/none_selected_demo.jpg","true","0","80_20_practice",""
"","bandit","31","138141","0.0-20.0-10.0","69469015","wem/bandit_either_3","A1L3937MY09J3I","either","1","222","","","","","","","0","0","1","0.2","","0.5","0.5","","","","","","","0.8","0.2","","","","","","","","","","75","K","1","","true","0","80_20_practice",""
"","bandit","32","139724","0.0-20.0-11.0","69469015","wem/bandit_either_3","A1L3937MY09J3I","either","1","75","","","","","","","0","0","1","","0.2","0.5","0.5","","","0.8","0.2","","","","","","","","","","","","","","75","K","1","","true","0","80_20_practice",""
"","bandit","33","141388","0.0-20.0-12.0","69469015","wem/bandit_either_3","A1L3937MY09J3I","either","1","154","","","","","","","0","0","1","0.2","","0.5","0.5","","","","","","","0.8","0.2","","","","","","","","","","75","K","1","","true","0","80_20_practice",""
"","bandit","34","143050","0.0-20.0-13.0","69469015","wem/bandit_either_3","A1L3937MY09J3I","either","1","155","","","","","","","0","1","0","","0.2","0.5","0.5","","","0.8","0.2","","","","","","","","","","","","","","75","K","1","","true","0","80_20_practice",""
"","bandit","35","144699","0.0-20.0-14.0","69469015","wem/bandit_either_3","A1L3937MY09J3I","either","1","142","","","","","","","0","0","1","0.2","","0.5","0.5","","","","","","","0.8","0.2","","","","","","","","","","75","K","1","","true","0","80_20_practice",""
"","bandit","36","146708","0.0-20.0-15.0","69469015","wem/bandit_either_3","A1L3937MY09J3I","either","1","500","","","","","","","0","0","1","0.2","","0.5","0.5","","","","","","","0.8","0.2","","","","","","","","","","75","K","1","","true","0","80_20_practice",""
"","bandit","37","148474","0.0-20.0-16.0","69469015","wem/bandit_either_3","A1L3937MY09J3I","either","1","257","","","","","","","0","0","1","","0.2","0.5","0.5","","","0.8","0.2","","","","","","","","","","","","","","75","K","1","","true","0","80_20_practice",""
"","bandit","38","150229","0.0-20.0-17.0","69469015","wem/bandit_either_3","A1L3937MY09J3I","either","1","248","","","","","","","0","0","1","","0.2","0.5","0.5","","","0.8","0.2","","","","","","","","","","","","","","75","K","1","","true","0","80_20_practice",""
"","bandit","39","151843","0.0-20.0-18.0","69469015","wem/bandit_either_3","A1L3937MY09J3I","either","1","106","","","","","","","0","1","0","","0.8","0.5","0.5","","","0.8","0.2","","","","","","","","","","","","","","74","J","0","img/none_selected_demo.jpg","true","0","80_20_practice",""
"","bandit","40","153582","0.0-20.0-19.0","69469015","wem/bandit_either_3","A1L3937MY09J3I","either","1","230","","","","","","","1","0","0","0.8","","0.5","0.5","","","","","","","0.8","0.2","","","","","","","","","","74","J","0","img/none_selected_demo.jpg","true","0","80_20_practice",""
"","text","41","156026","0.0-21.0","69469015","wem/bandit_either_3","A1L3937MY09J3I","either","1","2440","","32","","","","","","","","","","","","","","","","","","","","","","","","","","","","","","","","","","","",""
"","bandit","42","159193","0.0-22.0-0.0","69469015","wem/bandit_either_3","A1L3937MY09J3I","either","1","1660","","","","","","","1","0","0","1","0","","","","","0","1","","","1","0","","","","","","","","","","74","J","0","img/none_selected_demo.jpg","true","0","",""
"","text","43","166262","0.0-23.0","69469015","wem/bandit_either_3","A1L3937MY09J3I","either","1","7063","","32","","","","","","","","","","","","","","","","","","","","","","","","","","","","","","","","","","","",""
"","text","44","168032","0.0-24.0","69469015","wem/bandit_either_3","A1L3937MY09J3I","either","1","1767","","32","","","","","","","","","","","","","","","","","","","","","","","","","","","","","","","","","","","",""
"","text","45","169738","0.0-25.0","69469015","wem/bandit_either_3","A1L3937MY09J3I","either","1","1701","","32","","","","","","","","","","","","","","","","","","","","","","","","","","","","","","","","","","","",""
"","text","46","172341","0.0-26.0","69469015","wem/bandit_either_3","A1L3937MY09J3I","either","1","2600","","32","","","","","","","","","","","","","","","","","","","","","","","","","","","","","","","","","","","",""
"","text","47","174898","0.0-27.0","69469015","wem/bandit_either_3","A1L3937MY09J3I","either","1","2554","","32","","","","","","","","","","","","","","","","","","","","","","","","","","","","","","","","","","","",""
"","text","48","176136","0.0-28.0","69469015","wem/bandit_either_3","A1L3937MY09J3I","either","1","1235","","32","","","","","","","","","","","","","","","","","","","","","","","","","","","","","","","","","","","",""
"","text","49","183778","0.0-29.0","69469015","wem/bandit_either_3","A1L3937MY09J3I","either","1","7638","","32","","","","","","","","","","","","","","","","","","","","","","","","","","","","","","","","","","","",""
"","text","50","184998","0.0-30.0","69469015","wem/bandit_either_3","A1L3937MY09J3I","either","1","1216","","32","","","","","","","","","","","","","","","","","","","","","","","","","","","","","","","","","","","",""
"","text","51","187339","0.0-31.0","69469015","wem/bandit_either_3","A1L3937MY09J3I","either","1","2338","","32","","","","","","","","","","","","","","","","","","","","","","","","","","","","","","","","","","","",""
"","text","52","188301","0.0-32.0","69469015","wem/bandit_either_3","A1L3937MY09J3I","either","1","959","","32","","","","","","","","","","","","","","","","","","","","","","","","","","","","","","","","","","","",""
"","text","53","189174","0.0-33.0","69469015","wem/bandit_either_3","A1L3937MY09J3I","either","1","870","","32","","","","","","","","","","","","","","","","","","","","","","","","","","","","","","","","","","","",""
"","bandit","54","191568","0.0-34.0-0.0","69469015","wem/bandit_either_3","A1L3937MY09J3I","either","1","885","","","","","","","0","0","1","","0.8","0.5","0.5","0.5","0.5","0.8","0.2","0.6","0.2","","","","","","","","","","","","72","H","0","img/none_selected.jpg","true","0","full_practice",""
"","bandit","55","193212","0.0-34.0-1.0","69469015","wem/bandit_either_3","A1L3937MY09J3I","either","1","135","","","","","","","0","1","0","","0.2","0.5","0.5","0.5","0.5","0.8","0.2","0.6","0.2","","","","","","","","","","","","74","J","1","","true","0","full_practice",""
"","bandit","56","194783","0.0-34.0-2.0","69469015","wem/bandit_either_3","A1L3937MY09J3I","either","1","62","","","","","","","0","0","1","0.6","","0.5","0.5","0.5","0.5","","","","","0.8","0.2","0.6","0.2","","","","","","","","75","K","2","","true","0","full_practice",""
"","bandit","57","196293","0.0-34.0-3.0","69469015","wem/bandit_either_3","A1L3937MY09J3I","either","1","2","","","","","","","0","0","1","0.2","","0.5","0.5","0.5","0.5","","","","","0.8","0.2","0.6","0.2","","","","","","","","76","L","3","","true","0","full_practice",""
"","bandit","58","198447","0.0-34.0-4.0","69469015","wem/bandit_either_3","A1L3937MY09J3I","either","1","646","","","","","","","0","0","1","","0.8","0.5","0.5","0.5","0.5","0.8","0.2","0.6","0.2","","","","","","","","","","","","72","H","0","img/none_selected.jpg","true","0","full_practice",""
"","bandit","59","200195","0.0-34.0-5.0","69469015","wem/bandit_either_3","A1L3937MY09J3I","either","1","239","","","","","","","0","0","1","0.2","","0.5","0.5","0.5","0.5","","","","","0.8","0.2","0.6","0.2","","","","","","","","74","J","1","","true","0","full_practice",""
"","bandit","60","201868","0.0-34.0-6.0","69469015","wem/bandit_either_3","A1L3937MY09J3I","either","1","163","","","","","","","0","0","1","","0.6","0.5","0.5","0.5","0.5","0.8","0.2","0.6","0.2","","","","","","","","","","","","75","K","2","","true","0","full_practice",""
"","bandit","61","203630","0.0-34.0-7.0","69469015","wem/bandit_either_3","A1L3937MY09J3I","either","1","253","","","","","","","0","0","1","0.2","","0.5","0.5","0.5","0.5","","","","","0.8","0.2","0.6","0.2","","","","","","","","76","L","3","","true","0","full_practice",""
"","bandit","62","205430","0.0-34.0-8.0","69469015","wem/bandit_either_3","A1L3937MY09J3I","either","1","292","","","","","","","0","0","1","","0.8","0.5","0.5","0.5","0.5","0.8","0.2","0.6","0.2","","","","","","","","","","","","72","H","0","img/none_selected.jpg","true","0","full_practice",""
"","bandit","63","207162","0.0-34.0-9.0","69469015","wem/bandit_either_3","A1L3937MY09J3I","either","1","223","","","","","","","0","0","1","0.2","","0.5","0.5","0.5","0.5","","","","","0.8","0.2","0.6","0.2","","","","","","","","74","J","1","","true","0","full_practice",""
"","bandit","64","208789","0.0-34.0-10.0","69469015","wem/bandit_either_3","A1L3937MY09J3I","either","1","118","","","","","","","1","0","0","0.6","","0.5","0.5","0.5","0.5","","","","","0.8","0.2","0.6","0.2","","","","","","","","75","K","2","","true","0","full_practice",""
"","bandit","65","210421","0.0-34.0-11.0","69469015","wem/bandit_either_3","A1L3937MY09J3I","either","1","122","","","","","","","0","0","1","","0.6","0.5","0.5","0.5","0.5","0.8","0.2","0.6","0.2","","","","","","","","","","","","75","K","2","","true","0","full_practice",""
"","bandit","66","212173","0.0-34.0-12.0","69469015","wem/bandit_either_3","A1L3937MY09J3I","either","1","243","","","","","","","0","1","0","","0.6","0.5","0.5","0.5","0.5","0.8","0.2","0.6","0.2","","","","","","","","","","","","75","K","2","","true","0","full_practice",""
"","bandit","67","213931","0.0-34.0-13.0","69469015","wem/bandit_either_3","A1L3937MY09J3I","either","1","247","","","","","","","0","1","0","","0.2","0.5","0.5","0.5","0.5","0.8","0.2","0.6","0.2","","","","","","","","","","","","76","L","3","","true","0","full_practice",""
"","bandit","68","215644","0.0-34.0-14.0","69469015","wem/bandit_either_3","A1L3937MY09J3I","either","1","204","","","","","","","0","0","1","","0.6","0.5","0.5","0.5","0.5","0.8","0.2","0.6","0.2","","","","","","","","","","","","75","K","2","","true","0","full_practice",""
"","bandit","69","217395","0.0-34.0-15.0","69469015","wem/bandit_either_3","A1L3937MY09J3I","either","1","241","","","","","","","0","0","1","","0.6","0.5","0.5","0.5","0.5","0.8","0.2","0.6","0.2","","","","","","","","","","","","75","K","2","","true","0","full_practice",""
"","bandit","70","219041","0.0-34.0-16.0","69469015","wem/bandit_either_3","A1L3937MY09J3I","either","1","130","","","","","","","0","0","1","","0.6","0.5","0.5","0.5","0.5","0.8","0.2","0.6","0.2","","","","","","","","","","","","75","K","2","","true","0","full_practice",""
"","bandit","71","220706","0.0-34.0-17.0","69469015","wem/bandit_either_3","A1L3937MY09J3I","either","1","156","","","","","","","0","0","1","0.2","","0.5","0.5","0.5","0.5","","","","","0.8","0.2","0.6","0.2","","","","","","","","74","J","1","","true","0","full_practice",""
"","bandit","72","222405","0.0-34.0-18.0","69469015","wem/bandit_either_3","A1L3937MY09J3I","either","1","190","","","","","","","0","0","1","","0.8","0.5","0.5","0.5","0.5","0.8","0.2","0.6","0.2","","","","","","","","","","","","72","H","0","img/none_selected.jpg","true","0","full_practice",""
"","bandit","73","224076","0.0-34.0-19.0","69469015","wem/bandit_either_3","A1L3937MY09J3I","either","1","161","","","","","","","0","0","1","","0.2","0.5","0.5","0.5","0.5","0.8","0.2","0.6","0.2","","","","","","","","","","","","76","L","3","","true","0","full_practice",""
"","text","74","226587","0.0-35.0","69469015","wem/bandit_either_3","A1L3937MY09J3I","either","1","2496","","32","","","","","","","","","","","","","","","","","","","","","","","","","","","","","","","","","","","",""
"","text","75","234471","0.0-36.0","69469015","wem/bandit_either_3","A1L3937MY09J3I","either","1","6879","","32","","","","","","","","","","","","","","","","","","","","","","","","","","","","","","","","","","","",""
"","text","76","239625","0.0-37.0","69469015","wem/bandit_either_3","A1L3937MY09J3I","either","1","5149","","32","","","","","","","","","","","","","","","","","","","","","","","","","","","","","","","","","","","",""
"","text","77","242145","0.0-38.0","69469015","wem/bandit_either_3","A1L3937MY09J3I","either","1","2515","","32","","","","","","","","","","","","","","","","","","","","","","","","","","","","","","","","","","","",""
"","text","78","246093","0.0-39.0","69469015","wem/bandit_either_3","A1L3937MY09J3I","either","1","3944","","32","","","","","","","","","","","","","","","","","","","","","","","","","","","","","","","","","","","",""
"","text","79","247611","0.0-40.0","69469015","wem/bandit_either_3","A1L3937MY09J3I","either","1","1513","","32","","","","","","","","","","","","","","","","","","","","","","","","","","","","","","","","","","","",""
"","bandit","80","249650","0.0-41.0-0.0","69469015","wem/bandit_either_3","A1L3937MY09J3I","either","1","531","","","","","","","0","0","1","","0.4995060561","0.4","0.6","0.2","0.8","0.8101107889","0.5202783506","0.4995060561","0.7674833066","","","","","","","","","","","","75","K","2","","","1","main_expt",""
"","bandit","81","251434","0.0-42.0-0.0","69469015","wem/bandit_either_3","A1L3937MY09J3I","either","1","273","","","","","","","0","1","0","","0.4559554218","0.4","0.6","0.2","0.8","0.8827976921","0.4559554218","0.4452888422","0.7786696111","","","","","","","","","","","","74","J","1","","","2","main_expt",""
"","bandit","82","253024","0.0-43.0-0.0","69469015","wem/bandit_either_3","A1L3937MY09J3I","either","1","80","","","","","","","1","0","0","0.918633781","","0.4","0.6","0.2","0.8","","","","","0.918633781","0.3791335739","0.4956599627","0.7883912796","","","","","","","","72","H","0","img/none_selected.jpg","","3","main_expt",""
"","bandit","83","254731","0.0-44.0-0.0","69469015","wem/bandit_either_3","A1L3937MY09J3I","either","1","196","","","","","","","0","0","1","","0.8961075186","0.4","0.6","0.2","0.8","0.8961075186","0.362446662","0.3939226057","0.8311681014","","","","","","","","","","","","72","H","0","img/none_selected.jpg","","4","main_expt",""
"","bandit","84","256372","0.0-45.0-0.0","69469015","wem/bandit_either_3","A1L3937MY09J3I","either","1","130","","","","","","","0","1","0","","0.9065038385","0.4","0.6","0.2","0.8","0.9065038385","0.4337427147","0.4737796053","0.706748425","","","","","","","","","","","","72","H","0","img/none_selected.jpg","","5","main_expt",""
"","bandit","85","258021","0.0-46.0-0.0","69469015","wem/bandit_either_3","A1L3937MY09J3I","either","1","139","","","","","","","0","1","0","","0.9628954729","0.4","0.6","0.2","0.8","0.9628954729","0.4260566605","0.5798080576","0.7246132019","","","","","","","","","","","","72","H","0","img/none_selected.jpg","","6","main_expt",""
"","bandit","86","259676","0.0-47.0-0.0","69469015","wem/bandit_either_3","A1L3937MY09J3I","either","1","144","","","","","","","0","1","0","","0.9244273404","0.4","0.6","0.2","0.8","0.9244273404","0.5595739282","0.6184433593","0.822103072","","","","","","","","","","","","72","H","0","img/none_selected.jpg","","7","main_expt",""
"","bandit","87","261473","0.0-48.0-0.0","69469015","wem/bandit_either_3","A1L3937MY09J3I","either","1","285","","","","","","","1","0","0","0.8176183596","","0.4","0.6","0.2","0.8","","","","","0.9214665689","0.5757792393","0.5380809204","0.8176183596","","","","","","","","76","L","3","","","8","main_expt",""
"","bandit","88","262984","0.0-49.0-0.0","69469015","wem/bandit_either_3","A1L3937MY09J3I","either","1","1","","","","","","","1","0","0","0.7421782695","","0.4","0.6","0.2","0.8","","","","","0.9604963414","0.5508288143","0.4884558296","0.7421782695","","","","","","","","76","L","3","","","9","main_expt",""
"","bandit","89","264706","0.0-50.0-0.0","69469015","wem/bandit_either_3","A1L3937MY09J3I","either","1","213","","","","","","","1","0","0","0.7112185725","","0.4","0.6","0.2","0.8","","","","","0.973544224","0.4615344473","0.6062827564","0.7112185725","","","","","","","","76","L","3","","","10","main_expt",""
"","bandit","90","266430","0.0-51.0-0.0","69469015","wem/bandit_either_3","A1L3937MY09J3I","either","1","214","","","","","","","0","0","1","0.6656122322","","0.4","0.6","0.2","0.8","","","","","0.9756729976","0.4731032433","0.6618996933","0.6656122322","","","","","","","","76","L","3","","","11","main_expt",""
"","bandit","91","268060","0.0-52.0-0.0","69469015","wem/bandit_either_3","A1L3937MY09J3I","either","1","120","","","","","","","1","0","0","0.632951522","","0.4","0.6","0.2","0.8","","","","","0.9824084628","0.5028989732","0.6589688621","0.632951522","","","","","","","","76","L","3","","","12","main_expt",""
"","bandit","92","269869","0.0-53.0-0.0","69469015","wem/bandit_either_3","A1L3937MY09J3I","either","1","298","","","","","","","0","0","1","0.6428643634","","0.4","0.6","0.2","0.8","","","","","0.9852841122","0.5252386458","0.7483501345","0.6428643634","","","","","","","","76","L","3","","","13","main_expt",""
"","bandit","93","271538","0.0-54.0-0.0","69469015","wem/bandit_either_3","A1L3937MY09J3I","either","1","159","","","","","","","1","0","0","0.5693663763","","0.4","0.6","0.2","0.8","","","","","0.9844185579","0.4883642101","0.7642220585","0.5693663763","","","","","","","","76","L","3","","","14","main_expt",""
"","bandit","94","273668","0.0-55.0-0.0","69469015","wem/bandit_either_3","A1L3937MY09J3I","either","1","621","","","","","","","0","1","0","","0.6354763258","0.4","0.6","0.2","0.8","0.9716790186","0.5125695872","0.8255663415","0.6354763258","","","","","","","","","","","","76","L","3","","","15","main_expt",""
"","bandit","95","276285","0.0-56.0-0.0","69469015","wem/bandit_either_3","A1L3937MY09J3I","either","1","1106","","","","","","","1","0","0","0.6074668868","","0.4","0.6","0.2","0.8","","","","","0.9724226268","0.483313844","0.8262734196","0.6074668868","","","","","","","","76","L","3","","","16","main_expt",""
"","bandit","96","278136","0.0-57.0-0.0","69469015","wem/bandit_either_3","A1L3937MY09J3I","either","1","341","","","","","","","0","1","0","","0.634379517","0.4","0.6","0.2","0.8","0.969397438","0.4764119597","0.8957105494","0.634379517","","","","","","","","","","","","76","L","3","","","17","main_expt",""
"","bandit","97","279758","0.0-58.0-0.0","69469015","wem/bandit_either_3","A1L3937MY09J3I","either","1","113","","","","","","","0","0","1","","0.7399013172","0.4","0.6","0.2","0.8","0.9487821198","0.4742144938","0.8243017832","0.7399013172","","","","","","","","","","","","76","L","3","","","18","main_expt",""
"","bandit","98","281606","0.0-59.0-0.0","69469015","wem/bandit_either_3","A1L3937MY09J3I","either","1","335","","","","","","","1","0","0","0.6892422428","","0.4","0.6","0.2","0.8","","","","","0.8822386923","0.5445729057","0.8174393347","0.6892422428","","","","","","","","76","L","3","","","19","main_expt",""
"","bandit","99","283682","0.0-60.0-0.0","69469015","wem/bandit_either_3","A1L3937MY09J3I","either","1","562","","","","","","","0","0","1","","0.5544472153","0.4","0.6","0.2","0.8","0.8658452863","0.5114357523","0.8457625901","0.5544472153","","","","","","","","","","","","76","L","3","","","20","main_expt",""
"","bandit","100","285963","0.0-61.0-0.0","69469015","wem/bandit_either_3","A1L3937MY09J3I","either","1","764","","","","","","","1","0","0","0.4705077418","","0.4","0.6","0.2","0.8","","","","","0.8597265301","0.4948626968","0.8565453533","0.4705077418","","","","","","","","76","L","3","","","21","main_expt",""
"","bandit","101","288165","0.0-62.0-0.0","69469015","wem/bandit_either_3","A1L3937MY09J3I","either","1","691","","","","","","","1","0","0","0.5364913494","","0.4","0.6","0.2","0.8","","","","","0.929530396","0.3750889156","0.8821281293","0.5364913494","","","","","","","","76","L","3","","","22","main_expt",""
"","bandit","102","290077","0.0-63.0-0.0","69469015","wem/bandit_either_3","A1L3937MY09J3I","either","1","401","","","","","","","0","0","1","0.5450887529","","0.4","0.6","0.2","0.8","","","","","0.9149061772","0.3874093852","0.8253896901","0.5450887529","","","","","","","","76","L","3","","","23","main_expt",""
"","bandit","103","291634","0.0-64.0-0.0","69469015","wem/bandit_either_3","A1L3937MY09J3I","either","1","45","","","","","","","0","0","1","","0.6013055931","0.4","0.6","0.2","0.8","0.9389899916","0.4126546177","0.8682133559","0.6013055931","","","","","","","","","","","","76","L","3","","","24","main_expt",""
"","bandit","104","293390","0.0-65.0-0.0","69469015","wem/bandit_either_3","A1L3937MY09J3I","either","1","247","","","","","","","1","0","0","0.7116226269","","0.4","0.6","0.2","0.8","","","","","0.9583062328","0.3871809826","0.8186134727","0.7116226269","","","","","","","","76","L","3","","","25","main_expt",""
"","bandit","105","295160","0.0-66.0-0.0","69469015","wem/bandit_either_3","A1L3937MY09J3I","either","1","259","","","","","","","1","0","0","0.7284905038","","0.4","0.6","0.2","0.8","","","","","0.9349434311","0.4162773602","0.841170918","0.7284905038","","","","","","","","76","L","3","","","26","main_expt",""
"","bandit","106","296927","0.0-67.0-0.0","69469015","wem/bandit_either_3","A1L3937MY09J3I","either","1","255","","","","","","","0","0","1","0.7007901837","","0.4","0.6","0.2","0.8","","","","","0.9147743466","0.4153433109","0.8332298301","0.7007901837","","","","","","","","76","L","3","","","27","main_expt",""
"","bandit","107","298581","0.0-68.0-0.0","69469015","wem/bandit_either_3","A1L3937MY09J3I","either","1","143","","","","","","","1","0","0","0.7197690037","","0.4","0.6","0.2","0.8","","","","","0.8913744663","0.3083156359","0.8340804883","0.7197690037","","","","","","","","76","L","3","","","28","main_expt",""
"","bandit","108","300357","0.0-69.0-0.0","69469015","wem/bandit_either_3","A1L3937MY09J3I","either","1","263","","","","","","","1","0","0","0.7569205749","","0.4","0.6","0.2","0.8","","","","","0.9004815278","0.4048150761","0.8800986549","0.7569205749","","","","","","","","76","L","3","","","29","main_expt",""
"","bandit","109","302145","0.0-70.0-0.0","69469015","wem/bandit_either_3","A1L3937MY09J3I","either","1","279","","","","","","","0","1","0","","0.7007062976","0.4","0.6","0.2","0.8","0.8335499875","0.5604470694","0.800988266","0.7007062976","","","","","","","","","","","","76","L","3","","","30","main_expt",""
"","bandit","110","303663","0.0-71.0-0.0","69469015","wem/bandit_either_3","A1L3937MY09J3I","either","1","5","","","","","","","0","1","0","","0.6218809145","0.4","0.6","0.2","0.8","0.7904098286","0.5114456598","0.8092707987","0.6218809145","","","","","","","","","","","","76","L","3","","","31","main_expt",""
"","bandit","111","305426","0.0-72.0-0.0","69469015","wem/bandit_either_3","A1L3937MY09J3I","either","1","252","","","","","","","1","0","0","0.5448888872","","0.4","0.6","0.2","0.8","","","","","0.8156470634","0.5195843055","0.7600689364","0.5448888872","","","","","","","","76","L","3","","","32","main_expt",""
"","bandit","112","307296","0.0-73.0-0.0","69469015","wem/bandit_either_3","A1L3937MY09J3I","either","1","359","","","","","","","0","0","1","","0.4396040002","0.4","0.6","0.2","0.8","0.7458483223","0.4278216128","0.7268405739","0.4396040002","","","","","","","","","","","","76","L","3","","","33","main_expt",""
"","bandit","113","309227","0.0-74.0-0.0","69469015","wem/bandit_either_3","A1L3937MY09J3I","either","1","420","","","","","","","0","1","0","","0.3418027302","0.4","0.6","0.2","0.8","0.8745519215","0.4581725564","0.7867385379","0.3418027302","","","","","","","","","","","","76","L","3","","","34","main_expt",""
"","bandit","114","310994","0.0-75.0-0.0","69469015","wem/bandit_either_3","A1L3937MY09J3I","either","1","256","","","","","","","0","0","1","0.3770378826","","0.4","0.6","0.2","0.8","","","","","0.8761773117","0.5170179058","0.7776722478","0.3770378826","","","","","","","","76","L","3","","","35","main_expt",""
"","bandit","115","312724","0.0-76.0-0.0","69469015","wem/bandit_either_3","A1L3937MY09J3I","either","1","217","","","","","","","1","0","0","0.8110731924","","0.4","0.6","0.2","0.8","","","","","0.8898579413","0.5761285305","0.8110731924","0.3264650107","","","","","","","","75","K","2","","","36","main_expt",""
"","bandit","116","314464","0.0-77.0-0.0","69469015","wem/bandit_either_3","A1L3937MY09J3I","either","1","230","","","","","","","1","0","0","0.8371501114","","0.4","0.6","0.2","0.8","","","","","0.9189960073","0.5824592389","0.8371501114","0.1696248696","","","","","","","","75","K","2","","","37","main_expt",""
"","bandit","117","316497","0.0-78.0-0.0","69469015","wem/bandit_either_3","A1L3937MY09J3I","either","1","522","","","","","","","0","1","0","","0.801984358","0.4","0.6","0.2","0.8","0.9429067042","0.5039158184","0.801984358","0.3008725236","","","","","","","","","","","","75","K","2","","","38","main_expt",""
"","bandit","118","318355","0.0-79.0-0.0","69469015","wem/bandit_either_3","A1L3937MY09J3I","either","1","342","","","","","","","0","0","1","0.836760671","","0.4","0.6","0.2","0.8","","","","","0.8860185862","0.4906961915","0.836760671","0.3612597963","","","","","","","","75","K","2","","","39","main_expt",""
"","bandit","119","320294","0.0-80.0-0.0","69469015","wem/bandit_either_3","A1L3937MY09J3I","either","1","427","","","","","","","0","1","0","","0.7930168878","0.4","0.6","0.2","0.8","0.8958725565","0.5118773476","0.7930168878","0.3316001813","","","","","","","","","","","","75","K","2","","","40","main_expt",""
"","bandit","120","321901","0.0-81.0-0.0","69469015","wem/bandit_either_3","A1L3937MY09J3I","either","1","96","","","","","","","1","0","0","0.5207000815","","0.4","0.6","0.2","0.8","","","","","0.8369757826","0.5207000815","0.6758505439","0.251761063","","","","","","","","74","J","1","","","41","main_expt",""
"","bandit","121","323516","0.0-82.0-0.0","69469015","wem/bandit_either_3","A1L3937MY09J3I","either","1","99","","","","","","","0","0","1","0.6208632684","","0.4","0.6","0.2","0.8","","","","","0.8724413244","0.6208632684","0.669091732","0.3764367217","","","","","","","","74","J","1","","","42","main_expt",""
"","bandit","122","325263","0.0-83.0-0.0","69469015","wem/bandit_either_3","A1L3937MY09J3I","either","1","236","","","","","","","0","0","1","0.6736877605","","0.4","0.6","0.2","0.8","","","","","0.8721156492","0.6736877605","0.5774386383","0.4280411123","","","","","","","","74","J","1","","","43","main_expt",""
"","bandit","123","327029","0.0-84.0-0.0","69469015","wem/bandit_either_3","A1L3937MY09J3I","either","1","252","","","","","","","0","1","0","","0.6770598463","0.4","0.6","0.2","0.8","0.874486911","0.6770598463","0.5402750746","0.4250007774","","","","","","","","","","","","74","J","1","","","44","main_expt",""
"","bandit","124","328769","0.0-85.0-0.0","69469015","wem/bandit_either_3","A1L3937MY09J3I","either","1","227","","","","","","","0","1","0","","0.7653026016","0.4","0.6","0.2","0.8","0.7653026016","0.6811336834","0.4769525635","0.3964774122","","","","","","","","","","","","72","H","0","img/none_selected.jpg","","45","main_expt",""
"","bandit","125","330503","0.0-86.0-0.0","69469015","wem/bandit_either_3","A1L3937MY09J3I","either","1","222","","","","","","","0","0","1","","0.6884850605","0.4","0.6","0.2","0.8","0.6884850605","0.7409040253","0.460739512","0.3755541509","","","","","","","","","","","","72","H","0","img/none_selected.jpg","","46","main_expt",""
"","bandit","126","332304","0.0-87.0-0.0","69469015","wem/bandit_either_3","A1L3937MY09J3I","either","1","288","","","","","","","0","1","0","","0.6869729855","0.4","0.6","0.2","0.8","0.6869729855","0.8602274841","0.3953603582","0.3698766084","","","","","","","","","","","","72","H","0","img/none_selected.jpg","","47","main_expt",""
"","bandit","127","334023","0.0-88.0-0.0","69469015","wem/bandit_either_3","A1L3937MY09J3I","either","1","207","","","","","","","0","0","1","","0.2924141828","0.4","0.6","0.2","0.8","0.624749708","0.8947369126","0.5194217752","0.2924141828","","","","","","","","","","","","76","L","3","","","48","main_expt",""
"","bandit","128","335843","0.0-89.0-0.0","69469015","wem/bandit_either_3","A1L3937MY09J3I","either","1","308","","","","","","","0","0","1","","0.2506794134","0.4","0.6","0.2","0.8","0.6269608649","0.9071052574","0.5015721984","0.2506794134","","","","","","","","","","","","76","L","3","","","49","main_expt",""
"","bandit","129","337656","0.0-90.0-0.0","69469015","wem/bandit_either_3","A1L3937MY09J3I","either","1","300","","","","","","","0","0","1","","0.2200095001","0.4","0.6","0.2","0.8","0.5394470416","0.8569531155","0.4427204185","0.2200095001","","","","","","","","","","","","76","L","3","","","50","main_expt",""
"","bandit","130","339404","0.0-91.0-0.0","69469015","wem/bandit_either_3","A1L3937MY09J3I","either","1","237","","","","","","","0","1","0","","0.5194544998","0.4","0.6","0.2","0.8","0.4991806479","0.8728609703","0.5194544998","0.2703780474","","","","","","","","","","","","75","K","2","","","51","main_expt",""
"","bandit","131","341162","0.0-92.0-0.0","69469015","wem/bandit_either_3","A1L3937MY09J3I","either","1","244","","","","","","","1","0","0","0.4420680866","","0.4","0.6","0.2","0.8","","","","","0.5431464126","0.902184381","0.4420680866","0.3215640211","","","","","","","","75","K","2","","","52","main_expt",""
"","bandit","132","342763","0.0-93.0-0.0","69469015","wem/bandit_either_3","A1L3937MY09J3I","either","1","90","","","","","","","0","1","0","","0.5541791803","0.4","0.6","0.2","0.8","0.4799783957","0.8975054296","0.5541791803","0.2918797996","","","","","","","","","","","","75","K","2","","","53","main_expt",""
"","bandit","133","344483","0.0-94.0-0.0","69469015","wem/bandit_either_3","A1L3937MY09J3I","either","1","209","","","","","","","0","1","0","","0.6187664305","0.4","0.6","0.2","0.8","0.3946877269","0.9436546011","0.6187664305","0.2432815539","","","","","","","","","","","","75","K","2","","","54","main_expt",""
"","bandit","134","346314","0.0-95.0-0.0","69469015","wem/bandit_either_3","A1L3937MY09J3I","either","1","319","","","","","","","0","1","0","","0.538030076","0.4","0.6","0.2","0.8","0.3892466866","0.9411334538","0.538030076","0.1993500609","","","","","","","","","","","","75","K","2","","","55","main_expt",""
"","bandit","135","347987","0.0-96.0-0.0","69469015","wem/bandit_either_3","A1L3937MY09J3I","either","1","162","","","","","","","0","1","0","","0.862285227","0.4","0.6","0.2","0.8","0.347268188","0.862285227","0.5137881872","0.1832364248","","","","","","","","","","","","74","J","1","","","56","main_expt",""
"","bandit","136","349740","0.0-97.0-0.0","69469015","wem/bandit_either_3","A1L3937MY09J3I","either","1","243","","","","","","","0","0","1","","0.9034803314","0.4","0.6","0.2","0.8","0.3462231845","0.9034803314","0.6274604021","0.1703919496","","","","","","","","","","","","74","J","1","","","57","main_expt",""
"","bandit","137","351450","0.0-98.0-0.0","69469015","wem/bandit_either_3","A1L3937MY09J3I","either","1","198","","","","","","","1","0","0","0.9062052911","","0.4","0.6","0.2","0.8","","","","","0.3707442777","0.9062052911","0.5636132077","0.2146973212","","","","","","","","74","J","1","","","58","main_expt",""
"","bandit","138","353157","0.0-99.0-0.0","69469015","wem/bandit_either_3","A1L3937MY09J3I","either","1","195","","","","","","","1","0","0","0.9169546289","","0.4","0.6","0.2","0.8","","","","","0.4530366532","0.9169546289","0.6555757088","0.2118107272","","","","","","","","74","J","1","","","59","main_expt",""
"","bandit","139","354944","0.0-100.0-0.0","69469015","wem/bandit_either_3","A1L3937MY09J3I","either","1","276","","","","","","","1","0","0","0.9048679239","","0.4","0.6","0.2","0.8","","","","","0.4335409142","0.9048679239","0.6555481193","0.2096036334","","","","","","","","74","J","1","","","60","main_expt",""
"","bandit","140","356784","0.0-101.0-0.0","69469015","wem/bandit_either_3","A1L3937MY09J3I","either","1","327","","","","","","","0","1","0","","0.9346572725","0.4","0.6","0.2","0.8","0.3601573371","0.9346572725","0.6988977931","0.1985607356","","","","","","","","","","","","74","J","1","","","61","main_expt",""
"","bandit","141","358409","0.0-102.0-0.0","69469015","wem/bandit_either_3","A1L3937MY09J3I","either","1","111","","","","","","","0","0","1","0.9332729597","","0.4","0.6","0.2","0.8","","","","","0.3187004912","0.9332729597","0.6124712875","0.2352246004","","","","","","","","74","J","1","","","62","main_expt",""
"","bandit","142","360099","0.0-103.0-0.0","69469015","wem/bandit_either_3","A1L3937MY09J3I","either","1","176","","","","","","","1","0","0","0.9300142507","","0.4","0.6","0.2","0.8","","","","","0.331276396","0.9300142507","0.4881994696","0.1989126294","","","","","","","","74","J","1","","","63","main_expt",""
"","bandit","143","362111","0.0-104.0-0.0","69469015","wem/bandit_either_3","A1L3937MY09J3I","either","1","499","","","","","","","0","1","0","","0.8992917639","0.4","0.6","0.2","0.8","0.3984677","0.8992917639","0.5007509184","0.2231035509","","","","","","","","","","","","74","J","1","","","64","main_expt",""
"","bandit","144","363979","0.0-105.0-0.0","69469015","wem/bandit_either_3","A1L3937MY09J3I","either","1","355","","","","","","","1","0","0","0.7939475476","","0.4","0.6","0.2","0.8","","","","","0.3012021372","0.7939475476","0.6077525222","0.174077904","","","","","","","","74","J","1","","","65","main_expt",""
"","bandit","145","365826","0.0-106.0-0.0","69469015","wem/bandit_either_3","A1L3937MY09J3I","either","1","335","","","","","","","1","0","0","0.7848839068","","0.4","0.6","0.2","0.8","","","","","0.2848395029","0.7848839068","0.4876759876","0.1505104035","","","","","","","","74","J","1","","","66","main_expt",""
"","bandit","146","369349","0.0-107.0-0.0","69469015","wem/bandit_either_3","A1L3937MY09J3I","either","1","2009","","","","","","","0","1","0","","0.7712869283","0.4","0.6","0.2","0.8","0.2908363747","0.7712869283","0.4705728971","0.1706094741","","","","","","","","","","","","74","J","1","","","67","main_expt",""
"","bandit","147","374964","0.0-108.0-0.0","69469015","wem/bandit_either_3","A1L3937MY09J3I","either","1","4105","","","","","","","0","0","1","0.7426915226","","0.4","0.6","0.2","0.8","","","","","0.3226378352","0.7426915226","0.5822594153","0.193375558","","","","","","","","74","J","1","","","68","main_expt",""
"","bandit","148","376477","0.0-109.0-0.0","69469015","wem/bandit_either_3","A1L3937MY09J3I","either","1","1","","","","","","","0","1","0","","0.592712881","0.4","0.6","0.2","0.8","0.4490581071","0.592712881","0.6189715015","0.226811003","","","","","","","","","","","","74","J","1","","","69","main_expt",""
"","bandit","149","378232","0.0-110.0-0.0","69469015","wem/bandit_either_3","A1L3937MY09J3I","either","1","242","","","","","","","1","0","0","0.6587085967","","0.4","0.6","0.2","0.8","","","","","0.42365523","0.6587085967","0.5307799745","0.191142909","","","","","","","","74","J","1","","","70","main_expt",""
"","bandit","150","379947","0.0-111.0-0.0","69469015","wem/bandit_either_3","A1L3937MY09J3I","either","1","201","","","","","","","0","1","0","","0.7562029562","0.4","0.6","0.2","0.8","0.427101634","0.7562029562","0.5205551237","0.2371486809","","","","","","","","","","","","74","J","1","","","71","main_expt",""
"","bandit","151","381464","0.0-112.0-0.0","69469015","wem/bandit_either_3","A1L3937MY09J3I","either","1","4","","","","","","","1","0","0","0.670676276","","0.4","0.6","0.2","0.8","","","","","0.5387899421","0.670676276","0.5913901284","0.2602117984","","","","","","","","74","J","1","","","72","main_expt",""
"","bandit","152","383226","0.0-113.0-0.0","69469015","wem/bandit_either_3","A1L3937MY09J3I","either","1","249","","","","","","","0","1","0","","0.6870219419","0.4","0.6","0.2","0.8","0.4931252492","0.6870219419","0.7127465592","0.1837165363","","","","","","","","","","","","74","J","1","","","73","main_expt",""
"","bandit","153","384977","0.0-114.0-0.0","69469015","wem/bandit_either_3","A1L3937MY09J3I","either","1","238","","","","","","","0","0","1","0.582898469","","0.4","0.6","0.2","0.8","","","","","0.3888626504","0.582898469","0.7804212289","0.2032334464","","","","","","","","74","J","1","","","74","main_expt",""
"","bandit","154","386621","0.0-115.0-0.0","69469015","wem/bandit_either_3","A1L3937MY09J3I","either","1","131","","","","","","","0","1","0","","0.6452442043","0.4","0.6","0.2","0.8","0.3866429177","0.6452442043","0.7966502287","0.2782751631","","","","","","","","","","","","74","J","1","","","75","main_expt",""
"","bandit","155","388285","0.0-116.0-0.0","69469015","wem/bandit_either_3","A1L3937MY09J3I","either","1","152","","","","","","","0","0","1","0.3948468247","","0.4","0.6","0.2","0.8","","","","","0.3948468247","0.7031137023","0.7775959854","0.3318782676","","","","","","","","72","H","0","img/none_selected.jpg","","76","main_expt",""
"","bandit","156","390019","0.0-117.0-0.0","69469015","wem/bandit_either_3","A1L3937MY09J3I","either","1","219","","","","","","","0","0","1","","0.4853082722","0.4","0.6","0.2","0.8","0.4853082722","0.6096498107","0.8523583745","0.312607664","","","","","","","","","","","","72","H","0","img/none_selected.jpg","","77","main_expt",""
"","bandit","157","391808","0.0-118.0-0.0","69469015","wem/bandit_either_3","A1L3937MY09J3I","either","1","275","","","","","","","0","1","0","","0.4971609959","0.4","0.6","0.2","0.8","0.4971609959","0.532302087","0.7707034136","0.3250695504","","","","","","","","","","","","72","H","0","img/none_selected.jpg","","78","main_expt",""
"","bandit","158","393799","0.0-119.0-0.0","69469015","wem/bandit_either_3","A1L3937MY09J3I","either","1","480","","","","","","","0","0","1","","0.277144637","0.4","0.6","0.2","0.8","0.5349041547","0.4448734945","0.7919080975","0.277144637","","","","","","","","","","","","76","L","3","","","79","main_expt",""
"","bandit","159","395543","0.0-120.0-0.0","69469015","wem/bandit_either_3","A1L3937MY09J3I","either","1","231","","","","","","","0","0","1","0.293018971","","0.4","0.6","0.2","0.8","","","","","0.4713204996","0.34513516","0.8107458935","0.293018971","","","","","","","","76","L","3","","","80","main_expt",""
"","bandit","160","397316","0.0-121.0-0.0","69469015","wem/bandit_either_3","A1L3937MY09J3I","either","1","261","","","","","","","0","0","1","0.2730851157","","0.4","0.6","0.2","0.8","","","","","0.4132476049","0.406584365","0.7851591746","0.2730851157","","","","","","","","76","L","3","","","81","main_expt",""
"","bandit","161","399073","0.0-122.0-0.0","69469015","wem/bandit_either_3","A1L3937MY09J3I","either","1","243","","","","","","","0","0","1","","0.8067558171","0.4","0.6","0.2","0.8","0.4640808921","0.5068312928","0.8067558171","0.2436011542","","","","","","","","","","","","75","K","2","","","82","main_expt",""
"","bandit","162","400879","0.0-123.0-0.0","69469015","wem/bandit_either_3","A1L3937MY09J3I","either","1","294","","","","","","","0","1","0","","0.7777816444","0.4","0.6","0.2","0.8","0.442115463","0.5209063211","0.7777816444","0.2009218657","","","","","","","","","","","","75","K","2","","","83","main_expt",""
"","bandit","163","402430","0.0-124.0-0.0","69469015","wem/bandit_either_3","A1L3937MY09J3I","either","1","39","","","","","","","0","1","0","","0.7801041195","0.4","0.6","0.2","0.8","0.5117806844","0.6221591745","0.7801041195","0.1550904625","","","","","","","","","","","","75","K","2","","","84","main_expt",""
"","bandit","164","404125","0.0-125.0-0.0","69469015","wem/bandit_either_3","A1L3937MY09J3I","either","1","180","","","","","","","1","0","0","0.6939346182","","0.4","0.6","0.2","0.8","","","","","0.5309627618","0.6939346182","0.7593249252","0.1193398435","","","","","","","","74","J","1","","","85","main_expt",""
"","bandit","165","405880","0.0-126.0-0.0","69469015","wem/bandit_either_3","A1L3937MY09J3I","either","1","242","","","","","","","0","0","1","","0.7533471596","0.4","0.6","0.2","0.8","0.5482659382","0.7533471596","0.7911667705","0.1398572341","","","","","","","","","","","","74","J","1","","","86","main_expt",""
"","bandit","166","408277","0.0-127.0-0.0","69469015","wem/bandit_either_3","A1L3937MY09J3I","either","1","885","","","","","","","1","0","0","0.8040573679","","0.4","0.6","0.2","0.8","","","","","0.4772076429","0.8040573679","0.8480662183","0.1941505275","","","","","","","","74","J","1","","","87","main_expt",""
"","bandit","167","410295","0.0-128.0-0.0","69469015","wem/bandit_either_3","A1L3937MY09J3I","either","1","505","","","","","","","0","0","1","0.7800800897","","0.4","0.6","0.2","0.8","","","","","0.5202977678","0.7800800897","0.8110462569","0.09645570925","","","","","","","","74","J","1","","","88","main_expt",""
"","bandit","168","411937","0.0-129.0-0.0","69469015","wem/bandit_either_3","A1L3937MY09J3I","either","1","128","","","","","","","0","0","1","","0.7329239748","0.4","0.6","0.2","0.8","0.4970482359","0.7329239748","0.7924414871","0.1304326216","","","","","","","","","","","","74","J","1","","","89","main_expt",""
"","bandit","169","413568","0.0-130.0-0.0","69469015","wem/bandit_either_3","A1L3937MY09J3I","either","1","120","","","","","","","0","1","0","","0.7202813078","0.4","0.6","0.2","0.8","0.4671205494","0.7202813078","0.8190855249","0.1410434261","","","","","","","","","","","","74","J","1","","","90","main_expt",""
"","bandit","170","415202","0.0-131.0-0.0","69469015","wem/bandit_either_3","A1L3937MY09J3I","either","1","121","","","","","","","0","0","1","0.5518401665","","0.4","0.6","0.2","0.8","","","","","0.5518401665","0.698586111","0.858270253","0.1277095213","","","","","","","","72","H","0","img/none_selected.jpg","","91","main_expt",""
"","bandit","171","416993","0.0-132.0-0.0","69469015","wem/bandit_either_3","A1L3937MY09J3I","either","1","277","","","","","","","1","0","0","0.620788192","","0.4","0.6","0.2","0.8","","","","","0.620788192","0.6054304462","0.8583259383","0.08596821216","","","","","","","","72","H","0","img/none_selected.jpg","","92","main_expt",""
"","bandit","172","418771","0.0-133.0-0.0","69469015","wem/bandit_either_3","A1L3937MY09J3I","either","1","263","","","","","","","1","0","0","0.679669404","","0.4","0.6","0.2","0.8","","","","","0.679669404","0.6829204303","0.8335107661","0.05652587691","","","","","","","","72","H","0","img/none_selected.jpg","","93","main_expt",""
"","bandit","173","420617","0.0-134.0-0.0","69469015","wem/bandit_either_3","A1L3937MY09J3I","either","1","331","","","","","","","0","0","1","","0.6726581754","0.4","0.6","0.2","0.8","0.6726581754","0.6084783934","0.8849423118","0.07490457358","","","","","","","","","","","","72","H","0","img/none_selected.jpg","","94","main_expt",""
"","bandit","174","422440","0.0-135.0-0.0","69469015","wem/bandit_either_3","A1L3937MY09J3I","either","1","311","","","","","","","0","0","1","","0.5983950962","0.4","0.6","0.2","0.8","0.5983950962","0.51962455","0.9175662658","0.05201682933","","","","","","","","","","","","72","H","0","img/none_selected.jpg","","95","main_expt",""
"","bandit","175","424219","0.0-136.0-0.0","69469015","wem/bandit_either_3","A1L3937MY09J3I","either","1","263","","","","","","","0","0","1","","0.6316158747","0.4","0.6","0.2","0.8","0.6316158747","0.453067158","0.8726153548","0.0353667714","","","","","","","","","","","","72","H","0","img/none_selected.jpg","","96","main_expt",""
"","bandit","176","426011","0.0-137.0-0.0","69469015","wem/bandit_either_3","A1L3937MY09J3I","either","1","279","","","","","","","0","0","1","","0.6660601513","0.4","0.6","0.2","0.8","0.6660601513","0.4090095009","0.7260562137","0.04301306848","","","","","","","","","","","","72","H","0","img/none_selected.jpg","","97","main_expt",""
"","bandit","177","427821","0.0-138.0-0.0","69469015","wem/bandit_either_3","A1L3937MY09J3I","either","1","295","","","","","","","0","0","1","","0.6185462561","0.4","0.6","0.2","0.8","0.6185462561","0.360727585","0.6506148609","0.03950067624","","","","","","","","","","","","72","H","0","img/none_selected.jpg","","98","main_expt",""
"","bandit","178","429532","0.0-139.0-0.0","69469015","wem/bandit_either_3","A1L3937MY09J3I","either","1","195","","","","","","","0","0","1","","0.581128502","0.4","0.6","0.2","0.8","0.581128502","0.3351327477","0.5816342488","0.03156699585","","","","","","","","","","","","72","H","0","img/none_selected.jpg","","99","main_expt",""
"","bandit","179","431279","0.0-140.0-0.0","69469015","wem/bandit_either_3","A1L3937MY09J3I","either","1","233","","","","","","","0","0","1","","0.0248161238","0.4","0.6","0.2","0.8","0.479775063","0.3491912274","0.5521464449","0.0248161238","","","","","","","","","","","","76","L","3","","","100","main_expt",""
"","bandit","180","433283","0.0-141.0-0.0","69469015","wem/bandit_either_3","A1L3937MY09J3I","either","1","494","","","","","","","0","0","1","","0.02218075004","0.4","0.6","0.2","0.8","0.5114647241","0.4105375765","0.6063232436","0.02218075004","","","","","","","","","","","","76","L","3","","","101","main_expt",""
"","bandit","181","435059","0.0-142.0-0.0","69469015","wem/bandit_either_3","A1L3937MY09J3I","either","1","263","","","","","","","0","0","1","0.01802152149","","0.4","0.6","0.2","0.8","","","","","0.4718740674","0.438632671","0.5636213764","0.01802152149","","","","","","","","76","L","3","","","102","main_expt",""
"","bandit","182","436811","0.0-143.0-0.0","69469015","wem/bandit_either_3","A1L3937MY09J3I","either","1","239","","","","","","","0","1","0","","0.372838406","0.4","0.6","0.2","0.8","0.5245129891","0.372838406","0.5370473259","0.01877214671","","","","","","","","","","","","74","J","1","","","103","main_expt",""
"","bandit","183","438646","0.0-144.0-0.0","69469015","wem/bandit_either_3","A1L3937MY09J3I","either","1","322","","","","","","","0","0","1","","0.3057692375","0.4","0.6","0.2","0.8","0.5170751474","0.3057692375","0.549647281","0.01556743346","","","","","","","","","","","","74","J","1","","","104","main_expt",""
"","bandit","184","440451","0.0-145.0-0.0","69469015","wem/bandit_either_3","A1L3937MY09J3I","either","1","290","","","","","","","0","0","1","0.37369274","","0.4","0.6","0.2","0.8","","","","","0.472330124","0.37369274","0.4225976111","0.03717147126","","","","","","","","74","J","1","","","105","main_expt",""
"","bandit","185","442161","0.0-146.0-0.0","69469015","wem/bandit_either_3","A1L3937MY09J3I","either","1","196","","","","","","","0","0","1","","0.5005163425","0.4","0.6","0.2","0.8","0.568133852","0.3179799449","0.5005163425","0.07687033395","","","","","","","","","","","","75","K","2","","","106","main_expt",""
"","bandit","186","443936","0.0-147.0-0.0","69469015","wem/bandit_either_3","A1L3937MY09J3I","either","1","259","","","","","","","0","1","0","","0.3995396385","0.4","0.6","0.2","0.8","0.536018559","0.3053765494","0.3995396385","0.07659049968","","","","","","","","","","","","75","K","2","","","107","main_expt",""
"","bandit","187","445506","0.0-148.0-0.0","69469015","wem/bandit_either_3","A1L3937MY09J3I","either","1","55","","","","","","","0","1","0","","0.3855926336","0.4","0.6","0.2","0.8","0.3880888981","0.2732860947","0.3855926336","0.07827602418","","","","","","","","","","","","75","K","2","","","108","main_expt",""
"","bandit","188","447108","0.0-149.0-0.0","69469015","wem/bandit_either_3","A1L3937MY09J3I","either","1","90","","","","","","","0","0","1","0.3675045314","","0.4","0.6","0.2","0.8","","","","","0.3675045314","0.2624197952","0.3059937163","0.1352418701","","","","","","","","72","H","0","img/none_selected.jpg","","109","main_expt",""
"","bandit","189","448911","0.0-150.0-0.0","69469015","wem/bandit_either_3","A1L3937MY09J3I","either","1","290","","","","","","","0","0","1","0.4560700489","","0.4","0.6","0.2","0.8","","","","","0.4560700489","0.3303210632","0.2752892785","0.1705666919","","","","","","","","72","H","0","img/none_selected.jpg","","110","main_expt",""
"","bandit","190","450703","0.0-151.0-0.0","69469015","wem/bandit_either_3","A1L3937MY09J3I","either","1","279","","","","","","","0","1","0","","0.5366389876","0.4","0.6","0.2","0.8","0.5366389876","0.3541452024","0.3038626008","0.2202970635","","","","","","","","","","","","72","H","0","img/none_selected.jpg","","111","main_expt",""
"","bandit","191","452396","0.0-152.0-0.0","69469015","wem/bandit_either_3","A1L3937MY09J3I","either","1","180","","","","","","","0","0","1","0.2368742277","","0.4","0.6","0.2","0.8","","","","","0.5742054707","0.4468573219","0.2308866464","0.2368742277","","","","","","","","76","L","3","","","112","main_expt",""
"","bandit","192","454360","0.0-153.0-0.0","69469015","wem/bandit_either_3","A1L3937MY09J3I","either","1","450","","","","","","","0","0","1","0.2487241586","","0.4","0.6","0.2","0.8","","","","","0.6014260319","0.5163231944","0.2420052043","0.2487241586","","","","","","","","76","L","3","","","113","main_expt",""
"","bandit","193","456290","0.0-154.0-0.0","69469015","wem/bandit_either_3","A1L3937MY09J3I","either","1","415","","","","","","","1","0","0","0.238824581","","0.4","0.6","0.2","0.8","","","","","0.5398035654","0.4064640458","0.3277817495","0.238824581","","","","","","","","76","L","3","","","114","main_expt",""
"","bandit","194","458099","0.0-155.0-0.0","69469015","wem/bandit_either_3","A1L3937MY09J3I","either","1","296","","","","","","","0","0","1","","0.1480638281","0.4","0.6","0.2","0.8","0.5008208772","0.4085425191","0.3280884562","0.1480638281","","","","","","","","","","","","76","L","3","","","115","main_expt",""
"","bandit","195","459830","0.0-156.0-0.0","69469015","wem/bandit_either_3","A1L3937MY09J3I","either","1","218","","","","","","","0","0","1","0.1246447603","","0.4","0.6","0.2","0.8","","","","","0.4200837231","0.4412864427","0.4137256642","0.1246447603","","","","","","","","76","L","3","","","116","main_expt",""
"","bandit","196","461453","0.0-157.0-0.0","69469015","wem/bandit_either_3","A1L3937MY09J3I","either","1","109","","","","","","","0","0","1","0.1308085784","","0.4","0.6","0.2","0.8","","","","","0.4094987027","0.5188885271","0.372751341","0.1308085784","","","","","","","","76","L","3","","","117","main_expt",""
"","bandit","197","463171","0.0-158.0-0.0","69469015","wem/bandit_either_3","A1L3937MY09J3I","either","1","203","","","","","","","0","1","0","","0.4225631273","0.4","0.6","0.2","0.8","0.3862907493","0.5728151575","0.4225631273","0.09076242324","","","","","","","","","","","","75","K","2","","","118","main_expt",""
"","bandit","198","464719","0.0-159.0-0.0","69469015","wem/bandit_either_3","A1L3937MY09J3I","either","1","34","","","","","","","0","0","1","","0.4188482812","0.4","0.6","0.2","0.8","0.4437318585","0.5065624602","0.4188482812","0.09057925276","","","","","","","","","","","","75","K","2","","","119","main_expt",""
"","bandit","199","466514","0.0-160.0-0.0","69469015","wem/bandit_either_3","A1L3937MY09J3I","either","1","281","","","","","","","1","0","0","0.3729077829","","0.4","0.6","0.2","0.8","","","","","0.293469011","0.4064427813","0.3729077829","0.1288926122","","","","","","","","75","K","2","","","120","main_expt",""
"","bandit","200","468148","0.0-161.0-0.0","69469015","wem/bandit_either_3","A1L3937MY09J3I","either","1","118","","","","","","","0","0","1","0.3817262037","","0.4","0.6","0.2","0.8","","","","","0.2141601759","0.3948988447","0.3817262037","0.1479701512","","","","","","","","75","K","2","","","121","main_expt",""
"","bandit","201","470007","0.0-162.0-0.0","69469015","wem/bandit_either_3","A1L3937MY09J3I","either","1","345","","","","","","","0","0","1","","0.3537210734","0.4","0.6","0.2","0.8","0.2594293103","0.316823658","0.3537210734","0.1663524813","","","","","","","","","","","","75","K","2","","","122","main_expt",""
"","bandit","202","471770","0.0-163.0-0.0","69469015","wem/bandit_either_3","A1L3937MY09J3I","either","1","249","","","","","","","0","0","1","","0.3633727708","0.4","0.6","0.2","0.8","0.1519240937","0.3045978244","0.3633727708","0.1993917655","","","","","","","","","","","","75","K","2","","","123","main_expt",""
"","bandit","203","473426","0.0-164.0-0.0","69469015","wem/bandit_either_3","A1L3937MY09J3I","either","1","142","","","","","","","0","0","1","","0.2389028675","0.4","0.6","0.2","0.8","0.2311656533","0.2389028675","0.4139908316","0.2948689786","","","","","","","","","","","","74","J","1","","","124","main_expt",""
"","bandit","204","475212","0.0-165.0-0.0","69469015","wem/bandit_either_3","A1L3937MY09J3I","either","1","269","","","","","","","0","0","1","0.2166803268","","0.4","0.6","0.2","0.8","","","","","0.1956748967","0.2166803268","0.3619800754","0.4054398129","","","","","","","","74","J","1","","","125","main_expt",""
"","bandit","205","476928","0.0-166.0-0.0","69469015","wem/bandit_either_3","A1L3937MY09J3I","either","1","203","","","","","","","1","0","0","0.1613674106","","0.4","0.6","0.2","0.8","","","","","0.1419383156","0.1613674106","0.353362548","0.5337661481","","","","","","","","74","J","1","","","126","main_expt",""
"","bandit","206","478703","0.0-167.0-0.0","69469015","wem/bandit_either_3","A1L3937MY09J3I","either","1","255","","","","","","","0","0","1","0.1682412955","","0.4","0.6","0.2","0.8","","","","","0.1768105291","0.1682412955","0.2888217425","0.5510518781","","","","","","","","74","J","1","","","127","main_expt",""
"","bandit","207","480629","0.0-168.0-0.0","69469015","wem/bandit_either_3","A1L3937MY09J3I","either","1","412","","","","","","","0","0","1","0.1655910943","","0.4","0.6","0.2","0.8","","","","","0.1187699492","0.1655910943","0.3131893798","0.4746642732","","","","","","","","74","J","1","","","128","main_expt",""
"","bandit","208","482456","0.0-169.0-0.0","69469015","wem/bandit_either_3","A1L3937MY09J3I","either","1","311","","","","","","","0","0","1","","0.1845506081","0.4","0.6","0.2","0.8","0.1860330609","0.1845506081","0.2826861836","0.5345142674","","","","","","","","","","","","74","J","1","","","129","main_expt",""
"","bandit","209","484326","0.0-170.0-0.0","69469015","wem/bandit_either_3","A1L3937MY09J3I","either","1","357","","","","","","","0","0","1","","0.09722607165","0.4","0.6","0.2","0.8","0.09722607165","0.1548240476","0.3434973012","0.6617219445","","","","","","","","","","","","72","H","0","img/none_selected.jpg","","130","main_expt",""
"","bandit","210","486330","0.0-171.0-0.0","69469015","wem/bandit_either_3","A1L3937MY09J3I","either","1","488","","","","","","","0","0","1","0.05626421391","","0.4","0.6","0.2","0.8","","","","","0.05626421391","0.1503989","0.3848082556","0.6183560712","","","","","","","","72","H","0","img/none_selected.jpg","","131","main_expt",""
"","bandit","211","488126","0.0-172.0-0.0","69469015","wem/bandit_either_3","A1L3937MY09J3I","either","1","281","","","","","","","0","0","1","","0.1149854728","0.4","0.6","0.2","0.8","0.1149854728","0.1199593994","0.4140069858","0.7009512511","","","","","","","","","","","","72","H","0","img/none_selected.jpg","","132","main_expt",""
"","bandit","212","489917","0.0-173.0-0.0","69469015","wem/bandit_either_3","A1L3937MY09J3I","either","1","276","","","","","","","0","1","0","","0.5838974895","0.4","0.6","0.2","0.8","0.1698175541","0.1518383839","0.3745017877","0.5838974895","","","","","","","","","","","","76","L","3","","","133","main_expt",""
"","bandit","213","491690","0.0-174.0-0.0","69469015","wem/bandit_either_3","A1L3937MY09J3I","either","1","260","","","","","","","0","0","1","0.6628563986","","0.4","0.6","0.2","0.8","","","","","0.1925371395","0.1855528241","0.3918835711","0.6628563986","","","","","","","","76","L","3","","","134","main_expt",""
"","bandit","214","493418","0.0-175.0-0.0","69469015","wem/bandit_either_3","A1L3937MY09J3I","either","1","213","","","","","","","0","0","1","","0.5610912218","0.4","0.6","0.2","0.8","0.246136332","0.2187769305","0.3405764209","0.5610912218","","","","","","","","","","","","76","L","3","","","135","main_expt",""
"","bandit","215","495211","0.0-176.0-0.0","69469015","wem/bandit_either_3","A1L3937MY09J3I","either","1","280","","","","","","","0","1","0","","0.4834649218","0.4","0.6","0.2","0.8","0.2277518718","0.2001534018","0.4155430462","0.4834649218","","","","","","","","","","","","76","L","3","","","136","main_expt",""
"","bandit","216","496970","0.0-177.0-0.0","69469015","wem/bandit_either_3","A1L3937MY09J3I","either","1","244","","","","","","","0","1","0","","0.3389252929","0.4","0.6","0.2","0.8","0.252962458","0.176995917","0.3389252929","0.513072369","","","","","","","","","","","","75","K","2","","","137","main_expt",""
"","bandit","217","498852","0.0-178.0-0.0","69469015","wem/bandit_either_3","A1L3937MY09J3I","either","1","368","","","","","","","0","0","1","","0.2698753193","0.4","0.6","0.2","0.8","0.3018696236","0.1460019238","0.2698753193","0.5502636267","","","","","","","","","","","","75","K","2","","","138","main_expt",""
"","bandit","218","500611","0.0-179.0-0.0","69469015","wem/bandit_either_3","A1L3937MY09J3I","either","1","243","","","","","","","0","0","1","","0.2821570394","0.4","0.6","0.2","0.8","0.347353107","0.06707115951","0.2821570394","0.4564922144","","","","","","","","","","","","75","K","2","","","139","main_expt",""
"","bandit","219","502366","0.0-180.0-0.0","69469015","wem/bandit_either_3","A1L3937MY09J3I","either","1","240","","","","","","","0","0","1","","0.1071331831","0.4","0.6","0.2","0.8","0.2477375586","0.1071331831","0.3577533322","0.4116013625","","","","","","","","","","","","74","J","1","","","140","main_expt",""
"","bandit","220","504452","0.0-181.0-0.0","69469015","wem/bandit_either_3","A1L3937MY09J3I","either","1","571","","","","","","","0","0","1","","0.1224459691","0.4","0.6","0.2","0.8","0.2880826197","0.1224459691","0.4250900652","0.4498847811","","","","","","","","","","","","74","J","1","","","141","main_expt",""
"","bandit","221","506274","0.0-182.0-0.0","69469015","wem/bandit_either_3","A1L3937MY09J3I","either","1","306","","","","","","","0","0","1","","0.1127900777","0.4","0.6","0.2","0.8","0.2287108423","0.1127900777","0.3451055681","0.4822150968","","","","","","","","","","","","74","J","1","","","142","main_expt",""
"","bandit","222","508049","0.0-183.0-0.0","69469015","wem/bandit_either_3","A1L3937MY09J3I","either","1","258","","","","","","","0","0","1","","0.2096850542","0.4","0.6","0.2","0.8","0.2096850542","0.1736101882","0.4661026996","0.513506041","","","","","","","","","","","","72","H","0","img/none_selected.jpg","","143","main_expt",""
"","bandit","223","509946","0.0-184.0-0.0","69469015","wem/bandit_either_3","A1L3937MY09J3I","either","1","385","","","","","","","0","0","1","","0.2214165798","0.4","0.6","0.2","0.8","0.2214165798","0.1231714597","0.4683168179","0.556822441","","","","","","","","","","","","72","H","0","img/none_selected.jpg","","144","main_expt",""
"","bandit","224","511945","0.0-185.0-0.0","69469015","wem/bandit_either_3","A1L3937MY09J3I","either","1","483","","","","","","","0","0","1","0.2412424024","","0.4","0.6","0.2","0.8","","","","","0.2412424024","0.10514291","0.448697065","0.5633269006","","","","","","","","72","H","0","img/none_selected.jpg","","145","main_expt",""
"","bandit","225","513713","0.0-186.0-0.0","69469015","wem/bandit_either_3","A1L3937MY09J3I","either","1","255","","","","","","","0","0","1","0.6482805244","","0.4","0.6","0.2","0.8","","","","","0.1841611904","0.0972381369","0.4560677512","0.6482805244","","","","","","","","76","L","3","","","146","main_expt",""
"","bandit","226","515492","0.0-187.0-0.0","69469015","wem/bandit_either_3","A1L3937MY09J3I","either","1","265","","","","","","","1","0","0","0.6036290043","","0.4","0.6","0.2","0.8","","","","","0.1577922033","0.1897119627","0.513472809","0.6036290043","","","","","","","","76","L","3","","","147","main_expt",""
"","bandit","227","517289","0.0-188.0-0.0","69469015","wem/bandit_either_3","A1L3937MY09J3I","either","1","283","","","","","","","0","0","1","0.6110248825","","0.4","0.6","0.2","0.8","","","","","0.1663963597","0.1759094881","0.3820674583","0.6110248825","","","","","","","","76","L","3","","","148","main_expt",""
"","bandit","228","519033","0.0-189.0-0.0","69469015","wem/bandit_either_3","A1L3937MY09J3I","either","1","227","","","","","","","1","0","0","0.6453676348","","0.4","0.6","0.2","0.8","","","","","0.319747154","0.2204336569","0.3116557105","0.6453676348","","","","","","","","76","L","3","","","149","main_expt",""
"","bandit","229","520838","0.0-190.0-0.0","69469015","wem/bandit_either_3","A1L3937MY09J3I","either","1","291","","","","","","","1","0","0","0.66235511","","0.4","0.6","0.2","0.8","","","","","0.5410110608","0.2328853871","0.3039338698","0.66235511","","","","","","","","76","L","3","","","150","main_expt",""
"","bandit","230","522740","0.0-191.0-0.0","69469015","wem/bandit_either_3","A1L3937MY09J3I","either","1","386","","","","","","","1","0","0","0.5547575852","","0.4","0.6","0.2","0.8","","","","","0.5584745132","0.2652525627","0.3092958796","0.5547575852","","","","","","","","76","L","3","","","151","main_expt",""
"","bandit","231","525035","0.0-192.0-0.0","69469015","wem/bandit_either_3","A1L3937MY09J3I","either","1","781","","","","","","","1","0","0","0.5223098228","","0.4","0.6","0.2","0.8","","","","","0.5709378499","0.2654363334","0.3097370874","0.5223098228","","","","","","","","76","L","3","","","152","main_expt",""
"","bandit","232","526769","0.0-193.0-0.0","69469015","wem/bandit_either_3","A1L3937MY09J3I","either","1","220","","","","","","","0","0","1","","0.5137303037","0.4","0.6","0.2","0.8","0.6314515046","0.3505589273","0.2955649657","0.5137303037","","","","","","","","","","","","76","L","3","","","153","main_expt",""
"","bandit","233","528545","0.0-194.0-0.0","69469015","wem/bandit_either_3","A1L3937MY09J3I","either","1","260","","","","","","","1","0","0","0.5193194566","","0.4","0.6","0.2","0.8","","","","","0.6734276465","0.39889796","0.221553637","0.5193194566","","","","","","","","76","L","3","","","154","main_expt",""
"","bandit","234","530366","0.0-195.0-0.0","69469015","wem/bandit_either_3","A1L3937MY09J3I","either","1","306","","","","","","","0","0","1","0.4736812385","","0.4","0.6","0.2","0.8","","","","","0.7019144477","0.4202606707","0.2231547498","0.4736812385","","","","","","","","76","L","3","","","155","main_expt",""
"","bandit","235","532089","0.0-196.0-0.0","69469015","wem/bandit_either_3","A1L3937MY09J3I","either","1","209","","","","","","","1","0","0","0.4616442501","","0.4","0.6","0.2","0.8","","","","","0.6695455193","0.4814159609","0.2750957943","0.4616442501","","","","","","","","76","L","3","","","156","main_expt",""
"","bandit","236","534292","0.0-197.0-0.0","69469015","wem/bandit_either_3","A1L3937MY09J3I","either","1","688","","","","","","","1","0","0","0.5025740222","","0.4","0.6","0.2","0.8","","","","","0.6179864128","0.5316807058","0.2005793054","0.5025740222","","","","","","","","76","L","3","","","157","main_expt",""
"","bandit","237","536267","0.0-198.0-0.0","69469015","wem/bandit_either_3","A1L3937MY09J3I","either","1","461","","","","","","","0","0","1","0.4548105643","","0.4","0.6","0.2","0.8","","","","","0.7380689997","0.5429668589","0.2502080146","0.4548105643","","","","","","","","76","L","3","","","158","main_expt",""
"","bandit","238","537959","0.0-199.0-0.0","69469015","wem/bandit_either_3","A1L3937MY09J3I","either","1","174","","","","","","","0","0","1","0.4622667215","","0.4","0.6","0.2","0.8","","","","","0.7632184112","0.5991419929","0.2729805177","0.4622667215","","","","","","","","76","L","3","","","159","main_expt",""
"","bandit","239","539816","0.0-200.0-0.0","69469015","wem/bandit_either_3","A1L3937MY09J3I","either","1","344","","","","","","","1","0","0","0.4600517474","","0.4","0.6","0.2","0.8","","","","","0.6917664031","0.6480894682","0.2801697818","0.4600517474","","","","","","","","76","L","3","","","160","main_expt",""
"","bandit","240","541883","0.0-201.0-0.0","69469015","wem/bandit_either_3","A1L3937MY09J3I","either","1","550","","","","","","","0","0","1","0.481388234","","0.4","0.6","0.2","0.8","","","","","0.7106531984","0.6776161973","0.2437938608","0.481388234","","","","","","","","76","L","3","","","161","main_expt",""
"","bandit","241","543554","0.0-202.0-0.0","69469015","wem/bandit_either_3","A1L3937MY09J3I","either","1","154","","","","","","","1","0","0","0.3850106192","","0.4","0.6","0.2","0.8","","","","","0.809310282","0.7134031715","0.2687553501","0.3850106192","","","","","","","","76","L","3","","","162","main_expt",""
"","bandit","242","545385","0.0-203.0-0.0","69469015","wem/bandit_either_3","A1L3937MY09J3I","either","1","316","","","","","","","0","0","1","0.3498723973","","0.4","0.6","0.2","0.8","","","","","0.7492875705","0.6215635068","0.245991677","0.3498723973","","","","","","","","76","L","3","","","163","main_expt",""
"","bandit","243","547048","0.0-204.0-0.0","69469015","wem/bandit_either_3","A1L3937MY09J3I","either","1","147","","","","","","","0","0","1","0.4287417444","","0.4","0.6","0.2","0.8","","","","","0.7561394707","0.5219240024","0.270385563","0.4287417444","","","","","","","","76","L","3","","","164","main_expt",""
"","bandit","244","548861","0.0-205.0-0.0","69469015","wem/bandit_either_3","A1L3937MY09J3I","either","1","296","","","","","","","0","0","1","0.3150145745","","0.4","0.6","0.2","0.8","","","","","0.8111415702","0.4727302842","0.3037855967","0.3150145745","","","","","","","","76","L","3","","","165","main_expt",""
"","bandit","245","550588","0.0-206.0-0.0","69469015","wem/bandit_either_3","A1L3937MY09J3I","either","1","212","","","","","","","0","0","1","","0.3395577104","0.4","0.6","0.2","0.8","0.7759938205","0.5181018645","0.3395577104","0.2927018344","","","","","","","","","","","","75","K","2","","","166","main_expt",""
"","bandit","246","552314","0.0-207.0-0.0","69469015","wem/bandit_either_3","A1L3937MY09J3I","either","1","212","","","","","","","0","0","1","","0.3443901906","0.4","0.6","0.2","0.8","0.8267633335","0.5280433419","0.3443901906","0.3610256338","","","","","","","","","","","","75","K","2","","","167","main_expt",""
"","bandit","247","553871","0.0-208.0-0.0","69469015","wem/bandit_either_3","A1L3937MY09J3I","either","1","41","","","","","","","0","0","1","","0.2552323567","0.4","0.6","0.2","0.8","0.8136073627","0.5470010145","0.2552323567","0.3137127159","","","","","","","","","","","","75","K","2","","","168","main_expt",""
"","bandit","248","555593","0.0-209.0-0.0","69469015","wem/bandit_either_3","A1L3937MY09J3I","either","1","207","","","","","","","1","0","0","0.5558845962","","0.4","0.6","0.2","0.8","","","","","0.7308533614","0.5558845962","0.289352286","0.2292796242","","","","","","","","74","J","1","","","169","main_expt",""
"","bandit","249","557433","0.0-210.0-0.0","69469015","wem/bandit_either_3","A1L3937MY09J3I","either","1","326","","","","","","","0","1","0","","0.5799309324","0.4","0.6","0.2","0.8","0.7090730391","0.5799309324","0.2262743404","0.221948569","","","","","","","","","","","","74","J","1","","","170","main_expt",""
"","bandit","250","559258","0.0-211.0-0.0","69469015","wem/bandit_either_3","A1L3937MY09J3I","either","1","310","","","","","","","1","0","0","0.6643953266","","0.4","0.6","0.2","0.8","","","","","0.7229684446","0.6643953266","0.2644351609","0.159615594","","","","","","","","74","J","1","","","171","main_expt",""
"","bandit","251","561244","0.0-212.0-0.0","69469015","wem/bandit_either_3","A1L3937MY09J3I","either","1","470","","","","","","","0","1","0","","0.7610666705","0.4","0.6","0.2","0.8","0.6612043244","0.7610666705","0.4136296373","0.1303854457","","","","","","","","","","","","74","J","1","","","172","main_expt",""
"","bandit","252","563506","0.0-213.0-0.0","69469015","wem/bandit_either_3","A1L3937MY09J3I","either","1","748","","","","","","","0","1","0","","0.8006149786","0.4","0.6","0.2","0.8","0.7669021743","0.8006149786","0.491318492","0.07729024622","","","","","","","","","","","","74","J","1","","","173","main_expt",""
"","bandit","253","565706","0.0-214.0-0.0","69469015","wem/bandit_either_3","A1L3937MY09J3I","either","1","683","","","","","","","1","0","0","0.791095403","","0.4","0.6","0.2","0.8","","","","","0.8111867287","0.791095403","0.4966763124","0.1227026474","","","","","","","","74","J","1","","","174","main_expt",""
"","bandit","254","567663","0.0-215.0-0.0","69469015","wem/bandit_either_3","A1L3937MY09J3I","either","1","442","","","","","","","0","1","0","","0.8572088762","0.4","0.6","0.2","0.8","0.8192498968","0.8572088762","0.5109350621","0.09483306355","","","","","","","","","","","","74","J","1","","","175","main_expt",""
"","bandit","255","569584","0.0-216.0-0.0","69469015","wem/bandit_either_3","A1L3937MY09J3I","either","1","403","","","","","","","1","0","0","0.8576080684","","0.4","0.6","0.2","0.8","","","","","0.8371283275","0.8576080684","0.6321295754","0.143069758","","","","","","","","74","J","1","","","176","main_expt",""
"","bandit","256","571382","0.0-217.0-0.0","69469015","wem/bandit_either_3","A1L3937MY09J3I","either","1","282","","","","","","","1","0","0","0.8678158231","","0.4","0.6","0.2","0.8","","","","","0.8545140947","0.8678158231","0.5515755996","0.1741656422","","","","","","","","74","J","1","","","177","main_expt",""
"","bandit","257","573152","0.0-218.0-0.0","69469015","wem/bandit_either_3","A1L3937MY09J3I","either","1","252","","","","","","","0","1","0","","0.8820542777","0.4","0.6","0.2","0.8","0.8794893657","0.8820542777","0.5086275016","0.1904086474","","","","","","","","","","","","74","J","1","","","178","main_expt",""
"","bandit","258","574920","0.0-219.0-0.0","69469015","wem/bandit_either_3","A1L3937MY09J3I","either","1","252","","","","","","","0","1","0","","0.8907334788","0.4","0.6","0.2","0.8","0.8939587296","0.8907334788","0.5215192908","0.1778905233","","","","","","","","","","","","74","J","1","","","179","main_expt",""
"","bandit","259","577092","0.0-220.0-0.0","69469015","wem/bandit_either_3","A1L3937MY09J3I","either","1","655","","","","","","","0","0","1","0.9161653667","","0.4","0.6","0.2","0.8","","","","","0.868077767","0.9161653667","0.5193414217","0.2112817454","","","","","","","","74","J","1","","","180","main_expt",""
"","bandit","260","578823","0.0-221.0-0.0","69469015","wem/bandit_either_3","A1L3937MY09J3I","either","1","214","","","","","","","0","1","0","","0.9295405476","0.4","0.6","0.2","0.8","0.9295405476","0.9327112184","0.4613460131","0.2236312472","","","","","","","","","","","","72","H","0","img/none_selected.jpg","","181","main_expt",""
"","bandit","261","581075","0.0-222.0-0.0","69469015","wem/bandit_either_3","A1L3937MY09J3I","either","1","735","","","","","","","0","1","0","","0.9213574857","0.4","0.6","0.2","0.8","0.9213574857","0.9284398706","0.4468633868","0.264467441","","","","","","","","","","","","72","H","0","img/none_selected.jpg","","182","main_expt",""
"","bandit","262","582894","0.0-223.0-0.0","69469015","wem/bandit_either_3","A1L3937MY09J3I","either","1","300","","","","","","","0","1","0","","0.9374560388","0.4","0.6","0.2","0.8","0.9374560388","0.89591471","0.4985091709","0.2240632979","","","","","","","","","","","","72","H","0","img/none_selected.jpg","","183","main_expt",""
"","bandit","263","584839","0.0-224.0-0.0","69469015","wem/bandit_either_3","A1L3937MY09J3I","either","1","428","","","","","","","0","0","1","0.1671404848","","0.4","0.6","0.2","0.8","","","","","0.9120054929","0.9146434193","0.6057575335","0.1671404848","","","","","","","","76","L","3","","","184","main_expt",""
"","bandit","264","586630","0.0-225.0-0.0","69469015","wem/bandit_either_3","A1L3937MY09J3I","either","1","275","","","","","","","0","0","1","0.1932257563","","0.4","0.6","0.2","0.8","","","","","0.8428471033","0.8575823977","0.4915456485","0.1932257563","","","","","","","","76","L","3","","","185","main_expt",""
"","bandit","265","588273","0.0-226.0-0.0","69469015","wem/bandit_either_3","A1L3937MY09J3I","either","1","126","","","","","","","0","0","1","0.155472597","","0.4","0.6","0.2","0.8","","","","","0.7734335662","0.8487952361","0.5976273718","0.155472597","","","","","","","","76","L","3","","","186","main_expt",""
"","bandit","266","589988","0.0-227.0-0.0","69469015","wem/bandit_either_3","A1L3937MY09J3I","either","1","199","","","","","","","0","1","0","","0.5743595779","0.4","0.6","0.2","0.8","0.7667319261","0.8603972339","0.5743595779","0.1895871356","","","","","","","","","","","","75","K","2","","","187","main_expt",""
"","bandit","267","591721","0.0-228.0-0.0","69469015","wem/bandit_either_3","A1L3937MY09J3I","either","1","215","","","","","","","0","0","1","","0.6833173747","0.4","0.6","0.2","0.8","0.5945875292","0.8834510925","0.6833173747","0.2119556673","","","","","","","","","","","","75","K","2","","","188","main_expt",""
"","bandit","268","593531","0.0-229.0-0.0","69469015","wem/bandit_either_3","A1L3937MY09J3I","either","1","290","","","","","","","0","0","1","","0.651089354","0.4","0.6","0.2","0.8","0.7406569186","0.8973947779","0.651089354","0.2255007403","","","","","","","","","","","","75","K","2","","","189","main_expt",""
"","bandit","269","595192","0.0-230.0-0.0","69469015","wem/bandit_either_3","A1L3937MY09J3I","either","1","142","","","","","","","1","0","0","0.8824587855","","0.4","0.6","0.2","0.8","","","","","0.7371931777","0.8824587855","0.6599652607","0.1754842532","","","","","","","","74","J","1","","","190","main_expt",""
"","bandit","270","597175","0.0-231.0-0.0","69469015","wem/bandit_either_3","A1L3937MY09J3I","either","1","466","","","","","","","1","0","0","0.9076431997","","0.4","0.6","0.2","0.8","","","","","0.7019705866","0.9076431997","0.6960236584","0.1936311571","","","","","","","","74","J","1","","","191","main_expt",""
"","bandit","271","599005","0.0-232.0-0.0","69469015","wem/bandit_either_3","A1L3937MY09J3I","either","1","311","","","","","","","1","0","0","0.8673165995","","0.4","0.6","0.2","0.8","","","","","0.6198122665","0.8673165995","0.6713911156","0.215612591","","","","","","","","74","J","1","","","192","main_expt",""
"","bandit","272","600792","0.0-233.0-0.0","69469015","wem/bandit_either_3","A1L3937MY09J3I","either","1","267","","","","","","","1","0","0","0.8264401474","","0.4","0.6","0.2","0.8","","","","","0.6100930929","0.8264401474","0.7244072205","0.2818734505","","","","","","","","74","J","1","","","193","main_expt",""
"","bandit","273","602576","0.0-234.0-0.0","69469015","wem/bandit_either_3","A1L3937MY09J3I","either","1","267","","","","","","","0","1","0","","0.8546086414","0.4","0.6","0.2","0.8","0.6332739585","0.8546086414","0.7397798508","0.3616108755","","","","","","","","","","","","74","J","1","","","194","main_expt",""
"","bandit","274","604284","0.0-235.0-0.0","69469015","wem/bandit_either_3","A1L3937MY09J3I","either","1","190","","","","","","","1","0","0","0.7914914872","","0.4","0.6","0.2","0.8","","","","","0.609207161","0.7914914872","0.7602069811","0.3979961615","","","","","","","","74","J","1","","","195","main_expt",""
"","bandit","275","606284","0.0-236.0-0.0","69469015","wem/bandit_either_3","A1L3937MY09J3I","either","1","482","","","","","","","0","0","1","","0.7608346536","0.4","0.6","0.2","0.8","0.6560649547","0.7608346536","0.7114092524","0.4366641927","","","","","","","","","","","","74","J","1","","","196","main_expt",""
"","bandit","276","608155","0.0-237.0-0.0","69469015","wem/bandit_either_3","A1L3937MY09J3I","either","1","354","","","","","","","0","1","0","","0.7003784325","0.4","0.6","0.2","0.8","0.6656533059","0.7003784325","0.6917424169","0.560782874","","","","","","","","","","","","74","J","1","","","197","main_expt",""
"","bandit","277","610370","0.0-238.0-0.0","69469015","wem/bandit_either_3","A1L3937MY09J3I","either","1","696","","","","","","","0","0","1","","0.6036075577","0.4","0.6","0.2","0.8","0.6841747727","0.6036075577","0.6561069913","0.5649388288","","","","","","","","","","","","74","J","1","","","198","main_expt",""
"","bandit","278","612300","0.0-239.0-0.0","69469015","wem/bandit_either_3","A1L3937MY09J3I","either","1","408","","","","","","","0","0","1","0.5843314555","","0.4","0.6","0.2","0.8","","","","","0.7105065455","0.5843314555","0.6948346643","0.5375892324","","","","","","","","74","J","1","","","199","main_expt",""
"","bandit","279","613919","0.0-240.0-0.0","69469015","wem/bandit_either_3","A1L3937MY09J3I","either","1","100","","","","","","","0","0","1","","0.7380433654","0.4","0.6","0.2","0.8","0.7380433654","0.539414212","0.7369743936","0.5625167851","","","","","","","","","","","","72","H","0","img/none_selected.jpg","","200","main_expt",""
"","bandit","280","616261","0.0-241.0-0.0","69469015","wem/bandit_either_3","A1L3937MY09J3I","either","1","823","","","","","","","0","1","0","","0.6432951689","0.4","0.6","0.2","0.8","0.6432951689","0.3774065742","0.8347268415","0.6266810217","","","","","","","","","","","","72","H","0","img/none_selected.jpg","","201","main_expt",""
"","bandit","281","618099","0.0-242.0-0.0","69469015","wem/bandit_either_3","A1L3937MY09J3I","either","1","319","","","","","","","0","1","0","","0.4995879772","0.4","0.6","0.2","0.8","0.4995879772","0.2824615609","0.7612264534","0.6661075828","","","","","","","","","","","","72","H","0","img/none_selected.jpg","","202","main_expt",""
"","bandit","282","619743","0.0-243.0-0.0","69469015","wem/bandit_either_3","A1L3937MY09J3I","either","1","126","","","","","","","1","0","0","0.7534099026","","0.4","0.6","0.2","0.8","","","","","0.4767352753","0.210170224","0.6904596671","0.7534099026","","","","","","","","76","L","3","","","203","main_expt",""
"","bandit","283","621532","0.0-244.0-0.0","69469015","wem/bandit_either_3","A1L3937MY09J3I","either","1","266","","","","","","","0","0","1","0.7033522103","","0.4","0.6","0.2","0.8","","","","","0.3680612217","0.2708138581","0.6855485072","0.7033522103","","","","","","","","76","L","3","","","204","main_expt",""
"","bandit","284","623207","0.0-245.0-0.0","69469015","wem/bandit_either_3","A1L3937MY09J3I","either","1","153","","","","","","","1","0","0","0.6105989365","","0.4","0.6","0.2","0.8","","","","","0.3404512965","0.3319820794","0.7006332368","0.6105989365","","","","","","","","76","L","3","","","205","main_expt",""
"","bandit","285","625115","0.0-246.0-0.0","69469015","wem/bandit_either_3","A1L3937MY09J3I","either","1","391","","","","","","","1","0","0","0.725137222","","0.4","0.6","0.2","0.8","","","","","0.2774568564","0.3517339603","0.7533130943","0.725137222","","","","","","","","76","L","3","","","206","main_expt",""
"","bandit","286","626737","0.0-247.0-0.0","69469015","wem/bandit_either_3","A1L3937MY09J3I","either","1","105","","","","","","","0","0","1","0.5888984072","","0.4","0.6","0.2","0.8","","","","","0.2228883469","0.2871079035","0.7191760557","0.5888984072","","","","","","","","76","L","3","","","207","main_expt",""
"","bandit","287","628463","0.0-248.0-0.0","69469015","wem/bandit_either_3","A1L3937MY09J3I","either","1","208","","","","","","","0","0","1","0.4650323514","","0.4","0.6","0.2","0.8","","","","","0.2829247412","0.2642306377","0.6264293856","0.4650323514","","","","","","","","76","L","3","","","208","main_expt",""
"","bandit","288","630234","0.0-249.0-0.0","69469015","wem/bandit_either_3","A1L3937MY09J3I","either","1","253","","","","","","","1","0","0","0.4100719568","","0.4","0.6","0.2","0.8","","","","","0.3169104167","0.3587725811","0.6500478562","0.4100719568","","","","","","","","76","L","3","","","209","main_expt",""
"","bandit","289","632002","0.0-250.0-0.0","69469015","wem/bandit_either_3","A1L3937MY09J3I","either","1","246","","","","","","","0","0","1","0.5177296744","","0.4","0.6","0.2","0.8","","","","","0.2090062306","0.3103342645","0.6498865343","0.5177296744","","","","","","","","76","L","3","","","210","main_expt",""
"","bandit","290","633536","0.0-251.0-0.0","69469015","wem/bandit_either_3","A1L3937MY09J3I","either","1","16","","","","","","","1","0","0","0.3760595068","","0.4","0.6","0.2","0.8","","","","","0.1481662818","0.3760595068","0.6056301442","0.5950812693","","","","","","","","74","J","1","","","211","main_expt",""
"","bandit","291","635345","0.0-252.0-0.0","69469015","wem/bandit_either_3","A1L3937MY09J3I","either","1","290","","","","","","","0","0","1","","0.447023013","0.4","0.6","0.2","0.8","0.2114888193","0.447023013","0.5524844402","0.7169745983","","","","","","","","","","","","74","J","1","","","212","main_expt",""
"","bandit","292","637287","0.0-253.0-0.0","69469015","wem/bandit_either_3","A1L3937MY09J3I","either","1","421","","","","","","","0","0","1","0.4529182837","","0.4","0.6","0.2","0.8","","","","","0.2234642754","0.4529182837","0.6984249358","0.6766124197","","","","","","","","74","J","1","","","213","main_expt",""
"","bandit","293","639003","0.0-254.0-0.0","69469015","wem/bandit_either_3","A1L3937MY09J3I","either","1","199","","","","","","","0","1","0","","0.8005648136","0.4","0.6","0.2","0.8","0.2315139555","0.4306534983","0.5996975418","0.8005648136","","","","","","","","","","","","76","L","3","","","214","main_expt",""
"","bandit","294","640949","0.0-255.0-0.0","69469015","wem/bandit_either_3","A1L3937MY09J3I","either","1","429","","","","","","","1","0","0","0.8487964291","","0.4","0.6","0.2","0.8","","","","","0.1949488974","0.4314469479","0.6067129047","0.8487964291","","","","","","","","76","L","3","","","215","main_expt",""
"","bandit","295","642926","0.0-256.0-0.0","69469015","wem/bandit_either_3","A1L3937MY09J3I","either","1","461","","","","","","","0","0","1","0.8674123454","","0.4","0.6","0.2","0.8","","","","","0.2333303883","0.45439575","0.6297976658","0.8674123454","","","","","","","","76","L","3","","","216","main_expt",""
"","bandit","296","644785","0.0-257.0-0.0","69469015","wem/bandit_either_3","A1L3937MY09J3I","either","1","340","","","","","","","0","1","0","","0.8774404243","0.4","0.6","0.2","0.8","0.2027763819","0.5228861726","0.6095272491","0.8774404243","","","","","","","","","","","","76","L","3","","","217","main_expt",""
"","bandit","297","646694","0.0-258.0-0.0","69469015","wem/bandit_either_3","A1L3937MY09J3I","either","1","391","","","","","","","0","1","0","","0.8836448068","0.4","0.6","0.2","0.8","0.1895874514","0.463703458","0.7058099393","0.8836448068","","","","","","","","","","","","76","L","3","","","218","main_expt",""
"","bandit","298","648620","0.0-259.0-0.0","69469015","wem/bandit_either_3","A1L3937MY09J3I","either","1","407","","","","","","","0","1","0","","0.880498508","0.4","0.6","0.2","0.8","0.1537120117","0.4522864467","0.7396246451","0.880498508","","","","","","","","","","","","76","L","3","","","219","main_expt",""
"","bandit","299","650380","0.0-260.0-0.0","69469015","wem/bandit_either_3","A1L3937MY09J3I","either","1","243","","","","","","","0","0","1","0.7091968036","","0.4","0.6","0.2","0.8","","","","","0.2022747423","0.4561576612","0.7091968036","0.8740874997","","","","","","","","75","K","2","","","220","main_expt",""
"","bandit","300","652298","0.0-261.0-0.0","69469015","wem/bandit_either_3","A1L3937MY09J3I","either","1","399","","","","","","","0","1","0","","0.7116308873","0.4","0.6","0.2","0.8","0.3174413427","0.4264657168","0.7116308873","0.8527830905","","","","","","","","","","","","75","K","2","","","221","main_expt",""
"","bandit","301","654138","0.0-262.0-0.0","69469015","wem/bandit_either_3","A1L3937MY09J3I","either","1","320","","","","","","","0","1","0","","0.769465391","0.4","0.6","0.2","0.8","0.2315667073","0.3055141729","0.769465391","0.7717907476","","","","","","","","","","","","75","K","2","","","222","main_expt",""
"","bandit","302","655766","0.0-263.0-0.0","69469015","wem/bandit_either_3","A1L3937MY09J3I","either","1","110","","","","","","","0","0","1","","0.2261006122","0.4","0.6","0.2","0.8","0.2261006122","0.2868954791","0.7509006974","0.8359700354","","","","","","","","","","","","72","H","0","img/none_selected.jpg","","223","main_expt",""
"","bandit","303","657589","0.0-264.0-0.0","69469015","wem/bandit_either_3","A1L3937MY09J3I","either","1","301","","","","","","","0","0","1","0.2662378096","","0.4","0.6","0.2","0.8","","","","","0.2662378096","0.2698185242","0.7007688409","0.819670806","","","","","","","","72","H","0","img/none_selected.jpg","","224","main_expt",""
"","bandit","304","659423","0.0-265.0-0.0","69469015","wem/bandit_either_3","A1L3937MY09J3I","either","1","313","","","","","","","0","0","1","","0.2163280173","0.4","0.6","0.2","0.8","0.2163280173","0.213842325","0.7409020096","0.8512382749","","","","","","","","","","","","72","H","0","img/none_selected.jpg","","225","main_expt",""
"","bandit","305","661173","0.0-266.0-0.0","69469015","wem/bandit_either_3","A1L3937MY09J3I","either","1","231","","","","","","","0","1","0","","0.8342861847","0.4","0.6","0.2","0.8","0.2809353625","0.1616408491","0.7052945704","0.8342861847","","","","","","","","","","","","76","L","3","","","226","main_expt",""
"","bandit","306","662953","0.0-267.0-0.0","69469015","wem/bandit_either_3","A1L3937MY09J3I","either","1","262","","","","","","","0","0","1","0.7736041865","","0.4","0.6","0.2","0.8","","","","","0.2396571279","0.1777599287","0.606091252","0.7736041865","","","","","","","","76","L","3","","","227","main_expt",""
"","bandit","307","665214","0.0-268.0-0.0","69469015","wem/bandit_either_3","A1L3937MY09J3I","either","1","741","","","","","","","0","1","0","","0.3430446928","0.4","0.6","0.2","0.8","0.3430446928","0.2866543064","0.5834203199","0.8094350608","","","","","","","","","","","","72","H","0","img/none_selected.jpg","","228","main_expt",""
"","bandit","308","666902","0.0-269.0-0.0","69469015","wem/bandit_either_3","A1L3937MY09J3I","either","1","168","","","","","","","1","0","0","0.3948293382","","0.4","0.6","0.2","0.8","","","","","0.2886233194","0.3948293382","0.5466214007","0.8078722129","","","","","","","","74","J","1","","","229","main_expt",""
"","bandit","309","668821","0.0-270.0-0.0","69469015","wem/bandit_either_3","A1L3937MY09J3I","either","1","400","","","","","","","0","1","0","","0.3291786684","0.4","0.6","0.2","0.8","0.3213731463","0.3291786684","0.5519014059","0.7719043616","","","","","","","","","","","","74","J","1","","","230","main_expt",""
"","bandit","310","670574","0.0-271.0-0.0","69469015","wem/bandit_either_3","A1L3937MY09J3I","either","1","235","","","","","","","0","0","1","0.2378236032","","0.4","0.6","0.2","0.8","","","","","0.2771614906","0.2378236032","0.4527164215","0.8049264475","","","","","","","","74","J","1","","","231","main_expt",""
"","bandit","311","672225","0.0-272.0-0.0","69469015","wem/bandit_either_3","A1L3937MY09J3I","either","1","134","","","","","","","0","0","1","0.246393804","","0.4","0.6","0.2","0.8","","","","","0.2249105956","0.246393804","0.5135082398","0.8850589997","","","","","","","","74","J","1","","","232","main_expt",""
"","bandit","312","674229","0.0-273.0-0.0","69469015","wem/bandit_either_3","A1L3937MY09J3I","either","1","482","","","","","","","0","0","1","0.2141634692","","0.4","0.6","0.2","0.8","","","","","0.2447973041","0.2141634692","0.5502454751","0.9183615156","","","","","","","","74","J","1","","","233","main_expt",""
"","bandit","313","676075","0.0-274.0-0.0","69469015","wem/bandit_either_3","A1L3937MY09J3I","either","1","327","","","","","","","0","0","1","0.2876436191","","0.4","0.6","0.2","0.8","","","","","0.24601643","0.2876436191","0.3783923662","0.9639410842","","","","","","","","74","J","1","","","234","main_expt",""
"","bandit","314","677977","0.0-275.0-0.0","69469015","wem/bandit_either_3","A1L3937MY09J3I","either","1","383","","","","","","","0","0","1","","0.2814299379","0.4","0.6","0.2","0.8","0.1629844561","0.2769077257","0.2814299379","0.9697187448","","","","","","","","","","","","75","K","2","","","235","main_expt",""
"","bandit","315","679885","0.0-276.0-0.0","69469015","wem/bandit_either_3","A1L3937MY09J3I","either","1","389","","","","","","","0","0","1","","0.3106100538","0.4","0.6","0.2","0.8","0.1929455839","0.136865198","0.3106100538","0.9571573523","","","","","","","","","","","","75","K","2","","","236","main_expt",""
"","bandit","316","681909","0.0-277.0-0.0","69469015","wem/bandit_either_3","A1L3937MY09J3I","either","1","504","","","","","","","0","0","1","","0.3152445528","0.4","0.6","0.2","0.8","0.1497712966","0.1123790732","0.3152445528","0.9170696074","","","","","","","","","","","","75","K","2","","","237","main_expt",""
"","bandit","317","683669","0.0-278.0-0.0","69469015","wem/bandit_either_3","A1L3937MY09J3I","either","1","241","","","","","","","1","0","0","0.9207491077","","0.4","0.6","0.2","0.8","","","","","0.1526491196","0.09027024906","0.2637175197","0.9207491077","","","","","","","","76","L","3","","","238","main_expt",""
"","bandit","318","685596","0.0-279.0-0.0","69469015","wem/bandit_either_3","A1L3937MY09J3I","either","1","407","","","","","","","0","1","0","","0.9211301165","0.4","0.6","0.2","0.8","0.1745924244","0.08323179304","0.1889878372","0.9211301165","","","","","","","","","","","","76","L","3","","","239","main_expt",""
"","bandit","319","687477","0.0-280.0-0.0","69469015","wem/bandit_either_3","A1L3937MY09J3I","either","1","363","","","","","","","0","1","0","","0.8992774771","0.4","0.6","0.2","0.8","0.1159399908","0.08130265934","0.1710885746","0.8992774771","","","","","","","","","","","","76","L","3","","","240","main_expt",""
"","bandit","320","689424","0.0-281.0-0.0","69469015","wem/bandit_either_3","A1L3937MY09J3I","either","1","428","","","","","","","0","1","0","","0.8977441673","0.4","0.6","0.2","0.8","0.1682101231","0.1424736114","0.1232632504","0.8977441673","","","","","","","","","","","","76","L","3","","","241","main_expt",""
"","bandit","321","691493","0.0-282.0-0.0","69469015","wem/bandit_either_3","A1L3937MY09J3I","either","1","549","","","","","","","0","0","1","0.1643169396","","0.4","0.6","0.2","0.8","","","","","0.1643169396","0.2433221762","0.210295675","0.853076495","","","","","","","","72","H","0","img/none_selected.jpg","","242","main_expt",""
"","bandit","322","693152","0.0-283.0-0.0","69469015","wem/bandit_either_3","A1L3937MY09J3I","either","1","139","","","","","","","0","0","1","","0.1355776028","0.4","0.6","0.2","0.8","0.1355776028","0.3185073654","0.289349801","0.8942427246","","","","","","","","","","","","72","H","0","img/none_selected.jpg","","243","main_expt",""
"","bandit","323","695149","0.0-284.0-0.0","69469015","wem/bandit_either_3","A1L3937MY09J3I","either","1","477","","","","","","","0","0","1","0.1311829495","","0.4","0.6","0.2","0.8","","","","","0.1311829495","0.3533170098","0.4071614743","0.8701402288","","","","","","","","72","H","0","img/none_selected.jpg","","244","main_expt",""
"","bandit","324","696762","0.0-285.0-0.0","69469015","wem/bandit_either_3","A1L3937MY09J3I","either","1","93","","","","","","","0","0","1","","0.1273238","0.4","0.6","0.2","0.8","0.1273238","0.3482220419","0.453462755","0.8552475109","","","","","","","","","","","","72","H","0","img/none_selected.jpg","","245","main_expt",""
"","bandit","325","698635","0.0-286.0-0.0","69469015","wem/bandit_either_3","A1L3937MY09J3I","either","1","349","","","","","","","0","1","0","","0.9191842349","0.4","0.6","0.2","0.8","0.1321090015","0.3016988832","0.4717344544","0.9191842349","","","","","","","","","","","","76","L","3","","","246","main_expt",""
