"consent","trial_type","trial_index","time_elapsed","internal_node_id","subjID","study","MID","cond","drift","rt","responses","key_press","expt_phase","like","value","connected","gems","bombs","no_reward","GemPrChosen","BombPrChosen","GainOverPainPr_0","GainOverPainPr_1","GainOverPainPr_2","GainOverPainPr_3","LosePr_0","LosePr_1","LosePr_2","LosePr_3","WinPr_0","WinPr_1","WinPr_2","WinPr_3","Q0","Q1","Q2","gender","age","ethnicity","target","respCharCode","respKey","respChoiceNum","respChoice","practice","trial_counter","trial_label","button_pressed"
"INL_behavioral_consent_30min_online.html","consent","0","6867","0.0-0.0","71062420","wem/bandit_either_3","A1MYLQQL8BBOYT","either","3","","","","","","","","","","","","","","","","","","","","","","","","","","","","","","","","","","","","","","",""
"","survey-text","1","10754","0.0-1.0","71062420","wem/bandit_either_3","A1MYLQQL8BBOYT","either","3","2807","{""Q0"":""A1MYLQQL8BBOYT""}","","","","","","","","","","","","","","","","","","","","","","","","","","","","","","","","","","","","",""
"","text","2","17020","0.0-2.0","71062420","wem/bandit_either_3","A1MYLQQL8BBOYT","either","3","5256","","32","","","","","","","","","","","","","","","","","","","","","","","","","","","","","","","","","","","",""
"","text","3","21670","0.0-3.0","71062420","wem/bandit_either_3","A1MYLQQL8BBOYT","either","3","4640","","32","","","","","","","","","","","","","","","","","","","","","","","","","","","","","","","","","","","",""
"","text","4","30054","0.0-4.0","71062420","wem/bandit_either_3","A1MYLQQL8BBOYT","either","3","8375","","32","","","","","","","","","","","","","","","","","","","","","","","","","","","","","","","","","","","",""
"","text","5","34239","0.0-5.0","71062420","wem/bandit_either_3","A1MYLQQL8BBOYT","either","3","4180","","32","","","","","","","","","","","","","","","","","","","","","","","","","","","","","","","","","","","",""
"","text","6","40883","0.0-6.0","71062420","wem/bandit_either_3","A1MYLQQL8BBOYT","either","3","6639","","32","","","","","","","","","","","","","","","","","","","","","","","","","","","","","","","","","","","",""
"","text","7","45506","0.0-7.0","71062420","wem/bandit_either_3","A1MYLQQL8BBOYT","either","3","4617","","32","","","","","","","","","","","","","","","","","","","","","","","","","","","","","","","","","","","",""
"","text","8","47714","0.0-8.0","71062420","wem/bandit_either_3","A1MYLQQL8BBOYT","either","3","2204","","32","","","","","","","","","","","","","","","","","","","","","","","","","","","","","","","","","","","",""
"","identification","9","56656","0.0-9.0-0.0","71062420","wem/bandit_either_3","A1MYLQQL8BBOYT","either","3","8881","","","","3","3","3","","","","","","","","","","","","","","","","","","","","","","","","the village of Zur","","","","","","","",""
"","identification","10","63388","0.0-9.0-1.0","71062420","wem/bandit_either_3","A1MYLQQL8BBOYT","either","3","5682","","","","2","2","2","","","","","","","","","","","","","","","","","","","","","","","","the village of Nyx","","","","","","","",""
"","text","11","66146","0.0-10.0","71062420","wem/bandit_either_3","A1MYLQQL8BBOYT","either","3","1750","","32","","","","","","","","","","","","","","","","","","","","","","","","","","","","","","","","","","","",""
"","text","12","68417","0.0-11.0","71062420","wem/bandit_either_3","A1MYLQQL8BBOYT","either","3","2261","","32","","","","","","","","","","","","","","","","","","","","","","","","","","","","","","","","","","","",""
"","text","13","70000","0.0-12.0","71062420","wem/bandit_either_3","A1MYLQQL8BBOYT","either","3","1577","","32","","","","","","","","","","","","","","","","","","","","","","","","","","","","","","","","","","","",""
"","text","14","73219","0.0-13.0","71062420","wem/bandit_either_3","A1MYLQQL8BBOYT","either","3","3212","","32","","","","","","","","","","","","","","","","","","","","","","","","","","","","","","","","","","","",""
"","bandit","15","76574","0.0-14.0-0.0","71062420","wem/bandit_either_3","A1MYLQQL8BBOYT","either","3","1822","","","","","","","0","0","1","0","0","","","","","0","","","","0","","","","","","","","","","","74","J","0","img/none_selected_demo.jpg","true","0","",""
"","bandit","16","78617","0.0-15.0-0.0","71062420","wem/bandit_either_3","A1MYLQQL8BBOYT","either","3","520","","","","","","","0","0","1","0","0","","","","","0","","","","0","","","","","","","","","","","75","K","0","img/none_selected_demo.jpg","true","0","",""
"","text","17","110982","0.0-16.0","71062420","wem/bandit_either_3","A1MYLQQL8BBOYT","either","3","32356","","32","","","","","","","","","","","","","","","","","","","","","","","","","","","","","","","","","","","",""
"","text","18","115825","0.0-17.0","71062420","wem/bandit_either_3","A1MYLQQL8BBOYT","either","3","4833","","32","","","","","","","","","","","","","","","","","","","","","","","","","","","","","","","","","","","",""
"","text","19","121392","0.0-18.0","71062420","wem/bandit_either_3","A1MYLQQL8BBOYT","either","3","5565","","32","","","","","","","","","","","","","","","","","","","","","","","","","","","","","","","","","","","",""
"","text","20","125937","0.0-19.0","71062420","wem/bandit_either_3","A1MYLQQL8BBOYT","either","3","4541","","32","","","","","","","","","","","","","","","","","","","","","","","","","","","","","","","","","","","",""
"","bandit","21","128805","0.0-20.0-0.0","71062420","wem/bandit_either_3","A1MYLQQL8BBOYT","either","3","1244","","","","","","","0","1","0","","0.8","0.5","0.5","","","0.8","0.2","","","","","","","","","","","","","","74","J","0","img/none_selected_demo.jpg","true","0","80_20_practice",""
"","bandit","22","130715","0.0-20.0-1.0","71062420","wem/bandit_either_3","A1MYLQQL8BBOYT","either","3","382","","","","","","","1","0","0","0.8","","0.5","0.5","","","","","","","0.8","0.2","","","","","","","","","","74","J","0","img/none_selected_demo.jpg","true","0","80_20_practice",""
"","bandit","23","132537","0.0-20.0-2.0","71062420","wem/bandit_either_3","A1MYLQQL8BBOYT","either","3","292","","","","","","","1","0","0","0.8","","0.5","0.5","","","","","","","0.8","0.2","","","","","","","","","","74","J","0","img/none_selected_demo.jpg","true","0","80_20_practice",""
"","bandit","24","134277","0.0-20.0-3.0","71062420","wem/bandit_either_3","A1MYLQQL8BBOYT","either","3","219","","","","","","","0","0","1","0.8","","0.5","0.5","","","","","","","0.8","0.2","","","","","","","","","","74","J","0","img/none_selected_demo.jpg","true","0","80_20_practice",""
"","bandit","25","135846","0.0-20.0-4.0","71062420","wem/bandit_either_3","A1MYLQQL8BBOYT","either","3","49","","","","","","","1","0","0","0.8","","0.5","0.5","","","","","","","0.8","0.2","","","","","","","","","","74","J","0","img/none_selected_demo.jpg","true","0","80_20_practice",""
"","bandit","26","137481","0.0-20.0-5.0","71062420","wem/bandit_either_3","A1MYLQQL8BBOYT","either","3","112","","","","","","","1","0","0","0.2","","0.5","0.5","","","","","","","0.8","0.2","","","","","","","","","","75","K","1","","true","0","80_20_practice",""
"","bandit","27","139226","0.0-20.0-6.0","71062420","wem/bandit_either_3","A1MYLQQL8BBOYT","either","3","222","","","","","","","0","0","1","0.2","","0.5","0.5","","","","","","","0.8","0.2","","","","","","","","","","75","K","1","","true","0","80_20_practice",""
"","bandit","28","140904","0.0-20.0-7.0","71062420","wem/bandit_either_3","A1MYLQQL8BBOYT","either","3","154","","","","","","","0","0","1","0.2","","0.5","0.5","","","","","","","0.8","0.2","","","","","","","","","","75","K","1","","true","0","80_20_practice",""
"","bandit","29","142649","0.0-20.0-8.0","71062420","wem/bandit_either_3","A1MYLQQL8BBOYT","either","3","222","","","","","","","0","0","1","","0.2","0.5","0.5","","","0.8","0.2","","","","","","","","","","","","","","75","K","1","","true","0","80_20_practice",""
"","bandit","30","144519","0.0-20.0-9.0","71062420","wem/bandit_either_3","A1MYLQQL8BBOYT","either","3","350","","","","","","","0","0","1","","0.2","0.5","0.5","","","0.8","0.2","","","","","","","","","","","","","","75","K","1","","true","0","80_20_practice",""
"","bandit","31","146745","0.0-20.0-10.0","71062420","wem/bandit_either_3","A1MYLQQL8BBOYT","either","3","703","","","","","","","1","0","0","0.8","","0.5","0.5","","","","","","","0.8","0.2","","","","","","","","","","74","J","0","img/none_selected_demo.jpg","true","0","80_20_practice",""
"","bandit","32","148483","0.0-20.0-11.0","71062420","wem/bandit_either_3","A1MYLQQL8BBOYT","either","3","221","","","","","","","0","0","1","0.2","","0.5","0.5","","","","","","","0.8","0.2","","","","","","","","","","75","K","1","","true","0","80_20_practice",""
"","bandit","33","150345","0.0-20.0-12.0","71062420","wem/bandit_either_3","A1MYLQQL8BBOYT","either","3","340","","","","","","","0","1","0","","0.8","0.5","0.5","","","0.8","0.2","","","","","","","","","","","","","","74","J","0","img/none_selected_demo.jpg","true","0","80_20_practice",""
"","bandit","34","152313","0.0-20.0-13.0","71062420","wem/bandit_either_3","A1MYLQQL8BBOYT","either","3","446","","","","","","","1","0","0","0.8","","0.5","0.5","","","","","","","0.8","0.2","","","","","","","","","","74","J","0","img/none_selected_demo.jpg","true","0","80_20_practice",""
"","bandit","35","154086","0.0-20.0-14.0","71062420","wem/bandit_either_3","A1MYLQQL8BBOYT","either","3","254","","","","","","","0","0","1","0.2","","0.5","0.5","","","","","","","0.8","0.2","","","","","","","","","","75","K","1","","true","0","80_20_practice",""
"","bandit","36","155931","0.0-20.0-15.0","71062420","wem/bandit_either_3","A1MYLQQL8BBOYT","either","3","326","","","","","","","0","0","1","","0.2","0.5","0.5","","","0.8","0.2","","","","","","","","","","","","","","75","K","1","","true","0","80_20_practice",""
"","bandit","37","157624","0.0-20.0-16.0","71062420","wem/bandit_either_3","A1MYLQQL8BBOYT","either","3","171","","","","","","","0","1","0","","0.2","0.5","0.5","","","0.8","0.2","","","","","","","","","","","","","","75","K","1","","true","0","80_20_practice",""
"","bandit","38","159368","0.0-20.0-17.0","71062420","wem/bandit_either_3","A1MYLQQL8BBOYT","either","3","221","","","","","","","0","0","1","","0.2","0.5","0.5","","","0.8","0.2","","","","","","","","","","","","","","75","K","1","","true","0","80_20_practice",""
"","bandit","39","161000","0.0-20.0-18.0","71062420","wem/bandit_either_3","A1MYLQQL8BBOYT","either","3","111","","","","","","","0","0","1","","0.2","0.5","0.5","","","0.8","0.2","","","","","","","","","","","","","","75","K","1","","true","0","80_20_practice",""
"","bandit","40","162686","0.0-20.0-19.0","71062420","wem/bandit_either_3","A1MYLQQL8BBOYT","either","3","145","","","","","","","0","0","1","","0.2","0.5","0.5","","","0.8","0.2","","","","","","","","","","","","","","75","K","1","","true","0","80_20_practice",""
"","text","41","165200","0.0-21.0","71062420","wem/bandit_either_3","A1MYLQQL8BBOYT","either","3","2509","","32","","","","","","","","","","","","","","","","","","","","","","","","","","","","","","","","","","","",""
"","bandit","42","167238","0.0-22.0-0.0","71062420","wem/bandit_either_3","A1MYLQQL8BBOYT","either","3","518","","","","","","","1","0","0","1","0","","","","","0","1","","","1","0","","","","","","","","","","74","J","0","img/none_selected_demo.jpg","true","0","",""
"","text","43","169936","0.0-23.0","71062420","wem/bandit_either_3","A1MYLQQL8BBOYT","either","3","2693","","32","","","","","","","","","","","","","","","","","","","","","","","","","","","","","","","","","","","",""
"","text","44","171136","0.0-24.0","71062420","wem/bandit_either_3","A1MYLQQL8BBOYT","either","3","1196","","32","","","","","","","","","","","","","","","","","","","","","","","","","","","","","","","","","","","",""
"","text","45","172656","0.0-25.0","71062420","wem/bandit_either_3","A1MYLQQL8BBOYT","either","3","1515","","32","","","","","","","","","","","","","","","","","","","","","","","","","","","","","","","","","","","",""
"","text","46","174896","0.0-26.0","71062420","wem/bandit_either_3","A1MYLQQL8BBOYT","either","3","2236","","32","","","","","","","","","","","","","","","","","","","","","","","","","","","","","","","","","","","",""
"","text","47","177488","0.0-27.0","71062420","wem/bandit_either_3","A1MYLQQL8BBOYT","either","3","2588","","32","","","","","","","","","","","","","","","","","","","","","","","","","","","","","","","","","","","",""
"","text","48","178668","0.0-28.0","71062420","wem/bandit_either_3","A1MYLQQL8BBOYT","either","3","1175","","32","","","","","","","","","","","","","","","","","","","","","","","","","","","","","","","","","","","",""
"","text","49","180528","0.0-29.0","71062420","wem/bandit_either_3","A1MYLQQL8BBOYT","either","3","1857","","32","","","","","","","","","","","","","","","","","","","","","","","","","","","","","","","","","","","",""
"","text","50","182128","0.0-30.0","71062420","wem/bandit_either_3","A1MYLQQL8BBOYT","either","3","1595","","32","","","","","","","","","","","","","","","","","","","","","","","","","","","","","","","","","","","",""
"","text","51","184440","0.0-31.0","71062420","wem/bandit_either_3","A1MYLQQL8BBOYT","either","3","2307","","32","","","","","","","","","","","","","","","","","","","","","","","","","","","","","","","","","","","",""
"","text","52","185552","0.0-32.0","71062420","wem/bandit_either_3","A1MYLQQL8BBOYT","either","3","1110","","32","","","","","","","","","","","","","","","","","","","","","","","","","","","","","","","","","","","",""
"","text","53","187232","0.0-33.0","71062420","wem/bandit_either_3","A1MYLQQL8BBOYT","either","3","1675","","32","","","","","","","","","","","","","","","","","","","","","","","","","","","","","","","","","","","",""
"","bandit","54","189193","0.0-34.0-0.0","71062420","wem/bandit_either_3","A1MYLQQL8BBOYT","either","3","438","","","","","","","0","0","1","0.2","","0.5","0.5","0.5","0.5","","","","","0.8","0.2","0.6","0.2","","","","","","","","76","L","3","","true","0","full_practice",""
"","bandit","55","191081","0.0-34.0-1.0","71062420","wem/bandit_either_3","A1MYLQQL8BBOYT","either","3","354","","","","","","","1","0","0","0.8","","0.5","0.5","0.5","0.5","","","","","0.8","0.2","0.6","0.2","","","","","","","","72","H","0","img/none_selected.jpg","true","0","full_practice",""
"","bandit","56","192872","0.0-34.0-2.0","71062420","wem/bandit_either_3","A1MYLQQL8BBOYT","either","3","269","","","","","","","1","0","0","0.6","","0.5","0.5","0.5","0.5","","","","","0.8","0.2","0.6","0.2","","","","","","","","75","K","2","","true","0","full_practice",""
"","bandit","57","194538","0.0-34.0-3.0","71062420","wem/bandit_either_3","A1MYLQQL8BBOYT","either","3","142","","","","","","","0","1","0","","0.2","0.5","0.5","0.5","0.5","0.8","0.2","0.6","0.2","","","","","","","","","","","","74","J","1","","true","0","full_practice",""
"","bandit","58","196519","0.0-34.0-4.0","71062420","wem/bandit_either_3","A1MYLQQL8BBOYT","either","3","396","","","","","","","0","1","0","","0.6","0.5","0.5","0.5","0.5","0.8","0.2","0.6","0.2","","","","","","","","","","","","75","K","2","","true","0","full_practice",""
"","bandit","59","198105","0.0-34.0-5.0","71062420","wem/bandit_either_3","A1MYLQQL8BBOYT","either","3","60","","","","","","","0","0","1","0.2","","0.5","0.5","0.5","0.5","","","","","0.8","0.2","0.6","0.2","","","","","","","","74","J","1","","true","0","full_practice",""
"","bandit","60","199934","0.0-34.0-6.0","71062420","wem/bandit_either_3","A1MYLQQL8BBOYT","either","3","289","","","","","","","0","0","1","0.8","","0.5","0.5","0.5","0.5","","","","","0.8","0.2","0.6","0.2","","","","","","","","72","H","0","img/none_selected.jpg","true","0","full_practice",""
"","bandit","61","201560","0.0-34.0-7.0","71062420","wem/bandit_either_3","A1MYLQQL8BBOYT","either","3","103","","","","","","","0","0","1","0.6","","0.5","0.5","0.5","0.5","","","","","0.8","0.2","0.6","0.2","","","","","","","","75","K","2","","true","0","full_practice",""
"","bandit","62","203161","0.0-34.0-8.0","71062420","wem/bandit_either_3","A1MYLQQL8BBOYT","either","3","79","","","","","","","0","0","1","","0.2","0.5","0.5","0.5","0.5","0.8","0.2","0.6","0.2","","","","","","","","","","","","74","J","1","","true","0","full_practice",""
"","bandit","63","204697","0.0-34.0-9.0","71062420","wem/bandit_either_3","A1MYLQQL8BBOYT","either","3","14","","","","","","","1","0","0","0.8","","0.5","0.5","0.5","0.5","","","","","0.8","0.2","0.6","0.2","","","","","","","","72","H","0","img/none_selected.jpg","true","0","full_practice",""
"","bandit","64","206358","0.0-34.0-10.0","71062420","wem/bandit_either_3","A1MYLQQL8BBOYT","either","3","140","","","","","","","0","0","1","0.2","","0.5","0.5","0.5","0.5","","","","","0.8","0.2","0.6","0.2","","","","","","","","76","L","3","","true","0","full_practice",""
"","bandit","65","208040","0.0-34.0-11.0","71062420","wem/bandit_either_3","A1MYLQQL8BBOYT","either","3","160","","","","","","","0","0","1","0.2","","0.5","0.5","0.5","0.5","","","","","0.8","0.2","0.6","0.2","","","","","","","","76","L","3","","true","0","full_practice",""
"","bandit","66","209752","0.0-34.0-12.0","71062420","wem/bandit_either_3","A1MYLQQL8BBOYT","either","3","193","","","","","","","1","0","0","0.8","","0.5","0.5","0.5","0.5","","","","","0.8","0.2","0.6","0.2","","","","","","","","72","H","0","img/none_selected.jpg","true","0","full_practice",""
"","bandit","67","211556","0.0-34.0-13.0","71062420","wem/bandit_either_3","A1MYLQQL8BBOYT","either","3","285","","","","","","","0","0","1","","0.8","0.5","0.5","0.5","0.5","0.8","0.2","0.6","0.2","","","","","","","","","","","","72","H","0","img/none_selected.jpg","true","0","full_practice",""
"","bandit","68","213208","0.0-34.0-14.0","71062420","wem/bandit_either_3","A1MYLQQL8BBOYT","either","3","129","","","","","","","1","0","0","0.8","","0.5","0.5","0.5","0.5","","","","","0.8","0.2","0.6","0.2","","","","","","","","72","H","0","img/none_selected.jpg","true","0","full_practice",""
"","bandit","69","214984","0.0-34.0-15.0","71062420","wem/bandit_either_3","A1MYLQQL8BBOYT","either","3","247","","","","","","","1","0","0","0.8","","0.5","0.5","0.5","0.5","","","","","0.8","0.2","0.6","0.2","","","","","","","","72","H","0","img/none_selected.jpg","true","0","full_practice",""
"","bandit","70","216728","0.0-34.0-16.0","71062420","wem/bandit_either_3","A1MYLQQL8BBOYT","either","3","221","","","","","","","0","1","0","","0.8","0.5","0.5","0.5","0.5","0.8","0.2","0.6","0.2","","","","","","","","","","","","72","H","0","img/none_selected.jpg","true","0","full_practice",""
"","bandit","71","218419","0.0-34.0-17.0","71062420","wem/bandit_either_3","A1MYLQQL8BBOYT","either","3","173","","","","","","","0","1","0","","0.8","0.5","0.5","0.5","0.5","0.8","0.2","0.6","0.2","","","","","","","","","","","","72","H","0","img/none_selected.jpg","true","0","full_practice",""
"","bandit","72","220118","0.0-34.0-18.0","71062420","wem/bandit_either_3","A1MYLQQL8BBOYT","either","3","176","","","","","","","1","0","0","0.8","","0.5","0.5","0.5","0.5","","","","","0.8","0.2","0.6","0.2","","","","","","","","72","H","0","img/none_selected.jpg","true","0","full_practice",""
"","bandit","73","221752","0.0-34.0-19.0","71062420","wem/bandit_either_3","A1MYLQQL8BBOYT","either","3","109","","","","","","","1","0","0","0.8","","0.5","0.5","0.5","0.5","","","","","0.8","0.2","0.6","0.2","","","","","","","","72","H","0","img/none_selected.jpg","true","0","full_practice",""
"","text","74","223984","0.0-35.0","71062420","wem/bandit_either_3","A1MYLQQL8BBOYT","either","3","2215","","32","","","","","","","","","","","","","","","","","","","","","","","","","","","","","","","","","","","",""
"","text","75","230997","0.0-36.0","71062420","wem/bandit_either_3","A1MYLQQL8BBOYT","either","3","6002","","32","","","","","","","","","","","","","","","","","","","","","","","","","","","","","","","","","","","",""
"","text","76","234758","0.0-37.0","71062420","wem/bandit_either_3","A1MYLQQL8BBOYT","either","3","3744","","32","","","","","","","","","","","","","","","","","","","","","","","","","","","","","","","","","","","",""
"","text","77","237425","0.0-38.0","71062420","wem/bandit_either_3","A1MYLQQL8BBOYT","either","3","2663","","32","","","","","","","","","","","","","","","","","","","","","","","","","","","","","","","","","","","",""
"","text","78","241136","0.0-39.0","71062420","wem/bandit_either_3","A1MYLQQL8BBOYT","either","3","3701","","32","","","","","","","","","","","","","","","","","","","","","","","","","","","","","","","","","","","",""
"","text","79","245393","0.0-40.0","71062420","wem/bandit_either_3","A1MYLQQL8BBOYT","either","3","4246","","32","","","","","","","","","","","","","","","","","","","","","","","","","","","","","","","","","","","",""
"","bandit","80","248412","0.0-41.0-0.0","71062420","wem/bandit_either_3","A1MYLQQL8BBOYT","either","3","1485","","","","","","","1","0","0","0.1387034319","","0.6","0.8","0.2","0.4","","","","","0.1387034319","0.4261870849","0.6494041588","0.6473934842","","","","","","","","72","H","0","img/none_selected.jpg","","1","main_expt",""
"","bandit","81","250216","0.0-42.0-0.0","71062420","wem/bandit_either_3","A1MYLQQL8BBOYT","either","3","276","","","","","","","1","0","0","0.2166337036","","0.6","0.8","0.2","0.4","","","","","0.2166337036","0.3223101542","0.7608835745","0.5221866694","","","","","","","","72","H","0","img/none_selected.jpg","","2","main_expt",""
"","bandit","82","252009","0.0-43.0-0.0","71062420","wem/bandit_either_3","A1MYLQQL8BBOYT","either","3","267","","","","","","","0","0","1","0.3253899216","","0.6","0.8","0.2","0.4","","","","","0.3253899216","0.2541217019","0.7745567172","0.5356292978","","","","","","","","72","H","0","img/none_selected.jpg","","3","main_expt",""
"","bandit","83","253976","0.0-44.0-0.0","71062420","wem/bandit_either_3","A1MYLQQL8BBOYT","either","3","443","","","","","","","0","0","1","0.3003293127","","0.6","0.8","0.2","0.4","","","","","0.3003293127","0.2272043942","0.8315703218","0.5154592071","","","","","","","","72","H","0","img/none_selected.jpg","","4","main_expt",""
"","bandit","84","255719","0.0-45.0-0.0","71062420","wem/bandit_either_3","A1MYLQQL8BBOYT","either","3","219","","","","","","","0","0","1","","0.3839660868","0.6","0.8","0.2","0.4","0.3839660868","0.2967729676","0.8380789219","0.4578896037","","","","","","","","","","","","72","H","0","img/none_selected.jpg","","5","main_expt",""
"","bandit","85","257322","0.0-46.0-0.0","71062420","wem/bandit_either_3","A1MYLQQL8BBOYT","either","3","77","","","","","","","0","1","0","","0.8233568153","0.6","0.8","0.2","0.4","0.3833463511","0.3211998527","0.8233568153","0.4825789634","","","","","","","","","","","","75","K","2","","","6","main_expt",""
"","bandit","86","259095","0.0-47.0-0.0","71062420","wem/bandit_either_3","A1MYLQQL8BBOYT","either","3","248","","","","","","","0","1","0","","0.8672840292","0.6","0.8","0.2","0.4","0.3173395401","0.4190649117","0.8672840292","0.4013658759","","","","","","","","","","","","75","K","2","","","7","main_expt",""
"","bandit","87","260854","0.0-48.0-0.0","71062420","wem/bandit_either_3","A1MYLQQL8BBOYT","either","3","237","","","","","","","1","0","0","0.7921451217","","0.6","0.8","0.2","0.4","","","","","0.3265190876","0.5253498774","0.7921451217","0.3721769634","","","","","","","","75","K","2","","","8","main_expt",""
"","bandit","88","262583","0.0-49.0-0.0","71062420","wem/bandit_either_3","A1MYLQQL8BBOYT","either","3","205","","","","","","","0","0","1","","0.7826569337","0.6","0.8","0.2","0.4","0.4229840653","0.5552176016","0.7826569337","0.3934089605","","","","","","","","","","","","75","K","2","","","9","main_expt",""
"","bandit","89","264169","0.0-50.0-0.0","71062420","wem/bandit_either_3","A1MYLQQL8BBOYT","either","3","60","","","","","","","0","1","0","","0.7150392401","0.6","0.8","0.2","0.4","0.5107168356","0.654745146","0.7150392401","0.3360942297","","","","","","","","","","","","75","K","2","","","10","main_expt",""
"","bandit","90","265801","0.0-51.0-0.0","71062420","wem/bandit_either_3","A1MYLQQL8BBOYT","either","3","106","","","","","","","0","1","0","","0.6906605055","0.6","0.8","0.2","0.4","0.4383577931","0.6089063278","0.6906605055","0.4969537907","","","","","","","","","","","","75","K","2","","","11","main_expt",""
"","bandit","91","267453","0.0-52.0-0.0","71062420","wem/bandit_either_3","A1MYLQQL8BBOYT","either","3","123","","","","","","","0","1","0","","0.6725575113","0.6","0.8","0.2","0.4","0.5487148549","0.559155858","0.6725575113","0.4760264401","","","","","","","","","","","","75","K","2","","","12","main_expt",""
"","bandit","92","269031","0.0-53.0-0.0","71062420","wem/bandit_either_3","A1MYLQQL8BBOYT","either","3","55","","","","","","","0","0","1","0.7404599176","","0.6","0.8","0.2","0.4","","","","","0.7407599438","0.6464491645","0.7404599176","0.4008761295","","","","","","","","75","K","2","","","13","main_expt",""
"","bandit","93","270569","0.0-54.0-0.0","71062420","wem/bandit_either_3","A1MYLQQL8BBOYT","either","3","13","","","","","","","0","1","0","","0.6751607758","0.6","0.8","0.2","0.4","0.8307131687","0.6936958995","0.6751607758","0.358486362","","","","","","","","","","","","75","K","2","","","14","main_expt",""
"","bandit","94","272311","0.0-55.0-0.0","71062420","wem/bandit_either_3","A1MYLQQL8BBOYT","either","3","217","","","","","","","0","0","1","","0.6115440925","0.6","0.8","0.2","0.4","0.8114394421","0.731471075","0.6115440925","0.395258373","","","","","","","","","","","","75","K","2","","","15","main_expt",""
"","bandit","95","273879","0.0-56.0-0.0","71062420","wem/bandit_either_3","A1MYLQQL8BBOYT","either","3","44","","","","","","","0","1","0","","0.7019001419","0.6","0.8","0.2","0.4","0.8242397169","0.6487541525","0.7019001419","0.4197334966","","","","","","","","","","","","75","K","2","","","16","main_expt",""
"","bandit","96","275595","0.0-57.0-0.0","71062420","wem/bandit_either_3","A1MYLQQL8BBOYT","either","3","188","","","","","","","0","1","0","","0.7017998","0.6","0.8","0.2","0.4","0.8317633157","0.7654634758","0.7017998","0.2160816064","","","","","","","","","","","","75","K","2","","","17","main_expt",""
"","bandit","97","277224","0.0-58.0-0.0","71062420","wem/bandit_either_3","A1MYLQQL8BBOYT","either","3","102","","","","","","","0","1","0","","0.7672473748","0.6","0.8","0.2","0.4","0.8158638682","0.7160830043","0.7672473748","0.2058632209","","","","","","","","","","","","75","K","2","","","18","main_expt",""
"","bandit","98","278903","0.0-59.0-0.0","71062420","wem/bandit_either_3","A1MYLQQL8BBOYT","either","3","155","","","","","","","0","1","0","","0.7950219121","0.6","0.8","0.2","0.4","0.8291878069","0.6856656502","0.7950219121","0.2314559036","","","","","","","","","","","","75","K","2","","","19","main_expt",""
"","bandit","99","280488","0.0-60.0-0.0","71062420","wem/bandit_either_3","A1MYLQQL8BBOYT","either","3","58","","","","","","","0","0","1","","0.8460513568","0.6","0.8","0.2","0.4","0.8665153398","0.6829400921","0.8460513568","0.1762066147","","","","","","","","","","","","75","K","2","","","20","main_expt",""
"","bandit","100","282088","0.0-61.0-0.0","71062420","wem/bandit_either_3","A1MYLQQL8BBOYT","either","3","76","","","","","","","0","1","0","","0.8571228725","0.6","0.8","0.2","0.4","0.8181415858","0.6849203215","0.8571228725","0.150477598","","","","","","","","","","","","75","K","2","","","21","main_expt",""
"","bandit","101","283863","0.0-62.0-0.0","71062420","wem/bandit_either_3","A1MYLQQL8BBOYT","either","3","251","","","","","","","0","1","0","","0.8498483749","0.6","0.8","0.2","0.4","0.7731960963","0.6832197831","0.8498483749","0.1957635407","","","","","","","","","","","","75","K","2","","","22","main_expt",""
"","bandit","102","285655","0.0-63.0-0.0","71062420","wem/bandit_either_3","A1MYLQQL8BBOYT","either","3","268","","","","","","","0","0","1","0.887495535","","0.6","0.8","0.2","0.4","","","","","0.8004626553","0.6103957523","0.887495535","0.2193187944","","","","","","","","75","K","2","","","23","main_expt",""
"","bandit","103","287335","0.0-64.0-0.0","71062420","wem/bandit_either_3","A1MYLQQL8BBOYT","either","3","156","","","","","","","0","1","0","","0.918231735","0.6","0.8","0.2","0.4","0.7941911222","0.5485819736","0.918231735","0.1836328706","","","","","","","","","","","","75","K","2","","","24","main_expt",""
"","bandit","104","289206","0.0-65.0-0.0","71062420","wem/bandit_either_3","A1MYLQQL8BBOYT","either","3","348","","","","","","","0","1","0","","0.9111146318","0.6","0.8","0.2","0.4","0.7100633829","0.5852935809","0.9111146318","0.1410441375","","","","","","","","","","","","75","K","2","","","25","main_expt",""
"","bandit","105","291285","0.0-66.0-0.0","71062420","wem/bandit_either_3","A1MYLQQL8BBOYT","either","3","556","","","","","","","0","1","0","","0.9190640316","0.6","0.8","0.2","0.4","0.6872129375","0.6097892937","0.9190640316","0.1082593399","","","","","","","","","","","","75","K","2","","","26","main_expt",""
"","bandit","106","293175","0.0-67.0-0.0","71062420","wem/bandit_either_3","A1MYLQQL8BBOYT","either","3","365","","","","","","","0","1","0","","0.9372614837","0.6","0.8","0.2","0.4","0.6798864795","0.6653335402","0.9372614837","0.1042047793","","","","","","","","","","","","75","K","2","","","27","main_expt",""
"","bandit","107","294950","0.0-68.0-0.0","71062420","wem/bandit_either_3","A1MYLQQL8BBOYT","either","3","251","","","","","","","0","1","0","","0.9269484959","0.6","0.8","0.2","0.4","0.6812343762","0.6850825106","0.9269484959","0.1153509117","","","","","","","","","","","","75","K","2","","","28","main_expt",""
"","bandit","108","296999","0.0-69.0-0.0","71062420","wem/bandit_either_3","A1MYLQQL8BBOYT","either","3","524","","","","","","","0","1","0","","0.9376772981","0.6","0.8","0.2","0.4","0.5305157647","0.7309016742","0.9376772981","0.1601566248","","","","","","","","","","","","75","K","2","","","29","main_expt",""
"","bandit","109","299144","0.0-70.0-0.0","71062420","wem/bandit_either_3","A1MYLQQL8BBOYT","either","3","617","","","","","","","0","1","0","","0.8795505253","0.6","0.8","0.2","0.4","0.4713174284","0.8141980113","0.8795505253","0.09548927903","","","","","","","","","","","","75","K","2","","","30","main_expt",""
"","bandit","110","300966","0.0-71.0-0.0","71062420","wem/bandit_either_3","A1MYLQQL8BBOYT","either","3","300","","","","","","","1","0","0","0.8605863748","","0.6","0.8","0.2","0.4","","","","","0.2938490869","0.8926711601","0.8605863748","0.09272353297","","","","","","","","75","K","2","","","31","main_expt",""
"","bandit","111","302645","0.0-72.0-0.0","71062420","wem/bandit_either_3","A1MYLQQL8BBOYT","either","3","158","","","","","","","0","1","0","","0.757600507","0.6","0.8","0.2","0.4","0.3005160425","0.8397563013","0.757600507","0.09547929832","","","","","","","","","","","","75","K","2","","","32","main_expt",""
"","bandit","112","304471","0.0-73.0-0.0","71062420","wem/bandit_either_3","A1MYLQQL8BBOYT","either","3","302","","","","","","","0","1","0","","0.7257103923","0.6","0.8","0.2","0.4","0.3661211491","0.8251988787","0.7257103923","0.08683876107","","","","","","","","","","","","75","K","2","","","33","main_expt",""
"","bandit","113","306246","0.0-74.0-0.0","71062420","wem/bandit_either_3","A1MYLQQL8BBOYT","either","3","252","","","","","","","0","1","0","","0.5786815464","0.6","0.8","0.2","0.4","0.4614725573","0.7303528712","0.5786815464","0.08117088791","","","","","","","","","","","","75","K","2","","","34","main_expt",""
"","bandit","114","308023","0.0-75.0-0.0","71062420","wem/bandit_either_3","A1MYLQQL8BBOYT","either","3","253","","","","","","","1","0","0","0.4812266686","","0.6","0.8","0.2","0.4","","","","","0.4597324626","0.8093673003","0.4812266686","0.09593582107","","","","","","","","75","K","2","","","35","main_expt",""
"","bandit","115","309830","0.0-76.0-0.0","71062420","wem/bandit_either_3","A1MYLQQL8BBOYT","either","3","283","","","","","","","0","1","0","","0.4459447539","0.6","0.8","0.2","0.4","0.4294742096","0.79718131","0.4459447539","0.1392988708","","","","","","","","","","","","75","K","2","","","36","main_expt",""
"","bandit","116","311536","0.0-77.0-0.0","71062420","wem/bandit_either_3","A1MYLQQL8BBOYT","either","3","171","","","","","","","0","0","1","","0.5737218407","0.6","0.8","0.2","0.4","0.5301274199","0.8157762275","0.5737218407","0.07673209605","","","","","","","","","","","","75","K","2","","","37","main_expt",""
"","bandit","117","313127","0.0-78.0-0.0","71062420","wem/bandit_either_3","A1MYLQQL8BBOYT","either","3","65","","","","","","","0","0","1","0.6008421093","","0.6","0.8","0.2","0.4","","","","","0.5746889943","0.7941499978","0.6008421093","0.1078843958","","","","","","","","75","K","2","","","38","main_expt",""
"","bandit","118","314822","0.0-79.0-0.0","71062420","wem/bandit_either_3","A1MYLQQL8BBOYT","either","3","171","","","","","","","0","1","0","","0.6076920036","0.6","0.8","0.2","0.4","0.6621100331","0.7352357368","0.6076920036","0.09731722171","","","","","","","","","","","","75","K","2","","","39","main_expt",""
"","bandit","119","316455","0.0-80.0-0.0","71062420","wem/bandit_either_3","A1MYLQQL8BBOYT","either","3","109","","","","","","","0","0","1","","0.6616622706","0.6","0.8","0.2","0.4","0.6794361822","0.7920886563","0.6616622706","0.2123509389","","","","","","","","","","","","75","K","2","","","40","main_expt",""
"","bandit","120","318216","0.0-81.0-0.0","71062420","wem/bandit_either_3","A1MYLQQL8BBOYT","either","3","231","","","","","","","0","1","0","","0.6945341382","0.6","0.8","0.2","0.4","0.7140523024","0.8780543775","0.6945341382","0.1265365425","","","","","","","","","","","","75","K","2","","","41","main_expt",""
"","bandit","121","319976","0.0-82.0-0.0","71062420","wem/bandit_either_3","A1MYLQQL8BBOYT","either","3","226","","","","","","","0","1","0","","0.6833149102","0.6","0.8","0.2","0.4","0.6669732994","0.9167256642","0.6833149102","0.166138795","","","","","","","","","","","","75","K","2","","","42","main_expt",""
"","bandit","122","321735","0.0-83.0-0.0","71062420","wem/bandit_either_3","A1MYLQQL8BBOYT","either","3","235","","","","","","","0","0","1","","0.7094953576","0.6","0.8","0.2","0.4","0.5435093165","0.9407985187","0.7094953576","0.1782339186","","","","","","","","","","","","75","K","2","","","43","main_expt",""
"","bandit","123","323543","0.0-84.0-0.0","71062420","wem/bandit_either_3","A1MYLQQL8BBOYT","either","3","284","","","","","","","1","0","0","0.7519468023","","0.6","0.8","0.2","0.4","","","","","0.6002661395","0.9000978766","0.7519468023","0.1342945815","","","","","","","","75","K","2","","","44","main_expt",""
"","bandit","124","325223","0.0-85.0-0.0","71062420","wem/bandit_either_3","A1MYLQQL8BBOYT","either","3","155","","","","","","","0","0","1","","0.7673203249","0.6","0.8","0.2","0.4","0.5948203474","0.9190036262","0.7673203249","0.09086288848","","","","","","","","","","","","75","K","2","","","45","main_expt",""
"","bandit","125","326903","0.0-86.0-0.0","71062420","wem/bandit_either_3","A1MYLQQL8BBOYT","either","3","155","","","","","","","0","0","1","","0.722836051","0.6","0.8","0.2","0.4","0.6230250108","0.8865788656","0.722836051","0.06420934006","","","","","","","","","","","","75","K","2","","","46","main_expt",""
"","bandit","126","328775","0.0-87.0-0.0","71062420","wem/bandit_either_3","A1MYLQQL8BBOYT","either","3","347","","","","","","","1","0","0","0.8207935484","","0.6","0.8","0.2","0.4","","","","","0.7239235909","0.8207935484","0.7392487755","0.02332738683","","","","","","","","74","J","1","","","47","main_expt",""
"","bandit","127","330534","0.0-88.0-0.0","71062420","wem/bandit_either_3","A1MYLQQL8BBOYT","either","3","235","","","","","","","1","0","0","0.8170742187","","0.6","0.8","0.2","0.4","","","","","0.7715310514","0.8170742187","0.7551111279","0.03517565614","","","","","","","","74","J","1","","","48","main_expt",""
"","bandit","128","332278","0.0-89.0-0.0","71062420","wem/bandit_either_3","A1MYLQQL8BBOYT","either","3","220","","","","","","","1","0","0","0.7874830355","","0.6","0.8","0.2","0.4","","","","","0.822179592","0.7874830355","0.6917772817","0.04466115719","","","","","","","","74","J","1","","","49","main_expt",""
"","bandit","129","333959","0.0-90.0-0.0","71062420","wem/bandit_either_3","A1MYLQQL8BBOYT","either","3","155","","","","","","","1","0","0","0.8279472521","","0.6","0.8","0.2","0.4","","","","","0.8108951243","0.8279472521","0.6689959301","0.05053383529","","","","","","","","74","J","1","","","50","main_expt",""
"","bandit","130","335727","0.0-91.0-0.0","71062420","wem/bandit_either_3","A1MYLQQL8BBOYT","either","3","243","","","","","","","1","0","0","0.8426817256","","0.6","0.8","0.2","0.4","","","","","0.7649170446","0.8426817256","0.6020608281","0.04681033125","","","","","","","","74","J","1","","","51","main_expt",""
"","bandit","131","337480","0.0-92.0-0.0","71062420","wem/bandit_either_3","A1MYLQQL8BBOYT","either","3","227","","","","","","","1","0","0","0.8377647656","","0.6","0.8","0.2","0.4","","","","","0.8169848275","0.8377647656","0.6583182673","0.09308222201","","","","","","","","74","J","1","","","52","main_expt",""
"","bandit","132","339237","0.0-93.0-0.0","71062420","wem/bandit_either_3","A1MYLQQL8BBOYT","either","3","234","","","","","","","1","0","0","0.8241398149","","0.6","0.8","0.2","0.4","","","","","0.8843577791","0.8241398149","0.5419436754","0.1397702629","","","","","","","","74","J","1","","","53","main_expt",""
"","bandit","133","341031","0.0-94.0-0.0","71062420","wem/bandit_either_3","A1MYLQQL8BBOYT","either","3","269","","","","","","","1","0","0","0.7289352116","","0.6","0.8","0.2","0.4","","","","","0.8854515068","0.7289352116","0.5717614462","0.110287685","","","","","","","","74","J","1","","","54","main_expt",""
"","bandit","134","342806","0.0-95.0-0.0","71062420","wem/bandit_either_3","A1MYLQQL8BBOYT","either","3","251","","","","","","","1","0","0","0.5895019519","","0.6","0.8","0.2","0.4","","","","","0.8884574585","0.5895019519","0.5497935615","0.1843384007","","","","","","","","74","J","1","","","55","main_expt",""
"","bandit","135","344534","0.0-96.0-0.0","71062420","wem/bandit_either_3","A1MYLQQL8BBOYT","either","3","204","","","","","","","1","0","0","0.4622464331","","0.6","0.8","0.2","0.4","","","","","0.8840911236","0.4622464331","0.4902645195","0.2056752237","","","","","","","","74","J","1","","","56","main_expt",""
"","bandit","136","346295","0.0-97.0-0.0","71062420","wem/bandit_either_3","A1MYLQQL8BBOYT","either","3","235","","","","","","","0","0","1","0.490024734","","0.6","0.8","0.2","0.4","","","","","0.864283103","0.490024734","0.5258365243","0.3410726922","","","","","","","","74","J","1","","","57","main_expt",""
"","bandit","137","347879","0.0-98.0-0.0","71062420","wem/bandit_either_3","A1MYLQQL8BBOYT","either","3","60","","","","","","","1","0","0","0.6182628796","","0.6","0.8","0.2","0.4","","","","","0.7377821737","0.6182628796","0.6097664349","0.3873695161","","","","","","","","74","J","1","","","58","main_expt",""
"","bandit","138","349622","0.0-99.0-0.0","71062420","wem/bandit_either_3","A1MYLQQL8BBOYT","either","3","219","","","","","","","1","0","0","0.6976829826","","0.6","0.8","0.2","0.4","","","","","0.7469541206","0.6976829826","0.6016711108","0.3281321534","","","","","","","","74","J","1","","","59","main_expt",""
"","bandit","139","351335","0.0-100.0-0.0","71062420","wem/bandit_either_3","A1MYLQQL8BBOYT","either","3","187","","","","","","","0","0","1","0.675433977","","0.6","0.8","0.2","0.4","","","","","0.8019510571","0.675433977","0.5544917648","0.2380439254","","","","","","","","74","J","1","","","60","main_expt",""
"","bandit","140","352966","0.0-101.0-0.0","71062420","wem/bandit_either_3","A1MYLQQL8BBOYT","either","3","105","","","","","","","0","0","1","0.7206550838","","0.6","0.8","0.2","0.4","","","","","0.8943887388","0.7206550838","0.6842720067","0.2228222105","","","","","","","","74","J","1","","","61","main_expt",""
"","bandit","141","354647","0.0-102.0-0.0","71062420","wem/bandit_either_3","A1MYLQQL8BBOYT","either","3","154","","","","","","","0","0","1","","0.2489253665","0.6","0.8","0.2","0.4","0.8942973556","0.7184677658","0.6824345281","0.2489253665","","","","","","","","","","","","76","L","3","","","62","main_expt",""
"","bandit","142","356807","0.0-103.0-0.0","71062420","wem/bandit_either_3","A1MYLQQL8BBOYT","either","3","633","","","","","","","0","0","1","","0.2298237489","0.6","0.8","0.2","0.4","0.8829609874","0.6785259816","0.7321168219","0.2298237489","","","","","","","","","","","","76","L","3","","","63","main_expt",""
"","bandit","143","358375","0.0-104.0-0.0","71062420","wem/bandit_either_3","A1MYLQQL8BBOYT","either","3","42","","","","","","","0","1","0","","0.8175344892","0.6","0.8","0.2","0.4","0.8175344892","0.6349383059","0.8123013145","0.1849055857","","","","","","","","","","","","72","H","0","img/none_selected.jpg","","64","main_expt",""
"","bandit","144","360118","0.0-105.0-0.0","71062420","wem/bandit_either_3","A1MYLQQL8BBOYT","either","3","218","","","","","","","1","0","0","0.7812905168","","0.6","0.8","0.2","0.4","","","","","0.7812905168","0.629769122","0.8236121316","0.2285715909","","","","","","","","72","H","0","img/none_selected.jpg","","65","main_expt",""
"","bandit","145","361881","0.0-106.0-0.0","71062420","wem/bandit_either_3","A1MYLQQL8BBOYT","either","3","228","","","","","","","0","0","1","0.7848445355","","0.6","0.8","0.2","0.4","","","","","0.7848445355","0.7158950816","0.8270077233","0.2477643906","","","","","","","","72","H","0","img/none_selected.jpg","","66","main_expt",""
"","bandit","146","363430","0.0-107.0-0.0","71062420","wem/bandit_either_3","A1MYLQQL8BBOYT","either","3","24","","","","","","","0","1","0","","0.763143195","0.6","0.8","0.2","0.4","0.763143195","0.6309271871","0.7601471472","0.1801078726","","","","","","","","","","","","72","H","0","img/none_selected.jpg","","67","main_expt",""
"","bandit","147","365234","0.0-108.0-0.0","71062420","wem/bandit_either_3","A1MYLQQL8BBOYT","either","3","267","","","","","","","0","1","0","","0.7966751536","0.6","0.8","0.2","0.4","0.7966751536","0.617221228","0.7567750057","0.08479184886","","","","","","","","","","","","72","H","0","img/none_selected.jpg","","68","main_expt",""
"","bandit","148","366951","0.0-109.0-0.0","71062420","wem/bandit_either_3","A1MYLQQL8BBOYT","either","3","191","","","","","","","0","1","0","","0.8534335227","0.6","0.8","0.2","0.4","0.8534335227","0.6235929763","0.6871277649","0.06982522498","","","","","","","","","","","","72","H","0","img/none_selected.jpg","","69","main_expt",""
"","bandit","149","368645","0.0-110.0-0.0","71062420","wem/bandit_either_3","A1MYLQQL8BBOYT","either","3","170","","","","","","","1","0","0","0.8915498471","","0.6","0.8","0.2","0.4","","","","","0.8915498471","0.5543620559","0.773099018","0.05029268469","","","","","","","","72","H","0","img/none_selected.jpg","","70","main_expt",""
"","bandit","150","370327","0.0-111.0-0.0","71062420","wem/bandit_either_3","A1MYLQQL8BBOYT","either","3","153","","","","","","","0","1","0","","0.8736989015","0.6","0.8","0.2","0.4","0.8736989015","0.5333999135","0.7412476729","0.06413839938","","","","","","","","","","","","72","H","0","img/none_selected.jpg","","71","main_expt",""
"","bandit","151","371974","0.0-112.0-0.0","71062420","wem/bandit_either_3","A1MYLQQL8BBOYT","either","3","123","","","","","","","1","0","0","0.8837551658","","0.6","0.8","0.2","0.4","","","","","0.8837551658","0.5905126671","0.8080704968","0.05155778705","","","","","","","","72","H","0","img/none_selected.jpg","","72","main_expt",""
"","bandit","152","373717","0.0-113.0-0.0","71062420","wem/bandit_either_3","A1MYLQQL8BBOYT","either","3","219","","","","","","","1","0","0","0.8495494246","","0.6","0.8","0.2","0.4","","","","","0.8495494246","0.6925119087","0.8270016227","0.0232747386","","","","","","","","72","H","0","img/none_selected.jpg","","73","main_expt",""
"","bandit","153","375430","0.0-114.0-0.0","71062420","wem/bandit_either_3","A1MYLQQL8BBOYT","either","3","188","","","","","","","0","1","0","","0.9127472651","0.6","0.8","0.2","0.4","0.9127472651","0.7134745341","0.7872017979","0.04751547773","","","","","","","","","","","","72","H","0","img/none_selected.jpg","","74","main_expt",""
"","bandit","154","377125","0.0-115.0-0.0","71062420","wem/bandit_either_3","A1MYLQQL8BBOYT","either","3","171","","","","","","","0","1","0","","0.9199060817","0.6","0.8","0.2","0.4","0.9199060817","0.8065440948","0.6167225576","0.05282531612","","","","","","","","","","","","72","H","0","img/none_selected.jpg","","75","main_expt",""
"","bandit","155","378821","0.0-116.0-0.0","71062420","wem/bandit_either_3","A1MYLQQL8BBOYT","either","3","172","","","","","","","0","1","0","","0.8691294168","0.6","0.8","0.2","0.4","0.8691294168","0.7849172319","0.637182095","0.08738729654","","","","","","","","","","","","72","H","0","img/none_selected.jpg","","76","main_expt",""
"","bandit","156","380565","0.0-117.0-0.0","71062420","wem/bandit_either_3","A1MYLQQL8BBOYT","either","3","219","","","","","","","0","1","0","","0.9111329321","0.6","0.8","0.2","0.4","0.9111329321","0.7818962729","0.7169911294","0.08851312664","","","","","","","","","","","","72","H","0","img/none_selected.jpg","","77","main_expt",""
"","bandit","157","382231","0.0-118.0-0.0","71062420","wem/bandit_either_3","A1MYLQQL8BBOYT","either","3","139","","","","","","","1","0","0","0.9286966754","","0.6","0.8","0.2","0.4","","","","","0.9286966754","0.7002933386","0.7446448061","0.145228539","","","","","","","","72","H","0","img/none_selected.jpg","","78","main_expt",""
"","bandit","158","384006","0.0-119.0-0.0","71062420","wem/bandit_either_3","A1MYLQQL8BBOYT","either","3","250","","","","","","","1","0","0","0.9616021792","","0.6","0.8","0.2","0.4","","","","","0.9616021792","0.6510109529","0.8152221547","0.1669860915","","","","","","","","72","H","0","img/none_selected.jpg","","79","main_expt",""
"","bandit","159","385846","0.0-120.0-0.0","71062420","wem/bandit_either_3","A1MYLQQL8BBOYT","either","3","314","","","","","","","0","0","1","0.950571795","","0.6","0.8","0.2","0.4","","","","","0.950571795","0.6765614865","0.810351938","0.1922913003","","","","","","","","72","H","0","img/none_selected.jpg","","80","main_expt",""
"","bandit","160","387592","0.0-121.0-0.0","71062420","wem/bandit_either_3","A1MYLQQL8BBOYT","either","3","220","","","","","","","0","0","1","0.5908869344","","0.6","0.8","0.2","0.4","","","","","0.9331160128","0.5908869344","0.8895110989","0.2407870914","","","","","","","","74","J","1","","","81","main_expt",""
"","bandit","161","389447","0.0-122.0-0.0","71062420","wem/bandit_either_3","A1MYLQQL8BBOYT","either","3","328","","","","","","","1","0","0","0.5267531711","","0.6","0.8","0.2","0.4","","","","","0.9465986336","0.5267531711","0.9046816681","0.3077898034","","","","","","","","74","J","1","","","82","main_expt",""
"","bandit","162","391494","0.0-123.0-0.0","71062420","wem/bandit_either_3","A1MYLQQL8BBOYT","either","3","520","","","","","","","1","0","0","0.6168373964","","0.6","0.8","0.2","0.4","","","","","0.9371159138","0.6168373964","0.8465278631","0.2337579628","","","","","","","","74","J","1","","","83","main_expt",""
"","bandit","163","393543","0.0-124.0-0.0","71062420","wem/bandit_either_3","A1MYLQQL8BBOYT","either","3","519","","","","","","","0","0","1","0.5733990252","","0.6","0.8","0.2","0.4","","","","","0.8998840018","0.5733990252","0.7584930438","0.2781329454","","","","","","","","74","J","1","","","84","main_expt",""
"","bandit","164","395366","0.0-125.0-0.0","71062420","wem/bandit_either_3","A1MYLQQL8BBOYT","either","3","297","","","","","","","0","0","1","0.4719695616","","0.6","0.8","0.2","0.4","","","","","0.9102188985","0.4719695616","0.7727946294","0.3013149798","","","","","","","","74","J","1","","","85","main_expt",""
"","bandit","165","397190","0.0-126.0-0.0","71062420","wem/bandit_either_3","A1MYLQQL8BBOYT","either","3","298","","","","","","","0","1","0","","0.8216594778","0.6","0.8","0.2","0.4","0.9000055418","0.6941651786","0.8216594778","0.3231836659","","","","","","","","","","","","75","K","2","","","86","main_expt",""
"","bandit","166","398904","0.0-127.0-0.0","71062420","wem/bandit_either_3","A1MYLQQL8BBOYT","either","3","186","","","","","","","0","0","1","0.7833884788","","0.6","0.8","0.2","0.4","","","","","0.8563468124","0.5408952125","0.7833884788","0.3986379136","","","","","","","","75","K","2","","","87","main_expt",""
"","bandit","167","400806","0.0-128.0-0.0","71062420","wem/bandit_either_3","A1MYLQQL8BBOYT","either","3","375","","","","","","","1","0","0","0.4230151841","","0.6","0.8","0.2","0.4","","","","","0.7349543302","0.5438891422","0.7804426693","0.4230151841","","","","","","","","76","L","3","","","88","main_expt",""
"","bandit","168","402471","0.0-129.0-0.0","71062420","wem/bandit_either_3","A1MYLQQL8BBOYT","either","3","138","","","","","","","0","0","1","0.3761858397","","0.6","0.8","0.2","0.4","","","","","0.7907967515","0.4294971294","0.7930928848","0.3761858397","","","","","","","","76","L","3","","","89","main_expt",""
"","bandit","169","404072","0.0-130.0-0.0","71062420","wem/bandit_either_3","A1MYLQQL8BBOYT","either","3","67","","","","","","","0","1","0","","0.4799086841","0.6","0.8","0.2","0.4","0.7883246469","0.4928337868","0.7683039237","0.4799086841","","","","","","","","","","","","76","L","3","","","90","main_expt",""
"","bandit","170","405878","0.0-131.0-0.0","71062420","wem/bandit_either_3","A1MYLQQL8BBOYT","either","3","280","","","","","","","0","0","1","","0.4558425901","0.6","0.8","0.2","0.4","0.8389096604","0.5655090935","0.8072091422","0.4558425901","","","","","","","","","","","","76","L","3","","","91","main_expt",""
"","bandit","171","407670","0.0-132.0-0.0","71062420","wem/bandit_either_3","A1MYLQQL8BBOYT","either","3","266","","","","","","","0","1","0","","0.3781515597","0.6","0.8","0.2","0.4","0.8064187158","0.6154818033","0.7791444337","0.3781515597","","","","","","","","","","","","76","L","3","","","92","main_expt",""
"","bandit","172","409510","0.0-133.0-0.0","71062420","wem/bandit_either_3","A1MYLQQL8BBOYT","either","3","314","","","","","","","0","0","1","","0.2858753042","0.6","0.8","0.2","0.4","0.7542368763","0.7381217307","0.8498372391","0.2858753042","","","","","","","","","","","","76","L","3","","","93","main_expt",""
"","bandit","173","411302","0.0-134.0-0.0","71062420","wem/bandit_either_3","A1MYLQQL8BBOYT","either","3","266","","","","","","","0","0","1","","0.3914428564","0.6","0.8","0.2","0.4","0.6932487021","0.7776388333","0.8440610374","0.3914428564","","","","","","","","","","","","76","L","3","","","94","main_expt",""
"","bandit","174","413046","0.0-135.0-0.0","71062420","wem/bandit_either_3","A1MYLQQL8BBOYT","either","3","219","","","","","","","1","0","0","0.6706070003","","0.6","0.8","0.2","0.4","","","","","0.6706070003","0.8299152283","0.8092418145","0.3800018616","","","","","","","","72","H","0","img/none_selected.jpg","","95","main_expt",""
"","bandit","175","414763","0.0-136.0-0.0","71062420","wem/bandit_either_3","A1MYLQQL8BBOYT","either","3","188","","","","","","","0","0","1","0.6670251336","","0.6","0.8","0.2","0.4","","","","","0.6670251336","0.7697811485","0.8655172998","0.3078584031","","","","","","","","72","H","0","img/none_selected.jpg","","96","main_expt",""
"","bandit","176","417032","0.0-137.0-0.0","71062420","wem/bandit_either_3","A1MYLQQL8BBOYT","either","3","739","","","","","","","0","1","0","","0.7023758817","0.6","0.8","0.2","0.4","0.7023758817","0.7487724405","0.8735151232","0.218486712","","","","","","","","","","","","72","H","0","img/none_selected.jpg","","97","main_expt",""
"","bandit","177","418774","0.0-138.0-0.0","71062420","wem/bandit_either_3","A1MYLQQL8BBOYT","either","3","215","","","","","","","1","0","0","0.7036518389","","0.6","0.8","0.2","0.4","","","","","0.7036518389","0.7450583294","0.84409386","0.2037628256","","","","","","","","72","H","0","img/none_selected.jpg","","98","main_expt",""
"","bandit","178","420437","0.0-139.0-0.0","71062420","wem/bandit_either_3","A1MYLQQL8BBOYT","either","3","138","","","","","","","1","0","0","0.8401346726","","0.6","0.8","0.2","0.4","","","","","0.8401346726","0.7227120129","0.8089648913","0.2400196326","","","","","","","","72","H","0","img/none_selected.jpg","","99","main_expt",""
"","bandit","179","422054","0.0-140.0-0.0","71062420","wem/bandit_either_3","A1MYLQQL8BBOYT","either","3","91","","","","","","","1","0","0","0.8640782416","","0.6","0.8","0.2","0.4","","","","","0.8640782416","0.5872141049","0.7259557377","0.3298222115","","","","","","","","72","H","0","img/none_selected.jpg","","100","main_expt",""
"","bandit","180","423606","0.0-141.0-0.0","71062420","wem/bandit_either_3","A1MYLQQL8BBOYT","either","3","24","","","","","","","1","0","0","0.8232172207","","0.6","0.8","0.2","0.4","","","","","0.8232172207","0.6432213136","0.6332869741","0.3108047587","","","","","","","","72","H","0","img/none_selected.jpg","","101","main_expt",""
"","bandit","181","425368","0.0-142.0-0.0","71062420","wem/bandit_either_3","A1MYLQQL8BBOYT","either","3","233","","","","","","","1","0","0","0.8451901448","","0.6","0.8","0.2","0.4","","","","","0.8451901448","0.6009476408","0.659443461","0.2869381514","","","","","","","","72","H","0","img/none_selected.jpg","","102","main_expt",""
"","bandit","182","426908","0.0-143.0-0.0","71062420","wem/bandit_either_3","A1MYLQQL8BBOYT","either","3","11","","","","","","","1","0","0","0.8792283932","","0.6","0.8","0.2","0.4","","","","","0.8792283932","0.6120105745","0.5959971703","0.246485708","","","","","","","","72","H","0","img/none_selected.jpg","","103","main_expt",""
"","bandit","183","428614","0.0-144.0-0.0","71062420","wem/bandit_either_3","A1MYLQQL8BBOYT","either","3","180","","","","","","","0","1","0","","0.8887181638","0.6","0.8","0.2","0.4","0.8887181638","0.6821098495","0.5643630141","0.2175667678","","","","","","","","","","","","72","H","0","img/none_selected.jpg","","104","main_expt",""
"","bandit","184","430389","0.0-145.0-0.0","71062420","wem/bandit_either_3","A1MYLQQL8BBOYT","either","3","256","","","","","","","1","0","0","0.8013578166","","0.6","0.8","0.2","0.4","","","","","0.8013578166","0.7228510016","0.5489079514","0.2645808036","","","","","","","","72","H","0","img/none_selected.jpg","","105","main_expt",""
"","bandit","185","432197","0.0-146.0-0.0","71062420","wem/bandit_either_3","A1MYLQQL8BBOYT","either","3","282","","","","","","","0","1","0","","0.7307006529","0.6","0.8","0.2","0.4","0.7307006529","0.6639212405","0.4336033326","0.2652424516","","","","","","","","","","","","72","H","0","img/none_selected.jpg","","106","main_expt",""
"","bandit","186","433927","0.0-147.0-0.0","71062420","wem/bandit_either_3","A1MYLQQL8BBOYT","either","3","202","","","","","","","0","0","1","0.7519500851","","0.6","0.8","0.2","0.4","","","","","0.7519500851","0.6237034742","0.4779201531","0.2481661544","","","","","","","","72","H","0","img/none_selected.jpg","","107","main_expt",""
"","bandit","187","435574","0.0-148.0-0.0","71062420","wem/bandit_either_3","A1MYLQQL8BBOYT","either","3","121","","","","","","","0","0","1","0.5847293191","","0.6","0.8","0.2","0.4","","","","","0.7457577851","0.5847293191","0.5075294874","0.2361720859","","","","","","","","74","J","1","","","108","main_expt",""
"","bandit","188","437206","0.0-149.0-0.0","71062420","wem/bandit_either_3","A1MYLQQL8BBOYT","either","3","105","","","","","","","0","0","1","","0.522842385","0.6","0.8","0.2","0.4","0.77583868","0.6260859175","0.522842385","0.2799679389","","","","","","","","","","","","75","K","2","","","109","main_expt",""
"","bandit","189","438950","0.0-150.0-0.0","71062420","wem/bandit_either_3","A1MYLQQL8BBOYT","either","3","216","","","","","","","0","0","1","","0.7520827962","0.6","0.8","0.2","0.4","0.7520827962","0.4788227383","0.419893696","0.3333098602","","","","","","","","","","","","72","H","0","img/none_selected.jpg","","110","main_expt",""
"","bandit","190","440600","0.0-151.0-0.0","71062420","wem/bandit_either_3","A1MYLQQL8BBOYT","either","3","120","","","","","","","0","0","1","","0.3669732535","0.6","0.8","0.2","0.4","0.6512809768","0.6019778282","0.431092028","0.3669732535","","","","","","","","","","","","76","L","3","","","111","main_expt",""
"","bandit","191","442213","0.0-152.0-0.0","71062420","wem/bandit_either_3","A1MYLQQL8BBOYT","either","3","86","","","","","","","0","0","1","","0.5891937939","0.6","0.8","0.2","0.4","0.5891937939","0.546445977","0.3590071368","0.389765336","","","","","","","","","","","","72","H","0","img/none_selected.jpg","","112","main_expt",""
"","bandit","192","443990","0.0-153.0-0.0","71062420","wem/bandit_either_3","A1MYLQQL8BBOYT","either","3","248","","","","","","","0","0","1","","0.6490525038","0.6","0.8","0.2","0.4","0.6490525038","0.6256092846","0.4498419114","0.3191506652","","","","","","","","","","","","72","H","0","img/none_selected.jpg","","113","main_expt",""
"","bandit","193","445574","0.0-154.0-0.0","71062420","wem/bandit_either_3","A1MYLQQL8BBOYT","either","3","57","","","","","","","1","0","0","0.6577617598","","0.6","0.8","0.2","0.4","","","","","0.6283680234","0.6577617598","0.4829831469","0.2090321438","","","","","","","","74","J","1","","","114","main_expt",""
"","bandit","194","447206","0.0-155.0-0.0","71062420","wem/bandit_either_3","A1MYLQQL8BBOYT","either","3","105","","","","","","","1","0","0","0.7140476354","","0.6","0.8","0.2","0.4","","","","","0.6064224059","0.7140476354","0.4846695964","0.2094439124","","","","","","","","74","J","1","","","115","main_expt",""
"","bandit","195","448998","0.0-156.0-0.0","71062420","wem/bandit_either_3","A1MYLQQL8BBOYT","either","3","265","","","","","","","0","0","1","0.6589976567","","0.6","0.8","0.2","0.4","","","","","0.545813367","0.6589976567","0.5396909338","0.2695181069","","","","","","","","74","J","1","","","116","main_expt",""
"","bandit","196","450741","0.0-157.0-0.0","71062420","wem/bandit_either_3","A1MYLQQL8BBOYT","either","3","216","","","","","","","0","1","0","","0.6937703341","0.6","0.8","0.2","0.4","0.5179373022","0.6937703341","0.5378282835","0.3402036285","","","","","","","","","","","","74","J","1","","","117","main_expt",""
"","bandit","197","452422","0.0-158.0-0.0","71062420","wem/bandit_either_3","A1MYLQQL8BBOYT","either","3","153","","","","","","","1","0","0","0.77114399","","0.6","0.8","0.2","0.4","","","","","0.4014157923","0.77114399","0.5729988564","0.3101634078","","","","","","","","74","J","1","","","118","main_expt",""
"","bandit","198","454250","0.0-159.0-0.0","71062420","wem/bandit_either_3","A1MYLQQL8BBOYT","either","3","249","","","","","","","0","1","0","","0.710000291","0.6","0.8","0.2","0.4","0.4360264599","0.710000291","0.5630251564","0.3242193616","","","","","","","","","","","","74","J","1","","","119","main_expt",""
"","bandit","199","456019","0.0-160.0-0.0","71062420","wem/bandit_either_3","A1MYLQQL8BBOYT","either","3","256","","","","","","","1","0","0","0.6767982245","","0.6","0.8","0.2","0.4","","","","","0.3297853269","0.6767982245","0.6482115929","0.3334277272","","","","","","","","74","J","1","","","120","main_expt",""
"","bandit","200","457846","0.0-161.0-0.0","71062420","wem/bandit_either_3","A1MYLQQL8BBOYT","either","3","298","","","","","","","0","0","1","0.7360115258","","0.6","0.8","0.2","0.4","","","","","0.3767442019","0.7360115258","0.5688505083","0.4066521311","","","","","","","","74","J","1","","","121","main_expt",""
"","bandit","201","459493","0.0-162.0-0.0","71062420","wem/bandit_either_3","A1MYLQQL8BBOYT","either","3","121","","","","","","","0","0","1","","0.5349597204","0.6","0.8","0.2","0.4","0.3589515546","0.7258716992","0.5349597204","0.5193034213","","","","","","","","","","","","75","K","2","","","122","main_expt",""
"","bandit","202","461141","0.0-163.0-0.0","71062420","wem/bandit_either_3","A1MYLQQL8BBOYT","either","3","121","","","","","","","1","0","0","0.7848203729","","0.6","0.8","0.2","0.4","","","","","0.3461890545","0.7848203729","0.412887176","0.5594962391","","","","","","","","74","J","1","","","123","main_expt",""
"","bandit","203","462902","0.0-164.0-0.0","71062420","wem/bandit_either_3","A1MYLQQL8BBOYT","either","3","232","","","","","","","0","1","0","","0.7673004895","0.6","0.8","0.2","0.4","0.2287340519","0.7673004895","0.4137060999","0.6876014299","","","","","","","","","","","","74","J","1","","","124","main_expt",""
"","bandit","204","464583","0.0-165.0-0.0","71062420","wem/bandit_either_3","A1MYLQQL8BBOYT","either","3","149","","","","","","","1","0","0","0.8020703208","","0.6","0.8","0.2","0.4","","","","","0.2900718705","0.8020703208","0.3226696341","0.7354493796","","","","","","","","74","J","1","","","125","main_expt",""
"","bandit","205","466389","0.0-166.0-0.0","71062420","wem/bandit_either_3","A1MYLQQL8BBOYT","either","3","278","","","","","","","0","0","1","0.8196031782","","0.6","0.8","0.2","0.4","","","","","0.2880997441","0.8196031782","0.3904211026","0.76840964","","","","","","","","74","J","1","","","126","main_expt",""
"","bandit","206","468069","0.0-167.0-0.0","71062420","wem/bandit_either_3","A1MYLQQL8BBOYT","either","3","153","","","","","","","0","1","0","","0.7310750685","0.6","0.8","0.2","0.4","0.3451069126","0.7095492128","0.4227014292","0.7310750685","","","","","","","","","","","","76","L","3","","","127","main_expt",""
"","bandit","207","469750","0.0-168.0-0.0","71062420","wem/bandit_either_3","A1MYLQQL8BBOYT","either","3","153","","","","","","","0","1","0","","0.6582635175","0.6","0.8","0.2","0.4","0.3129298861","0.711577854","0.543317668","0.6582635175","","","","","","","","","","","","76","L","3","","","128","main_expt",""
"","bandit","208","471669","0.0-169.0-0.0","71062420","wem/bandit_either_3","A1MYLQQL8BBOYT","either","3","391","","","","","","","1","0","0","0.7529887683","","0.6","0.8","0.2","0.4","","","","","0.3507055597","0.7022761705","0.5906282681","0.7529887683","","","","","","","","76","L","3","","","129","main_expt",""
"","bandit","209","473365","0.0-170.0-0.0","71062420","wem/bandit_either_3","A1MYLQQL8BBOYT","either","3","168","","","","","","","0","1","0","","0.7929301986","0.6","0.8","0.2","0.4","0.3753424236","0.7309419319","0.6636268631","0.7929301986","","","","","","","","","","","","76","L","3","","","130","main_expt",""
"","bandit","210","475092","0.0-171.0-0.0","71062420","wem/bandit_either_3","A1MYLQQL8BBOYT","either","3","200","","","","","","","1","0","0","0.8149544693","","0.6","0.8","0.2","0.4","","","","","0.3473486375","0.6904825683","0.5686699027","0.8149544693","","","","","","","","76","L","3","","","131","main_expt",""
"","bandit","211","476742","0.0-172.0-0.0","71062420","wem/bandit_either_3","A1MYLQQL8BBOYT","either","3","121","","","","","","","1","0","0","0.7626544417","","0.6","0.8","0.2","0.4","","","","","0.303679922","0.7153166113","0.6564012045","0.7626544417","","","","","","","","76","L","3","","","132","main_expt",""
"","bandit","212","478372","0.0-173.0-0.0","71062420","wem/bandit_either_3","A1MYLQQL8BBOYT","either","3","103","","","","","","","0","1","0","","0.7584501248","0.6","0.8","0.2","0.4","0.3385565331","0.8135501627","0.5876654864","0.7584501248","","","","","","","","","","","","76","L","3","","","133","main_expt",""
"","bandit","213","480054","0.0-174.0-0.0","71062420","wem/bandit_either_3","A1MYLQQL8BBOYT","either","3","154","","","","","","","0","1","0","","0.7905015291","0.6","0.8","0.2","0.4","0.3686406913","0.7707892239","0.5299368298","0.7905015291","","","","","","","","","","","","76","L","3","","","134","main_expt",""
"","bandit","214","481783","0.0-175.0-0.0","71062420","wem/bandit_either_3","A1MYLQQL8BBOYT","either","3","200","","","","","","","1","0","0","0.7515189777","","0.6","0.8","0.2","0.4","","","","","0.3672202126","0.7689088841","0.4547966061","0.7515189777","","","","","","","","76","L","3","","","135","main_expt",""
"","bandit","215","483462","0.0-176.0-0.0","71062420","wem/bandit_either_3","A1MYLQQL8BBOYT","either","3","151","","","","","","","0","1","0","","0.7293518859","0.6","0.8","0.2","0.4","0.4064769993","0.6641324257","0.5290841583","0.7293518859","","","","","","","","","","","","76","L","3","","","136","main_expt",""
"","bandit","216","485260","0.0-177.0-0.0","71062420","wem/bandit_either_3","A1MYLQQL8BBOYT","either","3","248","","","","","","","0","0","1","0.7286216209","","0.6","0.8","0.2","0.4","","","","","0.3492503667","0.635388201","0.419904672","0.7286216209","","","","","","","","76","L","3","","","137","main_expt",""
"","bandit","217","486827","0.0-178.0-0.0","71062420","wem/bandit_either_3","A1MYLQQL8BBOYT","either","3","30","","","","","","","1","0","0","0.7425921641","","0.6","0.8","0.2","0.4","","","","","0.3315752647","0.6889508363","0.4532768315","0.7425921641","","","","","","","","76","L","3","","","138","main_expt",""
"","bandit","218","488584","0.0-179.0-0.0","71062420","wem/bandit_either_3","A1MYLQQL8BBOYT","either","3","224","","","","","","","1","0","0","0.7356638012","","0.6","0.8","0.2","0.4","","","","","0.3080831972","0.6481427694","0.4194835996","0.7356638012","","","","","","","","76","L","3","","","139","main_expt",""
"","bandit","219","490189","0.0-180.0-0.0","71062420","wem/bandit_either_3","A1MYLQQL8BBOYT","either","3","70","","","","","","","0","1","0","","0.7334346803","0.6","0.8","0.2","0.4","0.3254670704","0.6497449761","0.420008375","0.7334346803","","","","","","","","","","","","76","L","3","","","140","main_expt",""
"","bandit","220","491897","0.0-181.0-0.0","71062420","wem/bandit_either_3","A1MYLQQL8BBOYT","either","3","172","","","","","","","0","1","0","","0.7737071977","0.6","0.8","0.2","0.4","0.3452870884","0.7328205829","0.3908595681","0.7737071977","","","","","","","","","","","","76","L","3","","","141","main_expt",""
"","bandit","221","493687","0.0-182.0-0.0","71062420","wem/bandit_either_3","A1MYLQQL8BBOYT","either","3","258","","","","","","","0","1","0","","0.7912630164","0.6","0.8","0.2","0.4","0.2659846132","0.6396752577","0.3994278682","0.7912630164","","","","","","","","","","","","76","L","3","","","142","main_expt",""
"","bandit","222","495445","0.0-183.0-0.0","71062420","wem/bandit_either_3","A1MYLQQL8BBOYT","either","3","231","","","","","","","1","0","0","0.7709923268","","0.6","0.8","0.2","0.4","","","","","0.2549781044","0.5974809775","0.3137486051","0.7709923268","","","","","","","","76","L","3","","","143","main_expt",""
"","bandit","223","497046","0.0-184.0-0.0","71062420","wem/bandit_either_3","A1MYLQQL8BBOYT","either","3","72","","","","","","","0","0","1","","0.7492848764","0.6","0.8","0.2","0.4","0.3603981418","0.5953980303","0.3961992406","0.7492848764","","","","","","","","","","","","76","L","3","","","144","main_expt",""
"","bandit","224","498678","0.0-185.0-0.0","71062420","wem/bandit_either_3","A1MYLQQL8BBOYT","either","3","102","","","","","","","1","0","0","0.7343485297","","0.6","0.8","0.2","0.4","","","","","0.3682949958","0.6215671736","0.3186856111","0.7343485297","","","","","","","","76","L","3","","","145","main_expt",""
"","bandit","225","500389","0.0-186.0-0.0","71062420","wem/bandit_either_3","A1MYLQQL8BBOYT","either","3","183","","","","","","","1","0","0","0.7701032705","","0.6","0.8","0.2","0.4","","","","","0.5028772858","0.5766937592","0.2724247948","0.7701032705","","","","","","","","76","L","3","","","146","main_expt",""
"","bandit","226","502022","0.0-187.0-0.0","71062420","wem/bandit_either_3","A1MYLQQL8BBOYT","either","3","103","","","","","","","0","1","0","","0.7521601774","0.6","0.8","0.2","0.4","0.4186890645","0.4600492943","0.2844288079","0.7521601774","","","","","","","","","","","","76","L","3","","","147","main_expt",""
"","bandit","227","503765","0.0-188.0-0.0","71062420","wem/bandit_either_3","A1MYLQQL8BBOYT","either","3","215","","","","","","","0","1","0","","0.7762143641","0.6","0.8","0.2","0.4","0.3928328601","0.4575448178","0.3095389551","0.7762143641","","","","","","","","","","","","76","L","3","","","148","main_expt",""
"","bandit","228","505478","0.0-189.0-0.0","71062420","wem/bandit_either_3","A1MYLQQL8BBOYT","either","3","183","","","","","","","1","0","0","0.716016993","","0.6","0.8","0.2","0.4","","","","","0.4220063763","0.3840278576","0.2464654743","0.716016993","","","","","","","","76","L","3","","","149","main_expt",""
"","bandit","229","507286","0.0-190.0-0.0","71062420","wem/bandit_either_3","A1MYLQQL8BBOYT","either","3","279","","","","","","","0","0","1","","0.7182774931","0.6","0.8","0.2","0.4","0.3206822378","0.3004406684","0.2088091358","0.7182774931","","","","","","","","","","","","76","L","3","","","150","main_expt",""
"","bandit","230","508949","0.0-191.0-0.0","71062420","wem/bandit_either_3","A1MYLQQL8BBOYT","either","3","135","","","","","","","0","1","0","","0.8028216805","0.6","0.8","0.2","0.4","0.3380172956","0.2769981479","0.2670014618","0.8028216805","","","","","","","","","","","","76","L","3","","","151","main_expt",""
"","bandit","231","510678","0.0-192.0-0.0","71062420","wem/bandit_either_3","A1MYLQQL8BBOYT","either","3","199","","","","","","","1","0","0","0.8634692279","","0.6","0.8","0.2","0.4","","","","","0.2461440624","0.40565407","0.3100930243","0.8634692279","","","","","","","","76","L","3","","","152","main_expt",""
"","bandit","232","512342","0.0-193.0-0.0","71062420","wem/bandit_either_3","A1MYLQQL8BBOYT","either","3","135","","","","","","","1","0","0","0.7719190238","","0.6","0.8","0.2","0.4","","","","","0.1852716423","0.3829351634","0.3796096158","0.7719190238","","","","","","","","76","L","3","","","153","main_expt",""
"","bandit","233","513975","0.0-194.0-0.0","71062420","wem/bandit_either_3","A1MYLQQL8BBOYT","either","3","102","","","","","","","1","0","0","0.8343429945","","0.6","0.8","0.2","0.4","","","","","0.1660439368","0.4912137185","0.2265028128","0.8343429945","","","","","","","","76","L","3","","","154","main_expt",""
"","bandit","234","515775","0.0-195.0-0.0","71062420","wem/bandit_either_3","A1MYLQQL8BBOYT","either","3","271","","","","","","","1","0","0","0.7908731232","","0.6","0.8","0.2","0.4","","","","","0.2241607793","0.5312535156","0.2135741777","0.7908731232","","","","","","","","76","L","3","","","155","main_expt",""
"","bandit","235","517414","0.0-196.0-0.0","71062420","wem/bandit_either_3","A1MYLQQL8BBOYT","either","3","110","","","","","","","0","0","1","","0.7848911391","0.6","0.8","0.2","0.4","0.1566338899","0.5747898199","0.1338357519","0.7848911391","","","","","","","","","","","","76","L","3","","","156","main_expt",""
"","bandit","236","518999","0.0-197.0-0.0","71062420","wem/bandit_either_3","A1MYLQQL8BBOYT","either","3","54","","","","","","","0","0","1","","0.1839373886","0.6","0.8","0.2","0.4","0.1839373886","0.5948125822","0.1344370697","0.7467155263","","","","","","","","","","","","72","H","0","img/none_selected.jpg","","157","main_expt",""
"","bandit","237","520541","0.0-198.0-0.0","71062420","wem/bandit_either_3","A1MYLQQL8BBOYT","either","3","8","","","","","","","1","0","0","0.6533804049","","0.6","0.8","0.2","0.4","","","","","0.155802242","0.6533804049","0.1217930933","0.7413618202","","","","","","","","74","J","1","","","158","main_expt",""
"","bandit","238","522293","0.0-199.0-0.0","71062420","wem/bandit_either_3","A1MYLQQL8BBOYT","either","3","222","","","","","","","0","1","0","","0.5777198579","0.6","0.8","0.2","0.4","0.2304237345","0.5777198579","0.08524485746","0.6882043704","","","","","","","","","","","","74","J","1","","","159","main_expt",""
"","bandit","239","524038","0.0-200.0-0.0","71062420","wem/bandit_either_3","A1MYLQQL8BBOYT","either","3","215","","","","","","","1","0","0","0.6777741118","","0.6","0.8","0.2","0.4","","","","","0.2242026456","0.6777741118","0.07332219892","0.7253096401","","","","","","","","74","J","1","","","160","main_expt",""
"","bandit","240","525687","0.0-201.0-0.0","71062420","wem/bandit_either_3","A1MYLQQL8BBOYT","either","3","118","","","","","","","1","0","0","0.6249074267","","0.6","0.8","0.2","0.4","","","","","0.2708915048","0.6249074267","0.1063489691","0.6989182833","","","","","","","","74","J","1","","","161","main_expt",""
"","bandit","241","527317","0.0-202.0-0.0","71062420","wem/bandit_either_3","A1MYLQQL8BBOYT","either","3","101","","","","","","","1","0","0","0.6755041601","","0.6","0.8","0.2","0.4","","","","","0.2921592604","0.6755041601","0.09670310095","0.7679575172","","","","","","","","74","J","1","","","162","main_expt",""
"","bandit","242","529013","0.0-203.0-0.0","71062420","wem/bandit_either_3","A1MYLQQL8BBOYT","either","3","166","","","","","","","1","0","0","0.6461818487","","0.6","0.8","0.2","0.4","","","","","0.2050535257","0.6461818487","0.1266359811","0.6877390752","","","","","","","","74","J","1","","","163","main_expt",""
"","bandit","243","530727","0.0-204.0-0.0","71062420","wem/bandit_either_3","A1MYLQQL8BBOYT","either","3","182","","","","","","","0","1","0","","0.76368027","0.6","0.8","0.2","0.4","0.1998759094","0.76368027","0.1212611996","0.6957575266","","","","","","","","","","","","74","J","1","","","164","main_expt",""
"","bandit","244","532422","0.0-205.0-0.0","71062420","wem/bandit_either_3","A1MYLQQL8BBOYT","either","3","163","","","","","","","1","0","0","0.8400099296","","0.6","0.8","0.2","0.4","","","","","0.1821974317","0.8400099296","0.1917887173","0.6760148625","","","","","","","","74","J","1","","","165","main_expt",""
"","bandit","245","534056","0.0-206.0-0.0","71062420","wem/bandit_either_3","A1MYLQQL8BBOYT","either","3","94","","","","","","","0","0","1","","0.8573275969","0.6","0.8","0.2","0.4","0.2916844583","0.8573275969","0.1560613016","0.6463317238","","","","","","","","","","","","74","J","1","","","166","main_expt",""
"","bandit","246","536423","0.0-207.0-0.0","71062420","wem/bandit_either_3","A1MYLQQL8BBOYT","either","3","836","","","","","","","0","0","1","0.7735369509","","0.6","0.8","0.2","0.4","","","","","0.3087465624","0.7735369509","0.2214887095","0.5613055562","","","","","","","","74","J","1","","","167","main_expt",""
"","bandit","247","538071","0.0-208.0-0.0","71062420","wem/bandit_either_3","A1MYLQQL8BBOYT","either","3","117","","","","","","","0","0","1","","0.3463453368","0.6","0.8","0.2","0.4","0.3896626528","0.8091314607","0.3463453368","0.5586162784","","","","","","","","","","","","75","K","2","","","168","main_expt",""
"","bandit","248","540117","0.0-209.0-0.0","71062420","wem/bandit_either_3","A1MYLQQL8BBOYT","either","3","515","","","","","","","0","0","1","","0.3222551453","0.6","0.8","0.2","0.4","0.4458805252","0.8364166478","0.3222551453","0.597448185","","","","","","","","","","","","75","K","2","","","169","main_expt",""
"","bandit","249","541684","0.0-210.0-0.0","71062420","wem/bandit_either_3","A1MYLQQL8BBOYT","either","3","37","","","","","","","0","1","0","","0.4844269655","0.6","0.8","0.2","0.4","0.4844269655","0.7867883415","0.2556410415","0.5351242352","","","","","","","","","","","","72","H","0","img/none_selected.jpg","","170","main_expt",""
"","bandit","250","543287","0.0-211.0-0.0","71062420","wem/bandit_either_3","A1MYLQQL8BBOYT","either","3","72","","","","","","","0","0","1","","0.4858642724","0.6","0.8","0.2","0.4","0.4858642724","0.8728822524","0.2248109201","0.4819966971","","","","","","","","","","","","72","H","0","img/none_selected.jpg","","171","main_expt",""
"","bandit","251","544999","0.0-212.0-0.0","71062420","wem/bandit_either_3","A1MYLQQL8BBOYT","either","3","181","","","","","","","0","0","1","0.5060245996","","0.6","0.8","0.2","0.4","","","","","0.5060245996","0.7804912391","0.3468742366","0.4038669266","","","","","","","","72","H","0","img/none_selected.jpg","","172","main_expt",""
"","bandit","252","546789","0.0-213.0-0.0","71062420","wem/bandit_either_3","A1MYLQQL8BBOYT","either","3","260","","","","","","","0","0","1","","0.3102533384","0.6","0.8","0.2","0.4","0.5413528159","0.7728490534","0.234408543","0.3102533384","","","","","","","","","","","","76","L","3","","","173","main_expt",""
"","bandit","253","548598","0.0-214.0-0.0","71062420","wem/bandit_either_3","A1MYLQQL8BBOYT","either","3","277","","","","","","","0","0","1","","0.1404050277","0.6","0.8","0.2","0.4","0.6505326818","0.814185781","0.1404050277","0.3818943333","","","","","","","","","","","","75","K","2","","","174","main_expt",""
"","bandit","254","550485","0.0-215.0-0.0","71062420","wem/bandit_either_3","A1MYLQQL8BBOYT","either","3","347","","","","","","","0","0","1","","0.6470977149","0.6","0.8","0.2","0.4","0.6470977149","0.8010682597","0.1081611795","0.2893198216","","","","","","","","","","","","72","H","0","img/none_selected.jpg","","175","main_expt",""
"","bandit","255","552201","0.0-216.0-0.0","71062420","wem/bandit_either_3","A1MYLQQL8BBOYT","either","3","180","","","","","","","0","0","1","","0.7083228223","0.6","0.8","0.2","0.4","0.6844229635","0.7083228223","0.0730283124","0.226416223","","","","","","","","","","","","74","J","1","","","176","main_expt",""
"","bandit","256","554008","0.0-217.0-0.0","71062420","wem/bandit_either_3","A1MYLQQL8BBOYT","either","3","275","","","","","","","0","0","1","0.2786676386","","0.6","0.8","0.2","0.4","","","","","0.6883244284","0.7408938443","0.07044941978","0.2786676386","","","","","","","","76","L","3","","","177","main_expt",""
"","bandit","257","555799","0.0-218.0-0.0","71062420","wem/bandit_either_3","A1MYLQQL8BBOYT","either","3","259","","","","","","","0","0","1","","0.06886985111","0.6","0.8","0.2","0.4","0.6098590842","0.6621187214","0.06886985111","0.2279078815","","","","","","","","","","","","75","K","2","","","178","main_expt",""
"","bandit","258","557574","0.0-219.0-0.0","71062420","wem/bandit_either_3","A1MYLQQL8BBOYT","either","3","244","","","","","","","0","1","0","","0.6765487854","0.6","0.8","0.2","0.4","0.5924449164","0.6765487854","0.07254371148","0.1690126781","","","","","","","","","","","","74","J","1","","","179","main_expt",""
"","bandit","259","559318","0.0-220.0-0.0","71062420","wem/bandit_either_3","A1MYLQQL8BBOYT","either","3","213","","","","","","","0","1","0","","0.7276027883","0.6","0.8","0.2","0.4","0.4915111467","0.7276027883","0.055057054","0.1356066944","","","","","","","","","","","","74","J","1","","","180","main_expt",""
"","bandit","260","561158","0.0-221.0-0.0","71062420","wem/bandit_either_3","A1MYLQQL8BBOYT","either","3","308","","","","","","","1","0","0","0.7083410305","","0.6","0.8","0.2","0.4","","","","","0.4713933083","0.7083410305","0.1187845962","0.1889441784","","","","","","","","74","J","1","","","181","main_expt",""
"","bandit","261","562838","0.0-222.0-0.0","71062420","wem/bandit_either_3","A1MYLQQL8BBOYT","either","3","149","","","","","","","1","0","0","0.6489729838","","0.6","0.8","0.2","0.4","","","","","0.500114893","0.6489729838","0.1304227184","0.2163976064","","","","","","","","74","J","1","","","182","main_expt",""
"","bandit","262","564455","0.0-223.0-0.0","71062420","wem/bandit_either_3","A1MYLQQL8BBOYT","either","3","85","","","","","","","0","0","1","","0.6956751073","0.6","0.8","0.2","0.4","0.4949273894","0.6956751073","0.1374638341","0.1902524086","","","","","","","","","","","","74","J","1","","","183","main_expt",""
"","bandit","263","566054","0.0-224.0-0.0","71062420","wem/bandit_either_3","A1MYLQQL8BBOYT","either","3","67","","","","","","","0","1","0","","0.6066537109","0.6","0.8","0.2","0.4","0.4271361476","0.6066537109","0.1914365344","0.2265805791","","","","","","","","","","","","74","J","1","","","184","main_expt",""
"","bandit","264","567749","0.0-225.0-0.0","71062420","wem/bandit_either_3","A1MYLQQL8BBOYT","either","3","164","","","","","","","0","1","0","","0.6337362372","0.6","0.8","0.2","0.4","0.4558255176","0.6337362372","0.1939872458","0.1843452782","","","","","","","","","","","","74","J","1","","","185","main_expt",""
"","bandit","265","569495","0.0-226.0-0.0","71062420","wem/bandit_either_3","A1MYLQQL8BBOYT","either","3","212","","","","","","","1","0","0","0.5908962551","","0.6","0.8","0.2","0.4","","","","","0.4031301461","0.5908962551","0.2219937035","0.1898387663","","","","","","","","74","J","1","","","186","main_expt",""
"","bandit","266","571222","0.0-227.0-0.0","71062420","wem/bandit_either_3","A1MYLQQL8BBOYT","either","3","196","","","","","","","0","1","0","","0.7651761031","0.6","0.8","0.2","0.4","0.3993697366","0.7651761031","0.2024523472","0.210498268","","","","","","","","","","","","74","J","1","","","187","main_expt",""
"","bandit","267","572951","0.0-228.0-0.0","71062420","wem/bandit_either_3","A1MYLQQL8BBOYT","either","3","196","","","","","","","0","0","1","0.7928336054","","0.6","0.8","0.2","0.4","","","","","0.4478687375","0.7928336054","0.1930401344","0.2368649008","","","","","","","","74","J","1","","","188","main_expt",""
"","bandit","268","574532","0.0-229.0-0.0","71062420","wem/bandit_either_3","A1MYLQQL8BBOYT","either","3","50","","","","","","","1","0","0","0.8917358491","","0.6","0.8","0.2","0.4","","","","","0.3699601256","0.8917358491","0.3255404916","0.291591963","","","","","","","","74","J","1","","","189","main_expt",""
"","bandit","269","576228","0.0-230.0-0.0","71062420","wem/bandit_either_3","A1MYLQQL8BBOYT","either","3","166","","","","","","","1","0","0","0.898448025","","0.6","0.8","0.2","0.4","","","","","0.3723251068","0.898448025","0.2364063212","0.4411779124","","","","","","","","74","J","1","","","190","main_expt",""
"","bandit","270","577862","0.0-231.0-0.0","71062420","wem/bandit_either_3","A1MYLQQL8BBOYT","either","3","97","","","","","","","1","0","0","0.9186708851","","0.6","0.8","0.2","0.4","","","","","0.3309849287","0.9186708851","0.2662767285","0.3968704403","","","","","","","","74","J","1","","","191","main_expt",""
"","bandit","271","579494","0.0-232.0-0.0","71062420","wem/bandit_either_3","A1MYLQQL8BBOYT","either","3","97","","","","","","","1","0","0","0.9314477517","","0.6","0.8","0.2","0.4","","","","","0.2865625263","0.9314477517","0.2815174114","0.4512817608","","","","","","","","74","J","1","","","192","main_expt",""
"","bandit","272","581270","0.0-233.0-0.0","71062420","wem/bandit_either_3","A1MYLQQL8BBOYT","either","3","243","","","","","","","1","0","0","0.9090465067","","0.6","0.8","0.2","0.4","","","","","0.2862811746","0.9090465067","0.3461293965","0.4788006455","","","","","","","","74","J","1","","","193","main_expt",""
"","bandit","273","582917","0.0-234.0-0.0","71062420","wem/bandit_either_3","A1MYLQQL8BBOYT","either","3","115","","","","","","","1","0","0","0.8762249788","","0.6","0.8","0.2","0.4","","","","","0.2785288642","0.8762249788","0.3303735913","0.4651889587","","","","","","","","74","J","1","","","194","main_expt",""
"","bandit","274","584628","0.0-235.0-0.0","71062420","wem/bandit_either_3","A1MYLQQL8BBOYT","either","3","180","","","","","","","0","1","0","","0.8623185747","0.6","0.8","0.2","0.4","0.2283941808","0.8623185747","0.3194565039","0.4718629942","","","","","","","","","","","","74","J","1","","","195","main_expt",""
"","bandit","275","586261","0.0-236.0-0.0","71062420","wem/bandit_either_3","A1MYLQQL8BBOYT","either","3","110","","","","","","","1","0","0","0.7745977574","","0.6","0.8","0.2","0.4","","","","","0.214282227","0.7745977574","0.4103944464","0.3825708332","","","","","","","","74","J","1","","","196","main_expt",""
"","bandit","276","588039","0.0-237.0-0.0","71062420","wem/bandit_either_3","A1MYLQQL8BBOYT","either","3","243","","","","","","","1","0","0","0.7723069829","","0.6","0.8","0.2","0.4","","","","","0.1422959513","0.7723069829","0.4445726534","0.4530864699","","","","","","","","74","J","1","","","197","main_expt",""
"","bandit","277","589751","0.0-238.0-0.0","71062420","wem/bandit_either_3","A1MYLQQL8BBOYT","either","3","178","","","","","","","1","0","0","0.7084082875","","0.6","0.8","0.2","0.4","","","","","0.1126324943","0.7084082875","0.4351718099","0.4337652667","","","","","","","","74","J","1","","","198","main_expt",""
"","bandit","278","591495","0.0-239.0-0.0","71062420","wem/bandit_either_3","A1MYLQQL8BBOYT","either","3","209","","","","","","","0","0","1","0.7016883558","","0.6","0.8","0.2","0.4","","","","","0.1144166609","0.7016883558","0.4641294157","0.4138332966","","","","","","","","74","J","1","","","199","main_expt",""
"","bandit","279","593383","0.0-240.0-0.0","71062420","wem/bandit_either_3","A1MYLQQL8BBOYT","either","3","359","","","","","","","1","0","0","0.6504384346","","0.6","0.8","0.2","0.4","","","","","0.1518003708","0.6504384346","0.4468687069","0.5005175686","","","","","","","","74","J","1","","","200","main_expt",""
"","bandit","280","595253","0.0-241.0-0.0","71062420","wem/bandit_either_3","A1MYLQQL8BBOYT","either","3","336","","","","","","","1","0","0","0.7904945102","","0.6","0.8","0.2","0.4","","","","","0.1974433607","0.7904945102","0.5087435212","0.5122642399","","","","","","","","74","J","1","","","201","main_expt",""
"","bandit","281","596901","0.0-242.0-0.0","71062420","wem/bandit_either_3","A1MYLQQL8BBOYT","either","3","115","","","","","","","1","0","0","0.7039472437","","0.6","0.8","0.2","0.4","","","","","0.2000842809","0.7039472437","0.4992132835","0.5414597976","","","","","","","","74","J","1","","","202","main_expt",""
"","bandit","282","598582","0.0-243.0-0.0","71062420","wem/bandit_either_3","A1MYLQQL8BBOYT","either","3","148","","","","","","","1","0","0","0.7478807213","","0.6","0.8","0.2","0.4","","","","","0.1715580826","0.7478807213","0.4859842053","0.4993649945","","","","","","","","74","J","1","","","203","main_expt",""
"","bandit","283","600278","0.0-244.0-0.0","71062420","wem/bandit_either_3","A1MYLQQL8BBOYT","either","3","162","","","","","","","1","0","0","0.7346150791","","0.6","0.8","0.2","0.4","","","","","0.3028604286","0.7346150791","0.6162755314","0.4056752737","","","","","","","","74","J","1","","","204","main_expt",""
"","bandit","284","601989","0.0-245.0-0.0","71062420","wem/bandit_either_3","A1MYLQQL8BBOYT","either","3","178","","","","","","","1","0","0","0.7240623961","","0.6","0.8","0.2","0.4","","","","","0.3714949669","0.7240623961","0.6204906845","0.4174768156","","","","","","","","74","J","1","","","205","main_expt",""
"","bandit","285","603717","0.0-246.0-0.0","71062420","wem/bandit_either_3","A1MYLQQL8BBOYT","either","3","195","","","","","","","1","0","0","0.733657826","","0.6","0.8","0.2","0.4","","","","","0.3034865557","0.733657826","0.6390595606","0.4364097613","","","","","","","","74","J","1","","","206","main_expt",""
"","bandit","286","605477","0.0-247.0-0.0","71062420","wem/bandit_either_3","A1MYLQQL8BBOYT","either","3","227","","","","","","","0","0","1","0.6797091947","","0.6","0.8","0.2","0.4","","","","","0.2688105372","0.6797091947","0.6022157482","0.4666062126","","","","","","","","74","J","1","","","207","main_expt",""
"","bandit","287","607029","0.0-248.0-0.0","71062420","wem/bandit_either_3","A1MYLQQL8BBOYT","either","3","20","","","","","","","0","0","1","0.472157919","","0.6","0.8","0.2","0.4","","","","","0.2240001326","0.472157919","0.6598502583","0.4594719295","","","","","","","","74","J","1","","","208","main_expt",""
"","bandit","288","608662","0.0-249.0-0.0","71062420","wem/bandit_either_3","A1MYLQQL8BBOYT","either","3","101","","","","","","","1","0","0","0.3284172364","","0.6","0.8","0.2","0.4","","","","","0.3284172364","0.4993955773","0.6329069529","0.5415101973","","","","","","","","72","H","0","img/none_selected.jpg","","209","main_expt",""
"","bandit","289","610247","0.0-250.0-0.0","71062420","wem/bandit_either_3","A1MYLQQL8BBOYT","either","3","44","","","","","","","0","0","1","0.3178667136","","0.6","0.8","0.2","0.4","","","","","0.3178667136","0.3923888982","0.5418549626","0.5627952802","","","","","","","","72","H","0","img/none_selected.jpg","","210","main_expt",""
"","bandit","290","611812","0.0-251.0-0.0","71062420","wem/bandit_either_3","A1MYLQQL8BBOYT","either","3","33","","","","","","","0","1","0","","0.5779033475","0.6","0.8","0.2","0.4","0.278360526","0.4183885941","0.7265410197","0.5779033475","","","","","","","","","","","","76","L","3","","","211","main_expt",""
"","bandit","291","613445","0.0-252.0-0.0","71062420","wem/bandit_either_3","A1MYLQQL8BBOYT","either","3","101","","","","","","","0","0","1","0.6169713091","","0.6","0.8","0.2","0.4","","","","","0.2720231684","0.5367383083","0.6550819281","0.6169713091","","","","","","","","76","L","3","","","212","main_expt",""
"","bandit","292","615110","0.0-253.0-0.0","71062420","wem/bandit_either_3","A1MYLQQL8BBOYT","either","3","131","","","","","","","0","0","1","","0.5688165975","0.6","0.8","0.2","0.4","0.3445332441","0.5779451767","0.5812500281","0.5688165975","","","","","","","","","","","","76","L","3","","","213","main_expt",""
"","bandit","293","616887","0.0-254.0-0.0","71062420","wem/bandit_either_3","A1MYLQQL8BBOYT","either","3","242","","","","","","","0","0","1","0.5354690829","","0.6","0.8","0.2","0.4","","","","","0.331154659","0.5615700258","0.6912727382","0.5354690829","","","","","","","","76","L","3","","","214","main_expt",""
"","bandit","294","618983","0.0-255.0-0.0","71062420","wem/bandit_either_3","A1MYLQQL8BBOYT","either","3","560","","","","","","","0","0","1","","0.695573978","0.6","0.8","0.2","0.4","0.3168016653","0.5361399643","0.695573978","0.4395706401","","","","","","","","","","","","75","K","2","","","215","main_expt",""
"","bandit","295","620854","0.0-256.0-0.0","71062420","wem/bandit_either_3","A1MYLQQL8BBOYT","either","3","337","","","","","","","0","1","0","","0.620750855","0.6","0.8","0.2","0.4","0.2870858596","0.620750855","0.6531454011","0.4522294324","","","","","","","","","","","","74","J","1","","","216","main_expt",""
"","bandit","296","622534","0.0-257.0-0.0","71062420","wem/bandit_either_3","A1MYLQQL8BBOYT","either","3","146","","","","","","","0","0","1","0.4812239037","","0.6","0.8","0.2","0.4","","","","","0.2877345098","0.4812239037","0.6459690495","0.4141575353","","","","","","","","74","J","1","","","217","main_expt",""
"","bandit","297","624245","0.0-258.0-0.0","71062420","wem/bandit_either_3","A1MYLQQL8BBOYT","either","3","177","","","","","","","0","0","1","0.4028497994","","0.6","0.8","0.2","0.4","","","","","0.3608492067","0.4028497994","0.6679944541","0.3009722504","","","","","","","","74","J","1","","","218","main_expt",""
"","bandit","298","625780","0.0-259.0-0.0","71062420","wem/bandit_either_3","A1MYLQQL8BBOYT","either","3","3","","","","","","","1","0","0","0.4380407461","","0.6","0.8","0.2","0.4","","","","","0.4380407461","0.4441021312","0.7159195147","0.2706893249","","","","","","","","72","H","0","img/none_selected.jpg","","219","main_expt",""
"","bandit","299","627398","0.0-260.0-0.0","71062420","wem/bandit_either_3","A1MYLQQL8BBOYT","either","3","83","","","","","","","0","0","1","","0.4769938592","0.6","0.8","0.2","0.4","0.4769938592","0.4867825248","0.6874484601","0.3821277721","","","","","","","","","","","","72","H","0","img/none_selected.jpg","","220","main_expt",""
"","bandit","300","629030","0.0-261.0-0.0","71062420","wem/bandit_either_3","A1MYLQQL8BBOYT","either","3","99","","","","","","","0","1","0","","0.4612627877","0.6","0.8","0.2","0.4","0.4612627877","0.5428062785","0.6528128226","0.4534214389","","","","","","","","","","","","72","H","0","img/none_selected.jpg","","221","main_expt",""
"","bandit","301","630790","0.0-262.0-0.0","71062420","wem/bandit_either_3","A1MYLQQL8BBOYT","either","3","226","","","","","","","1","0","0","0.4192901336","","0.6","0.8","0.2","0.4","","","","","0.4192901336","0.5993321864","0.6836467719","0.6049712458","","","","","","","","72","H","0","img/none_selected.jpg","","222","main_expt",""
"","bandit","302","632645","0.0-263.0-0.0","71062420","wem/bandit_either_3","A1MYLQQL8BBOYT","either","3","320","","","","","","","0","1","0","","0.5559965486","0.6","0.8","0.2","0.4","0.5559965486","0.4920604154","0.7820879334","0.6389506418","","","","","","","","","","","","72","H","0","img/none_selected.jpg","","223","main_expt",""
"","bandit","303","634438","0.0-264.0-0.0","71062420","wem/bandit_either_3","A1MYLQQL8BBOYT","either","3","259","","","","","","","0","0","1","0.6687933923","","0.6","0.8","0.2","0.4","","","","","0.6687933923","0.5344282052","0.763226653","0.6677375732","","","","","","","","72","H","0","img/none_selected.jpg","","224","main_expt",""
"","bandit","304","636053","0.0-265.0-0.0","71062420","wem/bandit_either_3","A1MYLQQL8BBOYT","either","3","81","","","","","","","1","0","0","0.5954484576","","0.6","0.8","0.2","0.4","","","","","0.5954484576","0.5583452501","0.6931961842","0.7706853934","","","","","","","","72","H","0","img/none_selected.jpg","","225","main_expt",""
"","bandit","305","637845","0.0-266.0-0.0","71062420","wem/bandit_either_3","A1MYLQQL8BBOYT","either","3","258","","","","","","","0","0","1","","0.6152447968","0.6","0.8","0.2","0.4","0.6152447968","0.5126042404","0.6633974694","0.7624197083","","","","","","","","","","","","72","H","0","img/none_selected.jpg","","226","main_expt",""
"","bandit","306","639621","0.0-267.0-0.0","71062420","wem/bandit_either_3","A1MYLQQL8BBOYT","either","3","243","","","","","","","0","1","0","","0.6597553912","0.6","0.8","0.2","0.4","0.6597553912","0.5720595628","0.6567175756","0.7287840805","","","","","","","","","","","","72","H","0","img/none_selected.jpg","","227","main_expt",""
"","bandit","307","641397","0.0-268.0-0.0","71062420","wem/bandit_either_3","A1MYLQQL8BBOYT","either","3","242","","","","","","","0","0","1","0.594895186","","0.6","0.8","0.2","0.4","","","","","0.594895186","0.6134710885","0.6052730858","0.7993891034","","","","","","","","72","H","0","img/none_selected.jpg","","228","main_expt",""
"","bandit","308","642982","0.0-269.0-0.0","71062420","wem/bandit_either_3","A1MYLQQL8BBOYT","either","3","50","","","","","","","0","0","1","0.5722559027","","0.6","0.8","0.2","0.4","","","","","0.5722559027","0.5669106804","0.5548990383","0.8374027748","","","","","","","","72","H","0","img/none_selected.jpg","","229","main_expt",""
"","bandit","309","644677","0.0-270.0-0.0","71062420","wem/bandit_either_3","A1MYLQQL8BBOYT","either","3","161","","","","","","","1","0","0","0.6286782819","","0.6","0.8","0.2","0.4","","","","","0.5409090622","0.6286782819","0.6017114108","0.8414873787","","","","","","","","74","J","1","","","230","main_expt",""
"","bandit","310","646661","0.0-271.0-0.0","71062420","wem/bandit_either_3","A1MYLQQL8BBOYT","either","3","451","","","","","","","1","0","0","0.5594948871","","0.6","0.8","0.2","0.4","","","","","0.518727512","0.5594948871","0.5525336349","0.8531648874","","","","","","","","74","J","1","","","231","main_expt",""
"","bandit","311","648421","0.0-272.0-0.0","71062420","wem/bandit_either_3","A1MYLQQL8BBOYT","either","3","226","","","","","","","1","0","0","0.5817998964","","0.6","0.8","0.2","0.4","","","","","0.5200298571","0.5817998964","0.4493361955","0.8813812612","","","","","","","","74","J","1","","","232","main_expt",""
"","bandit","312","650229","0.0-273.0-0.0","71062420","wem/bandit_either_3","A1MYLQQL8BBOYT","either","3","273","","","","","","","1","0","0","0.5971875981","","0.6","0.8","0.2","0.4","","","","","0.4564343731","0.5971875981","0.5280832246","0.8916766345","","","","","","","","74","J","1","","","233","main_expt",""
"","bandit","313","652022","0.0-274.0-0.0","71062420","wem/bandit_either_3","A1MYLQQL8BBOYT","either","3","257","","","","","","","1","0","0","0.5227237997","","0.6","0.8","0.2","0.4","","","","","0.4168065644","0.5227237997","0.6814540918","0.842820862","","","","","","","","74","J","1","","","234","main_expt",""
"","bandit","314","653653","0.0-275.0-0.0","71062420","wem/bandit_either_3","A1MYLQQL8BBOYT","either","3","96","","","","","","","1","0","0","0.6231997156","","0.6","0.8","0.2","0.4","","","","","0.4340770274","0.6231997156","0.5518959403","0.7856269381","","","","","","","","74","J","1","","","235","main_expt",""
"","bandit","315","655195","0.0-276.0-0.0","71062420","wem/bandit_either_3","A1MYLQQL8BBOYT","either","3","7","","","","","","","1","0","0","0.558272317","","0.6","0.8","0.2","0.4","","","","","0.4489205242","0.558272317","0.4965619817","0.8092971262","","","","","","","","74","J","1","","","236","main_expt",""
"","bandit","316","657062","0.0-277.0-0.0","71062420","wem/bandit_either_3","A1MYLQQL8BBOYT","either","3","331","","","","","","","0","0","1","","0.6118965497","0.6","0.8","0.2","0.4","0.4838648791","0.6118965497","0.4762879104","0.8125536838","","","","","","","","","","","","74","J","1","","","237","main_expt",""
"","bandit","317","658679","0.0-278.0-0.0","71062420","wem/bandit_either_3","A1MYLQQL8BBOYT","either","3","83","","","","","","","0","0","1","0.7415542647","","0.6","0.8","0.2","0.4","","","","","0.4615645545","0.7415542647","0.4991976808","0.8684257659","","","","","","","","74","J","1","","","238","main_expt",""
"","bandit","318","660374","0.0-279.0-0.0","71062420","wem/bandit_either_3","A1MYLQQL8BBOYT","either","3","160","","","","","","","1","0","0","0.794517608","","0.6","0.8","0.2","0.4","","","","","0.4263497721","0.794517608","0.4627972202","0.8891050988","","","","","","","","74","J","1","","","239","main_expt",""
"","bandit","319","662037","0.0-280.0-0.0","71062420","wem/bandit_either_3","A1MYLQQL8BBOYT","either","3","129","","","","","","","1","0","0","0.7966429163","","0.6","0.8","0.2","0.4","","","","","0.4372282776","0.7966429163","0.484486763","0.8983693474","","","","","","","","74","J","1","","","240","main_expt",""
"","bandit","320","663766","0.0-281.0-0.0","71062420","wem/bandit_either_3","A1MYLQQL8BBOYT","either","3","193","","","","","","","1","0","0","0.7827696357","","0.6","0.8","0.2","0.4","","","","","0.5558093781","0.7827696357","0.3450886106","0.8608109038","","","","","","","","74","J","1","","","241","main_expt",""
"","bandit","321","665542","0.0-282.0-0.0","71062420","wem/bandit_either_3","A1MYLQQL8BBOYT","either","3","241","","","","","","","0","1","0","","0.8077769827","0.6","0.8","0.2","0.4","0.654661817","0.8077769827","0.4066884652","0.8807376199","","","","","","","","","","","","74","J","1","","","242","main_expt",""
"","bandit","322","667222","0.0-283.0-0.0","71062420","wem/bandit_either_3","A1MYLQQL8BBOYT","either","3","144","","","","","","","0","0","1","0.7680675523","","0.6","0.8","0.2","0.4","","","","","0.5869565726","0.7680675523","0.3574054959","0.8782163565","","","","","","","","74","J","1","","","243","main_expt",""
"","bandit","323","669142","0.0-284.0-0.0","71062420","wem/bandit_either_3","A1MYLQQL8BBOYT","either","3","384","","","","","","","0","0","1","0.6802465609","","0.6","0.8","0.2","0.4","","","","","0.6282978891","0.6802465609","0.4200458239","0.8691088863","","","","","","","","74","J","1","","","244","main_expt",""
"","bandit","324","670885","0.0-285.0-0.0","71062420","wem/bandit_either_3","A1MYLQQL8BBOYT","either","3","208","","","","","","","0","1","0","","0.6110509309","0.6","0.8","0.2","0.4","0.5918678021","0.6110509309","0.3587254574","0.8516976639","","","","","","","","","","","","74","J","1","","","245","main_expt",""
