"consent","trial_type","trial_index","time_elapsed","internal_node_id","subjID","study","MID","cond","drift","rt","responses","key_press","expt_phase","like","value","connected","gems","bombs","no_reward","GemPrChosen","BombPrChosen","GainOverPainPr_0","GainOverPainPr_1","GainOverPainPr_2","GainOverPainPr_3","LosePr_0","LosePr_1","LosePr_2","LosePr_3","WinPr_0","WinPr_1","WinPr_2","WinPr_3","Q0","Q1","Q2","gender","age","ethnicity","target","respCharCode","respKey","respChoiceNum","respChoice","practice","trial_counter","trial_label","button_pressed"
"INL_behavioral_consent_30min_online.html","consent","0","38550","0.0-0.0","71174173","wem/bandit_either_3","A1UE95ET5RK1RI","either","3","","","","","","","","","","","","","","","","","","","","","","","","","","","","","","","","","","","","","","",""
"","survey-text","1","43019","0.0-1.0","71174173","wem/bandit_either_3","A1UE95ET5RK1RI","either","3","3461","{""Q0"":""A1UE95ET5RK1RI""}","","","","","","","","","","","","","","","","","","","","","","","","","","","","","","","","","","","","",""
"","text","2","48622","0.0-2.0","71174173","wem/bandit_either_3","A1UE95ET5RK1RI","either","3","4597","","32","","","","","","","","","","","","","","","","","","","","","","","","","","","","","","","","","","","",""
"","text","3","70267","0.0-3.0","71174173","wem/bandit_either_3","A1UE95ET5RK1RI","either","3","21645","","32","","","","","","","","","","","","","","","","","","","","","","","","","","","","","","","","","","","",""
"","text","4","175648","0.0-4.0","71174173","wem/bandit_either_3","A1UE95ET5RK1RI","either","3","105380","","32","","","","","","","","","","","","","","","","","","","","","","","","","","","","","","","","","","","",""
"","text","5","196790","0.0-5.0","71174173","wem/bandit_either_3","A1UE95ET5RK1RI","either","3","21141","","32","","","","","","","","","","","","","","","","","","","","","","","","","","","","","","","","","","","",""
"","text","6","202637","0.0-6.0","71174173","wem/bandit_either_3","A1UE95ET5RK1RI","either","3","5846","","32","","","","","","","","","","","","","","","","","","","","","","","","","","","","","","","","","","","",""
"","text","7","207971","0.0-7.0","71174173","wem/bandit_either_3","A1UE95ET5RK1RI","either","3","5333","","32","","","","","","","","","","","","","","","","","","","","","","","","","","","","","","","","","","","",""
"","text","8","212789","0.0-8.0","71174173","wem/bandit_either_3","A1UE95ET5RK1RI","either","3","4817","","32","","","","","","","","","","","","","","","","","","","","","","","","","","","","","","","","","","","",""
"","identification","9","220545","0.0-9.0-0.0","71174173","wem/bandit_either_3","A1UE95ET5RK1RI","either","3","7746","","","","0","0","0","","","","","","","","","","","","","","","","","","","","","","","","the village of Zur","","","","","","","",""
"","identification","10","250101","0.0-9.0-1.0","71174173","wem/bandit_either_3","A1UE95ET5RK1RI","either","3","28544","","","","0","0","0","","","","","","","","","","","","","","","","","","","","","","","","the village of Nyx","","","","","","","",""
"","text","11","301127","0.0-10.0","71174173","wem/bandit_either_3","A1UE95ET5RK1RI","either","3","50019","","32","","","","","","","","","","","","","","","","","","","","","","","","","","","","","","","","","","","",""
"","text","12","302918","0.0-11.0","71174173","wem/bandit_either_3","A1UE95ET5RK1RI","either","3","1791","","32","","","","","","","","","","","","","","","","","","","","","","","","","","","","","","","","","","","",""
"","text","13","304582","0.0-12.0","71174173","wem/bandit_either_3","A1UE95ET5RK1RI","either","3","1662","","32","","","","","","","","","","","","","","","","","","","","","","","","","","","","","","","","","","","",""
"","text","14","306454","0.0-13.0","71174173","wem/bandit_either_3","A1UE95ET5RK1RI","either","3","1871","","32","","","","","","","","","","","","","","","","","","","","","","","","","","","","","","","","","","","",""
"","bandit","15","320486","0.0-14.0-0.0","71174173","wem/bandit_either_3","A1UE95ET5RK1RI","either","3","12521","","","","","","","0","0","1","0","0","","","","","0","","","","0","","","","","","","","","","","74","J","0","img/none_selected_demo.jpg","true","0","",""
"","bandit","16","324075","0.0-15.0-0.0","71174173","wem/bandit_either_3","A1UE95ET5RK1RI","either","3","2079","","","","","","","0","0","1","0","0","","","","","0","","","","0","","","","","","","","","","","75","K","0","img/none_selected_demo.jpg","true","0","",""
"","text","17","329241","0.0-16.0","71174173","wem/bandit_either_3","A1UE95ET5RK1RI","either","3","5165","","32","","","","","","","","","","","","","","","","","","","","","","","","","","","","","","","","","","","",""
"","text","18","362844","0.0-17.0","71174173","wem/bandit_either_3","A1UE95ET5RK1RI","either","3","33601","","32","","","","","","","","","","","","","","","","","","","","","","","","","","","","","","","","","","","",""
"","text","19","364242","0.0-18.0","71174173","wem/bandit_either_3","A1UE95ET5RK1RI","either","3","1398","","32","","","","","","","","","","","","","","","","","","","","","","","","","","","","","","","","","","","",""
"","text","20","381131","0.0-19.0","71174173","wem/bandit_either_3","A1UE95ET5RK1RI","either","3","16887","","32","","","","","","","","","","","","","","","","","","","","","","","","","","","","","","","","","","","",""
"","bandit","21","384953","0.0-20.0-0.0","71174173","wem/bandit_either_3","A1UE95ET5RK1RI","either","3","2309","","","","","","","0","0","1","0.8","","0.5","0.5","","","","","","","0.8","0.2","","","","","","","","","","74","J","0","img/none_selected_demo.jpg","true","0","80_20_practice",""
"","bandit","22","386880","0.0-20.0-1.0","71174173","wem/bandit_either_3","A1UE95ET5RK1RI","either","3","415","","","","","","","0","0","1","0.2","","0.5","0.5","","","","","","","0.8","0.2","","","","","","","","","","75","K","1","","true","0","80_20_practice",""
"","bandit","23","389771","0.0-20.0-2.0","71174173","wem/bandit_either_3","A1UE95ET5RK1RI","either","3","1384","","","","","","","0","1","0","","0.8","0.5","0.5","","","0.8","0.2","","","","","","","","","","","","","","74","J","0","img/none_selected_demo.jpg","true","0","80_20_practice",""
"","bandit","24","391646","0.0-20.0-3.0","71174173","wem/bandit_either_3","A1UE95ET5RK1RI","either","3","365","","","","","","","1","0","0","0.2","","0.5","0.5","","","","","","","0.8","0.2","","","","","","","","","","75","K","1","","true","0","80_20_practice",""
"","bandit","25","393903","0.0-20.0-4.0","71174173","wem/bandit_either_3","A1UE95ET5RK1RI","either","3","747","","","","","","","0","0","1","","0.2","0.5","0.5","","","0.8","0.2","","","","","","","","","","","","","","75","K","1","","true","0","80_20_practice",""
"","bandit","26","397085","0.0-20.0-5.0","71174173","wem/bandit_either_3","A1UE95ET5RK1RI","either","3","1672","","","","","","","0","0","1","0.2","","0.5","0.5","","","","","","","0.8","0.2","","","","","","","","","","75","K","1","","true","0","80_20_practice",""
"","bandit","27","399006","0.0-20.0-6.0","71174173","wem/bandit_either_3","A1UE95ET5RK1RI","either","3","411","","","","","","","1","0","0","0.8","","0.5","0.5","","","","","","","0.8","0.2","","","","","","","","","","74","J","0","img/none_selected_demo.jpg","true","0","80_20_practice",""
"","bandit","28","401879","0.0-20.0-7.0","71174173","wem/bandit_either_3","A1UE95ET5RK1RI","either","3","1360","","","","","","","1","0","0","0.8","","0.5","0.5","","","","","","","0.8","0.2","","","","","","","","","","74","J","0","img/none_selected_demo.jpg","true","0","80_20_practice",""
"","bandit","29","405292","0.0-20.0-8.0","71174173","wem/bandit_either_3","A1UE95ET5RK1RI","either","3","1904","","","","","","","0","0","1","0.8","","0.5","0.5","","","","","","","0.8","0.2","","","","","","","","","","74","J","0","img/none_selected_demo.jpg","true","0","80_20_practice",""
"","bandit","30","407324","0.0-20.0-9.0","71174173","wem/bandit_either_3","A1UE95ET5RK1RI","either","3","522","","","","","","","1","0","0","0.2","","0.5","0.5","","","","","","","0.8","0.2","","","","","","","","","","75","K","1","","true","0","80_20_practice",""
"","bandit","31","409738","0.0-20.0-10.0","71174173","wem/bandit_either_3","A1UE95ET5RK1RI","either","3","907","","","","","","","1","0","0","0.2","","0.5","0.5","","","","","","","0.8","0.2","","","","","","","","","","75","K","1","","true","0","80_20_practice",""
"","bandit","32","413442","0.0-20.0-11.0","71174173","wem/bandit_either_3","A1UE95ET5RK1RI","either","3","2196","","","","","","","0","0","1","","0.2","0.5","0.5","","","0.8","0.2","","","","","","","","","","","","","","75","K","1","","true","0","80_20_practice",""
"","bandit","33","415256","0.0-20.0-12.0","71174173","wem/bandit_either_3","A1UE95ET5RK1RI","either","3","308","","","","","","","1","0","0","0.8","","0.5","0.5","","","","","","","0.8","0.2","","","","","","","","","","74","J","0","img/none_selected_demo.jpg","true","0","80_20_practice",""
"","bandit","34","418190","0.0-20.0-13.0","71174173","wem/bandit_either_3","A1UE95ET5RK1RI","either","3","1422","","","","","","","1","0","0","0.8","","0.5","0.5","","","","","","","0.8","0.2","","","","","","","","","","74","J","0","img/none_selected_demo.jpg","true","0","80_20_practice",""
"","bandit","35","421523","0.0-20.0-14.0","71174173","wem/bandit_either_3","A1UE95ET5RK1RI","either","3","1823","","","","","","","0","1","0","","0.8","0.5","0.5","","","0.8","0.2","","","","","","","","","","","","","","74","J","0","img/none_selected_demo.jpg","true","0","80_20_practice",""
"","bandit","36","424025","0.0-20.0-15.0","71174173","wem/bandit_either_3","A1UE95ET5RK1RI","either","3","996","","","","","","","0","0","1","0.2","","0.5","0.5","","","","","","","0.8","0.2","","","","","","","","","","75","K","1","","true","0","80_20_practice",""
"","bandit","37","425870","0.0-20.0-16.0","71174173","wem/bandit_either_3","A1UE95ET5RK1RI","either","3","334","","","","","","","1","0","0","0.8","","0.5","0.5","","","","","","","0.8","0.2","","","","","","","","","","74","J","0","img/none_selected_demo.jpg","true","0","80_20_practice",""
"","bandit","38","429278","0.0-20.0-17.0","71174173","wem/bandit_either_3","A1UE95ET5RK1RI","either","3","1897","","","","","","","0","0","1","0.8","","0.5","0.5","","","","","","","0.8","0.2","","","","","","","","","","74","J","0","img/none_selected_demo.jpg","true","0","80_20_practice",""
"","bandit","39","430993","0.0-20.0-18.0","71174173","wem/bandit_either_3","A1UE95ET5RK1RI","either","3","208","","","","","","","0","0","1","0.2","","0.5","0.5","","","","","","","0.8","0.2","","","","","","","","","","75","K","1","","true","0","80_20_practice",""
"","bandit","40","432645","0.0-20.0-19.0","71174173","wem/bandit_either_3","A1UE95ET5RK1RI","either","3","141","","","","","","","0","0","1","","0.2","0.5","0.5","","","0.8","0.2","","","","","","","","","","","","","","75","K","1","","true","0","80_20_practice",""
"","text","41","436880","0.0-21.0","71174173","wem/bandit_either_3","A1UE95ET5RK1RI","either","3","4233","","32","","","","","","","","","","","","","","","","","","","","","","","","","","","","","","","","","","","",""
"","bandit","42","440684","0.0-22.0-0.0","71174173","wem/bandit_either_3","A1UE95ET5RK1RI","either","3","2294","","","","","","","1","0","0","1","0","","","","","0","1","","","1","0","","","","","","","","","","74","J","0","img/none_selected_demo.jpg","true","0","",""
"","text","43","443471","0.0-23.0","71174173","wem/bandit_either_3","A1UE95ET5RK1RI","either","3","2785","","32","","","","","","","","","","","","","","","","","","","","","","","","","","","","","","","","","","","",""
"","text","44","454295","0.0-24.0","71174173","wem/bandit_either_3","A1UE95ET5RK1RI","either","3","10822","","32","","","","","","","","","","","","","","","","","","","","","","","","","","","","","","","","","","","",""
"","text","45","456735","0.0-25.0","71174173","wem/bandit_either_3","A1UE95ET5RK1RI","either","3","2438","","32","","","","","","","","","","","","","","","","","","","","","","","","","","","","","","","","","","","",""
"","text","46","460502","0.0-26.0","71174173","wem/bandit_either_3","A1UE95ET5RK1RI","either","3","3767","","32","","","","","","","","","","","","","","","","","","","","","","","","","","","","","","","","","","","",""
"","text","47","465815","0.0-27.0","71174173","wem/bandit_either_3","A1UE95ET5RK1RI","either","3","5311","","32","","","","","","","","","","","","","","","","","","","","","","","","","","","","","","","","","","","",""
"","text","48","470014","0.0-28.0","71174173","wem/bandit_either_3","A1UE95ET5RK1RI","either","3","4198","","32","","","","","","","","","","","","","","","","","","","","","","","","","","","","","","","","","","","",""
"","text","49","476344","0.0-29.0","71174173","wem/bandit_either_3","A1UE95ET5RK1RI","either","3","6328","","32","","","","","","","","","","","","","","","","","","","","","","","","","","","","","","","","","","","",""
"","text","50","478374","0.0-30.0","71174173","wem/bandit_either_3","A1UE95ET5RK1RI","either","3","2029","","32","","","","","","","","","","","","","","","","","","","","","","","","","","","","","","","","","","","",""
"","text","51","481029","0.0-31.0","71174173","wem/bandit_either_3","A1UE95ET5RK1RI","either","3","2654","","32","","","","","","","","","","","","","","","","","","","","","","","","","","","","","","","","","","","",""
"","text","52","482293","0.0-32.0","71174173","wem/bandit_either_3","A1UE95ET5RK1RI","either","3","1263","","32","","","","","","","","","","","","","","","","","","","","","","","","","","","","","","","","","","","",""
"","text","53","487917","0.0-33.0","71174173","wem/bandit_either_3","A1UE95ET5RK1RI","either","3","5622","","32","","","","","","","","","","","","","","","","","","","","","","","","","","","","","","","","","","","",""
"","bandit","54","491255","0.0-34.0-0.0","71174173","wem/bandit_either_3","A1UE95ET5RK1RI","either","3","1831","","","","","","","0","0","1","0.8","","0.5","0.5","0.5","0.5","","","","","0.8","0.2","0.6","0.2","","","","","","","","72","H","0","img/none_selected.jpg","true","0","full_practice",""
"","bandit","55","495222","0.0-34.0-1.0","71174173","wem/bandit_either_3","A1UE95ET5RK1RI","either","3","2459","","","","","","","0","0","1","0.2","","0.5","0.5","0.5","0.5","","","","","0.8","0.2","0.6","0.2","","","","","","","","74","J","1","","true","0","full_practice",""
"","bandit","56","497077","0.0-34.0-2.0","71174173","wem/bandit_either_3","A1UE95ET5RK1RI","either","3","349","","","","","","","1","0","0","0.6","","0.5","0.5","0.5","0.5","","","","","0.8","0.2","0.6","0.2","","","","","","","","75","K","2","","true","0","full_practice",""
"","bandit","57","499102","0.0-34.0-3.0","71174173","wem/bandit_either_3","A1UE95ET5RK1RI","either","3","518","","","","","","","0","0","1","0.6","","0.5","0.5","0.5","0.5","","","","","0.8","0.2","0.6","0.2","","","","","","","","75","K","2","","true","0","full_practice",""
"","bandit","58","500775","0.0-34.0-4.0","71174173","wem/bandit_either_3","A1UE95ET5RK1RI","either","3","164","","","","","","","1","0","0","0.6","","0.5","0.5","0.5","0.5","","","","","0.8","0.2","0.6","0.2","","","","","","","","75","K","2","","true","0","full_practice",""
"","bandit","59","503247","0.0-34.0-5.0","71174173","wem/bandit_either_3","A1UE95ET5RK1RI","either","3","963","","","","","","","0","0","1","0.6","","0.5","0.5","0.5","0.5","","","","","0.8","0.2","0.6","0.2","","","","","","","","75","K","2","","true","0","full_practice",""
"","bandit","60","505146","0.0-34.0-6.0","71174173","wem/bandit_either_3","A1UE95ET5RK1RI","either","3","387","","","","","","","1","0","0","0.6","","0.5","0.5","0.5","0.5","","","","","0.8","0.2","0.6","0.2","","","","","","","","75","K","2","","true","0","full_practice",""
"","bandit","61","506823","0.0-34.0-7.0","71174173","wem/bandit_either_3","A1UE95ET5RK1RI","either","3","168","","","","","","","1","0","0","0.6","","0.5","0.5","0.5","0.5","","","","","0.8","0.2","0.6","0.2","","","","","","","","75","K","2","","true","0","full_practice",""
"","bandit","62","509342","0.0-34.0-8.0","71174173","wem/bandit_either_3","A1UE95ET5RK1RI","either","3","1012","","","","","","","0","1","0","","0.6","0.5","0.5","0.5","0.5","0.8","0.2","0.6","0.2","","","","","","","","","","","","75","K","2","","true","0","full_practice",""
"","bandit","63","511113","0.0-34.0-9.0","71174173","wem/bandit_either_3","A1UE95ET5RK1RI","either","3","259","","","","","","","0","0","1","","0.2","0.5","0.5","0.5","0.5","0.8","0.2","0.6","0.2","","","","","","","","","","","","74","J","1","","true","0","full_practice",""
"","bandit","64","513486","0.0-34.0-10.0","71174173","wem/bandit_either_3","A1UE95ET5RK1RI","either","3","865","","","","","","","1","0","0","0.8","","0.5","0.5","0.5","0.5","","","","","0.8","0.2","0.6","0.2","","","","","","","","72","H","0","img/none_selected.jpg","true","0","full_practice",""
"","bandit","65","516557","0.0-34.0-11.0","71174173","wem/bandit_either_3","A1UE95ET5RK1RI","either","3","1564","","","","","","","0","1","0","","0.8","0.5","0.5","0.5","0.5","0.8","0.2","0.6","0.2","","","","","","","","","","","","72","H","0","img/none_selected.jpg","true","0","full_practice",""
"","bandit","66","518421","0.0-34.0-12.0","71174173","wem/bandit_either_3","A1UE95ET5RK1RI","either","3","357","","","","","","","0","0","1","","0.2","0.5","0.5","0.5","0.5","0.8","0.2","0.6","0.2","","","","","","","","","","","","74","J","1","","true","0","full_practice",""
"","bandit","67","520625","0.0-34.0-13.0","71174173","wem/bandit_either_3","A1UE95ET5RK1RI","either","3","694","","","","","","","0","0","1","","0.2","0.5","0.5","0.5","0.5","0.8","0.2","0.6","0.2","","","","","","","","","","","","74","J","1","","true","0","full_practice",""
"","bandit","68","522583","0.0-34.0-14.0","71174173","wem/bandit_either_3","A1UE95ET5RK1RI","either","3","448","","","","","","","0","1","0","","0.6","0.5","0.5","0.5","0.5","0.8","0.2","0.6","0.2","","","","","","","","","","","","75","K","2","","true","0","full_practice",""
"","bandit","69","524759","0.0-34.0-15.0","71174173","wem/bandit_either_3","A1UE95ET5RK1RI","either","3","666","","","","","","","0","0","1","0.2","","0.5","0.5","0.5","0.5","","","","","0.8","0.2","0.6","0.2","","","","","","","","76","L","3","","true","0","full_practice",""
"","bandit","70","526536","0.0-34.0-16.0","71174173","wem/bandit_either_3","A1UE95ET5RK1RI","either","3","265","","","","","","","0","1","0","","0.6","0.5","0.5","0.5","0.5","0.8","0.2","0.6","0.2","","","","","","","","","","","","75","K","2","","true","0","full_practice",""
"","bandit","71","528398","0.0-34.0-17.0","71174173","wem/bandit_either_3","A1UE95ET5RK1RI","either","3","353","","","","","","","1","0","0","0.6","","0.5","0.5","0.5","0.5","","","","","0.8","0.2","0.6","0.2","","","","","","","","75","K","2","","true","0","full_practice",""
"","bandit","72","530416","0.0-34.0-18.0","71174173","wem/bandit_either_3","A1UE95ET5RK1RI","either","3","507","","","","","","","0","0","1","0.6","","0.5","0.5","0.5","0.5","","","","","0.8","0.2","0.6","0.2","","","","","","","","75","K","2","","true","0","full_practice",""
"","bandit","73","532289","0.0-34.0-19.0","71174173","wem/bandit_either_3","A1UE95ET5RK1RI","either","3","363","","","","","","","0","0","1","","0.6","0.5","0.5","0.5","0.5","0.8","0.2","0.6","0.2","","","","","","","","","","","","75","K","2","","true","0","full_practice",""
"","text","74","535283","0.0-35.0","71174173","wem/bandit_either_3","A1UE95ET5RK1RI","either","3","2990","","32","","","","","","","","","","","","","","","","","","","","","","","","","","","","","","","","","","","",""
"","text","75","540723","0.0-36.0","71174173","wem/bandit_either_3","A1UE95ET5RK1RI","either","3","4432","","32","","","","","","","","","","","","","","","","","","","","","","","","","","","","","","","","","","","",""
"","text","76","542844","0.0-37.0","71174173","wem/bandit_either_3","A1UE95ET5RK1RI","either","3","2119","","32","","","","","","","","","","","","","","","","","","","","","","","","","","","","","","","","","","","",""
"","text","77","545123","0.0-38.0","71174173","wem/bandit_either_3","A1UE95ET5RK1RI","either","3","2277","","32","","","","","","","","","","","","","","","","","","","","","","","","","","","","","","","","","","","",""
"","text","78","547451","0.0-39.0","71174173","wem/bandit_either_3","A1UE95ET5RK1RI","either","3","2326","","32","","","","","","","","","","","","","","","","","","","","","","","","","","","","","","","","","","","",""
"","text","79","548954","0.0-40.0","71174173","wem/bandit_either_3","A1UE95ET5RK1RI","either","3","1502","","32","","","","","","","","","","","","","","","","","","","","","","","","","","","","","","","","","","","",""
"","bandit","80","553284","0.0-41.0-0.0","71174173","wem/bandit_either_3","A1UE95ET5RK1RI","either","3","2822","","","","","","","0","0","1","","0.1387034319","0.4","0.6","0.8","0.2","0.1387034319","0.6494041588","0.6473934842","0.4261870849","","","","","","","","","","","","72","H","0","img/none_selected.jpg","","1","main_expt",""
"","bandit","81","555245","0.0-42.0-0.0","71174173","wem/bandit_either_3","A1UE95ET5RK1RI","either","3","454","","","","","","","0","0","1","0.2166337036","","0.4","0.6","0.8","0.2","","","","","0.2166337036","0.7608835745","0.5221866694","0.3223101542","","","","","","","","72","H","0","img/none_selected.jpg","","2","main_expt",""
"","bandit","82","571759","0.0-43.0-0.0","71174173","wem/bandit_either_3","A1UE95ET5RK1RI","either","3","15003","","","","","","","1","0","0","0.7745567172","","0.4","0.6","0.8","0.2","","","","","0.3253899216","0.7745567172","0.5356292978","0.2541217019","","","","","","","","74","J","1","","","3","main_expt",""
"","bandit","83","574918","0.0-44.0-0.0","71174173","wem/bandit_either_3","A1UE95ET5RK1RI","either","3","1647","","","","","","","1","0","0","0.8315703218","","0.4","0.6","0.8","0.2","","","","","0.3003293127","0.8315703218","0.5154592071","0.2272043942","","","","","","","","74","J","1","","","4","main_expt",""
"","bandit","84","577948","0.0-45.0-0.0","71174173","wem/bandit_either_3","A1UE95ET5RK1RI","either","3","1521","","","","","","","1","0","0","0.8380789219","","0.4","0.6","0.8","0.2","","","","","0.3839660868","0.8380789219","0.4578896037","0.2967729676","","","","","","","","74","J","1","","","5","main_expt",""
"","bandit","85","604238","0.0-46.0-0.0","71174173","wem/bandit_either_3","A1UE95ET5RK1RI","either","3","24778","","","","","","","0","1","0","","0.8233568153","0.4","0.6","0.8","0.2","0.3833463511","0.8233568153","0.4825789634","0.3211998527","","","","","","","","","","","","74","J","1","","","6","main_expt",""
"","bandit","86","606506","0.0-47.0-0.0","71174173","wem/bandit_either_3","A1UE95ET5RK1RI","either","3","759","","","","","","","1","0","0","0.4013658759","","0.4","0.6","0.8","0.2","","","","","0.3173395401","0.8672840292","0.4013658759","0.4190649117","","","","","","","","75","K","2","","","7","main_expt",""
"","bandit","87","608713","0.0-48.0-0.0","71174173","wem/bandit_either_3","A1UE95ET5RK1RI","either","3","699","","","","","","","1","0","0","0.3721769634","","0.4","0.6","0.8","0.2","","","","","0.3265190876","0.7921451217","0.3721769634","0.5253498774","","","","","","","","75","K","2","","","8","main_expt",""
"","bandit","88","610780","0.0-49.0-0.0","71174173","wem/bandit_either_3","A1UE95ET5RK1RI","either","3","555","","","","","","","1","0","0","0.3934089605","","0.4","0.6","0.8","0.2","","","","","0.4229840653","0.7826569337","0.3934089605","0.5552176016","","","","","","","","75","K","2","","","9","main_expt",""
"","bandit","89","612655","0.0-50.0-0.0","71174173","wem/bandit_either_3","A1UE95ET5RK1RI","either","3","361","","","","","","","1","0","0","0.3360942297","","0.4","0.6","0.8","0.2","","","","","0.5107168356","0.7150392401","0.3360942297","0.654745146","","","","","","","","75","K","2","","","10","main_expt",""
"","bandit","90","614855","0.0-51.0-0.0","71174173","wem/bandit_either_3","A1UE95ET5RK1RI","either","3","688","","","","","","","0","0","1","0.4969537907","","0.4","0.6","0.8","0.2","","","","","0.4383577931","0.6906605055","0.4969537907","0.6089063278","","","","","","","","75","K","2","","","11","main_expt",""
"","bandit","91","617084","0.0-52.0-0.0","71174173","wem/bandit_either_3","A1UE95ET5RK1RI","either","3","718","","","","","","","0","0","1","0.4760264401","","0.4","0.6","0.8","0.2","","","","","0.5487148549","0.6725575113","0.4760264401","0.559155858","","","","","","","","75","K","2","","","12","main_expt",""
"","bandit","92","619017","0.0-53.0-0.0","71174173","wem/bandit_either_3","A1UE95ET5RK1RI","either","3","424","","","","","","","1","0","0","0.7404599176","","0.4","0.6","0.8","0.2","","","","","0.7407599438","0.7404599176","0.4008761295","0.6464491645","","","","","","","","74","J","1","","","13","main_expt",""
"","bandit","93","621373","0.0-54.0-0.0","71174173","wem/bandit_either_3","A1UE95ET5RK1RI","either","3","843","","","","","","","0","0","1","0.6751607758","","0.4","0.6","0.8","0.2","","","","","0.8307131687","0.6751607758","0.358486362","0.6936958995","","","","","","","","74","J","1","","","14","main_expt",""
"","bandit","94","623469","0.0-55.0-0.0","71174173","wem/bandit_either_3","A1UE95ET5RK1RI","either","3","584","","","","","","","0","1","0","","0.6115440925","0.4","0.6","0.8","0.2","0.8114394421","0.6115440925","0.395258373","0.731471075","","","","","","","","","","","","74","J","1","","","15","main_expt",""
"","bandit","95","625702","0.0-56.0-0.0","71174173","wem/bandit_either_3","A1UE95ET5RK1RI","either","3","721","","","","","","","0","1","0","","0.6487541525","0.4","0.6","0.8","0.2","0.8242397169","0.7019001419","0.4197334966","0.6487541525","","","","","","","","","","","","76","L","3","","","16","main_expt",""
"","bandit","96","629291","0.0-57.0-0.0","71174173","wem/bandit_either_3","A1UE95ET5RK1RI","either","3","2077","","","","","","","0","1","0","","0.8317633157","0.4","0.6","0.8","0.2","0.8317633157","0.7017998","0.2160816064","0.7654634758","","","","","","","","","","","","72","H","0","img/none_selected.jpg","","17","main_expt",""
"","bandit","97","631114","0.0-58.0-0.0","71174173","wem/bandit_either_3","A1UE95ET5RK1RI","either","3","312","","","","","","","0","0","1","0.2058632209","","0.4","0.6","0.8","0.2","","","","","0.8158638682","0.7672473748","0.2058632209","0.7160830043","","","","","","","","75","K","2","","","18","main_expt",""
"","bandit","98","633221","0.0-59.0-0.0","71174173","wem/bandit_either_3","A1UE95ET5RK1RI","either","3","594","","","","","","","0","0","1","0.2314559036","","0.4","0.6","0.8","0.2","","","","","0.8291878069","0.7950219121","0.2314559036","0.6856656502","","","","","","","","75","K","2","","","19","main_expt",""
"","bandit","99","635333","0.0-60.0-0.0","71174173","wem/bandit_either_3","A1UE95ET5RK1RI","either","3","598","","","","","","","1","0","0","0.1762066147","","0.4","0.6","0.8","0.2","","","","","0.8665153398","0.8460513568","0.1762066147","0.6829400921","","","","","","","","75","K","2","","","20","main_expt",""
"","bandit","100","639252","0.0-61.0-0.0","71174173","wem/bandit_either_3","A1UE95ET5RK1RI","either","3","2406","","","","","","","0","0","1","0.150477598","","0.4","0.6","0.8","0.2","","","","","0.8181415858","0.8571228725","0.150477598","0.6849203215","","","","","","","","75","K","2","","","21","main_expt",""
"","bandit","101","642683","0.0-62.0-0.0","71174173","wem/bandit_either_3","A1UE95ET5RK1RI","either","3","1920","","","","","","","0","0","1","0.1957635407","","0.4","0.6","0.8","0.2","","","","","0.7731960963","0.8498483749","0.1957635407","0.6832197831","","","","","","","","75","K","2","","","22","main_expt",""
"","bandit","102","645521","0.0-63.0-0.0","71174173","wem/bandit_either_3","A1UE95ET5RK1RI","either","3","1328","","","","","","","0","0","1","0.2193187944","","0.4","0.6","0.8","0.2","","","","","0.8004626553","0.887495535","0.2193187944","0.6103957523","","","","","","","","75","K","2","","","23","main_expt",""
"","bandit","103","647448","0.0-64.0-0.0","71174173","wem/bandit_either_3","A1UE95ET5RK1RI","either","3","419","","","","","","","0","0","1","0.1836328706","","0.4","0.6","0.8","0.2","","","","","0.7941911222","0.918231735","0.1836328706","0.5485819736","","","","","","","","75","K","2","","","24","main_expt",""
"","bandit","104","649387","0.0-65.0-0.0","71174173","wem/bandit_either_3","A1UE95ET5RK1RI","either","3","429","","","","","","","0","0","1","0.1410441375","","0.4","0.6","0.8","0.2","","","","","0.7100633829","0.9111146318","0.1410441375","0.5852935809","","","","","","","","75","K","2","","","25","main_expt",""
"","bandit","105","651193","0.0-66.0-0.0","71174173","wem/bandit_either_3","A1UE95ET5RK1RI","either","3","295","","","","","","","0","1","0","","0.9190640316","0.4","0.6","0.8","0.2","0.6872129375","0.9190640316","0.1082593399","0.6097892937","","","","","","","","","","","","74","J","1","","","26","main_expt",""
"","bandit","106","653235","0.0-67.0-0.0","71174173","wem/bandit_either_3","A1UE95ET5RK1RI","either","3","531","","","","","","","0","1","0","","0.6653335402","0.4","0.6","0.8","0.2","0.6798864795","0.9372614837","0.1042047793","0.6653335402","","","","","","","","","","","","76","L","3","","","27","main_expt",""
"","bandit","107","655104","0.0-68.0-0.0","71174173","wem/bandit_either_3","A1UE95ET5RK1RI","either","3","360","","","","","","","0","1","0","","0.6812343762","0.4","0.6","0.8","0.2","0.6812343762","0.9269484959","0.1153509117","0.6850825106","","","","","","","","","","","","72","H","0","img/none_selected.jpg","","28","main_expt",""
"","bandit","108","656916","0.0-69.0-0.0","71174173","wem/bandit_either_3","A1UE95ET5RK1RI","either","3","307","","","","","","","0","0","1","0.1601566248","","0.4","0.6","0.8","0.2","","","","","0.5305157647","0.9376772981","0.1601566248","0.7309016742","","","","","","","","75","K","2","","","29","main_expt",""
"","bandit","109","658808","0.0-70.0-0.0","71174173","wem/bandit_either_3","A1UE95ET5RK1RI","either","3","382","","","","","","","0","0","1","0.09548927903","","0.4","0.6","0.8","0.2","","","","","0.4713174284","0.8795505253","0.09548927903","0.8141980113","","","","","","","","75","K","2","","","30","main_expt",""
"","bandit","110","660701","0.0-71.0-0.0","71174173","wem/bandit_either_3","A1UE95ET5RK1RI","either","3","379","","","","","","","0","0","1","0.09272353297","","0.4","0.6","0.8","0.2","","","","","0.2938490869","0.8605863748","0.09272353297","0.8926711601","","","","","","","","75","K","2","","","31","main_expt",""
"","bandit","111","667591","0.0-72.0-0.0","71174173","wem/bandit_either_3","A1UE95ET5RK1RI","either","3","5381","","","","","","","0","0","1","","0.09547929832","0.4","0.6","0.8","0.2","0.3005160425","0.757600507","0.09547929832","0.8397563013","","","","","","","","","","","","75","K","2","","","32","main_expt",""
"","bandit","112","669906","0.0-73.0-0.0","71174173","wem/bandit_either_3","A1UE95ET5RK1RI","either","3","803","","","","","","","0","1","0","","0.7257103923","0.4","0.6","0.8","0.2","0.3661211491","0.7257103923","0.08683876107","0.8251988787","","","","","","","","","","","","74","J","1","","","33","main_expt",""
"","bandit","113","671811","0.0-74.0-0.0","71174173","wem/bandit_either_3","A1UE95ET5RK1RI","either","3","393","","","","","","","0","0","1","","0.08117088791","0.4","0.6","0.8","0.2","0.4614725573","0.5786815464","0.08117088791","0.7303528712","","","","","","","","","","","","75","K","2","","","34","main_expt",""
"","bandit","114","675514","0.0-75.0-0.0","71174173","wem/bandit_either_3","A1UE95ET5RK1RI","either","3","2190","","","","","","","0","0","1","0.09593582107","","0.4","0.6","0.8","0.2","","","","","0.4597324626","0.4812266686","0.09593582107","0.8093673003","","","","","","","","75","K","2","","","35","main_expt",""
"","bandit","115","678927","0.0-76.0-0.0","71174173","wem/bandit_either_3","A1UE95ET5RK1RI","either","3","1904","","","","","","","0","0","1","0.1392988708","","0.4","0.6","0.8","0.2","","","","","0.4294742096","0.4459447539","0.1392988708","0.79718131","","","","","","","","75","K","2","","","36","main_expt",""
"","bandit","116","682838","0.0-77.0-0.0","71174173","wem/bandit_either_3","A1UE95ET5RK1RI","either","3","2403","","","","","","","0","0","1","0.07673209605","","0.4","0.6","0.8","0.2","","","","","0.5301274199","0.5737218407","0.07673209605","0.8157762275","","","","","","","","75","K","2","","","37","main_expt",""
"","bandit","117","687606","0.0-78.0-0.0","71174173","wem/bandit_either_3","A1UE95ET5RK1RI","either","3","3258","","","","","","","0","0","1","0.1078843958","","0.4","0.6","0.8","0.2","","","","","0.5746889943","0.6008421093","0.1078843958","0.7941499978","","","","","","","","75","K","2","","","38","main_expt",""
"","bandit","118","690578","0.0-79.0-0.0","71174173","wem/bandit_either_3","A1UE95ET5RK1RI","either","3","1460","","","","","","","0","0","1","0.09731722171","","0.4","0.6","0.8","0.2","","","","","0.6621100331","0.6076920036","0.09731722171","0.7352357368","","","","","","","","75","K","2","","","39","main_expt",""
"","bandit","119","692545","0.0-80.0-0.0","71174173","wem/bandit_either_3","A1UE95ET5RK1RI","either","3","455","","","","","","","0","0","1","","0.2123509389","0.4","0.6","0.8","0.2","0.6794361822","0.6616622706","0.2123509389","0.7920886563","","","","","","","","","","","","75","K","2","","","40","main_expt",""
"","bandit","120","694368","0.0-81.0-0.0","71174173","wem/bandit_either_3","A1UE95ET5RK1RI","either","3","313","","","","","","","0","1","0","","0.6945341382","0.4","0.6","0.8","0.2","0.7140523024","0.6945341382","0.1265365425","0.8780543775","","","","","","","","","","","","74","J","1","","","41","main_expt",""
"","bandit","121","696307","0.0-82.0-0.0","71174173","wem/bandit_either_3","A1UE95ET5RK1RI","either","3","425","","","","","","","0","1","0","","0.9167256642","0.4","0.6","0.8","0.2","0.6669732994","0.6833149102","0.166138795","0.9167256642","","","","","","","","","","","","76","L","3","","","42","main_expt",""
"","bandit","122","698147","0.0-83.0-0.0","71174173","wem/bandit_either_3","A1UE95ET5RK1RI","either","3","335","","","","","","","0","0","1","0.5435093165","","0.4","0.6","0.8","0.2","","","","","0.5435093165","0.7094953576","0.1782339186","0.9407985187","","","","","","","","72","H","0","img/none_selected.jpg","","43","main_expt",""
"","bandit","123","699674","0.0-84.0-0.0","71174173","wem/bandit_either_3","A1UE95ET5RK1RI","either","3","21","","","","","","","0","0","1","","0.6002661395","0.4","0.6","0.8","0.2","0.6002661395","0.7519468023","0.1342945815","0.9000978766","","","","","","","","","","","","72","H","0","img/none_selected.jpg","","44","main_expt",""
"","bandit","124","701479","0.0-85.0-0.0","71174173","wem/bandit_either_3","A1UE95ET5RK1RI","either","3","294","","","","","","","1","0","0","0.5948203474","","0.4","0.6","0.8","0.2","","","","","0.5948203474","0.7673203249","0.09086288848","0.9190036262","","","","","","","","72","H","0","img/none_selected.jpg","","45","main_expt",""
"","bandit","125","703319","0.0-86.0-0.0","71174173","wem/bandit_either_3","A1UE95ET5RK1RI","either","3","329","","","","","","","0","0","1","0.6230250108","","0.4","0.6","0.8","0.2","","","","","0.6230250108","0.722836051","0.06420934006","0.8865788656","","","","","","","","72","H","0","img/none_selected.jpg","","46","main_expt",""
"","bandit","126","706535","0.0-87.0-0.0","71174173","wem/bandit_either_3","A1UE95ET5RK1RI","either","3","1706","","","","","","","0","0","1","","0.7239235909","0.4","0.6","0.8","0.2","0.7239235909","0.7392487755","0.02332738683","0.8207935484","","","","","","","","","","","","72","H","0","img/none_selected.jpg","","47","main_expt",""
"","bandit","127","708373","0.0-88.0-0.0","71174173","wem/bandit_either_3","A1UE95ET5RK1RI","either","3","328","","","","","","","0","1","0","","0.7715310514","0.4","0.6","0.8","0.2","0.7715310514","0.7551111279","0.03517565614","0.8170742187","","","","","","","","","","","","72","H","0","img/none_selected.jpg","","48","main_expt",""
"","bandit","128","710145","0.0-89.0-0.0","71174173","wem/bandit_either_3","A1UE95ET5RK1RI","either","3","259","","","","","","","0","1","0","","0.822179592","0.4","0.6","0.8","0.2","0.822179592","0.6917772817","0.04466115719","0.7874830355","","","","","","","","","","","","72","H","0","img/none_selected.jpg","","49","main_expt",""
"","bandit","129","711794","0.0-90.0-0.0","71174173","wem/bandit_either_3","A1UE95ET5RK1RI","either","3","135","","","","","","","1","0","0","0.8108951243","","0.4","0.6","0.8","0.2","","","","","0.8108951243","0.6689959301","0.05053383529","0.8279472521","","","","","","","","72","H","0","img/none_selected.jpg","","50","main_expt",""
"","bandit","130","713593","0.0-91.0-0.0","71174173","wem/bandit_either_3","A1UE95ET5RK1RI","either","3","287","","","","","","","0","0","1","","0.7649170446","0.4","0.6","0.8","0.2","0.7649170446","0.6020608281","0.04681033125","0.8426817256","","","","","","","","","","","","72","H","0","img/none_selected.jpg","","51","main_expt",""
"","bandit","131","715178","0.0-92.0-0.0","71174173","wem/bandit_either_3","A1UE95ET5RK1RI","either","3","72","","","","","","","1","0","0","0.8169848275","","0.4","0.6","0.8","0.2","","","","","0.8169848275","0.6583182673","0.09308222201","0.8377647656","","","","","","","","72","H","0","img/none_selected.jpg","","52","main_expt",""
"","bandit","132","716949","0.0-93.0-0.0","71174173","wem/bandit_either_3","A1UE95ET5RK1RI","either","3","261","","","","","","","0","1","0","","0.8843577791","0.4","0.6","0.8","0.2","0.8843577791","0.5419436754","0.1397702629","0.8241398149","","","","","","","","","","","","72","H","0","img/none_selected.jpg","","53","main_expt",""
"","bandit","133","718701","0.0-94.0-0.0","71174173","wem/bandit_either_3","A1UE95ET5RK1RI","either","3","243","","","","","","","1","0","0","0.8854515068","","0.4","0.6","0.8","0.2","","","","","0.8854515068","0.5717614462","0.110287685","0.7289352116","","","","","","","","72","H","0","img/none_selected.jpg","","54","main_expt",""
"","bandit","134","720498","0.0-95.0-0.0","71174173","wem/bandit_either_3","A1UE95ET5RK1RI","either","3","291","","","","","","","0","1","0","","0.8884574585","0.4","0.6","0.8","0.2","0.8884574585","0.5497935615","0.1843384007","0.5895019519","","","","","","","","","","","","72","H","0","img/none_selected.jpg","","55","main_expt",""
"","bandit","135","722329","0.0-96.0-0.0","71174173","wem/bandit_either_3","A1UE95ET5RK1RI","either","3","318","","","","","","","0","1","0","","0.8840911236","0.4","0.6","0.8","0.2","0.8840911236","0.4902645195","0.2056752237","0.4622464331","","","","","","","","","","","","72","H","0","img/none_selected.jpg","","56","main_expt",""
"","bandit","136","724152","0.0-97.0-0.0","71174173","wem/bandit_either_3","A1UE95ET5RK1RI","either","3","311","","","","","","","0","0","1","0.3410726922","","0.4","0.6","0.8","0.2","","","","","0.864283103","0.5258365243","0.3410726922","0.490024734","","","","","","","","75","K","2","","","57","main_expt",""
"","bandit","137","725865","0.0-98.0-0.0","71174173","wem/bandit_either_3","A1UE95ET5RK1RI","either","3","201","","","","","","","1","0","0","0.3873695161","","0.4","0.6","0.8","0.2","","","","","0.7377821737","0.6097664349","0.3873695161","0.6182628796","","","","","","","","75","K","2","","","58","main_expt",""
"","bandit","138","727519","0.0-99.0-0.0","71174173","wem/bandit_either_3","A1UE95ET5RK1RI","either","3","142","","","","","","","0","0","1","","0.3281321534","0.4","0.6","0.8","0.2","0.7469541206","0.6016711108","0.3281321534","0.6976829826","","","","","","","","","","","","75","K","2","","","59","main_expt",""
"","bandit","139","729637","0.0-100.0-0.0","71174173","wem/bandit_either_3","A1UE95ET5RK1RI","either","3","608","","","","","","","0","0","1","","0.2380439254","0.4","0.6","0.8","0.2","0.8019510571","0.5544917648","0.2380439254","0.675433977","","","","","","","","","","","","75","K","2","","","60","main_expt",""
"","bandit","140","732703","0.0-101.0-0.0","71174173","wem/bandit_either_3","A1UE95ET5RK1RI","either","3","1553","","","","","","","0","0","1","","0.2228222105","0.4","0.6","0.8","0.2","0.8943887388","0.6842720067","0.2228222105","0.7206550838","","","","","","","","","","","","75","K","2","","","61","main_expt",""
"","bandit","141","734751","0.0-102.0-0.0","71174173","wem/bandit_either_3","A1UE95ET5RK1RI","either","3","537","","","","","","","1","0","0","0.2489253665","","0.4","0.6","0.8","0.2","","","","","0.8942973556","0.6824345281","0.2489253665","0.7184677658","","","","","","","","75","K","2","","","62","main_expt",""
"","bandit","142","736661","0.0-103.0-0.0","71174173","wem/bandit_either_3","A1UE95ET5RK1RI","either","3","401","","","","","","","1","0","0","0.2298237489","","0.4","0.6","0.8","0.2","","","","","0.8829609874","0.7321168219","0.2298237489","0.6785259816","","","","","","","","75","K","2","","","63","main_expt",""
"","bandit","143","738507","0.0-104.0-0.0","71174173","wem/bandit_either_3","A1UE95ET5RK1RI","either","3","338","","","","","","","1","0","0","0.1849055857","","0.4","0.6","0.8","0.2","","","","","0.8175344892","0.8123013145","0.1849055857","0.6349383059","","","","","","","","75","K","2","","","64","main_expt",""
"","bandit","144","740533","0.0-105.0-0.0","71174173","wem/bandit_either_3","A1UE95ET5RK1RI","either","3","515","","","","","","","1","0","0","0.2285715909","","0.4","0.6","0.8","0.2","","","","","0.7812905168","0.8236121316","0.2285715909","0.629769122","","","","","","","","75","K","2","","","65","main_expt",""
"","bandit","145","742385","0.0-106.0-0.0","71174173","wem/bandit_either_3","A1UE95ET5RK1RI","either","3","345","","","","","","","0","0","1","0.2477643906","","0.4","0.6","0.8","0.2","","","","","0.7848445355","0.8270077233","0.2477643906","0.7158950816","","","","","","","","75","K","2","","","66","main_expt",""
"","bandit","146","744353","0.0-107.0-0.0","71174173","wem/bandit_either_3","A1UE95ET5RK1RI","either","3","454","","","","","","","0","0","1","0.1801078726","","0.4","0.6","0.8","0.2","","","","","0.763143195","0.7601471472","0.1801078726","0.6309271871","","","","","","","","75","K","2","","","67","main_expt",""
"","bandit","147","745949","0.0-108.0-0.0","71174173","wem/bandit_either_3","A1UE95ET5RK1RI","either","3","86","","","","","","","0","0","1","0.08479184886","","0.4","0.6","0.8","0.2","","","","","0.7966751536","0.7567750057","0.08479184886","0.617221228","","","","","","","","75","K","2","","","68","main_expt",""
"","bandit","148","747719","0.0-109.0-0.0","71174173","wem/bandit_either_3","A1UE95ET5RK1RI","either","3","259","","","","","","","0","0","1","0.06982522498","","0.4","0.6","0.8","0.2","","","","","0.8534335227","0.6871277649","0.06982522498","0.6235929763","","","","","","","","75","K","2","","","69","main_expt",""
"","bandit","149","749304","0.0-110.0-0.0","71174173","wem/bandit_either_3","A1UE95ET5RK1RI","either","3","71","","","","","","","0","0","1","0.05029268469","","0.4","0.6","0.8","0.2","","","","","0.8915498471","0.773099018","0.05029268469","0.5543620559","","","","","","","","75","K","2","","","70","main_expt",""
"","bandit","150","751109","0.0-111.0-0.0","71174173","wem/bandit_either_3","A1UE95ET5RK1RI","either","3","294","","","","","","","0","0","1","0.06413839938","","0.4","0.6","0.8","0.2","","","","","0.8736989015","0.7412476729","0.06413839938","0.5333999135","","","","","","","","75","K","2","","","71","main_expt",""
"","bandit","151","752961","0.0-112.0-0.0","71174173","wem/bandit_either_3","A1UE95ET5RK1RI","either","3","344","","","","","","","1","0","0","0.8080704968","","0.4","0.6","0.8","0.2","","","","","0.8837551658","0.8080704968","0.05155778705","0.5905126671","","","","","","","","74","J","1","","","72","main_expt",""
"","bandit","152","754749","0.0-113.0-0.0","71174173","wem/bandit_either_3","A1UE95ET5RK1RI","either","3","277","","","","","","","1","0","0","0.8270016227","","0.4","0.6","0.8","0.2","","","","","0.8495494246","0.8270016227","0.0232747386","0.6925119087","","","","","","","","74","J","1","","","73","main_expt",""
"","bandit","153","756537","0.0-114.0-0.0","71174173","wem/bandit_either_3","A1UE95ET5RK1RI","either","3","281","","","","","","","1","0","0","0.7872017979","","0.4","0.6","0.8","0.2","","","","","0.9127472651","0.7872017979","0.04751547773","0.7134745341","","","","","","","","74","J","1","","","74","main_expt",""
"","bandit","154","758197","0.0-115.0-0.0","71174173","wem/bandit_either_3","A1UE95ET5RK1RI","either","3","150","","","","","","","1","0","0","0.6167225576","","0.4","0.6","0.8","0.2","","","","","0.9199060817","0.6167225576","0.05282531612","0.8065440948","","","","","","","","74","J","1","","","75","main_expt",""
"","bandit","155","759828","0.0-116.0-0.0","71174173","wem/bandit_either_3","A1UE95ET5RK1RI","either","3","121","","","","","","","0","1","0","","0.637182095","0.4","0.6","0.8","0.2","0.8691294168","0.637182095","0.08738729654","0.7849172319","","","","","","","","","","","","74","J","1","","","76","main_expt",""
"","bandit","156","761499","0.0-117.0-0.0","71174173","wem/bandit_either_3","A1UE95ET5RK1RI","either","3","161","","","","","","","0","1","0","","0.7169911294","0.4","0.6","0.8","0.2","0.9111329321","0.7169911294","0.08851312664","0.7818962729","","","","","","","","","","","","74","J","1","","","77","main_expt",""
"","bandit","157","763026","0.0-118.0-0.0","71174173","wem/bandit_either_3","A1UE95ET5RK1RI","either","3","18","","","","","","","0","0","1","0.145228539","","0.4","0.6","0.8","0.2","","","","","0.9286966754","0.7446448061","0.145228539","0.7002933386","","","","","","","","75","K","2","","","78","main_expt",""
"","bandit","158","764954","0.0-119.0-0.0","71174173","wem/bandit_either_3","A1UE95ET5RK1RI","either","3","420","","","","","","","1","0","0","0.9616021792","","0.4","0.6","0.8","0.2","","","","","0.9616021792","0.8152221547","0.1669860915","0.6510109529","","","","","","","","72","H","0","img/none_selected.jpg","","79","main_expt",""
"","bandit","159","766643","0.0-120.0-0.0","71174173","wem/bandit_either_3","A1UE95ET5RK1RI","either","3","180","","","","","","","0","1","0","","0.950571795","0.4","0.6","0.8","0.2","0.950571795","0.810351938","0.1922913003","0.6765614865","","","","","","","","","","","","72","H","0","img/none_selected.jpg","","80","main_expt",""
"","bandit","160","769132","0.0-121.0-0.0","71174173","wem/bandit_either_3","A1UE95ET5RK1RI","either","3","979","","","","","","","1","0","0","0.9331160128","","0.4","0.6","0.8","0.2","","","","","0.9331160128","0.8895110989","0.2407870914","0.5908869344","","","","","","","","72","H","0","img/none_selected.jpg","","81","main_expt",""
"","bandit","161","771037","0.0-122.0-0.0","71174173","wem/bandit_either_3","A1UE95ET5RK1RI","either","3","393","","","","","","","0","1","0","","0.9465986336","0.4","0.6","0.8","0.2","0.9465986336","0.9046816681","0.3077898034","0.5267531711","","","","","","","","","","","","72","H","0","img/none_selected.jpg","","82","main_expt",""
"","bandit","162","773138","0.0-123.0-0.0","71174173","wem/bandit_either_3","A1UE95ET5RK1RI","either","3","592","","","","","","","0","1","0","","0.9371159138","0.4","0.6","0.8","0.2","0.9371159138","0.8465278631","0.2337579628","0.6168373964","","","","","","","","","","","","72","H","0","img/none_selected.jpg","","83","main_expt",""
"","bandit","163","774787","0.0-124.0-0.0","71174173","wem/bandit_either_3","A1UE95ET5RK1RI","either","3","139","","","","","","","0","1","0","","0.8998840018","0.4","0.6","0.8","0.2","0.8998840018","0.7584930438","0.2781329454","0.5733990252","","","","","","","","","","","","72","H","0","img/none_selected.jpg","","84","main_expt",""
"","bandit","164","776710","0.0-125.0-0.0","71174173","wem/bandit_either_3","A1UE95ET5RK1RI","either","3","410","","","","","","","1","0","0","0.9102188985","","0.4","0.6","0.8","0.2","","","","","0.9102188985","0.7727946294","0.3013149798","0.4719695616","","","","","","","","72","H","0","img/none_selected.jpg","","85","main_expt",""
"","bandit","165","778595","0.0-126.0-0.0","71174173","wem/bandit_either_3","A1UE95ET5RK1RI","either","3","374","","","","","","","0","1","0","","0.9000055418","0.4","0.6","0.8","0.2","0.9000055418","0.8216594778","0.3231836659","0.6941651786","","","","","","","","","","","","72","H","0","img/none_selected.jpg","","86","main_expt",""
"","bandit","166","780487","0.0-127.0-0.0","71174173","wem/bandit_either_3","A1UE95ET5RK1RI","either","3","380","","","","","","","0","0","1","0.8563468124","","0.4","0.6","0.8","0.2","","","","","0.8563468124","0.7833884788","0.3986379136","0.5408952125","","","","","","","","72","H","0","img/none_selected.jpg","","87","main_expt",""
"","bandit","167","782142","0.0-128.0-0.0","71174173","wem/bandit_either_3","A1UE95ET5RK1RI","either","3","142","","","","","","","0","1","0","","0.7349543302","0.4","0.6","0.8","0.2","0.7349543302","0.7804426693","0.4230151841","0.5438891422","","","","","","","","","","","","72","H","0","img/none_selected.jpg","","88","main_expt",""
"","bandit","168","783847","0.0-129.0-0.0","71174173","wem/bandit_either_3","A1UE95ET5RK1RI","either","3","191","","","","","","","1","0","0","0.7907967515","","0.4","0.6","0.8","0.2","","","","","0.7907967515","0.7930928848","0.3761858397","0.4294971294","","","","","","","","72","H","0","img/none_selected.jpg","","89","main_expt",""
"","bandit","169","785624","0.0-130.0-0.0","71174173","wem/bandit_either_3","A1UE95ET5RK1RI","either","3","269","","","","","","","0","1","0","","0.7883246469","0.4","0.6","0.8","0.2","0.7883246469","0.7683039237","0.4799086841","0.4928337868","","","","","","","","","","","","72","H","0","img/none_selected.jpg","","90","main_expt",""
"","bandit","170","787418","0.0-131.0-0.0","71174173","wem/bandit_either_3","A1UE95ET5RK1RI","either","3","284","","","","","","","1","0","0","0.8389096604","","0.4","0.6","0.8","0.2","","","","","0.8389096604","0.8072091422","0.4558425901","0.5655090935","","","","","","","","72","H","0","img/none_selected.jpg","","91","main_expt",""
"","bandit","171","789060","0.0-132.0-0.0","71174173","wem/bandit_either_3","A1UE95ET5RK1RI","either","3","130","","","","","","","1","0","0","0.8064187158","","0.4","0.6","0.8","0.2","","","","","0.8064187158","0.7791444337","0.3781515597","0.6154818033","","","","","","","","72","H","0","img/none_selected.jpg","","92","main_expt",""
"","bandit","172","791092","0.0-133.0-0.0","71174173","wem/bandit_either_3","A1UE95ET5RK1RI","either","3","522","","","","","","","1","0","0","0.7542368763","","0.4","0.6","0.8","0.2","","","","","0.7542368763","0.8498372391","0.2858753042","0.7381217307","","","","","","","","72","H","0","img/none_selected.jpg","","93","main_expt",""
"","bandit","173","793054","0.0-134.0-0.0","71174173","wem/bandit_either_3","A1UE95ET5RK1RI","either","3","449","","","","","","","0","1","0","","0.6932487021","0.4","0.6","0.8","0.2","0.6932487021","0.8440610374","0.3914428564","0.7776388333","","","","","","","","","","","","72","H","0","img/none_selected.jpg","","94","main_expt",""
"","bandit","174","794813","0.0-135.0-0.0","71174173","wem/bandit_either_3","A1UE95ET5RK1RI","either","3","245","","","","","","","0","1","0","","0.6706070003","0.4","0.6","0.8","0.2","0.6706070003","0.8092418145","0.3800018616","0.8299152283","","","","","","","","","","","","72","H","0","img/none_selected.jpg","","95","main_expt",""
"","bandit","175","797054","0.0-136.0-0.0","71174173","wem/bandit_either_3","A1UE95ET5RK1RI","either","3","726","","","","","","","0","1","0","","0.6670251336","0.4","0.6","0.8","0.2","0.6670251336","0.8655172998","0.3078584031","0.7697811485","","","","","","","","","","","","72","H","0","img/none_selected.jpg","","96","main_expt",""
"","bandit","176","798940","0.0-137.0-0.0","71174173","wem/bandit_either_3","A1UE95ET5RK1RI","either","3","373","","","","","","","0","0","1","","0.218486712","0.4","0.6","0.8","0.2","0.7023758817","0.8735151232","0.218486712","0.7487724405","","","","","","","","","","","","75","K","2","","","97","main_expt",""
"","bandit","177","800450","0.0-138.0-0.0","71174173","wem/bandit_either_3","A1UE95ET5RK1RI","either","3","0","","","","","","","1","0","0","0.2037628256","","0.4","0.6","0.8","0.2","","","","","0.7036518389","0.84409386","0.2037628256","0.7450583294","","","","","","","","75","K","2","","","98","main_expt",""
"","bandit","178","802261","0.0-139.0-0.0","71174173","wem/bandit_either_3","A1UE95ET5RK1RI","either","3","299","","","","","","","0","0","1","0.2400196326","","0.4","0.6","0.8","0.2","","","","","0.8401346726","0.8089648913","0.2400196326","0.7227120129","","","","","","","","75","K","2","","","99","main_expt",""
"","bandit","179","803857","0.0-140.0-0.0","71174173","wem/bandit_either_3","A1UE95ET5RK1RI","either","3","86","","","","","","","0","0","1","0.3298222115","","0.4","0.6","0.8","0.2","","","","","0.8640782416","0.7259557377","0.3298222115","0.5872141049","","","","","","","","75","K","2","","","100","main_expt",""
"","bandit","180","805790","0.0-141.0-0.0","71174173","wem/bandit_either_3","A1UE95ET5RK1RI","either","3","417","","","","","","","0","0","1","0.3108047587","","0.4","0.6","0.8","0.2","","","","","0.8232172207","0.6332869741","0.3108047587","0.6432213136","","","","","","","","75","K","2","","","101","main_expt",""
"","bandit","181","807450","0.0-142.0-0.0","71174173","wem/bandit_either_3","A1UE95ET5RK1RI","either","3","148","","","","","","","0","0","1","0.2869381514","","0.4","0.6","0.8","0.2","","","","","0.8451901448","0.659443461","0.2869381514","0.6009476408","","","","","","","","75","K","2","","","102","main_expt",""
"","bandit","182","808994","0.0-143.0-0.0","71174173","wem/bandit_either_3","A1UE95ET5RK1RI","either","3","32","","","","","","","0","0","1","0.5959971703","","0.4","0.6","0.8","0.2","","","","","0.8792283932","0.5959971703","0.246485708","0.6120105745","","","","","","","","74","J","1","","","103","main_expt",""
"","bandit","183","810869","0.0-144.0-0.0","71174173","wem/bandit_either_3","A1UE95ET5RK1RI","either","3","361","","","","","","","0","0","1","0.5643630141","","0.4","0.6","0.8","0.2","","","","","0.8887181638","0.5643630141","0.2175667678","0.6821098495","","","","","","","","74","J","1","","","104","main_expt",""
"","bandit","184","815699","0.0-145.0-0.0","71174173","wem/bandit_either_3","A1UE95ET5RK1RI","either","3","3318","","","","","","","0","1","0","","0.5489079514","0.4","0.6","0.8","0.2","0.8013578166","0.5489079514","0.2645808036","0.7228510016","","","","","","","","","","","","74","J","1","","","105","main_expt",""
"","bandit","185","817620","0.0-146.0-0.0","71174173","wem/bandit_either_3","A1UE95ET5RK1RI","either","3","408","","","","","","","0","0","1","0.4336033326","","0.4","0.6","0.8","0.2","","","","","0.7307006529","0.4336033326","0.2652424516","0.6639212405","","","","","","","","74","J","1","","","106","main_expt",""
"","bandit","186","819832","0.0-147.0-0.0","71174173","wem/bandit_either_3","A1UE95ET5RK1RI","either","3","703","","","","","","","0","1","0","","0.4779201531","0.4","0.6","0.8","0.2","0.7519500851","0.4779201531","0.2481661544","0.6237034742","","","","","","","","","","","","74","J","1","","","107","main_expt",""
"","bandit","187","822954","0.0-148.0-0.0","71174173","wem/bandit_either_3","A1UE95ET5RK1RI","either","3","1611","","","","","","","0","1","0","","0.5075294874","0.4","0.6","0.8","0.2","0.7457577851","0.5075294874","0.2361720859","0.5847293191","","","","","","","","","","","","74","J","1","","","108","main_expt",""
"","bandit","188","825073","0.0-149.0-0.0","71174173","wem/bandit_either_3","A1UE95ET5RK1RI","either","3","607","","","","","","","0","0","1","0.522842385","","0.4","0.6","0.8","0.2","","","","","0.77583868","0.522842385","0.2799679389","0.6260859175","","","","","","","","74","J","1","","","109","main_expt",""
"","bandit","189","833397","0.0-150.0-0.0","71174173","wem/bandit_either_3","A1UE95ET5RK1RI","either","3","6813","","","","","","","0","0","1","0.3333098602","","0.4","0.6","0.8","0.2","","","","","0.7520827962","0.419893696","0.3333098602","0.4788227383","","","","","","","","75","K","2","","","110","main_expt",""
"","bandit","190","835458","0.0-151.0-0.0","71174173","wem/bandit_either_3","A1UE95ET5RK1RI","either","3","551","","","","","","","0","0","1","0.3669732535","","0.4","0.6","0.8","0.2","","","","","0.6512809768","0.431092028","0.3669732535","0.6019778282","","","","","","","","75","K","2","","","111","main_expt",""
"","bandit","191","837490","0.0-152.0-0.0","71174173","wem/bandit_either_3","A1UE95ET5RK1RI","either","3","522","","","","","","","1","0","0","0.389765336","","0.4","0.6","0.8","0.2","","","","","0.5891937939","0.3590071368","0.389765336","0.546445977","","","","","","","","75","K","2","","","112","main_expt",""
"","bandit","192","839420","0.0-153.0-0.0","71174173","wem/bandit_either_3","A1UE95ET5RK1RI","either","3","419","","","","","","","0","0","1","","0.3191506652","0.4","0.6","0.8","0.2","0.6490525038","0.4498419114","0.3191506652","0.6256092846","","","","","","","","","","","","75","K","2","","","113","main_expt",""
"","bandit","193","841262","0.0-154.0-0.0","71174173","wem/bandit_either_3","A1UE95ET5RK1RI","either","3","328","","","","","","","0","0","1","0.2090321438","","0.4","0.6","0.8","0.2","","","","","0.6283680234","0.4829831469","0.2090321438","0.6577617598","","","","","","","","75","K","2","","","114","main_expt",""
"","bandit","194","843155","0.0-155.0-0.0","71174173","wem/bandit_either_3","A1UE95ET5RK1RI","either","3","381","","","","","","","0","0","1","","0.2094439124","0.4","0.6","0.8","0.2","0.6064224059","0.4846695964","0.2094439124","0.7140476354","","","","","","","","","","","","75","K","2","","","115","main_expt",""
"","bandit","195","844953","0.0-156.0-0.0","71174173","wem/bandit_either_3","A1UE95ET5RK1RI","either","3","290","","","","","","","0","0","1","0.2695181069","","0.4","0.6","0.8","0.2","","","","","0.545813367","0.5396909338","0.2695181069","0.6589976567","","","","","","","","75","K","2","","","116","main_expt",""
"","bandit","196","848118","0.0-157.0-0.0","71174173","wem/bandit_either_3","A1UE95ET5RK1RI","either","3","1651","","","","","","","0","0","1","0.3402036285","","0.4","0.6","0.8","0.2","","","","","0.5179373022","0.5378282835","0.3402036285","0.6937703341","","","","","","","","75","K","2","","","117","main_expt",""
"","bandit","197","851038","0.0-158.0-0.0","71174173","wem/bandit_either_3","A1UE95ET5RK1RI","either","3","1404","","","","","","","1","0","0","0.3101634078","","0.4","0.6","0.8","0.2","","","","","0.4014157923","0.5729988564","0.3101634078","0.77114399","","","","","","","","75","K","2","","","118","main_expt",""
"","bandit","198","852773","0.0-159.0-0.0","71174173","wem/bandit_either_3","A1UE95ET5RK1RI","either","3","222","","","","","","","0","0","1","0.3242193616","","0.4","0.6","0.8","0.2","","","","","0.4360264599","0.5630251564","0.3242193616","0.710000291","","","","","","","","75","K","2","","","119","main_expt",""
"","bandit","199","854666","0.0-160.0-0.0","71174173","wem/bandit_either_3","A1UE95ET5RK1RI","either","3","382","","","","","","","0","0","1","0.3334277272","","0.4","0.6","0.8","0.2","","","","","0.3297853269","0.6482115929","0.3334277272","0.6767982245","","","","","","","","75","K","2","","","120","main_expt",""
"","bandit","200","856332","0.0-161.0-0.0","71174173","wem/bandit_either_3","A1UE95ET5RK1RI","either","3","154","","","","","","","0","0","1","0.4066521311","","0.4","0.6","0.8","0.2","","","","","0.3767442019","0.5688505083","0.4066521311","0.7360115258","","","","","","","","75","K","2","","","121","main_expt",""
"","bandit","201","858135","0.0-162.0-0.0","71174173","wem/bandit_either_3","A1UE95ET5RK1RI","either","3","296","","","","","","","0","0","1","","0.5349597204","0.4","0.6","0.8","0.2","0.3589515546","0.5349597204","0.5193034213","0.7258716992","","","","","","","","","","","","74","J","1","","","122","main_expt",""
"","bandit","202","860226","0.0-163.0-0.0","71174173","wem/bandit_either_3","A1UE95ET5RK1RI","either","3","580","","","","","","","0","0","1","","0.3461890545","0.4","0.6","0.8","0.2","0.3461890545","0.412887176","0.5594962391","0.7848203729","","","","","","","","","","","","72","H","0","img/none_selected.jpg","","123","main_expt",""
"","bandit","203","862061","0.0-164.0-0.0","71174173","wem/bandit_either_3","A1UE95ET5RK1RI","either","3","321","","","","","","","0","1","0","","0.7673004895","0.4","0.6","0.8","0.2","0.2287340519","0.4137060999","0.6876014299","0.7673004895","","","","","","","","","","","","76","L","3","","","124","main_expt",""
"","bandit","204","863651","0.0-165.0-0.0","71174173","wem/bandit_either_3","A1UE95ET5RK1RI","either","3","78","","","","","","","0","1","0","","0.8020703208","0.4","0.6","0.8","0.2","0.2900718705","0.3226696341","0.7354493796","0.8020703208","","","","","","","","","","","","76","L","3","","","125","main_expt",""
"","bandit","205","865816","0.0-166.0-0.0","71174173","wem/bandit_either_3","A1UE95ET5RK1RI","either","3","654","","","","","","","0","1","0","","0.8196031782","0.4","0.6","0.8","0.2","0.2880997441","0.3904211026","0.76840964","0.8196031782","","","","","","","","","","","","76","L","3","","","126","main_expt",""
"","bandit","206","868882","0.0-167.0-0.0","71174173","wem/bandit_either_3","A1UE95ET5RK1RI","either","3","1555","","","","","","","0","0","1","","0.7095492128","0.4","0.6","0.8","0.2","0.3451069126","0.4227014292","0.7310750685","0.7095492128","","","","","","","","","","","","76","L","3","","","127","main_expt",""
"","bandit","207","871267","0.0-168.0-0.0","71174173","wem/bandit_either_3","A1UE95ET5RK1RI","either","3","873","","","","","","","0","0","1","","0.711577854","0.4","0.6","0.8","0.2","0.3129298861","0.543317668","0.6582635175","0.711577854","","","","","","","","","","","","76","L","3","","","128","main_expt",""
"","bandit","208","872811","0.0-169.0-0.0","71174173","wem/bandit_either_3","A1UE95ET5RK1RI","either","3","31","","","","","","","0","0","1","","0.7022761705","0.4","0.6","0.8","0.2","0.3507055597","0.5906282681","0.7529887683","0.7022761705","","","","","","","","","","","","76","L","3","","","129","main_expt",""
"","bandit","209","876178","0.0-170.0-0.0","71174173","wem/bandit_either_3","A1UE95ET5RK1RI","either","3","1855","","","","","","","0","1","0","","0.7309419319","0.4","0.6","0.8","0.2","0.3753424236","0.6636268631","0.7929301986","0.7309419319","","","","","","","","","","","","76","L","3","","","130","main_expt",""
"","bandit","210","878503","0.0-171.0-0.0","71174173","wem/bandit_either_3","A1UE95ET5RK1RI","either","3","815","","","","","","","0","1","0","","0.8149544693","0.4","0.6","0.8","0.2","0.3473486375","0.5686699027","0.8149544693","0.6904825683","","","","","","","","","","","","75","K","2","","","131","main_expt",""
"","bandit","211","894655","0.0-172.0-0.0","71174173","wem/bandit_either_3","A1UE95ET5RK1RI","either","3","14640","","","","","","","0","0","1","","0.7153166113","0.4","0.6","0.8","0.2","0.303679922","0.6564012045","0.7626544417","0.7153166113","","","","","","","","","","","","76","L","3","","","132","main_expt",""
"","bandit","212","896361","0.0-173.0-0.0","71174173","wem/bandit_either_3","A1UE95ET5RK1RI","either","3","197","","","","","","","0","0","1","0.7584501248","","0.4","0.6","0.8","0.2","","","","","0.3385565331","0.5876654864","0.7584501248","0.8135501627","","","","","","","","75","K","2","","","133","main_expt",""
"","bandit","213","906798","0.0-174.0-0.0","71174173","wem/bandit_either_3","A1UE95ET5RK1RI","either","3","8923","","","","","","","1","0","0","0.7905015291","","0.4","0.6","0.8","0.2","","","","","0.3686406913","0.5299368298","0.7905015291","0.7707892239","","","","","","","","75","K","2","","","134","main_expt",""
"","bandit","214","908853","0.0-175.0-0.0","71174173","wem/bandit_either_3","A1UE95ET5RK1RI","either","3","541","","","","","","","1","0","0","0.7515189777","","0.4","0.6","0.8","0.2","","","","","0.3672202126","0.4547966061","0.7515189777","0.7689088841","","","","","","","","75","K","2","","","135","main_expt",""
"","bandit","215","910787","0.0-176.0-0.0","71174173","wem/bandit_either_3","A1UE95ET5RK1RI","either","3","422","","","","","","","0","0","1","0.7293518859","","0.4","0.6","0.8","0.2","","","","","0.4064769993","0.5290841583","0.7293518859","0.6641324257","","","","","","","","75","K","2","","","136","main_expt",""
"","bandit","216","912359","0.0-177.0-0.0","71174173","wem/bandit_either_3","A1UE95ET5RK1RI","either","3","63","","","","","","","0","0","1","0.7286216209","","0.4","0.6","0.8","0.2","","","","","0.3492503667","0.419904672","0.7286216209","0.635388201","","","","","","","","75","K","2","","","137","main_expt",""
"","bandit","217","914164","0.0-178.0-0.0","71174173","wem/bandit_either_3","A1UE95ET5RK1RI","either","3","291","","","","","","","0","0","1","0.7425921641","","0.4","0.6","0.8","0.2","","","","","0.3315752647","0.4532768315","0.7425921641","0.6889508363","","","","","","","","75","K","2","","","138","main_expt",""
"","bandit","218","915964","0.0-179.0-0.0","71174173","wem/bandit_either_3","A1UE95ET5RK1RI","either","3","286","","","","","","","0","0","1","0.7356638012","","0.4","0.6","0.8","0.2","","","","","0.3080831972","0.4194835996","0.7356638012","0.6481427694","","","","","","","","75","K","2","","","139","main_expt",""
"","bandit","219","917609","0.0-180.0-0.0","71174173","wem/bandit_either_3","A1UE95ET5RK1RI","either","3","137","","","","","","","0","0","1","","0.6497449761","0.4","0.6","0.8","0.2","0.3254670704","0.420008375","0.7334346803","0.6497449761","","","","","","","","","","","","76","L","3","","","140","main_expt",""
"","bandit","220","919412","0.0-181.0-0.0","71174173","wem/bandit_either_3","A1UE95ET5RK1RI","either","3","288","","","","","","","0","1","0","","0.7328205829","0.4","0.6","0.8","0.2","0.3452870884","0.3908595681","0.7737071977","0.7328205829","","","","","","","","","","","","76","L","3","","","141","main_expt",""
"","bandit","221","921107","0.0-182.0-0.0","71174173","wem/bandit_either_3","A1UE95ET5RK1RI","either","3","183","","","","","","","0","1","0","","0.6396752577","0.4","0.6","0.8","0.2","0.2659846132","0.3994278682","0.7912630164","0.6396752577","","","","","","","","","","","","76","L","3","","","142","main_expt",""
"","bandit","222","922736","0.0-183.0-0.0","71174173","wem/bandit_either_3","A1UE95ET5RK1RI","either","3","118","","","","","","","1","0","0","0.7709923268","","0.4","0.6","0.8","0.2","","","","","0.2549781044","0.3137486051","0.7709923268","0.5974809775","","","","","","","","75","K","2","","","143","main_expt",""
"","bandit","223","924558","0.0-184.0-0.0","71174173","wem/bandit_either_3","A1UE95ET5RK1RI","either","3","313","","","","","","","0","0","1","0.7492848764","","0.4","0.6","0.8","0.2","","","","","0.3603981418","0.3961992406","0.7492848764","0.5953980303","","","","","","","","75","K","2","","","144","main_expt",""
"","bandit","224","927411","0.0-185.0-0.0","71174173","wem/bandit_either_3","A1UE95ET5RK1RI","either","3","1340","","","","","","","0","0","1","","0.7343485297","0.4","0.6","0.8","0.2","0.3682949958","0.3186856111","0.7343485297","0.6215671736","","","","","","","","","","","","75","K","2","","","145","main_expt",""
"","bandit","225","930139","0.0-186.0-0.0","71174173","wem/bandit_either_3","A1UE95ET5RK1RI","either","3","1214","","","","","","","0","0","1","0.2724247948","","0.4","0.6","0.8","0.2","","","","","0.5028772858","0.2724247948","0.7701032705","0.5766937592","","","","","","","","74","J","1","","","146","main_expt",""
"","bandit","226","931730","0.0-187.0-0.0","71174173","wem/bandit_either_3","A1UE95ET5RK1RI","either","3","78","","","","","","","1","0","0","0.4186890645","","0.4","0.6","0.8","0.2","","","","","0.4186890645","0.2844288079","0.7521601774","0.4600492943","","","","","","","","72","H","0","img/none_selected.jpg","","147","main_expt",""
"","bandit","227","933471","0.0-188.0-0.0","71174173","wem/bandit_either_3","A1UE95ET5RK1RI","either","3","232","","","","","","","1","0","0","0.3928328601","","0.4","0.6","0.8","0.2","","","","","0.3928328601","0.3095389551","0.7762143641","0.4575448178","","","","","","","","72","H","0","img/none_selected.jpg","","148","main_expt",""
"","bandit","228","935514","0.0-189.0-0.0","71174173","wem/bandit_either_3","A1UE95ET5RK1RI","either","3","530","","","","","","","0","0","1","0.4220063763","","0.4","0.6","0.8","0.2","","","","","0.4220063763","0.2464654743","0.716016993","0.3840278576","","","","","","","","72","H","0","img/none_selected.jpg","","149","main_expt",""
"","bandit","229","937120","0.0-190.0-0.0","71174173","wem/bandit_either_3","A1UE95ET5RK1RI","either","3","95","","","","","","","0","0","1","","0.3206822378","0.4","0.6","0.8","0.2","0.3206822378","0.2088091358","0.7182774931","0.3004406684","","","","","","","","","","","","72","H","0","img/none_selected.jpg","","150","main_expt",""
"","bandit","230","938893","0.0-191.0-0.0","71174173","wem/bandit_either_3","A1UE95ET5RK1RI","either","3","259","","","","","","","0","0","1","","0.3380172956","0.4","0.6","0.8","0.2","0.3380172956","0.2670014618","0.8028216805","0.2769981479","","","","","","","","","","","","72","H","0","img/none_selected.jpg","","151","main_expt",""
"","bandit","231","940535","0.0-192.0-0.0","71174173","wem/bandit_either_3","A1UE95ET5RK1RI","either","3","133","","","","","","","0","0","1","0.40565407","","0.4","0.6","0.8","0.2","","","","","0.2461440624","0.3100930243","0.8634692279","0.40565407","","","","","","","","76","L","3","","","152","main_expt",""
"","bandit","232","942097","0.0-193.0-0.0","71174173","wem/bandit_either_3","A1UE95ET5RK1RI","either","3","49","","","","","","","1","0","0","0.7719190238","","0.4","0.6","0.8","0.2","","","","","0.1852716423","0.3796096158","0.7719190238","0.3829351634","","","","","","","","75","K","2","","","153","main_expt",""
"","bandit","233","943896","0.0-194.0-0.0","71174173","wem/bandit_either_3","A1UE95ET5RK1RI","either","3","287","","","","","","","1","0","0","0.8343429945","","0.4","0.6","0.8","0.2","","","","","0.1660439368","0.2265028128","0.8343429945","0.4912137185","","","","","","","","75","K","2","","","154","main_expt",""
"","bandit","234","945551","0.0-195.0-0.0","71174173","wem/bandit_either_3","A1UE95ET5RK1RI","either","3","145","","","","","","","0","0","1","0.7908731232","","0.4","0.6","0.8","0.2","","","","","0.2241607793","0.2135741777","0.7908731232","0.5312535156","","","","","","","","75","K","2","","","155","main_expt",""
"","bandit","235","947188","0.0-196.0-0.0","71174173","wem/bandit_either_3","A1UE95ET5RK1RI","either","3","122","","","","","","","1","0","0","0.7848911391","","0.4","0.6","0.8","0.2","","","","","0.1566338899","0.1338357519","0.7848911391","0.5747898199","","","","","","","","75","K","2","","","156","main_expt",""
"","bandit","236","948871","0.0-197.0-0.0","71174173","wem/bandit_either_3","A1UE95ET5RK1RI","either","3","172","","","","","","","0","0","1","0.7467155263","","0.4","0.6","0.8","0.2","","","","","0.1839373886","0.1344370697","0.7467155263","0.5948125822","","","","","","","","75","K","2","","","157","main_expt",""
"","bandit","237","950443","0.0-198.0-0.0","71174173","wem/bandit_either_3","A1UE95ET5RK1RI","either","3","59","","","","","","","1","0","0","0.7413618202","","0.4","0.6","0.8","0.2","","","","","0.155802242","0.1217930933","0.7413618202","0.6533804049","","","","","","","","75","K","2","","","158","main_expt",""
"","bandit","238","952180","0.0-199.0-0.0","71174173","wem/bandit_either_3","A1UE95ET5RK1RI","either","3","220","","","","","","","0","1","0","","0.6882043704","0.4","0.6","0.8","0.2","0.2304237345","0.08524485746","0.6882043704","0.5777198579","","","","","","","","","","","","75","K","2","","","159","main_expt",""
"","bandit","239","953915","0.0-200.0-0.0","71174173","wem/bandit_either_3","A1UE95ET5RK1RI","either","3","221","","","","","","","1","0","0","0.7253096401","","0.4","0.6","0.8","0.2","","","","","0.2242026456","0.07332219892","0.7253096401","0.6777741118","","","","","","","","75","K","2","","","160","main_expt",""
"","bandit","240","955657","0.0-201.0-0.0","71174173","wem/bandit_either_3","A1UE95ET5RK1RI","either","3","228","","","","","","","0","1","0","","0.6989182833","0.4","0.6","0.8","0.2","0.2708915048","0.1063489691","0.6989182833","0.6249074267","","","","","","","","","","","","75","K","2","","","161","main_expt",""
"","bandit","241","957375","0.0-202.0-0.0","71174173","wem/bandit_either_3","A1UE95ET5RK1RI","either","3","207","","","","","","","1","0","0","0.7679575172","","0.4","0.6","0.8","0.2","","","","","0.2921592604","0.09670310095","0.7679575172","0.6755041601","","","","","","","","75","K","2","","","162","main_expt",""
"","bandit","242","959082","0.0-203.0-0.0","71174173","wem/bandit_either_3","A1UE95ET5RK1RI","either","3","193","","","","","","","0","0","1","0.6877390752","","0.4","0.6","0.8","0.2","","","","","0.2050535257","0.1266359811","0.6877390752","0.6461818487","","","","","","","","75","K","2","","","163","main_expt",""
"","bandit","243","960625","0.0-204.0-0.0","71174173","wem/bandit_either_3","A1UE95ET5RK1RI","either","3","31","","","","","","","0","0","1","0.6957575266","","0.4","0.6","0.8","0.2","","","","","0.1998759094","0.1212611996","0.6957575266","0.76368027","","","","","","","","75","K","2","","","164","main_expt",""
"","bandit","244","962454","0.0-205.0-0.0","71174173","wem/bandit_either_3","A1UE95ET5RK1RI","either","3","318","","","","","","","1","0","0","0.6760148625","","0.4","0.6","0.8","0.2","","","","","0.1821974317","0.1917887173","0.6760148625","0.8400099296","","","","","","","","75","K","2","","","165","main_expt",""
"","bandit","245","964265","0.0-206.0-0.0","71174173","wem/bandit_either_3","A1UE95ET5RK1RI","either","3","297","","","","","","","1","0","0","0.6463317238","","0.4","0.6","0.8","0.2","","","","","0.2916844583","0.1560613016","0.6463317238","0.8573275969","","","","","","","","75","K","2","","","166","main_expt",""
"","bandit","246","966088","0.0-207.0-0.0","71174173","wem/bandit_either_3","A1UE95ET5RK1RI","either","3","310","","","","","","","1","0","0","0.5613055562","","0.4","0.6","0.8","0.2","","","","","0.3087465624","0.2214887095","0.5613055562","0.7735369509","","","","","","","","75","K","2","","","167","main_expt",""
"","bandit","247","967972","0.0-208.0-0.0","71174173","wem/bandit_either_3","A1UE95ET5RK1RI","either","3","375","","","","","","","1","0","0","0.5586162784","","0.4","0.6","0.8","0.2","","","","","0.3896626528","0.3463453368","0.5586162784","0.8091314607","","","","","","","","75","K","2","","","168","main_expt",""
"","bandit","248","969832","0.0-209.0-0.0","71174173","wem/bandit_either_3","A1UE95ET5RK1RI","either","3","346","","","","","","","0","0","1","","0.597448185","0.4","0.6","0.8","0.2","0.4458805252","0.3222551453","0.597448185","0.8364166478","","","","","","","","","","","","75","K","2","","","169","main_expt",""
"","bandit","249","971695","0.0-210.0-0.0","71174173","wem/bandit_either_3","A1UE95ET5RK1RI","either","3","351","","","","","","","0","0","1","0.5351242352","","0.4","0.6","0.8","0.2","","","","","0.4844269655","0.2556410415","0.5351242352","0.7867883415","","","","","","","","75","K","2","","","170","main_expt",""
"","bandit","250","973518","0.0-211.0-0.0","71174173","wem/bandit_either_3","A1UE95ET5RK1RI","either","3","311","","","","","","","1","0","0","0.4819966971","","0.4","0.6","0.8","0.2","","","","","0.4858642724","0.2248109201","0.4819966971","0.8728822524","","","","","","","","75","K","2","","","171","main_expt",""
"","bandit","251","975432","0.0-212.0-0.0","71174173","wem/bandit_either_3","A1UE95ET5RK1RI","either","3","401","","","","","","","0","0","1","0.4038669266","","0.4","0.6","0.8","0.2","","","","","0.5060245996","0.3468742366","0.4038669266","0.7804912391","","","","","","","","75","K","2","","","172","main_expt",""
"","bandit","252","977065","0.0-213.0-0.0","71174173","wem/bandit_either_3","A1UE95ET5RK1RI","either","3","118","","","","","","","0","0","1","0.3102533384","","0.4","0.6","0.8","0.2","","","","","0.5413528159","0.234408543","0.3102533384","0.7728490534","","","","","","","","75","K","2","","","173","main_expt",""
"","bandit","253","978701","0.0-214.0-0.0","71174173","wem/bandit_either_3","A1UE95ET5RK1RI","either","3","125","","","","","","","0","0","1","0.1404050277","","0.4","0.6","0.8","0.2","","","","","0.6505326818","0.1404050277","0.3818943333","0.814185781","","","","","","","","74","J","1","","","174","main_expt",""
"","bandit","254","980621","0.0-215.0-0.0","71174173","wem/bandit_either_3","A1UE95ET5RK1RI","either","3","409","","","","","","","0","0","1","0.1081611795","","0.4","0.6","0.8","0.2","","","","","0.6470977149","0.1081611795","0.2893198216","0.8010682597","","","","","","","","74","J","1","","","175","main_expt",""
"","bandit","255","982544","0.0-216.0-0.0","71174173","wem/bandit_either_3","A1UE95ET5RK1RI","either","3","411","","","","","","","0","0","1","","0.0730283124","0.4","0.6","0.8","0.2","0.6844229635","0.0730283124","0.226416223","0.7083228223","","","","","","","","","","","","74","J","1","","","176","main_expt",""
"","bandit","256","984436","0.0-217.0-0.0","71174173","wem/bandit_either_3","A1UE95ET5RK1RI","either","3","381","","","","","","","0","0","1","","0.07044941978","0.4","0.6","0.8","0.2","0.6883244284","0.07044941978","0.2786676386","0.7408938443","","","","","","","","","","","","74","J","1","","","177","main_expt",""
"","bandit","257","986131","0.0-218.0-0.0","71174173","wem/bandit_either_3","A1UE95ET5RK1RI","either","3","187","","","","","","","0","0","1","0.06886985111","","0.4","0.6","0.8","0.2","","","","","0.6098590842","0.06886985111","0.2279078815","0.6621187214","","","","","","","","74","J","1","","","178","main_expt",""
"","bandit","258","987884","0.0-219.0-0.0","71174173","wem/bandit_either_3","A1UE95ET5RK1RI","either","3","242","","","","","","","0","0","1","0.07254371148","","0.4","0.6","0.8","0.2","","","","","0.5924449164","0.07254371148","0.1690126781","0.6765487854","","","","","","","","74","J","1","","","179","main_expt",""
"","bandit","259","989667","0.0-220.0-0.0","71174173","wem/bandit_either_3","A1UE95ET5RK1RI","either","3","266","","","","","","","0","0","1","0.055057054","","0.4","0.6","0.8","0.2","","","","","0.4915111467","0.055057054","0.1356066944","0.7276027883","","","","","","","","74","J","1","","","180","main_expt",""
"","bandit","260","991454","0.0-221.0-0.0","71174173","wem/bandit_either_3","A1UE95ET5RK1RI","either","3","274","","","","","","","1","0","0","0.1889441784","","0.4","0.6","0.8","0.2","","","","","0.4713933083","0.1187845962","0.1889441784","0.7083410305","","","","","","","","75","K","2","","","181","main_expt",""
"","bandit","261","993353","0.0-222.0-0.0","71174173","wem/bandit_either_3","A1UE95ET5RK1RI","either","3","385","","","","","","","0","1","0","","0.2163976064","0.4","0.6","0.8","0.2","0.500114893","0.1304227184","0.2163976064","0.6489729838","","","","","","","","","","","","75","K","2","","","182","main_expt",""
"","bandit","262","995448","0.0-223.0-0.0","71174173","wem/bandit_either_3","A1UE95ET5RK1RI","either","3","581","","","","","","","0","0","1","","0.1902524086","0.4","0.6","0.8","0.2","0.4949273894","0.1374638341","0.1902524086","0.6956751073","","","","","","","","","","","","75","K","2","","","183","main_expt",""
"","bandit","263","997657","0.0-224.0-0.0","71174173","wem/bandit_either_3","A1UE95ET5RK1RI","either","3","693","","","","","","","0","0","1","0.2265805791","","0.4","0.6","0.8","0.2","","","","","0.4271361476","0.1914365344","0.2265805791","0.6066537109","","","","","","","","75","K","2","","","184","main_expt",""
"","bandit","264","999529","0.0-225.0-0.0","71174173","wem/bandit_either_3","A1UE95ET5RK1RI","either","3","356","","","","","","","0","0","1","","0.1843452782","0.4","0.6","0.8","0.2","0.4558255176","0.1939872458","0.1843452782","0.6337362372","","","","","","","","","","","","75","K","2","","","185","main_expt",""
"","bandit","265","1001238","0.0-226.0-0.0","71174173","wem/bandit_either_3","A1UE95ET5RK1RI","either","3","195","","","","","","","0","1","0","","0.5908962551","0.4","0.6","0.8","0.2","0.4031301461","0.2219937035","0.1898387663","0.5908962551","","","","","","","","","","","","76","L","3","","","186","main_expt",""
"","bandit","266","1003064","0.0-227.0-0.0","71174173","wem/bandit_either_3","A1UE95ET5RK1RI","either","3","310","","","","","","","0","0","1","0.3993697366","","0.4","0.6","0.8","0.2","","","","","0.3993697366","0.2024523472","0.210498268","0.7651761031","","","","","","","","72","H","0","img/none_selected.jpg","","187","main_expt",""
"","bandit","267","1022098","0.0-228.0-0.0","71174173","wem/bandit_either_3","A1UE95ET5RK1RI","either","3","17522","","","","","","","0","0","1","","0.2368649008","0.4","0.6","0.8","0.2","0.4478687375","0.1930401344","0.2368649008","0.7928336054","","","","","","","","","","","","75","K","2","","","188","main_expt",""
"","bandit","268","1024634","0.0-229.0-0.0","71174173","wem/bandit_either_3","A1UE95ET5RK1RI","either","3","1024","","","","","","","0","0","1","","0.291591963","0.4","0.6","0.8","0.2","0.3699601256","0.3255404916","0.291591963","0.8917358491","","","","","","","","","","","","75","K","2","","","189","main_expt",""
"","bandit","269","1026257","0.0-230.0-0.0","71174173","wem/bandit_either_3","A1UE95ET5RK1RI","either","3","111","","","","","","","0","0","1","","0.2364063212","0.4","0.6","0.8","0.2","0.3723251068","0.2364063212","0.4411779124","0.898448025","","","","","","","","","","","","74","J","1","","","190","main_expt",""
"","bandit","270","1027995","0.0-231.0-0.0","71174173","wem/bandit_either_3","A1UE95ET5RK1RI","either","3","224","","","","","","","0","0","1","0.2662767285","","0.4","0.6","0.8","0.2","","","","","0.3309849287","0.2662767285","0.3968704403","0.9186708851","","","","","","","","74","J","1","","","191","main_expt",""
"","bandit","271","1029777","0.0-232.0-0.0","71174173","wem/bandit_either_3","A1UE95ET5RK1RI","either","3","271","","","","","","","0","0","1","0.2815174114","","0.4","0.6","0.8","0.2","","","","","0.2865625263","0.2815174114","0.4512817608","0.9314477517","","","","","","","","74","J","1","","","192","main_expt",""
"","bandit","272","1031443","0.0-233.0-0.0","71174173","wem/bandit_either_3","A1UE95ET5RK1RI","either","3","153","","","","","","","1","0","0","0.9090465067","","0.4","0.6","0.8","0.2","","","","","0.2862811746","0.3461293965","0.4788006455","0.9090465067","","","","","","","","76","L","3","","","193","main_expt",""
"","bandit","273","1033301","0.0-234.0-0.0","71174173","wem/bandit_either_3","A1UE95ET5RK1RI","either","3","345","","","","","","","0","1","0","","0.8762249788","0.4","0.6","0.8","0.2","0.2785288642","0.3303735913","0.4651889587","0.8762249788","","","","","","","","","","","","76","L","3","","","194","main_expt",""
"","bandit","274","1034961","0.0-235.0-0.0","71174173","wem/bandit_either_3","A1UE95ET5RK1RI","either","3","149","","","","","","","0","1","0","","0.8623185747","0.4","0.6","0.8","0.2","0.2283941808","0.3194565039","0.4718629942","0.8623185747","","","","","","","","","","","","76","L","3","","","195","main_expt",""
"","bandit","275","1037137","0.0-236.0-0.0","71174173","wem/bandit_either_3","A1UE95ET5RK1RI","either","3","665","","","","","","","0","1","0","","0.7745977574","0.4","0.6","0.8","0.2","0.214282227","0.4103944464","0.3825708332","0.7745977574","","","","","","","","","","","","76","L","3","","","196","main_expt",""
"","bandit","276","1038862","0.0-237.0-0.0","71174173","wem/bandit_either_3","A1UE95ET5RK1RI","either","3","209","","","","","","","0","0","1","","0.7723069829","0.4","0.6","0.8","0.2","0.1422959513","0.4445726534","0.4530864699","0.7723069829","","","","","","","","","","","","76","L","3","","","197","main_expt",""
"","bandit","277","1041068","0.0-238.0-0.0","71174173","wem/bandit_either_3","A1UE95ET5RK1RI","either","3","692","","","","","","","1","0","0","0.4337652667","","0.4","0.6","0.8","0.2","","","","","0.1126324943","0.4351718099","0.4337652667","0.7084082875","","","","","","","","75","K","2","","","198","main_expt",""
"","bandit","278","1042931","0.0-239.0-0.0","71174173","wem/bandit_either_3","A1UE95ET5RK1RI","either","3","351","","","","","","","0","0","1","0.4138332966","","0.4","0.6","0.8","0.2","","","","","0.1144166609","0.4641294157","0.4138332966","0.7016883558","","","","","","","","75","K","2","","","199","main_expt",""
"","bandit","279","1044562","0.0-240.0-0.0","71174173","wem/bandit_either_3","A1UE95ET5RK1RI","either","3","119","","","","","","","0","0","1","0.5005175686","","0.4","0.6","0.8","0.2","","","","","0.1518003708","0.4468687069","0.5005175686","0.6504384346","","","","","","","","75","K","2","","","200","main_expt",""
"","bandit","280","1046738","0.0-241.0-0.0","71174173","wem/bandit_either_3","A1UE95ET5RK1RI","either","3","663","","","","","","","0","0","1","0.5122642399","","0.4","0.6","0.8","0.2","","","","","0.1974433607","0.5087435212","0.5122642399","0.7904945102","","","","","","","","75","K","2","","","201","main_expt",""
"","bandit","281","1049589","0.0-242.0-0.0","71174173","wem/bandit_either_3","A1UE95ET5RK1RI","either","3","1334","","","","","","","1","0","0","0.4992132835","","0.4","0.6","0.8","0.2","","","","","0.2000842809","0.4992132835","0.5414597976","0.7039472437","","","","","","","","74","J","1","","","202","main_expt",""
"","bandit","282","1052114","0.0-243.0-0.0","71174173","wem/bandit_either_3","A1UE95ET5RK1RI","either","3","1012","","","","","","","0","0","1","","0.4859842053","0.4","0.6","0.8","0.2","0.1715580826","0.4859842053","0.4993649945","0.7478807213","","","","","","","","","","","","74","J","1","","","203","main_expt",""
"","bandit","283","1054950","0.0-244.0-0.0","71174173","wem/bandit_either_3","A1UE95ET5RK1RI","either","3","1320","","","","","","","0","0","1","0.6162755314","","0.4","0.6","0.8","0.2","","","","","0.3028604286","0.6162755314","0.4056752737","0.7346150791","","","","","","","","74","J","1","","","204","main_expt",""
"","bandit","284","1059457","0.0-245.0-0.0","71174173","wem/bandit_either_3","A1UE95ET5RK1RI","either","3","2995","","","","","","","1","0","0","0.6204906845","","0.4","0.6","0.8","0.2","","","","","0.3714949669","0.6204906845","0.4174768156","0.7240623961","","","","","","","","74","J","1","","","205","main_expt",""
"","bandit","285","1061402","0.0-246.0-0.0","71174173","wem/bandit_either_3","A1UE95ET5RK1RI","either","3","431","","","","","","","1","0","0","0.6390595606","","0.4","0.6","0.8","0.2","","","","","0.3034865557","0.6390595606","0.4364097613","0.733657826","","","","","","","","74","J","1","","","206","main_expt",""
"","bandit","286","1064559","0.0-247.0-0.0","71174173","wem/bandit_either_3","A1UE95ET5RK1RI","either","3","1647","","","","","","","0","1","0","","0.6022157482","0.4","0.6","0.8","0.2","0.2688105372","0.6022157482","0.4666062126","0.6797091947","","","","","","","","","","","","74","J","1","","","207","main_expt",""
"","bandit","287","1066481","0.0-248.0-0.0","71174173","wem/bandit_either_3","A1UE95ET5RK1RI","either","3","410","","","","","","","1","0","0","0.6598502583","","0.4","0.6","0.8","0.2","","","","","0.2240001326","0.6598502583","0.4594719295","0.472157919","","","","","","","","74","J","1","","","208","main_expt",""
"","bandit","288","1068373","0.0-249.0-0.0","71174173","wem/bandit_either_3","A1UE95ET5RK1RI","either","3","383","","","","","","","0","1","0","","0.6329069529","0.4","0.6","0.8","0.2","0.3284172364","0.6329069529","0.5415101973","0.4993955773","","","","","","","","","","","","74","J","1","","","209","main_expt",""
"","bandit","289","1071867","0.0-250.0-0.0","71174173","wem/bandit_either_3","A1UE95ET5RK1RI","either","3","1979","","","","","","","0","0","1","","0.5418549626","0.4","0.6","0.8","0.2","0.3178667136","0.5418549626","0.5627952802","0.3923888982","","","","","","","","","","","","74","J","1","","","210","main_expt",""
"","bandit","290","1119559","0.0-251.0-0.0","71174173","wem/bandit_either_3","A1UE95ET5RK1RI","either","3","46180","","","","","","","0","0","1","","0.4183885941","0.4","0.6","0.8","0.2","0.278360526","0.7265410197","0.5779033475","0.4183885941","","","","","","","","","","","","76","L","3","","","211","main_expt",""
"","bandit","291","1121167","0.0-252.0-0.0","71174173","wem/bandit_either_3","A1UE95ET5RK1RI","either","3","97","","","","","","","0","1","0","","0.6169713091","0.4","0.6","0.8","0.2","0.2720231684","0.6550819281","0.6169713091","0.5367383083","","","","","","","","","","","","75","K","2","","","212","main_expt",""
"","bandit","292","1123058","0.0-253.0-0.0","71174173","wem/bandit_either_3","A1UE95ET5RK1RI","either","3","376","","","","","","","0","0","1","","0.5688165975","0.4","0.6","0.8","0.2","0.3445332441","0.5812500281","0.5688165975","0.5779451767","","","","","","","","","","","","75","K","2","","","213","main_expt",""
"","bandit","293","1126542","0.0-254.0-0.0","71174173","wem/bandit_either_3","A1UE95ET5RK1RI","either","3","1973","","","","","","","0","0","1","0.5354690829","","0.4","0.6","0.8","0.2","","","","","0.331154659","0.6912727382","0.5354690829","0.5615700258","","","","","","","","75","K","2","","","214","main_expt",""
"","bandit","294","1134495","0.0-255.0-0.0","71174173","wem/bandit_either_3","A1UE95ET5RK1RI","either","3","6439","","","","","","","0","0","1","","0.695573978","0.4","0.6","0.8","0.2","0.3168016653","0.695573978","0.4395706401","0.5361399643","","","","","","","","","","","","74","J","1","","","215","main_expt",""
"","bandit","295","1136190","0.0-256.0-0.0","71174173","wem/bandit_either_3","A1UE95ET5RK1RI","either","3","182","","","","","","","1","0","0","0.4522294324","","0.4","0.6","0.8","0.2","","","","","0.2870858596","0.6531454011","0.4522294324","0.620750855","","","","","","","","75","K","2","","","216","main_expt",""
"","bandit","296","1138041","0.0-257.0-0.0","71174173","wem/bandit_either_3","A1UE95ET5RK1RI","either","3","335","","","","","","","1","0","0","0.4141575353","","0.4","0.6","0.8","0.2","","","","","0.2877345098","0.6459690495","0.4141575353","0.4812239037","","","","","","","","75","K","2","","","217","main_expt",""
"","bandit","297","1141112","0.0-258.0-0.0","71174173","wem/bandit_either_3","A1UE95ET5RK1RI","either","3","1555","","","","","","","0","0","1","0.3009722504","","0.4","0.6","0.8","0.2","","","","","0.3608492067","0.6679944541","0.3009722504","0.4028497994","","","","","","","","75","K","2","","","218","main_expt",""
"","bandit","298","1144775","0.0-259.0-0.0","71174173","wem/bandit_either_3","A1UE95ET5RK1RI","either","3","2150","","","","","","","0","0","1","","0.4441021312","0.4","0.6","0.8","0.2","0.4380407461","0.7159195147","0.2706893249","0.4441021312","","","","","","","","","","","","76","L","3","","","219","main_expt",""
"","bandit","299","1146892","0.0-260.0-0.0","71174173","wem/bandit_either_3","A1UE95ET5RK1RI","either","3","605","","","","","","","1","0","0","0.3821277721","","0.4","0.6","0.8","0.2","","","","","0.4769938592","0.6874484601","0.3821277721","0.4867825248","","","","","","","","75","K","2","","","220","main_expt",""
"","bandit","300","1148612","0.0-261.0-0.0","71174173","wem/bandit_either_3","A1UE95ET5RK1RI","either","3","208","","","","","","","1","0","0","0.4534214389","","0.4","0.6","0.8","0.2","","","","","0.4612627877","0.6528128226","0.4534214389","0.5428062785","","","","","","","","75","K","2","","","221","main_expt",""
"","bandit","301","1150974","0.0-262.0-0.0","71174173","wem/bandit_either_3","A1UE95ET5RK1RI","either","3","848","","","","","","","1","0","0","0.6049712458","","0.4","0.6","0.8","0.2","","","","","0.4192901336","0.6836467719","0.6049712458","0.5993321864","","","","","","","","75","K","2","","","222","main_expt",""
"","bandit","302","1154428","0.0-263.0-0.0","71174173","wem/bandit_either_3","A1UE95ET5RK1RI","either","3","1942","","","","","","","1","0","0","0.6389506418","","0.4","0.6","0.8","0.2","","","","","0.5559965486","0.7820879334","0.6389506418","0.4920604154","","","","","","","","75","K","2","","","223","main_expt",""
"","bandit","303","1158207","0.0-264.0-0.0","71174173","wem/bandit_either_3","A1UE95ET5RK1RI","either","3","2264","","","","","","","0","0","1","","0.6677375732","0.4","0.6","0.8","0.2","0.6687933923","0.763226653","0.6677375732","0.5344282052","","","","","","","","","","","","75","K","2","","","224","main_expt",""
"","bandit","304","1160883","0.0-265.0-0.0","71174173","wem/bandit_either_3","A1UE95ET5RK1RI","either","3","1165","","","","","","","1","0","0","0.6931961842","","0.4","0.6","0.8","0.2","","","","","0.5954484576","0.6931961842","0.7706853934","0.5583452501","","","","","","","","74","J","1","","","225","main_expt",""
"","bandit","305","1162828","0.0-266.0-0.0","71174173","wem/bandit_either_3","A1UE95ET5RK1RI","either","3","433","","","","","","","0","1","0","","0.6633974694","0.4","0.6","0.8","0.2","0.6152447968","0.6633974694","0.7624197083","0.5126042404","","","","","","","","","","","","74","J","1","","","226","main_expt",""
"","bandit","306","1164896","0.0-267.0-0.0","71174173","wem/bandit_either_3","A1UE95ET5RK1RI","either","3","554","","","","","","","0","0","1","0.6567175756","","0.4","0.6","0.8","0.2","","","","","0.6597553912","0.6567175756","0.7287840805","0.5720595628","","","","","","","","74","J","1","","","227","main_expt",""
"","bandit","307","1167822","0.0-268.0-0.0","71174173","wem/bandit_either_3","A1UE95ET5RK1RI","either","3","1411","","","","","","","0","1","0","","0.6052730858","0.4","0.6","0.8","0.2","0.594895186","0.6052730858","0.7993891034","0.6134710885","","","","","","","","","","","","74","J","1","","","228","main_expt",""
"","bandit","308","1170902","0.0-269.0-0.0","71174173","wem/bandit_either_3","A1UE95ET5RK1RI","either","3","1565","","","","","","","1","0","0","0.8374027748","","0.4","0.6","0.8","0.2","","","","","0.5722559027","0.5548990383","0.8374027748","0.5669106804","","","","","","","","75","K","2","","","229","main_expt",""
"","bandit","309","1172949","0.0-270.0-0.0","71174173","wem/bandit_either_3","A1UE95ET5RK1RI","either","3","532","","","","","","","1","0","0","0.8414873787","","0.4","0.6","0.8","0.2","","","","","0.5409090622","0.6017114108","0.8414873787","0.6286782819","","","","","","","","75","K","2","","","230","main_expt",""
"","bandit","310","1174762","0.0-271.0-0.0","71174173","wem/bandit_either_3","A1UE95ET5RK1RI","either","3","302","","","","","","","1","0","0","0.8531648874","","0.4","0.6","0.8","0.2","","","","","0.518727512","0.5525336349","0.8531648874","0.5594948871","","","","","","","","75","K","2","","","231","main_expt",""
"","bandit","311","1177879","0.0-272.0-0.0","71174173","wem/bandit_either_3","A1UE95ET5RK1RI","either","3","1602","","","","","","","0","1","0","","0.8813812612","0.4","0.6","0.8","0.2","0.5200298571","0.4493361955","0.8813812612","0.5817998964","","","","","","","","","","","","75","K","2","","","232","main_expt",""
"","bandit","312","1180021","0.0-273.0-0.0","71174173","wem/bandit_either_3","A1UE95ET5RK1RI","either","3","627","","","","","","","1","0","0","0.8916766345","","0.4","0.6","0.8","0.2","","","","","0.4564343731","0.5280832246","0.8916766345","0.5971875981","","","","","","","","75","K","2","","","233","main_expt",""
"","bandit","313","1181867","0.0-274.0-0.0","71174173","wem/bandit_either_3","A1UE95ET5RK1RI","either","3","333","","","","","","","1","0","0","0.842820862","","0.4","0.6","0.8","0.2","","","","","0.4168065644","0.6814540918","0.842820862","0.5227237997","","","","","","","","75","K","2","","","234","main_expt",""
"","bandit","314","1183637","0.0-275.0-0.0","71174173","wem/bandit_either_3","A1UE95ET5RK1RI","either","3","255","","","","","","","1","0","0","0.7856269381","","0.4","0.6","0.8","0.2","","","","","0.4340770274","0.5518959403","0.7856269381","0.6231997156","","","","","","","","75","K","2","","","235","main_expt",""
"","bandit","315","1185234","0.0-276.0-0.0","71174173","wem/bandit_either_3","A1UE95ET5RK1RI","either","3","85","","","","","","","0","0","1","0.8092971262","","0.4","0.6","0.8","0.2","","","","","0.4489205242","0.4965619817","0.8092971262","0.558272317","","","","","","","","75","K","2","","","236","main_expt",""
"","bandit","316","1196507","0.0-277.0-0.0","71174173","wem/bandit_either_3","A1UE95ET5RK1RI","either","3","9757","","","","","","","1","0","0","0.4762879104","","0.4","0.6","0.8","0.2","","","","","0.4838648791","0.4762879104","0.8125536838","0.6118965497","","","","","","","","74","J","1","","","237","main_expt",""
"","bandit","317","1198811","0.0-278.0-0.0","71174173","wem/bandit_either_3","A1UE95ET5RK1RI","either","3","788","","","","","","","1","0","0","0.4991976808","","0.4","0.6","0.8","0.2","","","","","0.4615645545","0.4991976808","0.8684257659","0.7415542647","","","","","","","","74","J","1","","","238","main_expt",""
"","bandit","318","1201313","0.0-279.0-0.0","71174173","wem/bandit_either_3","A1UE95ET5RK1RI","either","3","987","","","","","","","0","1","0","","0.4627972202","0.4","0.6","0.8","0.2","0.4263497721","0.4627972202","0.8891050988","0.794517608","","","","","","","","","","","","74","J","1","","","239","main_expt",""
"","bandit","319","1203142","0.0-280.0-0.0","71174173","wem/bandit_either_3","A1UE95ET5RK1RI","either","3","316","","","","","","","0","0","1","0.484486763","","0.4","0.6","0.8","0.2","","","","","0.4372282776","0.484486763","0.8983693474","0.7966429163","","","","","","","","74","J","1","","","240","main_expt",""
"","bandit","320","1205672","0.0-281.0-0.0","71174173","wem/bandit_either_3","A1UE95ET5RK1RI","either","3","1016","","","","","","","0","1","0","","0.3450886106","0.4","0.6","0.8","0.2","0.5558093781","0.3450886106","0.8608109038","0.7827696357","","","","","","","","","","","","74","J","1","","","241","main_expt",""
"","bandit","321","1207300","0.0-282.0-0.0","71174173","wem/bandit_either_3","A1UE95ET5RK1RI","either","3","111","","","","","","","1","0","0","0.4066884652","","0.4","0.6","0.8","0.2","","","","","0.654661817","0.4066884652","0.8807376199","0.8077769827","","","","","","","","74","J","1","","","242","main_expt",""
"","bandit","322","1209925","0.0-283.0-0.0","71174173","wem/bandit_either_3","A1UE95ET5RK1RI","either","3","1114","","","","","","","0","0","1","","0.3574054959","0.4","0.6","0.8","0.2","0.5869565726","0.3574054959","0.8782163565","0.7680675523","","","","","","","","","","","","74","J","1","","","243","main_expt",""
"","bandit","323","1211495","0.0-284.0-0.0","71174173","wem/bandit_either_3","A1UE95ET5RK1RI","either","3","56","","","","","","","1","0","0","0.8691088863","","0.4","0.6","0.8","0.2","","","","","0.6282978891","0.4200458239","0.8691088863","0.6802465609","","","","","","","","75","K","2","","","244","main_expt",""
"","bandit","324","1213590","0.0-285.0-0.0","71174173","wem/bandit_either_3","A1UE95ET5RK1RI","either","3","583","","","","","","","1","0","0","0.8516976639","","0.4","0.6","0.8","0.2","","","","","0.5918678021","0.3587254574","0.8516976639","0.6110509309","","","","","","","","75","K","2","","","245","main_expt",""
"","bandit","325","1215511","0.0-286.0-0.0","71174173","wem/bandit_either_3","A1UE95ET5RK1RI","either","3","407","","","","","","","0","0","1","0.9024239937","","0.4","0.6","0.8","0.2","","","","","0.5768832148","0.3469794694","0.9024239937","0.6490463127","","","","","","","","75","K","2","","","246","main_expt",""
