"consent","trial_type","trial_index","time_elapsed","internal_node_id","subjID","study","MID","cond","drift","rt","responses","key_press","expt_phase","like","value","connected","gems","bombs","no_reward","GemPrChosen","BombPrChosen","GainOverPainPr_0","GainOverPainPr_1","GainOverPainPr_2","GainOverPainPr_3","LosePr_0","LosePr_1","LosePr_2","LosePr_3","WinPr_0","WinPr_1","WinPr_2","WinPr_3","Q0","Q1","Q2","gender","age","ethnicity","target","respCharCode","respKey","respChoiceNum","respChoice","practice","trial_counter","trial_label","button_pressed"
"INL_behavioral_consent_30min_online.html","consent","0","6413","0.0-0.0","72005099","wem/bandit_either_3","A2ZDNV3621BH6A","either","1","","","","","","","","","","","","","","","","","","","","","","","","","","","","","","","","","","","","","","",""
"","survey-text","1","9385","0.0-1.0","72005099","wem/bandit_either_3","A2ZDNV3621BH6A","either","1","1950","{""Q0"":""A2ZDNV3621BH6A""}","","","","","","","","","","","","","","","","","","","","","","","","","","","","","","","","","","","","",""
"","text","2","53364","0.0-2.0","72005099","wem/bandit_either_3","A2ZDNV3621BH6A","either","1","42974","","32","","","","","","","","","","","","","","","","","","","","","","","","","","","","","","","","","","","",""
"","text","3","54928","0.0-3.0","72005099","wem/bandit_either_3","A2ZDNV3621BH6A","either","1","1558","","32","","","","","","","","","","","","","","","","","","","","","","","","","","","","","","","","","","","",""
"","text","4","56730","0.0-4.0","72005099","wem/bandit_either_3","A2ZDNV3621BH6A","either","1","1800","","32","","","","","","","","","","","","","","","","","","","","","","","","","","","","","","","","","","","",""
"","text","5","59247","0.0-5.0","72005099","wem/bandit_either_3","A2ZDNV3621BH6A","either","1","2515","","32","","","","","","","","","","","","","","","","","","","","","","","","","","","","","","","","","","","",""
"","text","6","62341","0.0-6.0","72005099","wem/bandit_either_3","A2ZDNV3621BH6A","either","1","3089","","32","","","","","","","","","","","","","","","","","","","","","","","","","","","","","","","","","","","",""
"","text","7","64234","0.0-7.0","72005099","wem/bandit_either_3","A2ZDNV3621BH6A","either","1","1887","","32","","","","","","","","","","","","","","","","","","","","","","","","","","","","","","","","","","","",""
"","text","8","65832","0.0-8.0","72005099","wem/bandit_either_3","A2ZDNV3621BH6A","either","1","1596","","32","","","","","","","","","","","","","","","","","","","","","","","","","","","","","","","","","","","",""
"","identification","9","70854","0.0-9.0-0.0","72005099","wem/bandit_either_3","A2ZDNV3621BH6A","either","1","4983","","","","4","5","5","","","","","","","","","","","","","","","","","","","","","","","","the village of Zur","","","","","","","",""
"","identification","10","75245","0.0-9.0-1.0","72005099","wem/bandit_either_3","A2ZDNV3621BH6A","either","1","3361","","","","1","2","1","","","","","","","","","","","","","","","","","","","","","","","","the village of Nyx","","","","","","","",""
"","text","11","90522","0.0-10.0","72005099","wem/bandit_either_3","A2ZDNV3621BH6A","either","1","14272","","32","","","","","","","","","","","","","","","","","","","","","","","","","","","","","","","","","","","",""
"","text","12","91268","0.0-11.0","72005099","wem/bandit_either_3","A2ZDNV3621BH6A","either","1","743","","32","","","","","","","","","","","","","","","","","","","","","","","","","","","","","","","","","","","",""
"","text","13","91853","0.0-12.0","72005099","wem/bandit_either_3","A2ZDNV3621BH6A","either","1","578","","32","","","","","","","","","","","","","","","","","","","","","","","","","","","","","","","","","","","",""
"","text","14","92913","0.0-13.0","72005099","wem/bandit_either_3","A2ZDNV3621BH6A","either","1","1058","","32","","","","","","","","","","","","","","","","","","","","","","","","","","","","","","","","","","","",""
"","bandit","15","95696","0.0-14.0-0.0","72005099","wem/bandit_either_3","A2ZDNV3621BH6A","either","1","1263","","","","","","","0","0","1","0","0","","","","","0","","","","0","","","","","","","","","","","74","J","0","img/none_selected_demo.jpg","true","0","",""
"","bandit","16","97637","0.0-15.0-0.0","72005099","wem/bandit_either_3","A2ZDNV3621BH6A","either","1","426","","","","","","","0","0","1","0","0","","","","","0","","","","0","","","","","","","","","","","75","K","0","img/none_selected_demo.jpg","true","0","",""
"","text","17","98552","0.0-16.0","72005099","wem/bandit_either_3","A2ZDNV3621BH6A","either","1","912","","32","","","","","","","","","","","","","","","","","","","","","","","","","","","","","","","","","","","",""
"","text","18","101297","0.0-17.0","72005099","wem/bandit_either_3","A2ZDNV3621BH6A","either","1","2743","","32","","","","","","","","","","","","","","","","","","","","","","","","","","","","","","","","","","","",""
"","text","19","102684","0.0-18.0","72005099","wem/bandit_either_3","A2ZDNV3621BH6A","either","1","1382","","32","","","","","","","","","","","","","","","","","","","","","","","","","","","","","","","","","","","",""
"","text","20","103389","0.0-19.0","72005099","wem/bandit_either_3","A2ZDNV3621BH6A","either","1","701","","32","","","","","","","","","","","","","","","","","","","","","","","","","","","","","","","","","","","",""
"","bandit","21","105339","0.0-20.0-0.0","72005099","wem/bandit_either_3","A2ZDNV3621BH6A","either","1","438","","","","","","","0","1","0","","0.8","0.5","0.5","","","0.8","0.2","","","","","","","","","","","","","","74","J","0","img/none_selected_demo.jpg","true","0","80_20_practice",""
"","bandit","22","106983","0.0-20.0-1.0","72005099","wem/bandit_either_3","A2ZDNV3621BH6A","either","1","127","","","","","","","0","0","1","0.2","","0.5","0.5","","","","","","","0.8","0.2","","","","","","","","","","75","K","1","","true","0","80_20_practice",""
"","bandit","23","108613","0.0-20.0-2.0","72005099","wem/bandit_either_3","A2ZDNV3621BH6A","either","1","120","","","","","","","0","0","1","0.2","","0.5","0.5","","","","","","","0.8","0.2","","","","","","","","","","75","K","1","","true","0","80_20_practice",""
"","bandit","24","110204","0.0-20.0-3.0","72005099","wem/bandit_either_3","A2ZDNV3621BH6A","either","1","80","","","","","","","0","0","1","","0.2","0.5","0.5","","","0.8","0.2","","","","","","","","","","","","","","75","K","1","","true","0","80_20_practice",""
"","bandit","25","112016","0.0-20.0-4.0","72005099","wem/bandit_either_3","A2ZDNV3621BH6A","either","1","301","","","","","","","0","0","1","0.2","","0.5","0.5","","","","","","","0.8","0.2","","","","","","","","","","75","K","1","","true","0","80_20_practice",""
"","bandit","26","113731","0.0-20.0-5.0","72005099","wem/bandit_either_3","A2ZDNV3621BH6A","either","1","203","","","","","","","0","0","1","","0.2","0.5","0.5","","","0.8","0.2","","","","","","","","","","","","","","75","K","1","","true","0","80_20_practice",""
"","bandit","27","115319","0.0-20.0-6.0","72005099","wem/bandit_either_3","A2ZDNV3621BH6A","either","1","79","","","","","","","0","0","1","","0.8","0.5","0.5","","","0.8","0.2","","","","","","","","","","","","","","74","J","0","img/none_selected_demo.jpg","true","0","80_20_practice",""
"","bandit","28","117290","0.0-20.0-7.0","72005099","wem/bandit_either_3","A2ZDNV3621BH6A","either","1","455","","","","","","","1","0","0","0.8","","0.5","0.5","","","","","","","0.8","0.2","","","","","","","","","","74","J","0","img/none_selected_demo.jpg","true","0","80_20_practice",""
"","bandit","29","118806","0.0-20.0-8.0","72005099","wem/bandit_either_3","A2ZDNV3621BH6A","either","1","0","","","","","","","0","1","0","","0.8","0.5","0.5","","","0.8","0.2","","","","","","","","","","","","","","74","J","0","img/none_selected_demo.jpg","true","0","80_20_practice",""
"","bandit","30","120332","0.0-20.0-9.0","72005099","wem/bandit_either_3","A2ZDNV3621BH6A","either","1","17","","","","","","","1","0","0","0.8","","0.5","0.5","","","","","","","0.8","0.2","","","","","","","","","","74","J","0","img/none_selected_demo.jpg","true","0","80_20_practice",""
"","bandit","31","122009","0.0-20.0-10.0","72005099","wem/bandit_either_3","A2ZDNV3621BH6A","either","1","165","","","","","","","0","1","0","","0.8","0.5","0.5","","","0.8","0.2","","","","","","","","","","","","","","74","J","0","img/none_selected_demo.jpg","true","0","80_20_practice",""
"","bandit","32","123582","0.0-20.0-11.0","72005099","wem/bandit_either_3","A2ZDNV3621BH6A","either","1","63","","","","","","","1","0","0","0.8","","0.5","0.5","","","","","","","0.8","0.2","","","","","","","","","","74","J","0","img/none_selected_demo.jpg","true","0","80_20_practice",""
"","bandit","33","125180","0.0-20.0-12.0","72005099","wem/bandit_either_3","A2ZDNV3621BH6A","either","1","84","","","","","","","0","0","1","","0.2","0.5","0.5","","","0.8","0.2","","","","","","","","","","","","","","75","K","1","","true","0","80_20_practice",""
"","bandit","34","126743","0.0-20.0-13.0","72005099","wem/bandit_either_3","A2ZDNV3621BH6A","either","1","52","","","","","","","1","0","0","0.8","","0.5","0.5","","","","","","","0.8","0.2","","","","","","","","","","74","J","0","img/none_selected_demo.jpg","true","0","80_20_practice",""
"","bandit","35","128415","0.0-20.0-14.0","72005099","wem/bandit_either_3","A2ZDNV3621BH6A","either","1","161","","","","","","","0","1","0","","0.8","0.5","0.5","","","0.8","0.2","","","","","","","","","","","","","","74","J","0","img/none_selected_demo.jpg","true","0","80_20_practice",""
"","bandit","36","129937","0.0-20.0-15.0","72005099","wem/bandit_either_3","A2ZDNV3621BH6A","either","1","12","","","","","","","1","0","0","0.8","","0.5","0.5","","","","","","","0.8","0.2","","","","","","","","","","74","J","0","img/none_selected_demo.jpg","true","0","80_20_practice",""
"","bandit","37","131517","0.0-20.0-16.0","72005099","wem/bandit_either_3","A2ZDNV3621BH6A","either","1","67","","","","","","","0","1","0","","0.8","0.5","0.5","","","0.8","0.2","","","","","","","","","","","","","","74","J","0","img/none_selected_demo.jpg","true","0","80_20_practice",""
"","bandit","38","133297","0.0-20.0-17.0","72005099","wem/bandit_either_3","A2ZDNV3621BH6A","either","1","266","","","","","","","1","0","0","0.8","","0.5","0.5","","","","","","","0.8","0.2","","","","","","","","","","74","J","0","img/none_selected_demo.jpg","true","0","80_20_practice",""
"","bandit","39","134993","0.0-20.0-18.0","72005099","wem/bandit_either_3","A2ZDNV3621BH6A","either","1","184","","","","","","","0","0","1","","0.2","0.5","0.5","","","0.8","0.2","","","","","","","","","","","","","","75","K","1","","true","0","80_20_practice",""
"","bandit","40","136665","0.0-20.0-19.0","72005099","wem/bandit_either_3","A2ZDNV3621BH6A","either","1","163","","","","","","","1","0","0","0.2","","0.5","0.5","","","","","","","0.8","0.2","","","","","","","","","","75","K","1","","true","0","80_20_practice",""
"","text","41","138153","0.0-21.0","72005099","wem/bandit_either_3","A2ZDNV3621BH6A","either","1","1483","","32","","","","","","","","","","","","","","","","","","","","","","","","","","","","","","","","","","","",""
"","bandit","42","140370","0.0-22.0-0.0","72005099","wem/bandit_either_3","A2ZDNV3621BH6A","either","1","704","","","","","","","0","1","0","0","1","","","","","0","1","","","1","0","","","","","","","","","","75","K","1","","true","0","",""
"","text","43","140479","0.0-23.0","72005099","wem/bandit_either_3","A2ZDNV3621BH6A","either","1","104","","74","","","","","","","","","","","","","","","","","","","","","","","","","","","","","","","","","","","",""
"","text","44","141869","0.0-24.0","72005099","wem/bandit_either_3","A2ZDNV3621BH6A","either","1","1382","","32","","","","","","","","","","","","","","","","","","","","","","","","","","","","","","","","","","","",""
"","text","45","142174","0.0-25.0","72005099","wem/bandit_either_3","A2ZDNV3621BH6A","either","1","300","","32","","","","","","","","","","","","","","","","","","","","","","","","","","","","","","","","","","","",""
"","text","46","142443","0.0-26.0","72005099","wem/bandit_either_3","A2ZDNV3621BH6A","either","1","266","","32","","","","","","","","","","","","","","","","","","","","","","","","","","","","","","","","","","","",""
"","text","47","142771","0.0-27.0","72005099","wem/bandit_either_3","A2ZDNV3621BH6A","either","1","324","","32","","","","","","","","","","","","","","","","","","","","","","","","","","","","","","","","","","","",""
"","text","48","143060","0.0-28.0","72005099","wem/bandit_either_3","A2ZDNV3621BH6A","either","1","285","","32","","","","","","","","","","","","","","","","","","","","","","","","","","","","","","","","","","","",""
"","text","49","143386","0.0-29.0","72005099","wem/bandit_either_3","A2ZDNV3621BH6A","either","1","324","","32","","","","","","","","","","","","","","","","","","","","","","","","","","","","","","","","","","","",""
"","text","50","143712","0.0-30.0","72005099","wem/bandit_either_3","A2ZDNV3621BH6A","either","1","321","","32","","","","","","","","","","","","","","","","","","","","","","","","","","","","","","","","","","","",""
"","text","51","144026","0.0-31.0","72005099","wem/bandit_either_3","A2ZDNV3621BH6A","either","1","309","","32","","","","","","","","","","","","","","","","","","","","","","","","","","","","","","","","","","","",""
"","text","52","144377","0.0-32.0","72005099","wem/bandit_either_3","A2ZDNV3621BH6A","either","1","348","","32","","","","","","","","","","","","","","","","","","","","","","","","","","","","","","","","","","","",""
"","text","53","144750","0.0-33.0","72005099","wem/bandit_either_3","A2ZDNV3621BH6A","either","1","368","","32","","","","","","","","","","","","","","","","","","","","","","","","","","","","","","","","","","","",""
"","bandit","54","146632","0.0-34.0-0.0","72005099","wem/bandit_either_3","A2ZDNV3621BH6A","either","1","369","","","","","","","0","0","1","","0.2","0.5","0.5","0.5","0.5","0.8","0.2","0.6","0.2","","","","","","","","","","","","74","J","1","","true","0","full_practice",""
"","bandit","55","148621","0.0-34.0-1.0","72005099","wem/bandit_either_3","A2ZDNV3621BH6A","either","1","474","","","","","","","1","0","0","0.2","","0.5","0.5","0.5","0.5","","","","","0.8","0.2","0.6","0.2","","","","","","","","76","L","3","","true","0","full_practice",""
"","bandit","56","160820","0.0-34.0-2.0","72005099","wem/bandit_either_3","A2ZDNV3621BH6A","either","1","10684","","","","","","","0","0","1","","0.2","0.5","0.5","0.5","0.5","0.8","0.2","0.6","0.2","","","","","","","","","","","","76","L","3","","true","0","full_practice",""
"","bandit","57","162659","0.0-34.0-3.0","72005099","wem/bandit_either_3","A2ZDNV3621BH6A","either","1","63","","","","","","","0","1","0","","0.8","0.5","0.5","0.5","0.5","0.8","0.2","0.6","0.2","","","","","","","","","","","","72","H","0","img/none_selected.jpg","true","0","full_practice",""
"","bandit","58","164278","0.0-34.0-4.0","72005099","wem/bandit_either_3","A2ZDNV3621BH6A","either","1","103","","","","","","","0","0","1","","0.2","0.5","0.5","0.5","0.5","0.8","0.2","0.6","0.2","","","","","","","","","","","","74","J","1","","true","0","full_practice",""
"","bandit","59","165848","0.0-34.0-5.0","72005099","wem/bandit_either_3","A2ZDNV3621BH6A","either","1","54","","","","","","","0","0","1","0.2","","0.5","0.5","0.5","0.5","","","","","0.8","0.2","0.6","0.2","","","","","","","","74","J","1","","true","0","full_practice",""
"","bandit","60","167384","0.0-34.0-6.0","72005099","wem/bandit_either_3","A2ZDNV3621BH6A","either","1","23","","","","","","","0","1","0","","0.8","0.5","0.5","0.5","0.5","0.8","0.2","0.6","0.2","","","","","","","","","","","","72","H","0","img/none_selected.jpg","true","0","full_practice",""
"","bandit","61","168931","0.0-34.0-7.0","72005099","wem/bandit_either_3","A2ZDNV3621BH6A","either","1","35","","","","","","","0","1","0","","0.8","0.5","0.5","0.5","0.5","0.8","0.2","0.6","0.2","","","","","","","","","","","","72","H","0","img/none_selected.jpg","true","0","full_practice",""
"","bandit","62","170517","0.0-34.0-8.0","72005099","wem/bandit_either_3","A2ZDNV3621BH6A","either","1","72","","","","","","","1","0","0","0.8","","0.5","0.5","0.5","0.5","","","","","0.8","0.2","0.6","0.2","","","","","","","","72","H","0","img/none_selected.jpg","true","0","full_practice",""
"","bandit","63","172130","0.0-34.0-9.0","72005099","wem/bandit_either_3","A2ZDNV3621BH6A","either","1","92","","","","","","","0","0","1","","0.8","0.5","0.5","0.5","0.5","0.8","0.2","0.6","0.2","","","","","","","","","","","","72","H","0","img/none_selected.jpg","true","0","full_practice",""
"","bandit","64","173788","0.0-34.0-10.0","72005099","wem/bandit_either_3","A2ZDNV3621BH6A","either","1","145","","","","","","","0","0","1","","0.2","0.5","0.5","0.5","0.5","0.8","0.2","0.6","0.2","","","","","","","","","","","","74","J","1","","true","0","full_practice",""
"","bandit","65","175362","0.0-34.0-11.0","72005099","wem/bandit_either_3","A2ZDNV3621BH6A","either","1","57","","","","","","","0","0","1","","0.2","0.5","0.5","0.5","0.5","0.8","0.2","0.6","0.2","","","","","","","","","","","","74","J","1","","true","0","full_practice",""
"","bandit","66","177087","0.0-34.0-12.0","72005099","wem/bandit_either_3","A2ZDNV3621BH6A","either","1","206","","","","","","","0","1","0","","0.2","0.5","0.5","0.5","0.5","0.8","0.2","0.6","0.2","","","","","","","","","","","","74","J","1","","true","0","full_practice",""
"","bandit","67","178816","0.0-34.0-13.0","72005099","wem/bandit_either_3","A2ZDNV3621BH6A","either","1","214","","","","","","","0","0","1","","0.6","0.5","0.5","0.5","0.5","0.8","0.2","0.6","0.2","","","","","","","","","","","","75","K","2","","true","0","full_practice",""
"","bandit","68","180418","0.0-34.0-14.0","72005099","wem/bandit_either_3","A2ZDNV3621BH6A","either","1","87","","","","","","","1","0","0","0.6","","0.5","0.5","0.5","0.5","","","","","0.8","0.2","0.6","0.2","","","","","","","","75","K","2","","true","0","full_practice",""
"","bandit","69","181939","0.0-34.0-15.0","72005099","wem/bandit_either_3","A2ZDNV3621BH6A","either","1","7","","","","","","","1","0","0","0.6","","0.5","0.5","0.5","0.5","","","","","0.8","0.2","0.6","0.2","","","","","","","","75","K","2","","true","0","full_practice",""
"","bandit","70","183469","0.0-34.0-16.0","72005099","wem/bandit_either_3","A2ZDNV3621BH6A","either","1","1","","","","","","","0","0","1","0.6","","0.5","0.5","0.5","0.5","","","","","0.8","0.2","0.6","0.2","","","","","","","","75","K","2","","true","0","full_practice",""
"","bandit","71","185174","0.0-34.0-17.0","72005099","wem/bandit_either_3","A2ZDNV3621BH6A","either","1","194","","","","","","","0","1","0","","0.6","0.5","0.5","0.5","0.5","0.8","0.2","0.6","0.2","","","","","","","","","","","","75","K","2","","true","0","full_practice",""
"","bandit","72","186823","0.0-34.0-18.0","72005099","wem/bandit_either_3","A2ZDNV3621BH6A","either","1","135","","","","","","","0","1","0","","0.2","0.5","0.5","0.5","0.5","0.8","0.2","0.6","0.2","","","","","","","","","","","","76","L","3","","true","0","full_practice",""
"","bandit","73","188348","0.0-34.0-19.0","72005099","wem/bandit_either_3","A2ZDNV3621BH6A","either","1","12","","","","","","","0","0","1","0.2","","0.5","0.5","0.5","0.5","","","","","0.8","0.2","0.6","0.2","","","","","","","","76","L","3","","true","0","full_practice",""
"","text","74","192113","0.0-35.0","72005099","wem/bandit_either_3","A2ZDNV3621BH6A","either","1","3750","","32","","","","","","","","","","","","","","","","","","","","","","","","","","","","","","","","","","","",""
"","text","75","194590","0.0-36.0","72005099","wem/bandit_either_3","A2ZDNV3621BH6A","either","1","1467","","32","","","","","","","","","","","","","","","","","","","","","","","","","","","","","","","","","","","",""
"","text","76","194949","0.0-37.0","72005099","wem/bandit_either_3","A2ZDNV3621BH6A","either","1","353","","32","","","","","","","","","","","","","","","","","","","","","","","","","","","","","","","","","","","",""
"","text","77","195757","0.0-38.0","72005099","wem/bandit_either_3","A2ZDNV3621BH6A","either","1","801","","32","","","","","","","","","","","","","","","","","","","","","","","","","","","","","","","","","","","",""
"","text","78","197480","0.0-39.0","72005099","wem/bandit_either_3","A2ZDNV3621BH6A","either","1","1717","","32","","","","","","","","","","","","","","","","","","","","","","","","","","","","","","","","","","","",""
"","text","79","198910","0.0-40.0","72005099","wem/bandit_either_3","A2ZDNV3621BH6A","either","1","1422","","32","","","","","","","","","","","","","","","","","","","","","","","","","","","","","","","","","","","",""
"","bandit","80","200927","0.0-41.0-0.0","72005099","wem/bandit_either_3","A2ZDNV3621BH6A","either","1","504","","","","","","","1","0","0","0.8101107889","","0.4","0.2","0.6","0.8","","","","","0.8101107889","0.7674833066","0.4995060561","0.5202783506","","","","","","","","72","H","0","img/none_selected.jpg","","1","main_expt",""
"","bandit","81","202544","0.0-42.0-0.0","72005099","wem/bandit_either_3","A2ZDNV3621BH6A","either","1","101","","","","","","","0","1","0","","0.7786696111","0.4","0.2","0.6","0.8","0.8827976921","0.7786696111","0.4452888422","0.4559554218","","","","","","","","","","","","74","J","1","","","2","main_expt",""
"","bandit","82","204126","0.0-43.0-0.0","72005099","wem/bandit_either_3","A2ZDNV3621BH6A","either","1","67","","","","","","","1","0","0","0.4956599627","","0.4","0.2","0.6","0.8","","","","","0.918633781","0.7883912796","0.4956599627","0.3791335739","","","","","","","","75","K","2","","","3","main_expt",""
"","bandit","83","205669","0.0-44.0-0.0","72005099","wem/bandit_either_3","A2ZDNV3621BH6A","either","1","27","","","","","","","1","0","0","0.362446662","","0.4","0.2","0.6","0.8","","","","","0.8961075186","0.8311681014","0.3939226057","0.362446662","","","","","","","","76","L","3","","","4","main_expt",""
"","bandit","84","207332","0.0-45.0-0.0","72005099","wem/bandit_either_3","A2ZDNV3621BH6A","either","1","144","","","","","","","0","1","0","","0.9065038385","0.4","0.2","0.6","0.8","0.9065038385","0.706748425","0.4737796053","0.4337427147","","","","","","","","","","","","72","H","0","img/none_selected.jpg","","5","main_expt",""
"","bandit","85","208871","0.0-46.0-0.0","72005099","wem/bandit_either_3","A2ZDNV3621BH6A","either","1","22","","","","","","","0","1","0","","0.7246132019","0.4","0.2","0.6","0.8","0.9628954729","0.7246132019","0.5798080576","0.4260566605","","","","","","","","","","","","74","J","1","","","6","main_expt",""
"","bandit","86","210545","0.0-47.0-0.0","72005099","wem/bandit_either_3","A2ZDNV3621BH6A","either","1","160","","","","","","","0","0","1","0.6184433593","","0.4","0.2","0.6","0.8","","","","","0.9244273404","0.822103072","0.6184433593","0.5595739282","","","","","","","","75","K","2","","","7","main_expt",""
"","bandit","87","212142","0.0-48.0-0.0","72005099","wem/bandit_either_3","A2ZDNV3621BH6A","either","1","81","","","","","","","0","0","1","0.5757792393","","0.4","0.2","0.6","0.8","","","","","0.9214665689","0.8176183596","0.5380809204","0.5757792393","","","","","","","","76","L","3","","","8","main_expt",""
"","bandit","88","213822","0.0-49.0-0.0","72005099","wem/bandit_either_3","A2ZDNV3621BH6A","either","1","165","","","","","","","0","0","1","0.4884558296","","0.4","0.2","0.6","0.8","","","","","0.9604963414","0.7421782695","0.4884558296","0.5508288143","","","","","","","","75","K","2","","","9","main_expt",""
"","bandit","89","215432","0.0-50.0-0.0","72005099","wem/bandit_either_3","A2ZDNV3621BH6A","either","1","96","","","","","","","0","1","0","","0.6062827564","0.4","0.2","0.6","0.8","0.973544224","0.7112185725","0.6062827564","0.4615344473","","","","","","","","","","","","75","K","2","","","10","main_expt",""
"","bandit","90","216953","0.0-51.0-0.0","72005099","wem/bandit_either_3","A2ZDNV3621BH6A","either","1","3","","","","","","","0","1","0","","0.6656122322","0.4","0.2","0.6","0.8","0.9756729976","0.6656122322","0.6618996933","0.4731032433","","","","","","","","","","","","74","J","1","","","11","main_expt",""
"","bandit","91","218558","0.0-52.0-0.0","72005099","wem/bandit_either_3","A2ZDNV3621BH6A","either","1","89","","","","","","","1","0","0","0.9824084628","","0.4","0.2","0.6","0.8","","","","","0.9824084628","0.632951522","0.6589688621","0.5028989732","","","","","","","","72","H","0","img/none_selected.jpg","","12","main_expt",""
"","bandit","92","220125","0.0-53.0-0.0","72005099","wem/bandit_either_3","A2ZDNV3621BH6A","either","1","50","","","","","","","1","0","0","0.5252386458","","0.4","0.2","0.6","0.8","","","","","0.9852841122","0.6428643634","0.7483501345","0.5252386458","","","","","","","","76","L","3","","","13","main_expt",""
"","bandit","93","221649","0.0-54.0-0.0","72005099","wem/bandit_either_3","A2ZDNV3621BH6A","either","1","13","","","","","","","0","1","0","","0.9844185579","0.4","0.2","0.6","0.8","0.9844185579","0.5693663763","0.7642220585","0.4883642101","","","","","","","","","","","","72","H","0","img/none_selected.jpg","","14","main_expt",""
"","bandit","94","223207","0.0-55.0-0.0","72005099","wem/bandit_either_3","A2ZDNV3621BH6A","either","1","33","","","","","","","0","1","0","","0.9716790186","0.4","0.2","0.6","0.8","0.9716790186","0.6354763258","0.8255663415","0.5125695872","","","","","","","","","","","","72","H","0","img/none_selected.jpg","","15","main_expt",""
"","bandit","95","224757","0.0-56.0-0.0","72005099","wem/bandit_either_3","A2ZDNV3621BH6A","either","1","38","","","","","","","1","0","0","0.9724226268","","0.4","0.2","0.6","0.8","","","","","0.9724226268","0.6074668868","0.8262734196","0.483313844","","","","","","","","72","H","0","img/none_selected.jpg","","16","main_expt",""
"","bandit","96","226290","0.0-57.0-0.0","72005099","wem/bandit_either_3","A2ZDNV3621BH6A","either","1","16","","","","","","","0","1","0","","0.634379517","0.4","0.2","0.6","0.8","0.969397438","0.634379517","0.8957105494","0.4764119597","","","","","","","","","","","","74","J","1","","","17","main_expt",""
"","bandit","97","228107","0.0-58.0-0.0","72005099","wem/bandit_either_3","A2ZDNV3621BH6A","either","1","305","","","","","","","1","0","0","0.9487821198","","0.4","0.2","0.6","0.8","","","","","0.9487821198","0.7399013172","0.8243017832","0.4742144938","","","","","","","","72","H","0","img/none_selected.jpg","","18","main_expt",""
"","bandit","98","230110","0.0-59.0-0.0","72005099","wem/bandit_either_3","A2ZDNV3621BH6A","either","1","486","","","","","","","0","1","0","","0.6892422428","0.4","0.2","0.6","0.8","0.8822386923","0.6892422428","0.8174393347","0.5445729057","","","","","","","","","","","","74","J","1","","","19","main_expt",""
"","bandit","99","232191","0.0-60.0-0.0","72005099","wem/bandit_either_3","A2ZDNV3621BH6A","either","1","551","","","","","","","1","0","0","0.8457625901","","0.4","0.2","0.6","0.8","","","","","0.8658452863","0.5544472153","0.8457625901","0.5114357523","","","","","","","","75","K","2","","","20","main_expt",""
"","bandit","100","234240","0.0-61.0-0.0","72005099","wem/bandit_either_3","A2ZDNV3621BH6A","either","1","523","","","","","","","0","1","0","","0.8565453533","0.4","0.2","0.6","0.8","0.8597265301","0.4705077418","0.8565453533","0.4948626968","","","","","","","","","","","","75","K","2","","","21","main_expt",""
"","bandit","101","236159","0.0-62.0-0.0","72005099","wem/bandit_either_3","A2ZDNV3621BH6A","either","1","404","","","","","","","1","0","0","0.8821281293","","0.4","0.2","0.6","0.8","","","","","0.929530396","0.5364913494","0.8821281293","0.3750889156","","","","","","","","75","K","2","","","22","main_expt",""
"","bandit","102","237977","0.0-63.0-0.0","72005099","wem/bandit_either_3","A2ZDNV3621BH6A","either","1","298","","","","","","","0","1","0","","0.8253896901","0.4","0.2","0.6","0.8","0.9149061772","0.5450887529","0.8253896901","0.3874093852","","","","","","","","","","","","75","K","2","","","23","main_expt",""
"","bandit","103","239571","0.0-64.0-0.0","72005099","wem/bandit_either_3","A2ZDNV3621BH6A","either","1","79","","","","","","","1","0","0","0.9389899916","","0.4","0.2","0.6","0.8","","","","","0.9389899916","0.6013055931","0.8682133559","0.4126546177","","","","","","","","72","H","0","img/none_selected.jpg","","24","main_expt",""
"","bandit","104","241662","0.0-65.0-0.0","72005099","wem/bandit_either_3","A2ZDNV3621BH6A","either","1","576","","","","","","","0","1","0","","0.9583062328","0.4","0.2","0.6","0.8","0.9583062328","0.7116226269","0.8186134727","0.3871809826","","","","","","","","","","","","72","H","0","img/none_selected.jpg","","25","main_expt",""
"","bandit","105","243283","0.0-66.0-0.0","72005099","wem/bandit_either_3","A2ZDNV3621BH6A","either","1","104","","","","","","","0","1","0","","0.7284905038","0.4","0.2","0.6","0.8","0.9349434311","0.7284905038","0.841170918","0.4162773602","","","","","","","","","","","","74","J","1","","","26","main_expt",""
"","bandit","106","244848","0.0-67.0-0.0","72005099","wem/bandit_either_3","A2ZDNV3621BH6A","either","1","50","","","","","","","1","0","0","0.9147743466","","0.4","0.2","0.6","0.8","","","","","0.9147743466","0.7007901837","0.8332298301","0.4153433109","","","","","","","","72","H","0","img/none_selected.jpg","","27","main_expt",""
"","bandit","107","246583","0.0-68.0-0.0","72005099","wem/bandit_either_3","A2ZDNV3621BH6A","either","1","220","","","","","","","1","0","0","0.8913744663","","0.4","0.2","0.6","0.8","","","","","0.8913744663","0.7197690037","0.8340804883","0.3083156359","","","","","","","","72","H","0","img/none_selected.jpg","","28","main_expt",""
"","bandit","108","248109","0.0-69.0-0.0","72005099","wem/bandit_either_3","A2ZDNV3621BH6A","either","1","10","","","","","","","0","0","1","","0.9004815278","0.4","0.2","0.6","0.8","0.9004815278","0.7569205749","0.8800986549","0.4048150761","","","","","","","","","","","","72","H","0","img/none_selected.jpg","","29","main_expt",""
"","bandit","109","249811","0.0-70.0-0.0","72005099","wem/bandit_either_3","A2ZDNV3621BH6A","either","1","187","","","","","","","0","0","1","","0.800988266","0.4","0.2","0.6","0.8","0.8335499875","0.7007062976","0.800988266","0.5604470694","","","","","","","","","","","","75","K","2","","","30","main_expt",""
"","bandit","110","251670","0.0-71.0-0.0","72005099","wem/bandit_either_3","A2ZDNV3621BH6A","either","1","343","","","","","","","0","0","1","0.8092707987","","0.4","0.2","0.6","0.8","","","","","0.7904098286","0.6218809145","0.8092707987","0.5114456598","","","","","","","","75","K","2","","","31","main_expt",""
"","bandit","111","254193","0.0-72.0-0.0","72005099","wem/bandit_either_3","A2ZDNV3621BH6A","either","1","1005","","","","","","","1","0","0","0.7600689364","","0.4","0.2","0.6","0.8","","","","","0.8156470634","0.5448888872","0.7600689364","0.5195843055","","","","","","","","75","K","2","","","32","main_expt",""
"","bandit","112","256178","0.0-73.0-0.0","72005099","wem/bandit_either_3","A2ZDNV3621BH6A","either","1","471","","","","","","","1","0","0","0.7268405739","","0.4","0.2","0.6","0.8","","","","","0.7458483223","0.4396040002","0.7268405739","0.4278216128","","","","","","","","75","K","2","","","33","main_expt",""
"","bandit","113","258230","0.0-74.0-0.0","72005099","wem/bandit_either_3","A2ZDNV3621BH6A","either","1","536","","","","","","","1","0","0","0.7867385379","","0.4","0.2","0.6","0.8","","","","","0.8745519215","0.3418027302","0.7867385379","0.4581725564","","","","","","","","75","K","2","","","34","main_expt",""
"","bandit","114","260513","0.0-75.0-0.0","72005099","wem/bandit_either_3","A2ZDNV3621BH6A","either","1","766","","","","","","","1","0","0","0.7776722478","","0.4","0.2","0.6","0.8","","","","","0.8761773117","0.3770378826","0.7776722478","0.5170179058","","","","","","","","75","K","2","","","35","main_expt",""
"","bandit","115","262420","0.0-76.0-0.0","72005099","wem/bandit_either_3","A2ZDNV3621BH6A","either","1","394","","","","","","","0","0","1","","0.8110731924","0.4","0.2","0.6","0.8","0.8898579413","0.3264650107","0.8110731924","0.5761285305","","","","","","","","","","","","75","K","2","","","36","main_expt",""
"","bandit","116","263992","0.0-77.0-0.0","72005099","wem/bandit_either_3","A2ZDNV3621BH6A","either","1","52","","","","","","","1","0","0","0.9189960073","","0.4","0.2","0.6","0.8","","","","","0.9189960073","0.1696248696","0.8371501114","0.5824592389","","","","","","","","72","H","0","img/none_selected.jpg","","37","main_expt",""
"","bandit","117","265967","0.0-78.0-0.0","72005099","wem/bandit_either_3","A2ZDNV3621BH6A","either","1","462","","","","","","","1","0","0","0.9429067042","","0.4","0.2","0.6","0.8","","","","","0.9429067042","0.3008725236","0.801984358","0.5039158184","","","","","","","","72","H","0","img/none_selected.jpg","","38","main_expt",""
"","bandit","118","268135","0.0-79.0-0.0","72005099","wem/bandit_either_3","A2ZDNV3621BH6A","either","1","642","","","","","","","0","0","1","","0.8860185862","0.4","0.2","0.6","0.8","0.8860185862","0.3612597963","0.836760671","0.4906961915","","","","","","","","","","","","72","H","0","img/none_selected.jpg","","39","main_expt",""
"","bandit","119","269749","0.0-80.0-0.0","72005099","wem/bandit_either_3","A2ZDNV3621BH6A","either","1","93","","","","","","","1","0","0","0.7930168878","","0.4","0.2","0.6","0.8","","","","","0.8958725565","0.3316001813","0.7930168878","0.5118773476","","","","","","","","75","K","2","","","40","main_expt",""
"","bandit","120","271706","0.0-81.0-0.0","72005099","wem/bandit_either_3","A2ZDNV3621BH6A","either","1","436","","","","","","","0","1","0","","0.6758505439","0.4","0.2","0.6","0.8","0.8369757826","0.251761063","0.6758505439","0.5207000815","","","","","","","","","","","","75","K","2","","","41","main_expt",""
"","bandit","121","273562","0.0-82.0-0.0","72005099","wem/bandit_either_3","A2ZDNV3621BH6A","either","1","339","","","","","","","0","1","0","","0.3764367217","0.4","0.2","0.6","0.8","0.8724413244","0.3764367217","0.669091732","0.6208632684","","","","","","","","","","","","74","J","1","","","42","main_expt",""
"","bandit","122","275306","0.0-83.0-0.0","72005099","wem/bandit_either_3","A2ZDNV3621BH6A","either","1","209","","","","","","","0","1","0","","0.4280411123","0.4","0.2","0.6","0.8","0.8721156492","0.4280411123","0.5774386383","0.6736877605","","","","","","","","","","","","74","J","1","","","43","main_expt",""
"","bandit","123","276841","0.0-84.0-0.0","72005099","wem/bandit_either_3","A2ZDNV3621BH6A","either","1","11","","","","","","","0","1","0","","0.874486911","0.4","0.2","0.6","0.8","0.874486911","0.4250007774","0.5402750746","0.6770598463","","","","","","","","","","","","72","H","0","img/none_selected.jpg","","44","main_expt",""
"","bandit","124","278577","0.0-85.0-0.0","72005099","wem/bandit_either_3","A2ZDNV3621BH6A","either","1","213","","","","","","","0","1","0","","0.7653026016","0.4","0.2","0.6","0.8","0.7653026016","0.3964774122","0.4769525635","0.6811336834","","","","","","","","","","","","72","H","0","img/none_selected.jpg","","45","main_expt",""
"","bandit","125","280270","0.0-86.0-0.0","72005099","wem/bandit_either_3","A2ZDNV3621BH6A","either","1","172","","","","","","","1","0","0","0.6884850605","","0.4","0.2","0.6","0.8","","","","","0.6884850605","0.3755541509","0.460739512","0.7409040253","","","","","","","","72","H","0","img/none_selected.jpg","","46","main_expt",""
"","bandit","126","282194","0.0-87.0-0.0","72005099","wem/bandit_either_3","A2ZDNV3621BH6A","either","1","401","","","","","","","0","0","1","0.6869729855","","0.4","0.2","0.6","0.8","","","","","0.6869729855","0.3698766084","0.3953603582","0.8602274841","","","","","","","","72","H","0","img/none_selected.jpg","","47","main_expt",""
"","bandit","127","283759","0.0-88.0-0.0","72005099","wem/bandit_either_3","A2ZDNV3621BH6A","either","1","40","","","","","","","0","0","1","0.5194217752","","0.4","0.2","0.6","0.8","","","","","0.624749708","0.2924141828","0.5194217752","0.8947369126","","","","","","","","75","K","2","","","48","main_expt",""
"","bandit","128","285391","0.0-89.0-0.0","72005099","wem/bandit_either_3","A2ZDNV3621BH6A","either","1","116","","","","","","","0","1","0","","0.9071052574","0.4","0.2","0.6","0.8","0.6269608649","0.2506794134","0.5015721984","0.9071052574","","","","","","","","","","","","76","L","3","","","49","main_expt",""
"","bandit","129","286990","0.0-90.0-0.0","72005099","wem/bandit_either_3","A2ZDNV3621BH6A","either","1","84","","","","","","","0","0","1","0.2200095001","","0.4","0.2","0.6","0.8","","","","","0.5394470416","0.2200095001","0.4427204185","0.8569531155","","","","","","","","74","J","1","","","50","main_expt",""
"","bandit","130","288613","0.0-91.0-0.0","72005099","wem/bandit_either_3","A2ZDNV3621BH6A","either","1","105","","","","","","","0","1","0","","0.4991806479","0.4","0.2","0.6","0.8","0.4991806479","0.2703780474","0.5194544998","0.8728609703","","","","","","","","","","","","72","H","0","img/none_selected.jpg","","51","main_expt",""
"","bandit","131","290206","0.0-92.0-0.0","72005099","wem/bandit_either_3","A2ZDNV3621BH6A","either","1","75","","","","","","","1","0","0","0.902184381","","0.4","0.2","0.6","0.8","","","","","0.5431464126","0.3215640211","0.4420680866","0.902184381","","","","","","","","76","L","3","","","52","main_expt",""
"","bandit","132","291805","0.0-93.0-0.0","72005099","wem/bandit_either_3","A2ZDNV3621BH6A","either","1","80","","","","","","","1","0","0","0.8975054296","","0.4","0.2","0.6","0.8","","","","","0.4799783957","0.2918797996","0.5541791803","0.8975054296","","","","","","","","76","L","3","","","53","main_expt",""
"","bandit","133","293409","0.0-94.0-0.0","72005099","wem/bandit_either_3","A2ZDNV3621BH6A","either","1","88","","","","","","","0","1","0","","0.9436546011","0.4","0.2","0.6","0.8","0.3946877269","0.2432815539","0.6187664305","0.9436546011","","","","","","","","","","","","76","L","3","","","54","main_expt",""
"","bandit","134","295039","0.0-95.0-0.0","72005099","wem/bandit_either_3","A2ZDNV3621BH6A","either","1","108","","","","","","","0","0","1","0.9411334538","","0.4","0.2","0.6","0.8","","","","","0.3892466866","0.1993500609","0.538030076","0.9411334538","","","","","","","","76","L","3","","","55","main_expt",""
"","bandit","135","296701","0.0-96.0-0.0","72005099","wem/bandit_either_3","A2ZDNV3621BH6A","either","1","147","","","","","","","1","0","0","0.862285227","","0.4","0.2","0.6","0.8","","","","","0.347268188","0.1832364248","0.5137881872","0.862285227","","","","","","","","76","L","3","","","56","main_expt",""
"","bandit","136","298422","0.0-97.0-0.0","72005099","wem/bandit_either_3","A2ZDNV3621BH6A","either","1","201","","","","","","","1","0","0","0.9034803314","","0.4","0.2","0.6","0.8","","","","","0.3462231845","0.1703919496","0.6274604021","0.9034803314","","","","","","","","76","L","3","","","57","main_expt",""
"","bandit","137","300305","0.0-98.0-0.0","72005099","wem/bandit_either_3","A2ZDNV3621BH6A","either","1","367","","","","","","","1","0","0","0.9062052911","","0.4","0.2","0.6","0.8","","","","","0.3707442777","0.2146973212","0.5636132077","0.9062052911","","","","","","","","76","L","3","","","58","main_expt",""
"","bandit","138","303082","0.0-99.0-0.0","72005099","wem/bandit_either_3","A2ZDNV3621BH6A","either","1","1259","","","","","","","0","1","0","","0.9169546289","0.4","0.2","0.6","0.8","0.4530366532","0.2118107272","0.6555757088","0.9169546289","","","","","","","","","","","","76","L","3","","","59","main_expt",""
"","bandit","139","304913","0.0-100.0-0.0","72005099","wem/bandit_either_3","A2ZDNV3621BH6A","either","1","311","","","","","","","0","0","1","0.9048679239","","0.4","0.2","0.6","0.8","","","","","0.4335409142","0.2096036334","0.6555481193","0.9048679239","","","","","","","","76","L","3","","","60","main_expt",""
"","bandit","140","306999","0.0-101.0-0.0","72005099","wem/bandit_either_3","A2ZDNV3621BH6A","either","1","567","","","","","","","1","0","0","0.9346572725","","0.4","0.2","0.6","0.8","","","","","0.3601573371","0.1985607356","0.6988977931","0.9346572725","","","","","","","","76","L","3","","","61","main_expt",""
"","bandit","141","308852","0.0-102.0-0.0","72005099","wem/bandit_either_3","A2ZDNV3621BH6A","either","1","319","","","","","","","0","1","0","","0.9332729597","0.4","0.2","0.6","0.8","0.3187004912","0.2352246004","0.6124712875","0.9332729597","","","","","","","","","","","","76","L","3","","","62","main_expt",""
"","bandit","142","310469","0.0-103.0-0.0","72005099","wem/bandit_either_3","A2ZDNV3621BH6A","either","1","94","","","","","","","1","0","0","0.9300142507","","0.4","0.2","0.6","0.8","","","","","0.331276396","0.1989126294","0.4881994696","0.9300142507","","","","","","","","76","L","3","","","63","main_expt",""
"","bandit","143","312531","0.0-104.0-0.0","72005099","wem/bandit_either_3","A2ZDNV3621BH6A","either","1","546","","","","","","","0","1","0","","0.8992917639","0.4","0.2","0.6","0.8","0.3984677","0.2231035509","0.5007509184","0.8992917639","","","","","","","","","","","","76","L","3","","","64","main_expt",""
"","bandit","144","314390","0.0-105.0-0.0","72005099","wem/bandit_either_3","A2ZDNV3621BH6A","either","1","337","","","","","","","1","0","0","0.7939475476","","0.4","0.2","0.6","0.8","","","","","0.3012021372","0.174077904","0.6077525222","0.7939475476","","","","","","","","76","L","3","","","65","main_expt",""
"","bandit","145","316294","0.0-106.0-0.0","72005099","wem/bandit_either_3","A2ZDNV3621BH6A","either","1","383","","","","","","","1","0","0","0.7848839068","","0.4","0.2","0.6","0.8","","","","","0.2848395029","0.1505104035","0.4876759876","0.7848839068","","","","","","","","76","L","3","","","66","main_expt",""
"","bandit","146","318191","0.0-107.0-0.0","72005099","wem/bandit_either_3","A2ZDNV3621BH6A","either","1","380","","","","","","","0","0","1","0.7712869283","","0.4","0.2","0.6","0.8","","","","","0.2908363747","0.1706094741","0.4705728971","0.7712869283","","","","","","","","76","L","3","","","67","main_expt",""
"","bandit","147","319867","0.0-108.0-0.0","72005099","wem/bandit_either_3","A2ZDNV3621BH6A","either","1","153","","","","","","","0","1","0","","0.7426915226","0.4","0.2","0.6","0.8","0.3226378352","0.193375558","0.5822594153","0.7426915226","","","","","","","","","","","","76","L","3","","","68","main_expt",""
"","bandit","148","321510","0.0-109.0-0.0","72005099","wem/bandit_either_3","A2ZDNV3621BH6A","either","1","125","","","","","","","0","1","0","","0.4490581071","0.4","0.2","0.6","0.8","0.4490581071","0.226811003","0.6189715015","0.592712881","","","","","","","","","","","","72","H","0","img/none_selected.jpg","","69","main_expt",""
"","bandit","149","323149","0.0-110.0-0.0","72005099","wem/bandit_either_3","A2ZDNV3621BH6A","either","1","121","","","","","","","1","0","0","0.42365523","","0.4","0.2","0.6","0.8","","","","","0.42365523","0.191142909","0.5307799745","0.6587085967","","","","","","","","72","H","0","img/none_selected.jpg","","70","main_expt",""
"","bandit","150","324669","0.0-111.0-0.0","72005099","wem/bandit_either_3","A2ZDNV3621BH6A","either","1","3","","","","","","","0","0","1","0.7562029562","","0.4","0.2","0.6","0.8","","","","","0.427101634","0.2371486809","0.5205551237","0.7562029562","","","","","","","","76","L","3","","","71","main_expt",""
"","bandit","151","326348","0.0-112.0-0.0","72005099","wem/bandit_either_3","A2ZDNV3621BH6A","either","1","161","","","","","","","1","0","0","0.670676276","","0.4","0.2","0.6","0.8","","","","","0.5387899421","0.2602117984","0.5913901284","0.670676276","","","","","","","","76","L","3","","","72","main_expt",""
"","bandit","152","328337","0.0-113.0-0.0","72005099","wem/bandit_either_3","A2ZDNV3621BH6A","either","1","471","","","","","","","1","0","0","0.6870219419","","0.4","0.2","0.6","0.8","","","","","0.4931252492","0.1837165363","0.7127465592","0.6870219419","","","","","","","","76","L","3","","","73","main_expt",""
"","bandit","153","330413","0.0-114.0-0.0","72005099","wem/bandit_either_3","A2ZDNV3621BH6A","either","1","556","","","","","","","0","1","0","","0.582898469","0.4","0.2","0.6","0.8","0.3888626504","0.2032334464","0.7804212289","0.582898469","","","","","","","","","","","","76","L","3","","","74","main_expt",""
"","bandit","154","332140","0.0-115.0-0.0","72005099","wem/bandit_either_3","A2ZDNV3621BH6A","either","1","213","","","","","","","0","0","1","0.6452442043","","0.4","0.2","0.6","0.8","","","","","0.3866429177","0.2782751631","0.7966502287","0.6452442043","","","","","","","","76","L","3","","","75","main_expt",""
"","bandit","155","333939","0.0-116.0-0.0","72005099","wem/bandit_either_3","A2ZDNV3621BH6A","either","1","283","","","","","","","1","0","0","0.7031137023","","0.4","0.2","0.6","0.8","","","","","0.3948468247","0.3318782676","0.7775959854","0.7031137023","","","","","","","","76","L","3","","","76","main_expt",""
"","bandit","156","336128","0.0-117.0-0.0","72005099","wem/bandit_either_3","A2ZDNV3621BH6A","either","1","667","","","","","","","1","0","0","0.6096498107","","0.4","0.2","0.6","0.8","","","","","0.4853082722","0.312607664","0.8523583745","0.6096498107","","","","","","","","76","L","3","","","77","main_expt",""
"","bandit","157","337676","0.0-118.0-0.0","72005099","wem/bandit_either_3","A2ZDNV3621BH6A","either","1","32","","","","","","","1","0","0","0.532302087","","0.4","0.2","0.6","0.8","","","","","0.4971609959","0.3250695504","0.7707034136","0.532302087","","","","","","","","76","L","3","","","78","main_expt",""
"","bandit","158","339238","0.0-119.0-0.0","72005099","wem/bandit_either_3","A2ZDNV3621BH6A","either","1","45","","","","","","","0","0","1","0.4448734945","","0.4","0.2","0.6","0.8","","","","","0.5349041547","0.277144637","0.7919080975","0.4448734945","","","","","","","","76","L","3","","","79","main_expt",""
"","bandit","159","341303","0.0-120.0-0.0","72005099","wem/bandit_either_3","A2ZDNV3621BH6A","either","1","550","","","","","","","0","0","1","0.34513516","","0.4","0.2","0.6","0.8","","","","","0.4713204996","0.293018971","0.8107458935","0.34513516","","","","","","","","76","L","3","","","80","main_expt",""
"","bandit","160","343369","0.0-121.0-0.0","72005099","wem/bandit_either_3","A2ZDNV3621BH6A","either","1","547","","","","","","","1","0","0","0.406584365","","0.4","0.2","0.6","0.8","","","","","0.4132476049","0.2730851157","0.7851591746","0.406584365","","","","","","","","76","L","3","","","81","main_expt",""
"","bandit","161","345647","0.0-122.0-0.0","72005099","wem/bandit_either_3","A2ZDNV3621BH6A","either","1","762","","","","","","","1","0","0","0.5068312928","","0.4","0.2","0.6","0.8","","","","","0.4640808921","0.2436011542","0.8067558171","0.5068312928","","","","","","","","76","L","3","","","82","main_expt",""
"","bandit","162","347681","0.0-123.0-0.0","72005099","wem/bandit_either_3","A2ZDNV3621BH6A","either","1","515","","","","","","","1","0","0","0.5209063211","","0.4","0.2","0.6","0.8","","","","","0.442115463","0.2009218657","0.7777816444","0.5209063211","","","","","","","","76","L","3","","","83","main_expt",""
"","bandit","163","349662","0.0-124.0-0.0","72005099","wem/bandit_either_3","A2ZDNV3621BH6A","either","1","460","","","","","","","1","0","0","0.6221591745","","0.4","0.2","0.6","0.8","","","","","0.5117806844","0.1550904625","0.7801041195","0.6221591745","","","","","","","","76","L","3","","","84","main_expt",""
"","bandit","164","351464","0.0-125.0-0.0","72005099","wem/bandit_either_3","A2ZDNV3621BH6A","either","1","283","","","","","","","1","0","0","0.6939346182","","0.4","0.2","0.6","0.8","","","","","0.5309627618","0.1193398435","0.7593249252","0.6939346182","","","","","","","","76","L","3","","","85","main_expt",""
"","bandit","165","353039","0.0-126.0-0.0","72005099","wem/bandit_either_3","A2ZDNV3621BH6A","either","1","58","","","","","","","1","0","0","0.7533471596","","0.4","0.2","0.6","0.8","","","","","0.5482659382","0.1398572341","0.7911667705","0.7533471596","","","","","","","","76","L","3","","","86","main_expt",""
"","bandit","166","354680","0.0-127.0-0.0","72005099","wem/bandit_either_3","A2ZDNV3621BH6A","either","1","125","","","","","","","1","0","0","0.8040573679","","0.4","0.2","0.6","0.8","","","","","0.4772076429","0.1941505275","0.8480662183","0.8040573679","","","","","","","","76","L","3","","","87","main_expt",""
"","bandit","167","356293","0.0-128.0-0.0","72005099","wem/bandit_either_3","A2ZDNV3621BH6A","either","1","93","","","","","","","1","0","0","0.7800800897","","0.4","0.2","0.6","0.8","","","","","0.5202977678","0.09645570925","0.8110462569","0.7800800897","","","","","","","","76","L","3","","","88","main_expt",""
"","bandit","168","357931","0.0-129.0-0.0","72005099","wem/bandit_either_3","A2ZDNV3621BH6A","either","1","121","","","","","","","1","0","0","0.7329239748","","0.4","0.2","0.6","0.8","","","","","0.4970482359","0.1304326216","0.7924414871","0.7329239748","","","","","","","","76","L","3","","","89","main_expt",""
"","bandit","169","359559","0.0-130.0-0.0","72005099","wem/bandit_either_3","A2ZDNV3621BH6A","either","1","108","","","","","","","0","0","1","0.7202813078","","0.4","0.2","0.6","0.8","","","","","0.4671205494","0.1410434261","0.8190855249","0.7202813078","","","","","","","","76","L","3","","","90","main_expt",""
"","bandit","170","361078","0.0-131.0-0.0","72005099","wem/bandit_either_3","A2ZDNV3621BH6A","either","1","1","","","","","","","1","0","0","0.698586111","","0.4","0.2","0.6","0.8","","","","","0.5518401665","0.1277095213","0.858270253","0.698586111","","","","","","","","76","L","3","","","91","main_expt",""
"","bandit","171","362675","0.0-132.0-0.0","72005099","wem/bandit_either_3","A2ZDNV3621BH6A","either","1","71","","","","","","","1","0","0","0.6054304462","","0.4","0.2","0.6","0.8","","","","","0.620788192","0.08596821216","0.8583259383","0.6054304462","","","","","","","","76","L","3","","","92","main_expt",""
"","bandit","172","364277","0.0-133.0-0.0","72005099","wem/bandit_either_3","A2ZDNV3621BH6A","either","1","84","","","","","","","0","1","0","","0.6829204303","0.4","0.2","0.6","0.8","0.679669404","0.05652587691","0.8335107661","0.6829204303","","","","","","","","","","","","76","L","3","","","93","main_expt",""
"","bandit","173","365870","0.0-134.0-0.0","72005099","wem/bandit_either_3","A2ZDNV3621BH6A","either","1","78","","","","","","","1","0","0","0.6084783934","","0.4","0.2","0.6","0.8","","","","","0.6726581754","0.07490457358","0.8849423118","0.6084783934","","","","","","","","76","L","3","","","94","main_expt",""
"","bandit","174","367564","0.0-135.0-0.0","72005099","wem/bandit_either_3","A2ZDNV3621BH6A","either","1","177","","","","","","","0","0","1","0.51962455","","0.4","0.2","0.6","0.8","","","","","0.5983950962","0.05201682933","0.9175662658","0.51962455","","","","","","","","76","L","3","","","95","main_expt",""
"","bandit","175","369260","0.0-136.0-0.0","72005099","wem/bandit_either_3","A2ZDNV3621BH6A","either","1","170","","","","","","","1","0","0","0.453067158","","0.4","0.2","0.6","0.8","","","","","0.6316158747","0.0353667714","0.8726153548","0.453067158","","","","","","","","76","L","3","","","96","main_expt",""
"","bandit","176","370990","0.0-137.0-0.0","72005099","wem/bandit_either_3","A2ZDNV3621BH6A","either","1","210","","","","","","","1","0","0","0.4090095009","","0.4","0.2","0.6","0.8","","","","","0.6660601513","0.04301306848","0.7260562137","0.4090095009","","","","","","","","76","L","3","","","97","main_expt",""
"","bandit","177","372659","0.0-138.0-0.0","72005099","wem/bandit_either_3","A2ZDNV3621BH6A","either","1","149","","","","","","","0","0","1","0.360727585","","0.4","0.2","0.6","0.8","","","","","0.6185462561","0.03950067624","0.6506148609","0.360727585","","","","","","","","76","L","3","","","98","main_expt",""
"","bandit","178","374323","0.0-139.0-0.0","72005099","wem/bandit_either_3","A2ZDNV3621BH6A","either","1","146","","","","","","","0","0","1","0.3351327477","","0.4","0.2","0.6","0.8","","","","","0.581128502","0.03156699585","0.5816342488","0.3351327477","","","","","","","","76","L","3","","","99","main_expt",""
"","bandit","179","375923","0.0-140.0-0.0","72005099","wem/bandit_either_3","A2ZDNV3621BH6A","either","1","84","","","","","","","0","0","1","0.3491912274","","0.4","0.2","0.6","0.8","","","","","0.479775063","0.0248161238","0.5521464449","0.3491912274","","","","","","","","76","L","3","","","100","main_expt",""
"","bandit","180","377477","0.0-141.0-0.0","72005099","wem/bandit_either_3","A2ZDNV3621BH6A","either","1","36","","","","","","","1","0","0","0.4105375765","","0.4","0.2","0.6","0.8","","","","","0.5114647241","0.02218075004","0.6063232436","0.4105375765","","","","","","","","76","L","3","","","101","main_expt",""
"","bandit","181","379373","0.0-142.0-0.0","72005099","wem/bandit_either_3","A2ZDNV3621BH6A","either","1","372","","","","","","","1","0","0","0.438632671","","0.4","0.2","0.6","0.8","","","","","0.4718740674","0.01802152149","0.5636213764","0.438632671","","","","","","","","76","L","3","","","102","main_expt",""
"","bandit","182","381172","0.0-143.0-0.0","72005099","wem/bandit_either_3","A2ZDNV3621BH6A","either","1","275","","","","","","","0","0","1","0.372838406","","0.4","0.2","0.6","0.8","","","","","0.5245129891","0.01877214671","0.5370473259","0.372838406","","","","","","","","76","L","3","","","103","main_expt",""
"","bandit","183","382940","0.0-144.0-0.0","72005099","wem/bandit_either_3","A2ZDNV3621BH6A","either","1","251","","","","","","","0","0","1","0.3057692375","","0.4","0.2","0.6","0.8","","","","","0.5170751474","0.01556743346","0.549647281","0.3057692375","","","","","","","","76","L","3","","","104","main_expt",""
"","bandit","184","384699","0.0-145.0-0.0","72005099","wem/bandit_either_3","A2ZDNV3621BH6A","either","1","238","","","","","","","0","0","1","0.37369274","","0.4","0.2","0.6","0.8","","","","","0.472330124","0.03717147126","0.4225976111","0.37369274","","","","","","","","76","L","3","","","105","main_expt",""
"","bandit","185","386458","0.0-146.0-0.0","72005099","wem/bandit_either_3","A2ZDNV3621BH6A","either","1","241","","","","","","","0","0","1","","0.3179799449","0.4","0.2","0.6","0.8","0.568133852","0.07687033395","0.5005163425","0.3179799449","","","","","","","","","","","","76","L","3","","","106","main_expt",""
"","bandit","186","388353","0.0-147.0-0.0","72005099","wem/bandit_either_3","A2ZDNV3621BH6A","either","1","373","","","","","","","0","0","1","0.3053765494","","0.4","0.2","0.6","0.8","","","","","0.536018559","0.07659049968","0.3995396385","0.3053765494","","","","","","","","76","L","3","","","107","main_expt",""
"","bandit","187","390140","0.0-148.0-0.0","72005099","wem/bandit_either_3","A2ZDNV3621BH6A","either","1","269","","","","","","","1","0","0","0.2732860947","","0.4","0.2","0.6","0.8","","","","","0.3880888981","0.07827602418","0.3855926336","0.2732860947","","","","","","","","76","L","3","","","108","main_expt",""
"","bandit","188","391970","0.0-149.0-0.0","72005099","wem/bandit_either_3","A2ZDNV3621BH6A","either","1","307","","","","","","","0","0","1","","0.3675045314","0.4","0.2","0.6","0.8","0.3675045314","0.1352418701","0.3059937163","0.2624197952","","","","","","","","","","","","72","H","0","img/none_selected.jpg","","109","main_expt",""
"","bandit","189","393735","0.0-150.0-0.0","72005099","wem/bandit_either_3","A2ZDNV3621BH6A","either","1","249","","","","","","","0","0","1","0.4560700489","","0.4","0.2","0.6","0.8","","","","","0.4560700489","0.1705666919","0.2752892785","0.3303210632","","","","","","","","72","H","0","img/none_selected.jpg","","110","main_expt",""
"","bandit","190","395386","0.0-151.0-0.0","72005099","wem/bandit_either_3","A2ZDNV3621BH6A","either","1","130","","","","","","","0","0","1","","0.3541452024","0.4","0.2","0.6","0.8","0.5366389876","0.2202970635","0.3038626008","0.3541452024","","","","","","","","","","","","76","L","3","","","111","main_expt",""
"","bandit","191","397058","0.0-152.0-0.0","72005099","wem/bandit_either_3","A2ZDNV3621BH6A","either","1","156","","","","","","","0","0","1","","0.2308866464","0.4","0.2","0.6","0.8","0.5742054707","0.2368742277","0.2308866464","0.4468573219","","","","","","","","","","","","75","K","2","","","112","main_expt",""
"","bandit","192","398840","0.0-153.0-0.0","72005099","wem/bandit_either_3","A2ZDNV3621BH6A","either","1","262","","","","","","","0","0","1","","0.5163231944","0.4","0.2","0.6","0.8","0.6014260319","0.2487241586","0.2420052043","0.5163231944","","","","","","","","","","","","76","L","3","","","113","main_expt",""
"","bandit","193","400511","0.0-154.0-0.0","72005099","wem/bandit_either_3","A2ZDNV3621BH6A","either","1","149","","","","","","","0","0","1","0.4064640458","","0.4","0.2","0.6","0.8","","","","","0.5398035654","0.238824581","0.3277817495","0.4064640458","","","","","","","","76","L","3","","","114","main_expt",""
"","bandit","194","402167","0.0-155.0-0.0","72005099","wem/bandit_either_3","A2ZDNV3621BH6A","either","1","136","","","","","","","1","0","0","0.4085425191","","0.4","0.2","0.6","0.8","","","","","0.5008208772","0.1480638281","0.3280884562","0.4085425191","","","","","","","","76","L","3","","","115","main_expt",""
"","bandit","195","403764","0.0-156.0-0.0","72005099","wem/bandit_either_3","A2ZDNV3621BH6A","either","1","73","","","","","","","0","0","1","","0.4412864427","0.4","0.2","0.6","0.8","0.4200837231","0.1246447603","0.4137256642","0.4412864427","","","","","","","","","","","","76","L","3","","","116","main_expt",""
"","bandit","196","405485","0.0-157.0-0.0","72005099","wem/bandit_either_3","A2ZDNV3621BH6A","either","1","203","","","","","","","1","0","0","0.5188885271","","0.4","0.2","0.6","0.8","","","","","0.4094987027","0.1308085784","0.372751341","0.5188885271","","","","","","","","76","L","3","","","117","main_expt",""
"","bandit","197","407306","0.0-158.0-0.0","72005099","wem/bandit_either_3","A2ZDNV3621BH6A","either","1","299","","","","","","","0","0","1","0.5728151575","","0.4","0.2","0.6","0.8","","","","","0.3862907493","0.09076242324","0.4225631273","0.5728151575","","","","","","","","76","L","3","","","118","main_expt",""
"","bandit","198","408852","0.0-159.0-0.0","72005099","wem/bandit_either_3","A2ZDNV3621BH6A","either","1","23","","","","","","","0","1","0","","0.5065624602","0.4","0.2","0.6","0.8","0.4437318585","0.09057925276","0.4188482812","0.5065624602","","","","","","","","","","","","76","L","3","","","119","main_expt",""
"","bandit","199","410434","0.0-160.0-0.0","72005099","wem/bandit_either_3","A2ZDNV3621BH6A","either","1","54","","","","","","","0","0","1","0.4064427813","","0.4","0.2","0.6","0.8","","","","","0.293469011","0.1288926122","0.3729077829","0.4064427813","","","","","","","","76","L","3","","","120","main_expt",""
"","bandit","200","412081","0.0-161.0-0.0","72005099","wem/bandit_either_3","A2ZDNV3621BH6A","either","1","123","","","","","","","0","1","0","","0.3948988447","0.4","0.2","0.6","0.8","0.2141601759","0.1479701512","0.3817262037","0.3948988447","","","","","","","","","","","","76","L","3","","","121","main_expt",""
"","bandit","201","413654","0.0-162.0-0.0","72005099","wem/bandit_either_3","A2ZDNV3621BH6A","either","1","45","","","","","","","1","0","0","0.316823658","","0.4","0.2","0.6","0.8","","","","","0.2594293103","0.1663524813","0.3537210734","0.316823658","","","","","","","","76","L","3","","","122","main_expt",""
"","bandit","202","415268","0.0-163.0-0.0","72005099","wem/bandit_either_3","A2ZDNV3621BH6A","either","1","98","","","","","","","0","0","1","0.3045978244","","0.4","0.2","0.6","0.8","","","","","0.1519240937","0.1993917655","0.3633727708","0.3045978244","","","","","","","","76","L","3","","","123","main_expt",""
"","bandit","203","416862","0.0-164.0-0.0","72005099","wem/bandit_either_3","A2ZDNV3621BH6A","either","1","74","","","","","","","0","0","1","0.2389028675","","0.4","0.2","0.6","0.8","","","","","0.2311656533","0.2948689786","0.4139908316","0.2389028675","","","","","","","","76","L","3","","","124","main_expt",""
"","bandit","204","418470","0.0-165.0-0.0","72005099","wem/bandit_either_3","A2ZDNV3621BH6A","either","1","85","","","","","","","0","0","1","","0.2166803268","0.4","0.2","0.6","0.8","0.1956748967","0.4054398129","0.3619800754","0.2166803268","","","","","","","","","","","","76","L","3","","","125","main_expt",""
"","bandit","205","420114","0.0-166.0-0.0","72005099","wem/bandit_either_3","A2ZDNV3621BH6A","either","1","122","","","","","","","0","0","1","0.1613674106","","0.4","0.2","0.6","0.8","","","","","0.1419383156","0.5337661481","0.353362548","0.1613674106","","","","","","","","76","L","3","","","126","main_expt",""
"","bandit","206","421770","0.0-167.0-0.0","72005099","wem/bandit_either_3","A2ZDNV3621BH6A","either","1","137","","","","","","","0","0","1","0.1682412955","","0.4","0.2","0.6","0.8","","","","","0.1768105291","0.5510518781","0.2888217425","0.1682412955","","","","","","","","76","L","3","","","127","main_expt",""
"","bandit","207","423477","0.0-168.0-0.0","72005099","wem/bandit_either_3","A2ZDNV3621BH6A","either","1","186","","","","","","","0","0","1","0.1655910943","","0.4","0.2","0.6","0.8","","","","","0.1187699492","0.4746642732","0.3131893798","0.1655910943","","","","","","","","76","L","3","","","128","main_expt",""
"","bandit","208","425125","0.0-169.0-0.0","72005099","wem/bandit_either_3","A2ZDNV3621BH6A","either","1","132","","","","","","","0","0","1","0.1845506081","","0.4","0.2","0.6","0.8","","","","","0.1860330609","0.5345142674","0.2826861836","0.1845506081","","","","","","","","76","L","3","","","129","main_expt",""
"","bandit","209","426818","0.0-170.0-0.0","72005099","wem/bandit_either_3","A2ZDNV3621BH6A","either","1","174","","","","","","","0","0","1","0.1548240476","","0.4","0.2","0.6","0.8","","","","","0.09722607165","0.6617219445","0.3434973012","0.1548240476","","","","","","","","76","L","3","","","130","main_expt",""
"","bandit","210","428541","0.0-171.0-0.0","72005099","wem/bandit_either_3","A2ZDNV3621BH6A","either","1","205","","","","","","","0","0","1","0.1503989","","0.4","0.2","0.6","0.8","","","","","0.05626421391","0.6183560712","0.3848082556","0.1503989","","","","","","","","76","L","3","","","131","main_expt",""
"","bandit","211","430059","0.0-172.0-0.0","72005099","wem/bandit_either_3","A2ZDNV3621BH6A","either","1","0","","","","","","","0","0","1","0.1199593994","","0.4","0.2","0.6","0.8","","","","","0.1149854728","0.7009512511","0.4140069858","0.1199593994","","","","","","","","76","L","3","","","132","main_expt",""
"","bandit","212","431760","0.0-173.0-0.0","72005099","wem/bandit_either_3","A2ZDNV3621BH6A","either","1","182","","","","","","","0","0","1","0.1518383839","","0.4","0.2","0.6","0.8","","","","","0.1698175541","0.5838974895","0.3745017877","0.1518383839","","","","","","","","76","L","3","","","133","main_expt",""
"","bandit","213","433329","0.0-174.0-0.0","72005099","wem/bandit_either_3","A2ZDNV3621BH6A","either","1","46","","","","","","","0","0","1","","0.1855528241","0.4","0.2","0.6","0.8","0.1925371395","0.6628563986","0.3918835711","0.1855528241","","","","","","","","","","","","76","L","3","","","134","main_expt",""
"","bandit","214","435093","0.0-175.0-0.0","72005099","wem/bandit_either_3","A2ZDNV3621BH6A","either","1","245","","","","","","","0","0","1","0.246136332","","0.4","0.2","0.6","0.8","","","","","0.246136332","0.5610912218","0.3405764209","0.2187769305","","","","","","","","72","H","0","img/none_selected.jpg","","135","main_expt",""
"","bandit","215","436942","0.0-176.0-0.0","72005099","wem/bandit_either_3","A2ZDNV3621BH6A","either","1","330","","","","","","","0","0","1","","0.4834649218","0.4","0.2","0.6","0.8","0.2277518718","0.4834649218","0.4155430462","0.2001534018","","","","","","","","","","","","74","J","1","","","136","main_expt",""
"","bandit","216","438722","0.0-177.0-0.0","72005099","wem/bandit_either_3","A2ZDNV3621BH6A","either","1","253","","","","","","","0","0","1","","0.513072369","0.4","0.2","0.6","0.8","0.252962458","0.513072369","0.3389252929","0.176995917","","","","","","","","","","","","74","J","1","","","137","main_expt",""
"","bandit","217","440629","0.0-178.0-0.0","72005099","wem/bandit_either_3","A2ZDNV3621BH6A","either","1","376","","","","","","","0","0","1","0.1460019238","","0.4","0.2","0.6","0.8","","","","","0.3018696236","0.5502636267","0.2698753193","0.1460019238","","","","","","","","76","L","3","","","138","main_expt",""
"","bandit","218","442213","0.0-179.0-0.0","72005099","wem/bandit_either_3","A2ZDNV3621BH6A","either","1","64","","","","","","","1","0","0","0.06707115951","","0.4","0.2","0.6","0.8","","","","","0.347353107","0.4564922144","0.2821570394","0.06707115951","","","","","","","","76","L","3","","","139","main_expt",""
"","bandit","219","443873","0.0-180.0-0.0","72005099","wem/bandit_either_3","A2ZDNV3621BH6A","either","1","137","","","","","","","0","0","1","0.1071331831","","0.4","0.2","0.6","0.8","","","","","0.2477375586","0.4116013625","0.3577533322","0.1071331831","","","","","","","","76","L","3","","","140","main_expt",""
"","bandit","220","445435","0.0-181.0-0.0","72005099","wem/bandit_either_3","A2ZDNV3621BH6A","either","1","39","","","","","","","0","0","1","0.1224459691","","0.4","0.2","0.6","0.8","","","","","0.2880826197","0.4498847811","0.4250900652","0.1224459691","","","","","","","","76","L","3","","","141","main_expt",""
"","bandit","221","447132","0.0-182.0-0.0","72005099","wem/bandit_either_3","A2ZDNV3621BH6A","either","1","177","","","","","","","0","0","1","0.1127900777","","0.4","0.2","0.6","0.8","","","","","0.2287108423","0.4822150968","0.3451055681","0.1127900777","","","","","","","","76","L","3","","","142","main_expt",""
"","bandit","222","448737","0.0-183.0-0.0","72005099","wem/bandit_either_3","A2ZDNV3621BH6A","either","1","76","","","","","","","0","0","1","0.1736101882","","0.4","0.2","0.6","0.8","","","","","0.2096850542","0.513506041","0.4661026996","0.1736101882","","","","","","","","76","L","3","","","143","main_expt",""
"","bandit","223","450256","0.0-184.0-0.0","72005099","wem/bandit_either_3","A2ZDNV3621BH6A","either","1","1","","","","","","","0","0","1","0.1231714597","","0.4","0.2","0.6","0.8","","","","","0.2214165798","0.556822441","0.4683168179","0.1231714597","","","","","","","","76","L","3","","","144","main_expt",""
"","bandit","224","452082","0.0-185.0-0.0","72005099","wem/bandit_either_3","A2ZDNV3621BH6A","either","1","301","","","","","","","0","0","1","0.10514291","","0.4","0.2","0.6","0.8","","","","","0.2412424024","0.5633269006","0.448697065","0.10514291","","","","","","","","76","L","3","","","145","main_expt",""
"","bandit","225","453949","0.0-186.0-0.0","72005099","wem/bandit_either_3","A2ZDNV3621BH6A","either","1","343","","","","","","","1","0","0","0.0972381369","","0.4","0.2","0.6","0.8","","","","","0.1841611904","0.6482805244","0.4560677512","0.0972381369","","","","","","","","76","L","3","","","146","main_expt",""
"","bandit","226","455760","0.0-187.0-0.0","72005099","wem/bandit_either_3","A2ZDNV3621BH6A","either","1","282","","","","","","","1","0","0","0.1897119627","","0.4","0.2","0.6","0.8","","","","","0.1577922033","0.6036290043","0.513472809","0.1897119627","","","","","","","","76","L","3","","","147","main_expt",""
"","bandit","227","457469","0.0-188.0-0.0","72005099","wem/bandit_either_3","A2ZDNV3621BH6A","either","1","188","","","","","","","0","0","1","","0.1759094881","0.4","0.2","0.6","0.8","0.1663963597","0.6110248825","0.3820674583","0.1759094881","","","","","","","","","","","","76","L","3","","","148","main_expt",""
"","bandit","228","459463","0.0-189.0-0.0","72005099","wem/bandit_either_3","A2ZDNV3621BH6A","either","1","473","","","","","","","1","0","0","0.2204336569","","0.4","0.2","0.6","0.8","","","","","0.319747154","0.6453676348","0.3116557105","0.2204336569","","","","","","","","76","L","3","","","149","main_expt",""
"","bandit","229","461580","0.0-190.0-0.0","72005099","wem/bandit_either_3","A2ZDNV3621BH6A","either","1","596","","","","","","","0","0","1","0.2328853871","","0.4","0.2","0.6","0.8","","","","","0.5410110608","0.66235511","0.3039338698","0.2328853871","","","","","","","","76","L","3","","","150","main_expt",""
"","bandit","230","463775","0.0-191.0-0.0","72005099","wem/bandit_either_3","A2ZDNV3621BH6A","either","1","676","","","","","","","0","0","1","0.2652525627","","0.4","0.2","0.6","0.8","","","","","0.5584745132","0.5547575852","0.3092958796","0.2652525627","","","","","","","","76","L","3","","","151","main_expt",""
"","bandit","231","465633","0.0-192.0-0.0","72005099","wem/bandit_either_3","A2ZDNV3621BH6A","either","1","337","","","","","","","0","0","1","","0.2654363334","0.4","0.2","0.6","0.8","0.5709378499","0.5223098228","0.3097370874","0.2654363334","","","","","","","","","","","","76","L","3","","","152","main_expt",""
"","bandit","232","467241","0.0-193.0-0.0","72005099","wem/bandit_either_3","A2ZDNV3621BH6A","either","1","87","","","","","","","0","0","1","0.3505589273","","0.4","0.2","0.6","0.8","","","","","0.6314515046","0.5137303037","0.2955649657","0.3505589273","","","","","","","","76","L","3","","","153","main_expt",""
"","bandit","233","468952","0.0-194.0-0.0","72005099","wem/bandit_either_3","A2ZDNV3621BH6A","either","1","183","","","","","","","1","0","0","0.6734276465","","0.4","0.2","0.6","0.8","","","","","0.6734276465","0.5193194566","0.221553637","0.39889796","","","","","","","","72","H","0","img/none_selected.jpg","","154","main_expt",""
"","bandit","234","470810","0.0-195.0-0.0","72005099","wem/bandit_either_3","A2ZDNV3621BH6A","either","1","334","","","","","","","0","1","0","","0.7019144477","0.4","0.2","0.6","0.8","0.7019144477","0.4736812385","0.2231547498","0.4202606707","","","","","","","","","","","","72","H","0","img/none_selected.jpg","","155","main_expt",""
"","bandit","235","472670","0.0-196.0-0.0","72005099","wem/bandit_either_3","A2ZDNV3621BH6A","either","1","339","","","","","","","0","0","1","","0.4616442501","0.4","0.2","0.6","0.8","0.6695455193","0.4616442501","0.2750957943","0.4814159609","","","","","","","","","","","","74","J","1","","","156","main_expt",""
"","bandit","236","475138","0.0-197.0-0.0","72005099","wem/bandit_either_3","A2ZDNV3621BH6A","either","1","942","","","","","","","0","0","1","0.6179864128","","0.4","0.2","0.6","0.8","","","","","0.6179864128","0.5025740222","0.2005793054","0.5316807058","","","","","","","","72","H","0","img/none_selected.jpg","","157","main_expt",""
"","bandit","237","477052","0.0-198.0-0.0","72005099","wem/bandit_either_3","A2ZDNV3621BH6A","either","1","395","","","","","","","0","1","0","","0.7380689997","0.4","0.2","0.6","0.8","0.7380689997","0.4548105643","0.2502080146","0.5429668589","","","","","","","","","","","","72","H","0","img/none_selected.jpg","","158","main_expt",""
"","bandit","238","478620","0.0-199.0-0.0","72005099","wem/bandit_either_3","A2ZDNV3621BH6A","either","1","50","","","","","","","0","1","0","","0.5991419929","0.4","0.2","0.6","0.8","0.7632184112","0.4622667215","0.2729805177","0.5991419929","","","","","","","","","","","","76","L","3","","","159","main_expt",""
"","bandit","239","480215","0.0-200.0-0.0","72005099","wem/bandit_either_3","A2ZDNV3621BH6A","either","1","70","","","","","","","1","0","0","0.6480894682","","0.4","0.2","0.6","0.8","","","","","0.6917664031","0.4600517474","0.2801697818","0.6480894682","","","","","","","","76","L","3","","","160","main_expt",""
"","bandit","240","481909","0.0-201.0-0.0","72005099","wem/bandit_either_3","A2ZDNV3621BH6A","either","1","173","","","","","","","0","0","1","","0.6776161973","0.4","0.2","0.6","0.8","0.7106531984","0.481388234","0.2437938608","0.6776161973","","","","","","","","","","","","76","L","3","","","161","main_expt",""
"","bandit","241","483502","0.0-202.0-0.0","72005099","wem/bandit_either_3","A2ZDNV3621BH6A","either","1","44","","","","","","","1","0","0","0.7134031715","","0.4","0.2","0.6","0.8","","","","","0.809310282","0.3850106192","0.2687553501","0.7134031715","","","","","","","","76","L","3","","","162","main_expt",""
"","bandit","242","485182","0.0-203.0-0.0","72005099","wem/bandit_either_3","A2ZDNV3621BH6A","either","1","157","","","","","","","0","0","1","0.6215635068","","0.4","0.2","0.6","0.8","","","","","0.7492875705","0.3498723973","0.245991677","0.6215635068","","","","","","","","76","L","3","","","163","main_expt",""
"","bandit","243","486914","0.0-204.0-0.0","72005099","wem/bandit_either_3","A2ZDNV3621BH6A","either","1","206","","","","","","","0","0","1","0.5219240024","","0.4","0.2","0.6","0.8","","","","","0.7561394707","0.4287417444","0.270385563","0.5219240024","","","","","","","","76","L","3","","","164","main_expt",""
"","bandit","244","488664","0.0-205.0-0.0","72005099","wem/bandit_either_3","A2ZDNV3621BH6A","either","1","227","","","","","","","0","0","1","","0.4727302842","0.4","0.2","0.6","0.8","0.8111415702","0.3150145745","0.3037855967","0.4727302842","","","","","","","","","","","","76","L","3","","","165","main_expt",""
"","bandit","245","490311","0.0-206.0-0.0","72005099","wem/bandit_either_3","A2ZDNV3621BH6A","either","1","126","","","","","","","0","0","1","0.5181018645","","0.4","0.2","0.6","0.8","","","","","0.7759938205","0.2927018344","0.3395577104","0.5181018645","","","","","","","","76","L","3","","","166","main_expt",""
"","bandit","246","492015","0.0-207.0-0.0","72005099","wem/bandit_either_3","A2ZDNV3621BH6A","either","1","183","","","","","","","1","0","0","0.5280433419","","0.4","0.2","0.6","0.8","","","","","0.8267633335","0.3610256338","0.3443901906","0.5280433419","","","","","","","","76","L","3","","","167","main_expt",""
"","bandit","247","493828","0.0-208.0-0.0","72005099","wem/bandit_either_3","A2ZDNV3621BH6A","either","1","286","","","","","","","1","0","0","0.5470010145","","0.4","0.2","0.6","0.8","","","","","0.8136073627","0.3137127159","0.2552323567","0.5470010145","","","","","","","","76","L","3","","","168","main_expt",""
"","bandit","248","495593","0.0-209.0-0.0","72005099","wem/bandit_either_3","A2ZDNV3621BH6A","either","1","240","","","","","","","0","0","1","0.5558845962","","0.4","0.2","0.6","0.8","","","","","0.7308533614","0.2292796242","0.289352286","0.5558845962","","","","","","","","76","L","3","","","169","main_expt",""
"","bandit","249","497494","0.0-210.0-0.0","72005099","wem/bandit_either_3","A2ZDNV3621BH6A","either","1","381","","","","","","","0","0","1","0.5799309324","","0.4","0.2","0.6","0.8","","","","","0.7090730391","0.221948569","0.2262743404","0.5799309324","","","","","","","","76","L","3","","","170","main_expt",""
"","bandit","250","499120","0.0-211.0-0.0","72005099","wem/bandit_either_3","A2ZDNV3621BH6A","either","1","100","","","","","","","1","0","0","0.6643953266","","0.4","0.2","0.6","0.8","","","","","0.7229684446","0.159615594","0.2644351609","0.6643953266","","","","","","","","76","L","3","","","171","main_expt",""
"","bandit","251","502009","0.0-212.0-0.0","72005099","wem/bandit_either_3","A2ZDNV3621BH6A","either","1","1365","","","","","","","1","0","0","0.7610666705","","0.4","0.2","0.6","0.8","","","","","0.6612043244","0.1303854457","0.4136296373","0.7610666705","","","","","","","","76","L","3","","","172","main_expt",""
"","bandit","252","504815","0.0-213.0-0.0","72005099","wem/bandit_either_3","A2ZDNV3621BH6A","either","1","1278","","","","","","","1","0","0","0.8006149786","","0.4","0.2","0.6","0.8","","","","","0.7669021743","0.07729024622","0.491318492","0.8006149786","","","","","","","","76","L","3","","","173","main_expt",""
"","bandit","253","506381","0.0-214.0-0.0","72005099","wem/bandit_either_3","A2ZDNV3621BH6A","either","1","31","","","","","","","1","0","0","0.791095403","","0.4","0.2","0.6","0.8","","","","","0.8111867287","0.1227026474","0.4966763124","0.791095403","","","","","","","","76","L","3","","","174","main_expt",""
"","bandit","254","508676","0.0-215.0-0.0","72005099","wem/bandit_either_3","A2ZDNV3621BH6A","either","1","774","","","","","","","0","1","0","","0.8572088762","0.4","0.2","0.6","0.8","0.8192498968","0.09483306355","0.5109350621","0.8572088762","","","","","","","","","","","","76","L","3","","","175","main_expt",""
"","bandit","255","510782","0.0-216.0-0.0","72005099","wem/bandit_either_3","A2ZDNV3621BH6A","either","1","575","","","","","","","1","0","0","0.8576080684","","0.4","0.2","0.6","0.8","","","","","0.8371283275","0.143069758","0.6321295754","0.8576080684","","","","","","","","76","L","3","","","176","main_expt",""
"","bandit","256","516813","0.0-217.0-0.0","72005099","wem/bandit_either_3","A2ZDNV3621BH6A","either","1","4506","","","","","","","1","0","0","0.8678158231","","0.4","0.2","0.6","0.8","","","","","0.8545140947","0.1741656422","0.5515755996","0.8678158231","","","","","","","","76","L","3","","","177","main_expt",""
"","bandit","257","518412","0.0-218.0-0.0","72005099","wem/bandit_either_3","A2ZDNV3621BH6A","either","1","76","","","","","","","0","1","0","","0.8820542777","0.4","0.2","0.6","0.8","0.8794893657","0.1904086474","0.5086275016","0.8820542777","","","","","","","","","","","","76","L","3","","","178","main_expt",""
"","bandit","258","520059","0.0-219.0-0.0","72005099","wem/bandit_either_3","A2ZDNV3621BH6A","either","1","128","","","","","","","1","0","0","0.8907334788","","0.4","0.2","0.6","0.8","","","","","0.8939587296","0.1778905233","0.5215192908","0.8907334788","","","","","","","","76","L","3","","","179","main_expt",""
"","bandit","259","521656","0.0-220.0-0.0","72005099","wem/bandit_either_3","A2ZDNV3621BH6A","either","1","73","","","","","","","1","0","0","0.9161653667","","0.4","0.2","0.6","0.8","","","","","0.868077767","0.2112817454","0.5193414217","0.9161653667","","","","","","","","76","L","3","","","180","main_expt",""
"","bandit","260","523395","0.0-221.0-0.0","72005099","wem/bandit_either_3","A2ZDNV3621BH6A","either","1","208","","","","","","","1","0","0","0.9327112184","","0.4","0.2","0.6","0.8","","","","","0.9295405476","0.2236312472","0.4613460131","0.9327112184","","","","","","","","76","L","3","","","181","main_expt",""
"","bandit","261","524943","0.0-222.0-0.0","72005099","wem/bandit_either_3","A2ZDNV3621BH6A","either","1","24","","","","","","","1","0","0","0.9284398706","","0.4","0.2","0.6","0.8","","","","","0.9213574857","0.264467441","0.4468633868","0.9284398706","","","","","","","","76","L","3","","","182","main_expt",""
"","bandit","262","526685","0.0-223.0-0.0","72005099","wem/bandit_either_3","A2ZDNV3621BH6A","either","1","215","","","","","","","1","0","0","0.89591471","","0.4","0.2","0.6","0.8","","","","","0.9374560388","0.2240632979","0.4985091709","0.89591471","","","","","","","","76","L","3","","","183","main_expt",""
"","bandit","263","528416","0.0-224.0-0.0","72005099","wem/bandit_either_3","A2ZDNV3621BH6A","either","1","211","","","","","","","0","0","1","0.9146434193","","0.4","0.2","0.6","0.8","","","","","0.9120054929","0.1671404848","0.6057575335","0.9146434193","","","","","","","","76","L","3","","","184","main_expt",""
"","bandit","264","530027","0.0-225.0-0.0","72005099","wem/bandit_either_3","A2ZDNV3621BH6A","either","1","89","","","","","","","0","0","1","0.8575823977","","0.4","0.2","0.6","0.8","","","","","0.8428471033","0.1932257563","0.4915456485","0.8575823977","","","","","","","","76","L","3","","","185","main_expt",""
"","bandit","265","531752","0.0-226.0-0.0","72005099","wem/bandit_either_3","A2ZDNV3621BH6A","either","1","205","","","","","","","1","0","0","0.8487952361","","0.4","0.2","0.6","0.8","","","","","0.7734335662","0.155472597","0.5976273718","0.8487952361","","","","","","","","76","L","3","","","186","main_expt",""
"","bandit","266","533389","0.0-227.0-0.0","72005099","wem/bandit_either_3","A2ZDNV3621BH6A","either","1","116","","","","","","","1","0","0","0.8603972339","","0.4","0.2","0.6","0.8","","","","","0.7667319261","0.1895871356","0.5743595779","0.8603972339","","","","","","","","76","L","3","","","187","main_expt",""
"","bandit","267","534975","0.0-228.0-0.0","72005099","wem/bandit_either_3","A2ZDNV3621BH6A","either","1","65","","","","","","","0","0","1","0.8834510925","","0.4","0.2","0.6","0.8","","","","","0.5945875292","0.2119556673","0.6833173747","0.8834510925","","","","","","","","76","L","3","","","188","main_expt",""
"","bandit","268","536511","0.0-229.0-0.0","72005099","wem/bandit_either_3","A2ZDNV3621BH6A","either","1","1","","","","","","","1","0","0","0.8973947779","","0.4","0.2","0.6","0.8","","","","","0.7406569186","0.2255007403","0.651089354","0.8973947779","","","","","","","","76","L","3","","","189","main_expt",""
"","bandit","269","538076","0.0-230.0-0.0","72005099","wem/bandit_either_3","A2ZDNV3621BH6A","either","1","39","","","","","","","0","1","0","","0.8824587855","0.4","0.2","0.6","0.8","0.7371931777","0.1754842532","0.6599652607","0.8824587855","","","","","","","","","","","","76","L","3","","","190","main_expt",""
"","bandit","270","539810","0.0-231.0-0.0","72005099","wem/bandit_either_3","A2ZDNV3621BH6A","either","1","212","","","","","","","1","0","0","0.9076431997","","0.4","0.2","0.6","0.8","","","","","0.7019705866","0.1936311571","0.6960236584","0.9076431997","","","","","","","","76","L","3","","","191","main_expt",""
"","bandit","271","541417","0.0-232.0-0.0","72005099","wem/bandit_either_3","A2ZDNV3621BH6A","either","1","84","","","","","","","0","1","0","","0.8673165995","0.4","0.2","0.6","0.8","0.6198122665","0.215612591","0.6713911156","0.8673165995","","","","","","","","","","","","76","L","3","","","192","main_expt",""
"","bandit","272","542963","0.0-233.0-0.0","72005099","wem/bandit_either_3","A2ZDNV3621BH6A","either","1","23","","","","","","","0","1","0","","0.8264401474","0.4","0.2","0.6","0.8","0.6100930929","0.2818734505","0.7244072205","0.8264401474","","","","","","","","","","","","76","L","3","","","193","main_expt",""
"","bandit","273","544566","0.0-234.0-0.0","72005099","wem/bandit_either_3","A2ZDNV3621BH6A","either","1","81","","","","","","","1","0","0","0.8546086414","","0.4","0.2","0.6","0.8","","","","","0.6332739585","0.3616108755","0.7397798508","0.8546086414","","","","","","","","76","L","3","","","194","main_expt",""
"","bandit","274","546230","0.0-235.0-0.0","72005099","wem/bandit_either_3","A2ZDNV3621BH6A","either","1","139","","","","","","","1","0","0","0.7914914872","","0.4","0.2","0.6","0.8","","","","","0.609207161","0.3979961615","0.7602069811","0.7914914872","","","","","","","","76","L","3","","","195","main_expt",""
"","bandit","275","547888","0.0-236.0-0.0","72005099","wem/bandit_either_3","A2ZDNV3621BH6A","either","1","133","","","","","","","0","1","0","","0.6560649547","0.4","0.2","0.6","0.8","0.6560649547","0.4366641927","0.7114092524","0.7608346536","","","","","","","","","","","","72","H","0","img/none_selected.jpg","","196","main_expt",""
"","bandit","276","549423","0.0-237.0-0.0","72005099","wem/bandit_either_3","A2ZDNV3621BH6A","either","1","12","","","","","","","1","0","0","0.7003784325","","0.4","0.2","0.6","0.8","","","","","0.6656533059","0.560782874","0.6917424169","0.7003784325","","","","","","","","76","L","3","","","197","main_expt",""
"","bandit","277","551081","0.0-238.0-0.0","72005099","wem/bandit_either_3","A2ZDNV3621BH6A","either","1","135","","","","","","","0","0","1","0.6036075577","","0.4","0.2","0.6","0.8","","","","","0.6841747727","0.5649388288","0.6561069913","0.6036075577","","","","","","","","76","L","3","","","198","main_expt",""
"","bandit","278","552650","0.0-239.0-0.0","72005099","wem/bandit_either_3","A2ZDNV3621BH6A","either","1","47","","","","","","","1","0","0","0.5843314555","","0.4","0.2","0.6","0.8","","","","","0.7105065455","0.5375892324","0.6948346643","0.5843314555","","","","","","","","76","L","3","","","199","main_expt",""
"","bandit","279","554216","0.0-240.0-0.0","72005099","wem/bandit_either_3","A2ZDNV3621BH6A","either","1","41","","","","","","","1","0","0","0.539414212","","0.4","0.2","0.6","0.8","","","","","0.7380433654","0.5625167851","0.7369743936","0.539414212","","","","","","","","76","L","3","","","200","main_expt",""
"","bandit","280","555928","0.0-241.0-0.0","72005099","wem/bandit_either_3","A2ZDNV3621BH6A","either","1","186","","","","","","","1","0","0","0.3774065742","","0.4","0.2","0.6","0.8","","","","","0.6432951689","0.6266810217","0.8347268415","0.3774065742","","","","","","","","76","L","3","","","201","main_expt",""
"","bandit","281","557523","0.0-242.0-0.0","72005099","wem/bandit_either_3","A2ZDNV3621BH6A","either","1","70","","","","","","","1","0","0","0.2824615609","","0.4","0.2","0.6","0.8","","","","","0.4995879772","0.6661075828","0.7612264534","0.2824615609","","","","","","","","76","L","3","","","202","main_expt",""
"","bandit","282","559199","0.0-243.0-0.0","72005099","wem/bandit_either_3","A2ZDNV3621BH6A","either","1","151","","","","","","","0","0","1","","0.210170224","0.4","0.2","0.6","0.8","0.4767352753","0.7534099026","0.6904596671","0.210170224","","","","","","","","","","","","76","L","3","","","203","main_expt",""
"","bandit","283","560731","0.0-244.0-0.0","72005099","wem/bandit_either_3","A2ZDNV3621BH6A","either","1","6","","","","","","","0","0","1","","0.2708138581","0.4","0.2","0.6","0.8","0.3680612217","0.7033522103","0.6855485072","0.2708138581","","","","","","","","","","","","76","L","3","","","204","main_expt",""
"","bandit","284","562423","0.0-245.0-0.0","72005099","wem/bandit_either_3","A2ZDNV3621BH6A","either","1","167","","","","","","","0","0","1","0.3319820794","","0.4","0.2","0.6","0.8","","","","","0.3404512965","0.6105989365","0.7006332368","0.3319820794","","","","","","","","76","L","3","","","205","main_expt",""
"","bandit","285","564070","0.0-246.0-0.0","72005099","wem/bandit_either_3","A2ZDNV3621BH6A","either","1","123","","","","","","","0","0","1","0.3517339603","","0.4","0.2","0.6","0.8","","","","","0.2774568564","0.725137222","0.7533130943","0.3517339603","","","","","","","","76","L","3","","","206","main_expt",""
"","bandit","286","565645","0.0-247.0-0.0","72005099","wem/bandit_either_3","A2ZDNV3621BH6A","either","1","29","","","","","","","0","0","1","0.2871079035","","0.4","0.2","0.6","0.8","","","","","0.2228883469","0.5888984072","0.7191760557","0.2871079035","","","","","","","","76","L","3","","","207","main_expt",""
"","bandit","287","567182","0.0-248.0-0.0","72005099","wem/bandit_either_3","A2ZDNV3621BH6A","either","1","16","","","","","","","0","1","0","","0.2829247412","0.4","0.2","0.6","0.8","0.2829247412","0.4650323514","0.6264293856","0.2642306377","","","","","","","","","","","","72","H","0","img/none_selected.jpg","","208","main_expt",""
"","bandit","288","568917","0.0-249.0-0.0","72005099","wem/bandit_either_3","A2ZDNV3621BH6A","either","1","213","","","","","","","0","0","1","0.3587725811","","0.4","0.2","0.6","0.8","","","","","0.3169104167","0.4100719568","0.6500478562","0.3587725811","","","","","","","","76","L","3","","","209","main_expt",""
"","bandit","289","570520","0.0-250.0-0.0","72005099","wem/bandit_either_3","A2ZDNV3621BH6A","either","1","81","","","","","","","1","0","0","0.3103342645","","0.4","0.2","0.6","0.8","","","","","0.2090062306","0.5177296744","0.6498865343","0.3103342645","","","","","","","","76","L","3","","","210","main_expt",""
"","bandit","290","572540","0.0-251.0-0.0","72005099","wem/bandit_either_3","A2ZDNV3621BH6A","either","1","497","","","","","","","0","0","1","","0.3760595068","0.4","0.2","0.6","0.8","0.1481662818","0.5950812693","0.6056301442","0.3760595068","","","","","","","","","","","","76","L","3","","","211","main_expt",""
"","bandit","291","574216","0.0-252.0-0.0","72005099","wem/bandit_either_3","A2ZDNV3621BH6A","either","1","153","","","","","","","0","0","1","0.2114888193","","0.4","0.2","0.6","0.8","","","","","0.2114888193","0.7169745983","0.5524844402","0.447023013","","","","","","","","72","H","0","img/none_selected.jpg","","212","main_expt",""
"","bandit","292","575843","0.0-253.0-0.0","72005099","wem/bandit_either_3","A2ZDNV3621BH6A","either","1","103","","","","","","","0","0","1","0.4529182837","","0.4","0.2","0.6","0.8","","","","","0.2234642754","0.6766124197","0.6984249358","0.4529182837","","","","","","","","76","L","3","","","213","main_expt",""
"","bandit","293","577626","0.0-254.0-0.0","72005099","wem/bandit_either_3","A2ZDNV3621BH6A","either","1","256","","","","","","","0","0","1","","0.5996975418","0.4","0.2","0.6","0.8","0.2315139555","0.8005648136","0.5996975418","0.4306534983","","","","","","","","","","","","75","K","2","","","214","main_expt",""
"","bandit","294","579538","0.0-255.0-0.0","72005099","wem/bandit_either_3","A2ZDNV3621BH6A","either","1","388","","","","","","","0","0","1","0.4314469479","","0.4","0.2","0.6","0.8","","","","","0.1949488974","0.8487964291","0.6067129047","0.4314469479","","","","","","","","76","L","3","","","215","main_expt",""
"","bandit","295","581300","0.0-256.0-0.0","72005099","wem/bandit_either_3","A2ZDNV3621BH6A","either","1","237","","","","","","","0","0","1","0.45439575","","0.4","0.2","0.6","0.8","","","","","0.2333303883","0.8674123454","0.6297976658","0.45439575","","","","","","","","76","L","3","","","216","main_expt",""
"","bandit","296","583024","0.0-257.0-0.0","72005099","wem/bandit_either_3","A2ZDNV3621BH6A","either","1","201","","","","","","","0","1","0","","0.5228861726","0.4","0.2","0.6","0.8","0.2027763819","0.8774404243","0.6095272491","0.5228861726","","","","","","","","","","","","76","L","3","","","217","main_expt",""
"","bandit","297","584719","0.0-258.0-0.0","72005099","wem/bandit_either_3","A2ZDNV3621BH6A","either","1","175","","","","","","","0","0","1","","0.1895874514","0.4","0.2","0.6","0.8","0.1895874514","0.8836448068","0.7058099393","0.463703458","","","","","","","","","","","","72","H","0","img/none_selected.jpg","","218","main_expt",""
"","bandit","298","586242","0.0-259.0-0.0","72005099","wem/bandit_either_3","A2ZDNV3621BH6A","either","1","1","","","","","","","1","0","0","0.4522864467","","0.4","0.2","0.6","0.8","","","","","0.1537120117","0.880498508","0.7396246451","0.4522864467","","","","","","","","76","L","3","","","219","main_expt",""
"","bandit","299","587767","0.0-260.0-0.0","72005099","wem/bandit_either_3","A2ZDNV3621BH6A","either","1","1","","","","","","","0","0","1","0.4561576612","","0.4","0.2","0.6","0.8","","","","","0.2022747423","0.8740874997","0.7091968036","0.4561576612","","","","","","","","76","L","3","","","220","main_expt",""
"","bandit","300","589309","0.0-261.0-0.0","72005099","wem/bandit_either_3","A2ZDNV3621BH6A","either","1","12","","","","","","","1","0","0","0.4264657168","","0.4","0.2","0.6","0.8","","","","","0.3174413427","0.8527830905","0.7116308873","0.4264657168","","","","","","","","76","L","3","","","221","main_expt",""
"","bandit","301","590988","0.0-262.0-0.0","72005099","wem/bandit_either_3","A2ZDNV3621BH6A","either","1","158","","","","","","","0","0","1","0.3055141729","","0.4","0.2","0.6","0.8","","","","","0.2315667073","0.7717907476","0.769465391","0.3055141729","","","","","","","","76","L","3","","","222","main_expt",""
"","bandit","302","592602","0.0-263.0-0.0","72005099","wem/bandit_either_3","A2ZDNV3621BH6A","either","1","88","","","","","","","0","0","1","0.2868954791","","0.4","0.2","0.6","0.8","","","","","0.2261006122","0.8359700354","0.7509006974","0.2868954791","","","","","","","","76","L","3","","","223","main_expt",""
"","bandit","303","594240","0.0-264.0-0.0","72005099","wem/bandit_either_3","A2ZDNV3621BH6A","either","1","116","","","","","","","0","0","1","0.2698185242","","0.4","0.2","0.6","0.8","","","","","0.2662378096","0.819670806","0.7007688409","0.2698185242","","","","","","","","76","L","3","","","224","main_expt",""
"","bandit","304","595952","0.0-265.0-0.0","72005099","wem/bandit_either_3","A2ZDNV3621BH6A","either","1","187","","","","","","","1","0","0","0.2163280173","","0.4","0.2","0.6","0.8","","","","","0.2163280173","0.8512382749","0.7409020096","0.213842325","","","","","","","","72","H","0","img/none_selected.jpg","","225","main_expt",""
"","bandit","305","597600","0.0-266.0-0.0","72005099","wem/bandit_either_3","A2ZDNV3621BH6A","either","1","122","","","","","","","0","0","1","0.1616408491","","0.4","0.2","0.6","0.8","","","","","0.2809353625","0.8342861847","0.7052945704","0.1616408491","","","","","","","","76","L","3","","","226","main_expt",""
"","bandit","306","599187","0.0-267.0-0.0","72005099","wem/bandit_either_3","A2ZDNV3621BH6A","either","1","58","","","","","","","0","0","1","0.1777599287","","0.4","0.2","0.6","0.8","","","","","0.2396571279","0.7736041865","0.606091252","0.1777599287","","","","","","","","76","L","3","","","227","main_expt",""
"","bandit","307","600710","0.0-268.0-0.0","72005099","wem/bandit_either_3","A2ZDNV3621BH6A","either","1","1","","","","","","","0","0","1","","0.3430446928","0.4","0.2","0.6","0.8","0.3430446928","0.8094350608","0.5834203199","0.2866543064","","","","","","","","","","","","72","H","0","img/none_selected.jpg","","228","main_expt",""
"","bandit","308","602378","0.0-269.0-0.0","72005099","wem/bandit_either_3","A2ZDNV3621BH6A","either","1","143","","","","","","","0","1","0","","0.8078722129","0.4","0.2","0.6","0.8","0.2886233194","0.8078722129","0.5466214007","0.3948293382","","","","","","","","","","","","74","J","1","","","229","main_expt",""
"","bandit","309","603975","0.0-270.0-0.0","72005099","wem/bandit_either_3","A2ZDNV3621BH6A","either","1","68","","","","","","","0","1","0","","0.7719043616","0.4","0.2","0.6","0.8","0.3213731463","0.7719043616","0.5519014059","0.3291786684","","","","","","","","","","","","74","J","1","","","230","main_expt",""
"","bandit","310","605634","0.0-271.0-0.0","72005099","wem/bandit_either_3","A2ZDNV3621BH6A","either","1","132","","","","","","","0","0","1","0.4527164215","","0.4","0.2","0.6","0.8","","","","","0.2771614906","0.8049264475","0.4527164215","0.2378236032","","","","","","","","75","K","2","","","231","main_expt",""
"","bandit","311","607316","0.0-272.0-0.0","72005099","wem/bandit_either_3","A2ZDNV3621BH6A","either","1","157","","","","","","","0","0","1","0.246393804","","0.4","0.2","0.6","0.8","","","","","0.2249105956","0.8850589997","0.5135082398","0.246393804","","","","","","","","76","L","3","","","232","main_expt",""
"","bandit","312","609202","0.0-273.0-0.0","72005099","wem/bandit_either_3","A2ZDNV3621BH6A","either","1","360","","","","","","","0","0","1","0.2141634692","","0.4","0.2","0.6","0.8","","","","","0.2447973041","0.9183615156","0.5502454751","0.2141634692","","","","","","","","76","L","3","","","233","main_expt",""
"","bandit","313","611020","0.0-274.0-0.0","72005099","wem/bandit_either_3","A2ZDNV3621BH6A","either","1","284","","","","","","","0","0","1","0.2876436191","","0.4","0.2","0.6","0.8","","","","","0.24601643","0.9639410842","0.3783923662","0.2876436191","","","","","","","","76","L","3","","","234","main_expt",""
"","bandit","314","613052","0.0-275.0-0.0","72005099","wem/bandit_either_3","A2ZDNV3621BH6A","either","1","503","","","","","","","0","0","1","","0.2769077257","0.4","0.2","0.6","0.8","0.1629844561","0.9697187448","0.2814299379","0.2769077257","","","","","","","","","","","","76","L","3","","","235","main_expt",""
"","bandit","315","614859","0.0-276.0-0.0","72005099","wem/bandit_either_3","A2ZDNV3621BH6A","either","1","280","","","","","","","0","0","1","0.136865198","","0.4","0.2","0.6","0.8","","","","","0.1929455839","0.9571573523","0.3106100538","0.136865198","","","","","","","","76","L","3","","","236","main_expt",""
"","bandit","316","616633","0.0-277.0-0.0","72005099","wem/bandit_either_3","A2ZDNV3621BH6A","either","1","243","","","","","","","0","0","1","0.1123790732","","0.4","0.2","0.6","0.8","","","","","0.1497712966","0.9170696074","0.3152445528","0.1123790732","","","","","","","","76","L","3","","","237","main_expt",""
"","bandit","317","618420","0.0-278.0-0.0","72005099","wem/bandit_either_3","A2ZDNV3621BH6A","either","1","261","","","","","","","0","0","1","0.09027024906","","0.4","0.2","0.6","0.8","","","","","0.1526491196","0.9207491077","0.2637175197","0.09027024906","","","","","","","","76","L","3","","","238","main_expt",""
"","bandit","318","620092","0.0-279.0-0.0","72005099","wem/bandit_either_3","A2ZDNV3621BH6A","either","1","145","","","","","","","0","0","1","0.08323179304","","0.4","0.2","0.6","0.8","","","","","0.1745924244","0.9211301165","0.1889878372","0.08323179304","","","","","","","","76","L","3","","","239","main_expt",""
"","bandit","319","622133","0.0-280.0-0.0","72005099","wem/bandit_either_3","A2ZDNV3621BH6A","either","1","514","","","","","","","0","0","1","0.08130265934","","0.4","0.2","0.6","0.8","","","","","0.1159399908","0.8992774771","0.1710885746","0.08130265934","","","","","","","","76","L","3","","","240","main_expt",""
"","bandit","320","623866","0.0-281.0-0.0","72005099","wem/bandit_either_3","A2ZDNV3621BH6A","either","1","210","","","","","","","0","0","1","0.1424736114","","0.4","0.2","0.6","0.8","","","","","0.1682101231","0.8977441673","0.1232632504","0.1424736114","","","","","","","","76","L","3","","","241","main_expt",""
"","bandit","321","625405","0.0-282.0-0.0","72005099","wem/bandit_either_3","A2ZDNV3621BH6A","either","1","13","","","","","","","0","0","1","","0.210295675","0.4","0.2","0.6","0.8","0.1643169396","0.853076495","0.210295675","0.2433221762","","","","","","","","","","","","75","K","2","","","242","main_expt",""
"","bandit","322","627316","0.0-283.0-0.0","72005099","wem/bandit_either_3","A2ZDNV3621BH6A","either","1","377","","","","","","","0","0","1","0.3185073654","","0.4","0.2","0.6","0.8","","","","","0.1355776028","0.8942427246","0.289349801","0.3185073654","","","","","","","","76","L","3","","","243","main_expt",""
"","bandit","323","629019","0.0-284.0-0.0","72005099","wem/bandit_either_3","A2ZDNV3621BH6A","either","1","178","","","","","","","0","0","1","","0.3533170098","0.4","0.2","0.6","0.8","0.1311829495","0.8701402288","0.4071614743","0.3533170098","","","","","","","","","","","","76","L","3","","","244","main_expt",""
"","bandit","324","631437","0.0-285.0-0.0","72005099","wem/bandit_either_3","A2ZDNV3621BH6A","either","1","892","","","","","","","0","0","1","0.3482220419","","0.4","0.2","0.6","0.8","","","","","0.1273238","0.8552475109","0.453462755","0.3482220419","","","","","","","","76","L","3","","","245","main_expt",""
"","bandit","325","633169","0.0-286.0-0.0","72005099","wem/bandit_either_3","A2ZDNV3621BH6A","either","1","204","","","","","","","0","0","1","0.3016988832","","0.4","0.2","0.6","0.8","","","","","0.1321090015","0.9191842349","0.4717344544","0.3016988832","","","","","","","","76","L","3","","","246","main_expt",""
"","bandit","326","634760","0.0-287.0-0.0","72005099","wem/bandit_either_3","A2ZDNV3621BH6A","either","1","62","","","","","","","1","0","0","0.3955710819","","0.4","0.2","0.6","0.8","","","","","0.08557432637","0.8742447582","0.389453332","0.3955710819","","","","","","","","76","L","3","","","247","main_expt",""
