"consent","trial_type","trial_index","time_elapsed","internal_node_id","subjID","study","MID","cond","drift","rt","responses","key_press","expt_phase","like","value","connected","gems","bombs","no_reward","GemPrChosen","BombPrChosen","GainOverPainPr_0","GainOverPainPr_1","GainOverPainPr_2","GainOverPainPr_3","LosePr_0","LosePr_1","LosePr_2","LosePr_3","WinPr_0","WinPr_1","WinPr_2","WinPr_3","Q0","Q1","Q2","gender","age","ethnicity","target","respCharCode","respKey","respChoiceNum","respChoice","practice","trial_counter","trial_label","button_pressed"
"INL_behavioral_consent_30min_online.html","consent","0","8087","0.0-0.0","72112420","wem/bandit_either_3","A3VP27UUQ34OXK","either","8","","","","","","","","","","","","","","","","","","","","","","","","","","","","","","","","","","","","","","",""
"","survey-text","1","15120","0.0-1.0","72112420","wem/bandit_either_3","A3VP27UUQ34OXK","either","8","6007","{""Q0"":""A3VP27UUQ34OXK""}","","","","","","","","","","","","","","","","","","","","","","","","","","","","","","","","","","","","",""
"","text","2","27514","0.0-2.0","72112420","wem/bandit_either_3","A3VP27UUQ34OXK","either","8","11371","","32","","","","","","","","","","","","","","","","","","","","","","","","","","","","","","","","","","","",""
"","text","3","43572","0.0-3.0","72112420","wem/bandit_either_3","A3VP27UUQ34OXK","either","8","16052","","32","","","","","","","","","","","","","","","","","","","","","","","","","","","","","","","","","","","",""
"","text","4","100480","0.0-4.0","72112420","wem/bandit_either_3","A3VP27UUQ34OXK","either","8","56901","","32","","","","","","","","","","","","","","","","","","","","","","","","","","","","","","","","","","","",""
"","text","5","127249","0.0-5.0","72112420","wem/bandit_either_3","A3VP27UUQ34OXK","either","8","26758","","32","","","","","","","","","","","","","","","","","","","","","","","","","","","","","","","","","","","",""
"","text","6","150353","0.0-6.0","72112420","wem/bandit_either_3","A3VP27UUQ34OXK","either","8","23092","","32","","","","","","","","","","","","","","","","","","","","","","","","","","","","","","","","","","","",""
"","text","7","161365","0.0-7.0","72112420","wem/bandit_either_3","A3VP27UUQ34OXK","either","8","11003","","32","","","","","","","","","","","","","","","","","","","","","","","","","","","","","","","","","","","",""
"","text","8","167437","0.0-8.0","72112420","wem/bandit_either_3","A3VP27UUQ34OXK","either","8","6066","","32","","","","","","","","","","","","","","","","","","","","","","","","","","","","","","","","","","","",""
"","identification","9","180614","0.0-9.0-0.0","72112420","wem/bandit_either_3","A3VP27UUQ34OXK","either","8","13117","","","","1","1","1","","","","","","","","","","","","","","","","","","","","","","","","the village of Zur","","","","","","","",""
"","identification","10","189910","0.0-9.0-1.0","72112420","wem/bandit_either_3","A3VP27UUQ34OXK","either","8","8251","","","","3","3","3","","","","","","","","","","","","","","","","","","","","","","","","the village of Nyx","","","","","","","",""
"","text","11","198446","0.0-10.0","72112420","wem/bandit_either_3","A3VP27UUQ34OXK","either","8","7525","","32","","","","","","","","","","","","","","","","","","","","","","","","","","","","","","","","","","","",""
"","text","12","202760","0.0-11.0","72112420","wem/bandit_either_3","A3VP27UUQ34OXK","either","8","4305","","32","","","","","","","","","","","","","","","","","","","","","","","","","","","","","","","","","","","",""
"","text","13","205708","0.0-12.0","72112420","wem/bandit_either_3","A3VP27UUQ34OXK","either","8","2937","","32","","","","","","","","","","","","","","","","","","","","","","","","","","","","","","","","","","","",""
"","text","14","211588","0.0-13.0","72112420","wem/bandit_either_3","A3VP27UUQ34OXK","either","8","5871","","32","","","","","","","","","","","","","","","","","","","","","","","","","","","","","","","","","","","",""
"","bandit","15","216638","0.0-14.0-0.0","72112420","wem/bandit_either_3","A3VP27UUQ34OXK","either","8","3522","","","","","","","0","0","1","0","0","","","","","0","","","","0","","","","","","","","","","","74","J","0","img/none_selected_demo.jpg","true","0","",""
"","bandit","16","219408","0.0-15.0-0.0","72112420","wem/bandit_either_3","A3VP27UUQ34OXK","either","8","1229","","","","","","","0","0","1","0","0","","","","","0","","","","0","","","","","","","","","","","75","K","0","img/none_selected_demo.jpg","true","0","",""
"","text","17","240010","0.0-16.0","72112420","wem/bandit_either_3","A3VP27UUQ34OXK","either","8","20592","","32","","","","","","","","","","","","","","","","","","","","","","","","","","","","","","","","","","","",""
"","text","18","252545","0.0-17.0","72112420","wem/bandit_either_3","A3VP27UUQ34OXK","either","8","12522","","32","","","","","","","","","","","","","","","","","","","","","","","","","","","","","","","","","","","",""
"","text","19","272001","0.0-18.0","72112420","wem/bandit_either_3","A3VP27UUQ34OXK","either","8","19446","","32","","","","","","","","","","","","","","","","","","","","","","","","","","","","","","","","","","","",""
"","text","20","275528","0.0-19.0","72112420","wem/bandit_either_3","A3VP27UUQ34OXK","either","8","3519","","32","","","","","","","","","","","","","","","","","","","","","","","","","","","","","","","","","","","",""
"","bandit","21","279523","0.0-20.0-0.0","72112420","wem/bandit_either_3","A3VP27UUQ34OXK","either","8","2477","","","","","","","0","1","0","","0.8","0.5","0.5","","","0.8","0.2","","","","","","","","","","","","","","74","J","0","img/none_selected_demo.jpg","true","0","80_20_practice",""
"","bandit","22","282681","0.0-20.0-1.0","72112420","wem/bandit_either_3","A3VP27UUQ34OXK","either","8","1626","","","","","","","0","0","1","0.2","","0.5","0.5","","","","","","","0.8","0.2","","","","","","","","","","75","K","1","","true","0","80_20_practice",""
"","bandit","23","285608","0.0-20.0-2.0","72112420","wem/bandit_either_3","A3VP27UUQ34OXK","either","8","1398","","","","","","","0","0","1","0.2","","0.5","0.5","","","","","","","0.8","0.2","","","","","","","","","","75","K","1","","true","0","80_20_practice",""
"","bandit","24","287813","0.0-20.0-3.0","72112420","wem/bandit_either_3","A3VP27UUQ34OXK","either","8","681","","","","","","","0","1","0","","0.8","0.5","0.5","","","0.8","0.2","","","","","","","","","","","","","","74","J","0","img/none_selected_demo.jpg","true","0","80_20_practice",""
"","bandit","25","289985","0.0-20.0-4.0","72112420","wem/bandit_either_3","A3VP27UUQ34OXK","either","8","643","","","","","","","0","1","0","","0.8","0.5","0.5","","","0.8","0.2","","","","","","","","","","","","","","74","J","0","img/none_selected_demo.jpg","true","0","80_20_practice",""
"","bandit","26","291938","0.0-20.0-5.0","72112420","wem/bandit_either_3","A3VP27UUQ34OXK","either","8","435","","","","","","","0","0","1","","0.2","0.5","0.5","","","0.8","0.2","","","","","","","","","","","","","","75","K","1","","true","0","80_20_practice",""
"","bandit","27","297565","0.0-20.0-6.0","72112420","wem/bandit_either_3","A3VP27UUQ34OXK","either","8","4097","","","","","","","0","0","1","","0.2","0.5","0.5","","","0.8","0.2","","","","","","","","","","","","","","75","K","1","","true","0","80_20_practice",""
"","bandit","28","299449","0.0-20.0-7.0","72112420","wem/bandit_either_3","A3VP27UUQ34OXK","either","8","358","","","","","","","1","0","0","0.2","","0.5","0.5","","","","","","","0.8","0.2","","","","","","","","","","75","K","1","","true","0","80_20_practice",""
"","bandit","29","301829","0.0-20.0-8.0","72112420","wem/bandit_either_3","A3VP27UUQ34OXK","either","8","840","","","","","","","0","0","1","0.2","","0.5","0.5","","","","","","","0.8","0.2","","","","","","","","","","75","K","1","","true","0","80_20_practice",""
"","bandit","30","304245","0.0-20.0-9.0","72112420","wem/bandit_either_3","A3VP27UUQ34OXK","either","8","882","","","","","","","1","0","0","0.2","","0.5","0.5","","","","","","","0.8","0.2","","","","","","","","","","75","K","1","","true","0","80_20_practice",""
"","bandit","31","306415","0.0-20.0-10.0","72112420","wem/bandit_either_3","A3VP27UUQ34OXK","either","8","637","","","","","","","0","0","1","0.2","","0.5","0.5","","","","","","","0.8","0.2","","","","","","","","","","75","K","1","","true","0","80_20_practice",""
"","bandit","32","311808","0.0-20.0-11.0","72112420","wem/bandit_either_3","A3VP27UUQ34OXK","either","8","3868","","","","","","","0","1","0","","0.8","0.5","0.5","","","0.8","0.2","","","","","","","","","","","","","","74","J","0","img/none_selected_demo.jpg","true","0","80_20_practice",""
"","bandit","33","314101","0.0-20.0-12.0","72112420","wem/bandit_either_3","A3VP27UUQ34OXK","either","8","761","","","","","","","0","1","0","","0.8","0.5","0.5","","","0.8","0.2","","","","","","","","","","","","","","74","J","0","img/none_selected_demo.jpg","true","0","80_20_practice",""
"","bandit","34","316119","0.0-20.0-13.0","72112420","wem/bandit_either_3","A3VP27UUQ34OXK","either","8","485","","","","","","","1","0","0","0.8","","0.5","0.5","","","","","","","0.8","0.2","","","","","","","","","","74","J","0","img/none_selected_demo.jpg","true","0","80_20_practice",""
"","bandit","35","318334","0.0-20.0-14.0","72112420","wem/bandit_either_3","A3VP27UUQ34OXK","either","8","691","","","","","","","1","0","0","0.8","","0.5","0.5","","","","","","","0.8","0.2","","","","","","","","","","74","J","0","img/none_selected_demo.jpg","true","0","80_20_practice",""
"","bandit","36","320291","0.0-20.0-15.0","72112420","wem/bandit_either_3","A3VP27UUQ34OXK","either","8","430","","","","","","","0","1","0","","0.8","0.5","0.5","","","0.8","0.2","","","","","","","","","","","","","","74","J","0","img/none_selected_demo.jpg","true","0","80_20_practice",""
"","bandit","37","322169","0.0-20.0-16.0","72112420","wem/bandit_either_3","A3VP27UUQ34OXK","either","8","352","","","","","","","1","0","0","0.8","","0.5","0.5","","","","","","","0.8","0.2","","","","","","","","","","74","J","0","img/none_selected_demo.jpg","true","0","80_20_practice",""
"","bandit","38","323975","0.0-20.0-17.0","72112420","wem/bandit_either_3","A3VP27UUQ34OXK","either","8","263","","","","","","","0","1","0","","0.8","0.5","0.5","","","0.8","0.2","","","","","","","","","","","","","","74","J","0","img/none_selected_demo.jpg","true","0","80_20_practice",""
"","bandit","39","326042","0.0-20.0-18.0","72112420","wem/bandit_either_3","A3VP27UUQ34OXK","either","8","532","","","","","","","0","0","1","","0.2","0.5","0.5","","","0.8","0.2","","","","","","","","","","","","","","75","K","1","","true","0","80_20_practice",""
"","bandit","40","327943","0.0-20.0-19.0","72112420","wem/bandit_either_3","A3VP27UUQ34OXK","either","8","357","","","","","","","0","0","1","","0.2","0.5","0.5","","","0.8","0.2","","","","","","","","","","","","","","75","K","1","","true","0","80_20_practice",""
"","text","41","332729","0.0-21.0","72112420","wem/bandit_either_3","A3VP27UUQ34OXK","either","8","4777","","32","","","","","","","","","","","","","","","","","","","","","","","","","","","","","","","","","","","",""
"","bandit","42","335723","0.0-22.0-0.0","72112420","wem/bandit_either_3","A3VP27UUQ34OXK","either","8","1440","","","","","","","1","0","0","1","0","","","","","0","1","","","1","0","","","","","","","","","","74","J","0","img/none_selected_demo.jpg","true","0","",""
"","text","43","341068","0.0-23.0","72112420","wem/bandit_either_3","A3VP27UUQ34OXK","either","8","5334","","32","","","","","","","","","","","","","","","","","","","","","","","","","","","","","","","","","","","",""
"","text","44","345631","0.0-24.0","72112420","wem/bandit_either_3","A3VP27UUQ34OXK","either","8","4555","","32","","","","","","","","","","","","","","","","","","","","","","","","","","","","","","","","","","","",""
"","text","45","349858","0.0-25.0","72112420","wem/bandit_either_3","A3VP27UUQ34OXK","either","8","4210","","32","","","","","","","","","","","","","","","","","","","","","","","","","","","","","","","","","","","",""
"","text","46","353889","0.0-26.0","72112420","wem/bandit_either_3","A3VP27UUQ34OXK","either","8","4012","","32","","","","","","","","","","","","","","","","","","","","","","","","","","","","","","","","","","","",""
"","text","47","367777","0.0-27.0","72112420","wem/bandit_either_3","A3VP27UUQ34OXK","either","8","13872","","32","","","","","","","","","","","","","","","","","","","","","","","","","","","","","","","","","","","",""
"","text","48","372697","0.0-28.0","72112420","wem/bandit_either_3","A3VP27UUQ34OXK","either","8","4902","","32","","","","","","","","","","","","","","","","","","","","","","","","","","","","","","","","","","","",""
"","text","49","377397","0.0-29.0","72112420","wem/bandit_either_3","A3VP27UUQ34OXK","either","8","4686","","32","","","","","","","","","","","","","","","","","","","","","","","","","","","","","","","","","","","",""
"","text","50","381468","0.0-30.0","72112420","wem/bandit_either_3","A3VP27UUQ34OXK","either","8","4062","","32","","","","","","","","","","","","","","","","","","","","","","","","","","","","","","","","","","","",""
"","text","51","387642","0.0-31.0","72112420","wem/bandit_either_3","A3VP27UUQ34OXK","either","8","6168","","32","","","","","","","","","","","","","","","","","","","","","","","","","","","","","","","","","","","",""
"","text","52","390413","0.0-32.0","72112420","wem/bandit_either_3","A3VP27UUQ34OXK","either","8","2768","","32","","","","","","","","","","","","","","","","","","","","","","","","","","","","","","","","","","","",""
"","text","53","399388","0.0-33.0","72112420","wem/bandit_either_3","A3VP27UUQ34OXK","either","8","8969","","32","","","","","","","","","","","","","","","","","","","","","","","","","","","","","","","","","","","",""
"","bandit","54","401740","0.0-34.0-0.0","72112420","wem/bandit_either_3","A3VP27UUQ34OXK","either","8","815","","","","","","","0","0","1","","0.8","0.5","0.5","0.5","0.5","0.8","0.2","0.6","0.2","","","","","","","","","","","","72","H","0","img/none_selected.jpg","true","0","full_practice",""
"","bandit","55","403801","0.0-34.0-1.0","72112420","wem/bandit_either_3","A3VP27UUQ34OXK","either","8","511","","","","","","","1","0","0","0.8","","0.5","0.5","0.5","0.5","","","","","0.8","0.2","0.6","0.2","","","","","","","","72","H","0","img/none_selected.jpg","true","0","full_practice",""
"","bandit","56","405760","0.0-34.0-2.0","72112420","wem/bandit_either_3","A3VP27UUQ34OXK","either","8","419","","","","","","","1","0","0","0.8","","0.5","0.5","0.5","0.5","","","","","0.8","0.2","0.6","0.2","","","","","","","","72","H","0","img/none_selected.jpg","true","0","full_practice",""
"","bandit","57","407748","0.0-34.0-3.0","72112420","wem/bandit_either_3","A3VP27UUQ34OXK","either","8","444","","","","","","","0","1","0","","0.8","0.5","0.5","0.5","0.5","0.8","0.2","0.6","0.2","","","","","","","","","","","","72","H","0","img/none_selected.jpg","true","0","full_practice",""
"","bandit","58","409787","0.0-34.0-4.0","72112420","wem/bandit_either_3","A3VP27UUQ34OXK","either","8","507","","","","","","","0","1","0","","0.8","0.5","0.5","0.5","0.5","0.8","0.2","0.6","0.2","","","","","","","","","","","","72","H","0","img/none_selected.jpg","true","0","full_practice",""
"","bandit","59","412083","0.0-34.0-5.0","72112420","wem/bandit_either_3","A3VP27UUQ34OXK","either","8","761","","","","","","","0","1","0","","0.8","0.5","0.5","0.5","0.5","0.8","0.2","0.6","0.2","","","","","","","","","","","","72","H","0","img/none_selected.jpg","true","0","full_practice",""
"","bandit","60","414019","0.0-34.0-6.0","72112420","wem/bandit_either_3","A3VP27UUQ34OXK","either","8","392","","","","","","","0","0","1","","0.2","0.5","0.5","0.5","0.5","0.8","0.2","0.6","0.2","","","","","","","","","","","","74","J","1","","true","0","full_practice",""
"","bandit","61","415882","0.0-34.0-7.0","72112420","wem/bandit_either_3","A3VP27UUQ34OXK","either","8","322","","","","","","","0","0","1","0.2","","0.5","0.5","0.5","0.5","","","","","0.8","0.2","0.6","0.2","","","","","","","","74","J","1","","true","0","full_practice",""
"","bandit","62","417792","0.0-34.0-8.0","72112420","wem/bandit_either_3","A3VP27UUQ34OXK","either","8","372","","","","","","","0","0","1","0.2","","0.5","0.5","0.5","0.5","","","","","0.8","0.2","0.6","0.2","","","","","","","","74","J","1","","true","0","full_practice",""
"","bandit","63","419524","0.0-34.0-9.0","72112420","wem/bandit_either_3","A3VP27UUQ34OXK","either","8","207","","","","","","","0","0","1","0.2","","0.5","0.5","0.5","0.5","","","","","0.8","0.2","0.6","0.2","","","","","","","","74","J","1","","true","0","full_practice",""
"","bandit","64","421415","0.0-34.0-10.0","72112420","wem/bandit_either_3","A3VP27UUQ34OXK","either","8","324","","","","","","","0","0","1","0.6","","0.5","0.5","0.5","0.5","","","","","0.8","0.2","0.6","0.2","","","","","","","","75","K","2","","true","0","full_practice",""
"","bandit","65","423300","0.0-34.0-11.0","72112420","wem/bandit_either_3","A3VP27UUQ34OXK","either","8","329","","","","","","","0","0","1","","0.6","0.5","0.5","0.5","0.5","0.8","0.2","0.6","0.2","","","","","","","","","","","","75","K","2","","true","0","full_practice",""
"","bandit","66","425163","0.0-34.0-12.0","72112420","wem/bandit_either_3","A3VP27UUQ34OXK","either","8","323","","","","","","","1","0","0","0.6","","0.5","0.5","0.5","0.5","","","","","0.8","0.2","0.6","0.2","","","","","","","","75","K","2","","true","0","full_practice",""
"","bandit","67","427051","0.0-34.0-13.0","72112420","wem/bandit_either_3","A3VP27UUQ34OXK","either","8","352","","","","","","","0","1","0","","0.6","0.5","0.5","0.5","0.5","0.8","0.2","0.6","0.2","","","","","","","","","","","","75","K","2","","true","0","full_practice",""
"","bandit","68","429930","0.0-34.0-14.0","72112420","wem/bandit_either_3","A3VP27UUQ34OXK","either","8","1286","","","","","","","1","0","0","0.6","","0.5","0.5","0.5","0.5","","","","","0.8","0.2","0.6","0.2","","","","","","","","75","K","2","","true","0","full_practice",""
"","bandit","69","431868","0.0-34.0-15.0","72112420","wem/bandit_either_3","A3VP27UUQ34OXK","either","8","395","","","","","","","1","0","0","0.6","","0.5","0.5","0.5","0.5","","","","","0.8","0.2","0.6","0.2","","","","","","","","75","K","2","","true","0","full_practice",""
"","bandit","70","433881","0.0-34.0-16.0","72112420","wem/bandit_either_3","A3VP27UUQ34OXK","either","8","467","","","","","","","1","0","0","0.2","","0.5","0.5","0.5","0.5","","","","","0.8","0.2","0.6","0.2","","","","","","","","76","L","3","","true","0","full_practice",""
"","bandit","71","435822","0.0-34.0-17.0","72112420","wem/bandit_either_3","A3VP27UUQ34OXK","either","8","395","","","","","","","0","0","1","0.2","","0.5","0.5","0.5","0.5","","","","","0.8","0.2","0.6","0.2","","","","","","","","76","L","3","","true","0","full_practice",""
"","bandit","72","437696","0.0-34.0-18.0","72112420","wem/bandit_either_3","A3VP27UUQ34OXK","either","8","327","","","","","","","1","0","0","0.2","","0.5","0.5","0.5","0.5","","","","","0.8","0.2","0.6","0.2","","","","","","","","76","L","3","","true","0","full_practice",""
"","bandit","73","439621","0.0-34.0-19.0","72112420","wem/bandit_either_3","A3VP27UUQ34OXK","either","8","381","","","","","","","0","0","1","","0.2","0.5","0.5","0.5","0.5","0.8","0.2","0.6","0.2","","","","","","","","","","","","76","L","3","","true","0","full_practice",""
"","text","74","444548","0.0-35.0","72112420","wem/bandit_either_3","A3VP27UUQ34OXK","either","8","4910","","32","","","","","","","","","","","","","","","","","","","","","","","","","","","","","","","","","","","",""
"","text","75","464492","0.0-36.0","72112420","wem/bandit_either_3","A3VP27UUQ34OXK","either","8","18931","","32","","","","","","","","","","","","","","","","","","","","","","","","","","","","","","","","","","","",""
"","text","76","480386","0.0-37.0","72112420","wem/bandit_either_3","A3VP27UUQ34OXK","either","8","15879","","32","","","","","","","","","","","","","","","","","","","","","","","","","","","","","","","","","","","",""
"","text","77","487561","0.0-38.0","72112420","wem/bandit_either_3","A3VP27UUQ34OXK","either","8","7154","","32","","","","","","","","","","","","","","","","","","","","","","","","","","","","","","","","","","","",""
"","text","78","493825","0.0-39.0","72112420","wem/bandit_either_3","A3VP27UUQ34OXK","either","8","6243","","32","","","","","","","","","","","","","","","","","","","","","","","","","","","","","","","","","","","",""
"","text","79","502343","0.0-40.0","72112420","wem/bandit_either_3","A3VP27UUQ34OXK","either","8","8501","","32","","","","","","","","","","","","","","","","","","","","","","","","","","","","","","","","","","","",""
"","bandit","80","505120","0.0-41.0-0.0","72112420","wem/bandit_either_3","A3VP27UUQ34OXK","either","8","1229","","","","","","","0","1","0","","0.6337563202","0.6","0.8","0.4","0.2","0.6337563202","0.3040937467","0.2428949588","0.4468950172","","","","","","","","","","","","72","H","0","img/none_selected.jpg","","1","main_expt",""
"","bandit","81","507210","0.0-42.0-0.0","72112420","wem/bandit_either_3","A3VP27UUQ34OXK","either","8","558","","","","","","","1","0","0","0.7380673114","","0.6","0.8","0.4","0.2","","","","","0.7380673114","0.2687625136","0.248961424","0.3846124694","","","","","","","","72","H","0","img/none_selected.jpg","","2","main_expt",""
"","bandit","82","509236","0.0-43.0-0.0","72112420","wem/bandit_either_3","A3VP27UUQ34OXK","either","8","491","","","","","","","0","1","0","","0.7715549737","0.6","0.8","0.4","0.2","0.7715549737","0.3017919557","0.1878604038","0.3885967974","","","","","","","","","","","","72","H","0","img/none_selected.jpg","","3","main_expt",""
"","bandit","83","511274","0.0-44.0-0.0","72112420","wem/bandit_either_3","A3VP27UUQ34OXK","either","8","501","","","","","","","0","1","0","","0.8257013646","0.6","0.8","0.4","0.2","0.8257013646","0.3388517529","0.1194049449","0.2891644394","","","","","","","","","","","","72","H","0","img/none_selected.jpg","","4","main_expt",""
"","bandit","84","513250","0.0-45.0-0.0","72112420","wem/bandit_either_3","A3VP27UUQ34OXK","either","8","447","","","","","","","1","0","0","0.8617886559","","0.6","0.8","0.4","0.2","","","","","0.8617886559","0.389096829","0.197046458","0.2654579937","","","","","","","","72","H","0","img/none_selected.jpg","","5","main_expt",""
"","bandit","85","515185","0.0-46.0-0.0","72112420","wem/bandit_either_3","A3VP27UUQ34OXK","either","8","405","","","","","","","0","1","0","","0.8452125903","0.6","0.8","0.4","0.2","0.8452125903","0.4799636182","0.2312720201","0.355160999","","","","","","","","","","","","72","H","0","img/none_selected.jpg","","6","main_expt",""
"","bandit","86","517232","0.0-47.0-0.0","72112420","wem/bandit_either_3","A3VP27UUQ34OXK","either","8","511","","","","","","","1","0","0","0.8765288384","","0.6","0.8","0.4","0.2","","","","","0.8765288384","0.5316557606","0.3255591742","0.4733904832","","","","","","","","72","H","0","img/none_selected.jpg","","7","main_expt",""
"","bandit","87","519394","0.0-48.0-0.0","72112420","wem/bandit_either_3","A3VP27UUQ34OXK","either","8","633","","","","","","","0","1","0","","0.8625068071","0.6","0.8","0.4","0.2","0.8625068071","0.4935712437","0.163151729","0.4900136729","","","","","","","","","","","","72","H","0","img/none_selected.jpg","","8","main_expt",""
"","bandit","88","521452","0.0-49.0-0.0","72112420","wem/bandit_either_3","A3VP27UUQ34OXK","either","8","515","","","","","","","0","1","0","","0.8385781597","0.6","0.8","0.4","0.2","0.8385781597","0.5400450001","0.1671639775","0.4543552171","","","","","","","","","","","","72","H","0","img/none_selected.jpg","","9","main_expt",""
"","bandit","89","523367","0.0-50.0-0.0","72112420","wem/bandit_either_3","A3VP27UUQ34OXK","either","8","380","","","","","","","0","0","1","0.833356221","","0.6","0.8","0.4","0.2","","","","","0.833356221","0.6510952772","0.1315225434","0.4523920981","","","","","","","","72","H","0","img/none_selected.jpg","","10","main_expt",""
"","bandit","90","525303","0.0-51.0-0.0","72112420","wem/bandit_either_3","A3VP27UUQ34OXK","either","8","398","","","","","","","0","0","1","","0.4053083118","0.6","0.8","0.4","0.2","0.9030756702","0.6117649901","0.1287002637","0.4053083118","","","","","","","","","","","","76","L","3","","","11","main_expt",""
"","bandit","91","527302","0.0-52.0-0.0","72112420","wem/bandit_either_3","A3VP27UUQ34OXK","either","8","457","","","","","","","0","0","1","","0.1026596936","0.6","0.8","0.4","0.2","0.9129290363","0.6360746298","0.1026596936","0.4059907931","","","","","","","","","","","","75","K","2","","","12","main_expt",""
"","bandit","92","529242","0.0-53.0-0.0","72112420","wem/bandit_either_3","A3VP27UUQ34OXK","either","8","416","","","","","","","0","0","1","","0.5673960652","0.6","0.8","0.4","0.2","0.8638417716","0.5673960652","0.1287514256","0.2934167972","","","","","","","","","","","","74","J","1","","","13","main_expt",""
"","bandit","93","531194","0.0-54.0-0.0","72112420","wem/bandit_either_3","A3VP27UUQ34OXK","either","8","423","","","","","","","0","1","0","","0.787806988","0.6","0.8","0.4","0.2","0.787806988","0.6747725803","0.1786171179","0.3260927596","","","","","","","","","","","","72","H","0","img/none_selected.jpg","","14","main_expt",""
"","bandit","94","533163","0.0-55.0-0.0","72112420","wem/bandit_either_3","A3VP27UUQ34OXK","either","8","441","","","","","","","0","0","1","0.7254212376","","0.6","0.8","0.4","0.2","","","","","0.7254212376","0.6277188345","0.1459410532","0.3355382734","","","","","","","","72","H","0","img/none_selected.jpg","","15","main_expt",""
"","bandit","95","535242","0.0-56.0-0.0","72112420","wem/bandit_either_3","A3VP27UUQ34OXK","either","8","550","","","","","","","1","0","0","0.7238415528","","0.6","0.8","0.4","0.2","","","","","0.7238415528","0.5435568235","0.2255600906","0.3040928121","","","","","","","","72","H","0","img/none_selected.jpg","","16","main_expt",""
"","bandit","96","537168","0.0-57.0-0.0","72112420","wem/bandit_either_3","A3VP27UUQ34OXK","either","8","399","","","","","","","0","1","0","","0.7796243455","0.6","0.8","0.4","0.2","0.7796243455","0.4180161478","0.2052013943","0.2730366263","","","","","","","","","","","","72","H","0","img/none_selected.jpg","","17","main_expt",""
"","bandit","97","539200","0.0-58.0-0.0","72112420","wem/bandit_either_3","A3VP27UUQ34OXK","either","8","495","","","","","","","1","0","0","0.6928902724","","0.6","0.8","0.4","0.2","","","","","0.6928902724","0.4961111773","0.1780354615","0.4105298721","","","","","","","","72","H","0","img/none_selected.jpg","","18","main_expt",""
"","bandit","98","541110","0.0-59.0-0.0","72112420","wem/bandit_either_3","A3VP27UUQ34OXK","either","8","376","","","","","","","1","0","0","0.7658630901","","0.6","0.8","0.4","0.2","","","","","0.7658630901","0.445530788","0.1576496117","0.3586923344","","","","","","","","72","H","0","img/none_selected.jpg","","19","main_expt",""
"","bandit","99","543236","0.0-60.0-0.0","72112420","wem/bandit_either_3","A3VP27UUQ34OXK","either","8","587","","","","","","","0","0","1","","0.7584200513","0.6","0.8","0.4","0.2","0.7584200513","0.3443163705","0.1618752313","0.3220075653","","","","","","","","","","","","72","H","0","img/none_selected.jpg","","20","main_expt",""
"","bandit","100","545251","0.0-61.0-0.0","72112420","wem/bandit_either_3","A3VP27UUQ34OXK","either","8","465","","","","","","","1","0","0","0.7727038765","","0.6","0.8","0.4","0.2","","","","","0.7727038765","0.3012808647","0.2152187387","0.2729660799","","","","","","","","72","H","0","img/none_selected.jpg","","21","main_expt",""
"","bandit","101","546827","0.0-62.0-0.0","72112420","wem/bandit_either_3","A3VP27UUQ34OXK","either","8","15","","","","","","","0","1","0","","0.8152565923","0.6","0.8","0.4","0.2","0.8152565923","0.2882062485","0.3547982299","0.2712352107","","","","","","","","","","","","72","H","0","img/none_selected.jpg","","22","main_expt",""
"","bandit","102","548682","0.0-63.0-0.0","72112420","wem/bandit_either_3","A3VP27UUQ34OXK","either","8","327","","","","","","","1","0","0","0.7537075358","","0.6","0.8","0.4","0.2","","","","","0.7537075358","0.2113421372","0.323805638","0.3390855774","","","","","","","","72","H","0","img/none_selected.jpg","","23","main_expt",""
"","bandit","103","550578","0.0-64.0-0.0","72112420","wem/bandit_either_3","A3VP27UUQ34OXK","either","8","364","","","","","","","1","0","0","0.7108822858","","0.6","0.8","0.4","0.2","","","","","0.7108822858","0.2201805416","0.3588909826","0.3483259141","","","","","","","","72","H","0","img/none_selected.jpg","","24","main_expt",""
"","bandit","104","552448","0.0-65.0-0.0","72112420","wem/bandit_either_3","A3VP27UUQ34OXK","either","8","332","","","","","","","1","0","0","0.6930515954","","0.6","0.8","0.4","0.2","","","","","0.6930515954","0.2580956466","0.3885553436","0.3416976173","","","","","","","","72","H","0","img/none_selected.jpg","","25","main_expt",""
"","bandit","105","554408","0.0-66.0-0.0","72112420","wem/bandit_either_3","A3VP27UUQ34OXK","either","8","427","","","","","","","0","0","1","","0.6905393417","0.6","0.8","0.4","0.2","0.6905393417","0.2153432854","0.4871556374","0.4243476322","","","","","","","","","","","","72","H","0","img/none_selected.jpg","","26","main_expt",""
"","bandit","106","556276","0.0-67.0-0.0","72112420","wem/bandit_either_3","A3VP27UUQ34OXK","either","8","335","","","","","","","1","0","0","0.7531652131","","0.6","0.8","0.4","0.2","","","","","0.7531652131","0.1727955236","0.4934119911","0.5257754898","","","","","","","","72","H","0","img/none_selected.jpg","","27","main_expt",""
"","bandit","107","558200","0.0-68.0-0.0","72112420","wem/bandit_either_3","A3VP27UUQ34OXK","either","8","389","","","","","","","1","0","0","0.8001777041","","0.6","0.8","0.4","0.2","","","","","0.8001777041","0.1894296703","0.4322092846","0.5246232361","","","","","","","","72","H","0","img/none_selected.jpg","","28","main_expt",""
"","bandit","108","560224","0.0-69.0-0.0","72112420","wem/bandit_either_3","A3VP27UUQ34OXK","either","8","495","","","","","","","0","1","0","","0.8118404327","0.6","0.8","0.4","0.2","0.8118404327","0.2128919211","0.3459113699","0.375994784","","","","","","","","","","","","72","H","0","img/none_selected.jpg","","29","main_expt",""
"","bandit","109","562157","0.0-70.0-0.0","72112420","wem/bandit_either_3","A3VP27UUQ34OXK","either","8","390","","","","","","","1","0","0","0.7839534503","","0.6","0.8","0.4","0.2","","","","","0.7839534503","0.206056468","0.280789843","0.2936890161","","","","","","","","72","H","0","img/none_selected.jpg","","30","main_expt",""
"","bandit","110","563769","0.0-71.0-0.0","72112420","wem/bandit_either_3","A3VP27UUQ34OXK","either","8","62","","","","","","","1","0","0","0.8066372971","","0.6","0.8","0.4","0.2","","","","","0.8066372971","0.1725623241","0.2613810438","0.2878812258","","","","","","","","72","H","0","img/none_selected.jpg","","31","main_expt",""
"","bandit","111","565739","0.0-72.0-0.0","72112420","wem/bandit_either_3","A3VP27UUQ34OXK","either","8","429","","","","","","","0","1","0","","0.8049259064","0.6","0.8","0.4","0.2","0.8049259064","0.1629883914","0.3821585683","0.2451492808","","","","","","","","","","","","72","H","0","img/none_selected.jpg","","32","main_expt",""
"","bandit","112","567777","0.0-73.0-0.0","72112420","wem/bandit_either_3","A3VP27UUQ34OXK","either","8","499","","","","","","","0","1","0","","0.7891664673","0.6","0.8","0.4","0.2","0.7891664673","0.2107911223","0.2714925976","0.2802113289","","","","","","","","","","","","72","H","0","img/none_selected.jpg","","33","main_expt",""
"","bandit","113","569670","0.0-74.0-0.0","72112420","wem/bandit_either_3","A3VP27UUQ34OXK","either","8","363","","","","","","","1","0","0","0.7854278051","","0.6","0.8","0.4","0.2","","","","","0.7854278051","0.1025901997","0.2755575364","0.2892342718","","","","","","","","72","H","0","img/none_selected.jpg","","34","main_expt",""
"","bandit","114","571617","0.0-75.0-0.0","72112420","wem/bandit_either_3","A3VP27UUQ34OXK","either","8","417","","","","","","","0","1","0","","0.7260182018","0.6","0.8","0.4","0.2","0.7260182018","0.1289879153","0.2697856654","0.2486893666","","","","","","","","","","","","72","H","0","img/none_selected.jpg","","35","main_expt",""
"","bandit","115","573574","0.0-76.0-0.0","72112420","wem/bandit_either_3","A3VP27UUQ34OXK","either","8","429","","","","","","","1","0","0","0.7910957192","","0.6","0.8","0.4","0.2","","","","","0.7910957192","0.1645491317","0.2483646443","0.3536408983","","","","","","","","72","H","0","img/none_selected.jpg","","36","main_expt",""
"","bandit","116","575492","0.0-77.0-0.0","72112420","wem/bandit_either_3","A3VP27UUQ34OXK","either","8","383","","","","","","","1","0","0","0.7996551039","","0.6","0.8","0.4","0.2","","","","","0.7996551039","0.1698046746","0.2103950957","0.2493566902","","","","","","","","72","H","0","img/none_selected.jpg","","37","main_expt",""
"","bandit","117","577411","0.0-78.0-0.0","72112420","wem/bandit_either_3","A3VP27UUQ34OXK","either","8","386","","","","","","","0","1","0","","0.6717479894","0.6","0.8","0.4","0.2","0.6717479894","0.2281502886","0.2128944509","0.2948354516","","","","","","","","","","","","72","H","0","img/none_selected.jpg","","38","main_expt",""
"","bandit","118","579410","0.0-79.0-0.0","72112420","wem/bandit_either_3","A3VP27UUQ34OXK","either","8","411","","","","","","","0","1","0","","0.7121128808","0.6","0.8","0.4","0.2","0.7121128808","0.1561271762","0.2965153327","0.3373274679","","","","","","","","","","","","72","H","0","img/none_selected.jpg","","39","main_expt",""
"","bandit","119","581305","0.0-80.0-0.0","72112420","wem/bandit_either_3","A3VP27UUQ34OXK","either","8","371","","","","","","","1","0","0","0.7157410044","","0.6","0.8","0.4","0.2","","","","","0.7157410044","0.1543620621","0.4447532253","0.4138768052","","","","","","","","72","H","0","img/none_selected.jpg","","40","main_expt",""
"","bandit","120","583215","0.0-81.0-0.0","72112420","wem/bandit_either_3","A3VP27UUQ34OXK","either","8","374","","","","","","","1","0","0","0.681196038","","0.6","0.8","0.4","0.2","","","","","0.681196038","0.2271499981","0.5330008696","0.438096834","","","","","","","","72","H","0","img/none_selected.jpg","","41","main_expt",""
"","bandit","121","585153","0.0-82.0-0.0","72112420","wem/bandit_either_3","A3VP27UUQ34OXK","either","8","399","","","","","","","0","1","0","","0.6504320647","0.6","0.8","0.4","0.2","0.6504320647","0.2882452936","0.573861049","0.4185173612","","","","","","","","","","","","72","H","0","img/none_selected.jpg","","42","main_expt",""
"","bandit","122","586977","0.0-83.0-0.0","72112420","wem/bandit_either_3","A3VP27UUQ34OXK","either","8","289","","","","","","","1","0","0","0.7369830744","","0.6","0.8","0.4","0.2","","","","","0.7369830744","0.298522686","0.6654349765","0.3796335567","","","","","","","","72","H","0","img/none_selected.jpg","","43","main_expt",""
"","bandit","123","588970","0.0-84.0-0.0","72112420","wem/bandit_either_3","A3VP27UUQ34OXK","either","8","464","","","","","","","1","0","0","0.3188886026","","0.6","0.8","0.4","0.2","","","","","0.6797935378","0.3188886026","0.691198465","0.31766129","","","","","","","","74","J","1","","","44","main_expt",""
"","bandit","124","591639","0.0-85.0-0.0","72112420","wem/bandit_either_3","A3VP27UUQ34OXK","either","8","1131","","","","","","","0","0","1","0.6507473666","","0.6","0.8","0.4","0.2","","","","","0.6507473666","0.2705760174","0.7652674903","0.4047397141","","","","","","","","72","H","0","img/none_selected.jpg","","45","main_expt",""
"","bandit","125","593654","0.0-86.0-0.0","72112420","wem/bandit_either_3","A3VP27UUQ34OXK","either","8","479","","","","","","","0","1","0","","0.8065230058","0.6","0.8","0.4","0.2","0.6334510787","0.2506880939","0.8065230058","0.4961613307","","","","","","","","","","","","75","K","2","","","46","main_expt",""
"","bandit","126","596166","0.0-87.0-0.0","72112420","wem/bandit_either_3","A3VP27UUQ34OXK","either","8","976","","","","","","","1","0","0","0.2491585872","","0.6","0.8","0.4","0.2","","","","","0.6143175143","0.2491585872","0.7774474893","0.4624468315","","","","","","","","74","J","1","","","47","main_expt",""
"","bandit","127","598251","0.0-88.0-0.0","72112420","wem/bandit_either_3","A3VP27UUQ34OXK","either","8","545","","","","","","","1","0","0","0.4886537242","","0.6","0.8","0.4","0.2","","","","","0.6404512611","0.1997021219","0.7693176975","0.4886537242","","","","","","","","76","L","3","","","48","main_expt",""
"","bandit","128","600218","0.0-89.0-0.0","72112420","wem/bandit_either_3","A3VP27UUQ34OXK","either","8","448","","","","","","","1","0","0","0.807419373","","0.6","0.8","0.4","0.2","","","","","0.6758621215","0.2119577724","0.807419373","0.4270302022","","","","","","","","75","K","2","","","49","main_expt",""
"","bandit","129","602138","0.0-90.0-0.0","72112420","wem/bandit_either_3","A3VP27UUQ34OXK","either","8","388","","","","","","","0","1","0","","0.8562769227","0.6","0.8","0.4","0.2","0.6873234502","0.2615271711","0.8562769227","0.5151345658","","","","","","","","","","","","75","K","2","","","50","main_expt",""
"","bandit","130","604062","0.0-91.0-0.0","72112420","wem/bandit_either_3","A3VP27UUQ34OXK","either","8","388","","","","","","","0","0","1","0.2764427577","","0.6","0.8","0.4","0.2","","","","","0.7776044395","0.2764427577","0.8705114925","0.5134524181","","","","","","","","74","J","1","","","51","main_expt",""
"","bandit","131","605923","0.0-92.0-0.0","72112420","wem/bandit_either_3","A3VP27UUQ34OXK","either","8","335","","","","","","","0","1","0","","0.4842684999","0.6","0.8","0.4","0.2","0.8403410939","0.3833776697","0.9310361031","0.4842684999","","","","","","","","","","","","76","L","3","","","52","main_expt",""
"","bandit","132","607967","0.0-93.0-0.0","72112420","wem/bandit_either_3","A3VP27UUQ34OXK","either","8","507","","","","","","","0","1","0","","0.8151983534","0.6","0.8","0.4","0.2","0.8151983534","0.4356502318","0.905794742","0.4412850773","","","","","","","","","","","","72","H","0","img/none_selected.jpg","","53","main_expt",""
"","bandit","133","609952","0.0-94.0-0.0","72112420","wem/bandit_either_3","A3VP27UUQ34OXK","either","8","455","","","","","","","1","0","0","0.8081222638","","0.6","0.8","0.4","0.2","","","","","0.8081222638","0.4120588364","0.9391541593","0.4397693946","","","","","","","","72","H","0","img/none_selected.jpg","","54","main_expt",""
"","bandit","134","611955","0.0-95.0-0.0","72112420","wem/bandit_either_3","A3VP27UUQ34OXK","either","8","462","","","","","","","0","1","0","","0.742009976","0.6","0.8","0.4","0.2","0.742009976","0.2714296105","0.9596285882","0.3928202278","","","","","","","","","","","","72","H","0","img/none_selected.jpg","","55","main_expt",""
"","bandit","135","613926","0.0-96.0-0.0","72112420","wem/bandit_either_3","A3VP27UUQ34OXK","either","8","331","","","","","","","1","0","0","0.9565658233","","0.6","0.8","0.4","0.2","","","","","0.7065076074","0.2122311877","0.9565658233","0.4593665993","","","","","","","","75","K","2","","","56","main_expt",""
"","bandit","136","616053","0.0-97.0-0.0","72112420","wem/bandit_either_3","A3VP27UUQ34OXK","either","8","589","","","","","","","1","0","0","0.6860695476","","0.6","0.8","0.4","0.2","","","","","0.6860695476","0.2282278588","0.9681540372","0.4006145211","","","","","","","","72","H","0","img/none_selected.jpg","","57","main_expt",""
"","bandit","137","618261","0.0-98.0-0.0","72112420","wem/bandit_either_3","A3VP27UUQ34OXK","either","8","650","","","","","","","0","0","1","0.1392076118","","0.6","0.8","0.4","0.2","","","","","0.742301155","0.1392076118","0.9207083952","0.4597890412","","","","","","","","74","J","1","","","58","main_expt",""
"","bandit","138","620228","0.0-99.0-0.0","72112420","wem/bandit_either_3","A3VP27UUQ34OXK","either","8","416","","","","","","","0","1","0","","0.9178227258","0.6","0.8","0.4","0.2","0.5291004622","0.1706239206","0.9178227258","0.4232266093","","","","","","","","","","","","75","K","2","","","59","main_expt",""
"","bandit","139","622164","0.0-100.0-0.0","72112420","wem/bandit_either_3","A3VP27UUQ34OXK","either","8","398","","","","","","","0","1","0","","0.3565880291","0.6","0.8","0.4","0.2","0.6348838793","0.1674269281","0.8951285427","0.3565880291","","","","","","","","","","","","76","L","3","","","60","main_expt",""
"","bandit","140","624146","0.0-101.0-0.0","72112420","wem/bandit_either_3","A3VP27UUQ34OXK","either","8","414","","","","","","","0","1","0","","0.8506814954","0.6","0.8","0.4","0.2","0.6796423313","0.2182313474","0.8506814954","0.3663276413","","","","","","","","","","","","75","K","2","","","61","main_expt",""
"","bandit","141","626037","0.0-102.0-0.0","72112420","wem/bandit_either_3","A3VP27UUQ34OXK","either","8","356","","","","","","","0","1","0","","0.6928172916","0.6","0.8","0.4","0.2","0.6928172916","0.2949218256","0.8513854559","0.3193005293","","","","","","","","","","","","72","H","0","img/none_selected.jpg","","62","main_expt",""
"","bandit","142","627993","0.0-103.0-0.0","72112420","wem/bandit_either_3","A3VP27UUQ34OXK","either","8","399","","","","","","","0","0","1","","0.6996506825","0.6","0.8","0.4","0.2","0.6996506825","0.3170222383","0.8927579502","0.1562068481","","","","","","","","","","","","72","H","0","img/none_selected.jpg","","63","main_expt",""
"","bandit","143","629960","0.0-104.0-0.0","72112420","wem/bandit_either_3","A3VP27UUQ34OXK","either","8","426","","","","","","","0","0","1","","0.2300477965","0.6","0.8","0.4","0.2","0.7294442249","0.3033511374","0.9217936765","0.2300477965","","","","","","","","","","","","76","L","3","","","64","main_expt",""
"","bandit","144","631940","0.0-105.0-0.0","72112420","wem/bandit_either_3","A3VP27UUQ34OXK","either","8","441","","","","","","","1","0","0","0.9357047413","","0.6","0.8","0.4","0.2","","","","","0.6605354899","0.3973690147","0.9357047413","0.2869838185","","","","","","","","75","K","2","","","65","main_expt",""
"","bandit","145","633900","0.0-106.0-0.0","72112420","wem/bandit_either_3","A3VP27UUQ34OXK","either","8","402","","","","","","","0","0","1","0.910343843","","0.6","0.8","0.4","0.2","","","","","0.6959621059","0.4320294497","0.910343843","0.3287476356","","","","","","","","75","K","2","","","66","main_expt",""
"","bandit","146","635790","0.0-107.0-0.0","72112420","wem/bandit_either_3","A3VP27UUQ34OXK","either","8","347","","","","","","","0","1","0","","0.9022080512","0.6","0.8","0.4","0.2","0.653899752","0.3208465419","0.9022080512","0.3018365728","","","","","","","","","","","","75","K","2","","","67","main_expt",""
"","bandit","147","637707","0.0-108.0-0.0","72112420","wem/bandit_either_3","A3VP27UUQ34OXK","either","8","359","","","","","","","1","0","0","0.8492414063","","0.6","0.8","0.4","0.2","","","","","0.6517851336","0.3570730799","0.8492414063","0.3208616414","","","","","","","","75","K","2","","","68","main_expt",""
"","bandit","148","639739","0.0-109.0-0.0","72112420","wem/bandit_either_3","A3VP27UUQ34OXK","either","8","481","","","","","","","1","0","0","0.768219052","","0.6","0.8","0.4","0.2","","","","","0.7011615004","0.3451514791","0.768219052","0.386863802","","","","","","","","75","K","2","","","69","main_expt",""
"","bandit","149","641755","0.0-110.0-0.0","72112420","wem/bandit_either_3","A3VP27UUQ34OXK","either","8","452","","","","","","","1","0","0","0.7996218848","","0.6","0.8","0.4","0.2","","","","","0.6278947594","0.3127714871","0.7996218848","0.3628244161","","","","","","","","75","K","2","","","70","main_expt",""
"","bandit","150","643769","0.0-111.0-0.0","72112420","wem/bandit_either_3","A3VP27UUQ34OXK","either","8","462","","","","","","","0","1","0","","0.9130189757","0.6","0.8","0.4","0.2","0.688517509","0.3855297895","0.9130189757","0.2969295023","","","","","","","","","","","","75","K","2","","","71","main_expt",""
"","bandit","151","645762","0.0-112.0-0.0","72112420","wem/bandit_either_3","A3VP27UUQ34OXK","either","8","448","","","","","","","1","0","0","0.9016843832","","0.6","0.8","0.4","0.2","","","","","0.6125440106","0.3555010044","0.9016843832","0.3512325323","","","","","","","","75","K","2","","","72","main_expt",""
"","bandit","152","648012","0.0-113.0-0.0","72112420","wem/bandit_either_3","A3VP27UUQ34OXK","either","8","705","","","","","","","0","1","0","","0.9166584401","0.6","0.8","0.4","0.2","0.4884410468","0.3278360739","0.9166584401","0.3845321254","","","","","","","","","","","","75","K","2","","","73","main_expt",""
"","bandit","153","650124","0.0-114.0-0.0","72112420","wem/bandit_either_3","A3VP27UUQ34OXK","either","8","573","","","","","","","1","0","0","0.8699410266","","0.6","0.8","0.4","0.2","","","","","0.5800760741","0.3275161349","0.8699410266","0.3760614253","","","","","","","","75","K","2","","","74","main_expt",""
"","bandit","154","652395","0.0-115.0-0.0","72112420","wem/bandit_either_3","A3VP27UUQ34OXK","either","8","744","","","","","","","1","0","0","0.8192171788","","0.6","0.8","0.4","0.2","","","","","0.6614390465","0.3454333807","0.8192171788","0.370831352","","","","","","","","75","K","2","","","75","main_expt",""
"","bandit","155","654459","0.0-116.0-0.0","72112420","wem/bandit_either_3","A3VP27UUQ34OXK","either","8","537","","","","","","","1","0","0","0.8990587115","","0.6","0.8","0.4","0.2","","","","","0.6861570843","0.4213924804","0.8990587115","0.4008199491","","","","","","","","75","K","2","","","76","main_expt",""
"","bandit","156","656507","0.0-117.0-0.0","72112420","wem/bandit_either_3","A3VP27UUQ34OXK","either","8","505","","","","","","","0","1","0","","0.9062137116","0.6","0.8","0.4","0.2","0.5980737028","0.439510692","0.9062137116","0.3928984844","","","","","","","","","","","","75","K","2","","","77","main_expt",""
"","bandit","157","658598","0.0-118.0-0.0","72112420","wem/bandit_either_3","A3VP27UUQ34OXK","either","8","544","","","","","","","1","0","0","0.9215914722","","0.6","0.8","0.4","0.2","","","","","0.6754083514","0.4419424199","0.9215914722","0.4709058574","","","","","","","","75","K","2","","","78","main_expt",""
"","bandit","158","660847","0.0-119.0-0.0","72112420","wem/bandit_either_3","A3VP27UUQ34OXK","either","8","631","","","","","","","1","0","0","0.895443078","","0.6","0.8","0.4","0.2","","","","","0.7012934339","0.5056762283","0.895443078","0.4971614577","","","","","","","","75","K","2","","","79","main_expt",""
"","bandit","159","663003","0.0-120.0-0.0","72112420","wem/bandit_either_3","A3VP27UUQ34OXK","either","8","628","","","","","","","0","0","1","0.7789772955","","0.6","0.8","0.4","0.2","","","","","0.7067798052","0.4558190996","0.7789772955","0.4828267768","","","","","","","","75","K","2","","","80","main_expt",""
"","bandit","160","664942","0.0-121.0-0.0","72112420","wem/bandit_either_3","A3VP27UUQ34OXK","either","8","408","","","","","","","0","0","1","0.4774921548","","0.6","0.8","0.4","0.2","","","","","0.7259433061","0.4774921548","0.755426824","0.4280570329","","","","","","","","74","J","1","","","81","main_expt",""
"","bandit","161","666865","0.0-122.0-0.0","72112420","wem/bandit_either_3","A3VP27UUQ34OXK","either","8","397","","","","","","","1","0","0","0.7022130872","","0.6","0.8","0.4","0.2","","","","","0.7022130872","0.3611036613","0.8356426425","0.486136241","","","","","","","","72","H","0","img/none_selected.jpg","","82","main_expt",""
"","bandit","162","669795","0.0-123.0-0.0","72112420","wem/bandit_either_3","A3VP27UUQ34OXK","either","8","1363","","","","","","","1","0","0","0.75927227","","0.6","0.8","0.4","0.2","","","","","0.75927227","0.3341354767","0.8783145762","0.3539143083","","","","","","","","72","H","0","img/none_selected.jpg","","83","main_expt",""
"","bandit","163","672014","0.0-124.0-0.0","72112420","wem/bandit_either_3","A3VP27UUQ34OXK","either","8","681","","","","","","","1","0","0","0.8556046088","","0.6","0.8","0.4","0.2","","","","","0.8556046088","0.288479151","0.9087743635","0.374811954","","","","","","","","72","H","0","img/none_selected.jpg","","84","main_expt",""
"","bandit","164","674312","0.0-125.0-0.0","72112420","wem/bandit_either_3","A3VP27UUQ34OXK","either","8","765","","","","","","","1","0","0","0.7835234447","","0.6","0.8","0.4","0.2","","","","","0.7835234447","0.3061923995","0.8632011641","0.4518264681","","","","","","","","72","H","0","img/none_selected.jpg","","85","main_expt",""
"","bandit","165","676732","0.0-126.0-0.0","72112420","wem/bandit_either_3","A3VP27UUQ34OXK","either","8","849","","","","","","","0","0","1","","0.7037548709","0.6","0.8","0.4","0.2","0.7037548709","0.3370204437","0.8341253046","0.461936863","","","","","","","","","","","","72","H","0","img/none_selected.jpg","","86","main_expt",""
"","bandit","166","678720","0.0-127.0-0.0","72112420","wem/bandit_either_3","A3VP27UUQ34OXK","either","8","452","","","","","","","0","0","1","0.3681660755","","0.6","0.8","0.4","0.2","","","","","0.6903674631","0.3900809043","0.8728746981","0.3681660755","","","","","","","","76","L","3","","","87","main_expt",""
"","bandit","167","680700","0.0-128.0-0.0","72112420","wem/bandit_either_3","A3VP27UUQ34OXK","either","8","453","","","","","","","1","0","0","0.8408980459","","0.6","0.8","0.4","0.2","","","","","0.5883284312","0.4296615172","0.8408980459","0.3788462328","","","","","","","","75","K","2","","","88","main_expt",""
"","bandit","168","682717","0.0-129.0-0.0","72112420","wem/bandit_either_3","A3VP27UUQ34OXK","either","8","471","","","","","","","0","1","0","","0.8585781628","0.6","0.8","0.4","0.2","0.5258490985","0.4636560077","0.8585781628","0.3316952272","","","","","","","","","","","","75","K","2","","","89","main_expt",""
"","bandit","169","684627","0.0-130.0-0.0","72112420","wem/bandit_either_3","A3VP27UUQ34OXK","either","8","361","","","","","","","0","1","0","","0.925840658","0.6","0.8","0.4","0.2","0.6395041767","0.4463585346","0.925840658","0.438068917","","","","","","","","","","","","75","K","2","","","90","main_expt",""
"","bandit","170","686631","0.0-131.0-0.0","72112420","wem/bandit_either_3","A3VP27UUQ34OXK","either","8","457","","","","","","","0","1","0","","0.9201841885","0.6","0.8","0.4","0.2","0.6931091445","0.4734463503","0.9201841885","0.5158843935","","","","","","","","","","","","75","K","2","","","91","main_expt",""
"","bandit","171","688569","0.0-132.0-0.0","72112420","wem/bandit_either_3","A3VP27UUQ34OXK","either","8","398","","","","","","","0","0","1","0.5248255385","","0.6","0.8","0.4","0.2","","","","","0.6725373887","0.5248255385","0.8508076908","0.5182757575","","","","","","","","74","J","1","","","92","main_expt",""
"","bandit","172","690473","0.0-133.0-0.0","72112420","wem/bandit_either_3","A3VP27UUQ34OXK","either","8","368","","","","","","","1","0","0","0.7388835399","","0.6","0.8","0.4","0.2","","","","","0.7388835399","0.3386726181","0.8106711147","0.5498130742","","","","","","","","72","H","0","img/none_selected.jpg","","93","main_expt",""
"","bandit","173","692457","0.0-134.0-0.0","72112420","wem/bandit_either_3","A3VP27UUQ34OXK","either","8","451","","","","","","","0","1","0","","0.697373586","0.6","0.8","0.4","0.2","0.697373586","0.3718894848","0.8543263914","0.6049407638","","","","","","","","","","","","72","H","0","img/none_selected.jpg","","94","main_expt",""
"","bandit","174","694397","0.0-135.0-0.0","72112420","wem/bandit_either_3","A3VP27UUQ34OXK","either","8","402","","","","","","","1","0","0","0.7550322224","","0.6","0.8","0.4","0.2","","","","","0.7550322224","0.4005278521","0.8387782901","0.6604115927","","","","","","","","72","H","0","img/none_selected.jpg","","95","main_expt",""
"","bandit","175","696387","0.0-136.0-0.0","72112420","wem/bandit_either_3","A3VP27UUQ34OXK","either","8","462","","","","","","","1","0","0","0.6576962358","","0.6","0.8","0.4","0.2","","","","","0.6576962358","0.3694595514","0.8208071174","0.7003847986","","","","","","","","72","H","0","img/none_selected.jpg","","96","main_expt",""
"","bandit","176","698376","0.0-137.0-0.0","72112420","wem/bandit_either_3","A3VP27UUQ34OXK","either","8","464","","","","","","","0","0","1","0.6802484638","","0.6","0.8","0.4","0.2","","","","","0.6802484638","0.3186037095","0.765358829","0.6793148949","","","","","","","","72","H","0","img/none_selected.jpg","","97","main_expt",""
"","bandit","177","700540","0.0-138.0-0.0","72112420","wem/bandit_either_3","A3VP27UUQ34OXK","either","8","628","","","","","","","1","0","0","0.7823463211","","0.6","0.8","0.4","0.2","","","","","0.7042077447","0.2786717818","0.7823463211","0.6204607354","","","","","","","","75","K","2","","","98","main_expt",""
"","bandit","178","702451","0.0-139.0-0.0","72112420","wem/bandit_either_3","A3VP27UUQ34OXK","either","8","375","","","","","","","0","1","0","","0.7523003034","0.6","0.8","0.4","0.2","0.7355617892","0.32929866","0.7523003034","0.6166262367","","","","","","","","","","","","75","K","2","","","99","main_expt",""
"","bandit","179","704417","0.0-140.0-0.0","72112420","wem/bandit_either_3","A3VP27UUQ34OXK","either","8","430","","","","","","","0","0","1","","0.7174790615","0.6","0.8","0.4","0.2","0.7117411671","0.3115323478","0.7174790615","0.5347115766","","","","","","","","","","","","75","K","2","","","100","main_expt",""
"","bandit","180","706324","0.0-141.0-0.0","72112420","wem/bandit_either_3","A3VP27UUQ34OXK","either","8","380","","","","","","","0","0","1","0.7263903312","","0.6","0.8","0.4","0.2","","","","","0.7263903312","0.4221749579","0.7660578318","0.3418016043","","","","","","","","72","H","0","img/none_selected.jpg","","101","main_expt",""
"","bandit","181","708173","0.0-142.0-0.0","72112420","wem/bandit_either_3","A3VP27UUQ34OXK","either","8","320","","","","","","","0","0","1","","0.2718078598","0.6","0.8","0.4","0.2","0.7357346189","0.2718078598","0.7201180075","0.2550922237","","","","","","","","","","","","74","J","1","","","102","main_expt",""
"","bandit","182","710125","0.0-143.0-0.0","72112420","wem/bandit_either_3","A3VP27UUQ34OXK","either","8","422","","","","","","","0","0","1","","0.3181696353","0.6","0.8","0.4","0.2","0.7026134783","0.3011307106","0.8452780714","0.3181696353","","","","","","","","","","","","76","L","3","","","103","main_expt",""
"","bandit","183","712089","0.0-144.0-0.0","72112420","wem/bandit_either_3","A3VP27UUQ34OXK","either","8","414","","","","","","","0","1","0","","0.7236924273","0.6","0.8","0.4","0.2","0.8073666152","0.3659291838","0.7236924273","0.3383579412","","","","","","","","","","","","75","K","2","","","104","main_expt",""
"","bandit","184","714123","0.0-145.0-0.0","72112420","wem/bandit_either_3","A3VP27UUQ34OXK","either","8","467","","","","","","","0","0","1","","0.743719778","0.6","0.8","0.4","0.2","0.824483439","0.3499435223","0.743719778","0.2354673658","","","","","","","","","","","","75","K","2","","","105","main_expt",""
"","bandit","185","716148","0.0-146.0-0.0","72112420","wem/bandit_either_3","A3VP27UUQ34OXK","either","8","495","","","","","","","1","0","0","0.7985687284","","0.6","0.8","0.4","0.2","","","","","0.9208810438","0.3602262465","0.7985687284","0.159398249","","","","","","","","75","K","2","","","106","main_expt",""
"","bandit","186","718357","0.0-147.0-0.0","72112420","wem/bandit_either_3","A3VP27UUQ34OXK","either","8","671","","","","","","","1","0","0","0.799345197","","0.6","0.8","0.4","0.2","","","","","0.8911910097","0.3252215163","0.799345197","0.1295169146","","","","","","","","75","K","2","","","107","main_expt",""
"","bandit","187","720477","0.0-148.0-0.0","72112420","wem/bandit_either_3","A3VP27UUQ34OXK","either","8","589","","","","","","","0","1","0","","0.8681690713","0.6","0.8","0.4","0.2","0.8450149587","0.2812406992","0.8681690713","0.07754053308","","","","","","","","","","","","75","K","2","","","108","main_expt",""
"","bandit","188","722411","0.0-149.0-0.0","72112420","wem/bandit_either_3","A3VP27UUQ34OXK","either","8","388","","","","","","","0","1","0","","0.8556732204","0.6","0.8","0.4","0.2","0.868327257","0.2559497519","0.8556732204","0.06591215473","","","","","","","","","","","","75","K","2","","","109","main_expt",""
"","bandit","189","724392","0.0-150.0-0.0","72112420","wem/bandit_either_3","A3VP27UUQ34OXK","either","8","440","","","","","","","0","1","0","","0.8669893864","0.6","0.8","0.4","0.2","0.8868335222","0.2817400418","0.8669893864","0.1189546392","","","","","","","","","","","","75","K","2","","","110","main_expt",""
"","bandit","190","726342","0.0-151.0-0.0","72112420","wem/bandit_either_3","A3VP27UUQ34OXK","either","8","395","","","","","","","0","0","1","","0.799383849","0.6","0.8","0.4","0.2","0.8770728171","0.2773620367","0.799383849","0.09523351692","","","","","","","","","","","","75","K","2","","","111","main_expt",""
"","bandit","191","728759","0.0-152.0-0.0","72112420","wem/bandit_either_3","A3VP27UUQ34OXK","either","8","838","","","","","","","0","1","0","","0.8481710002","0.6","0.8","0.4","0.2","0.8481710002","0.2833316415","0.859799476","0.107489667","","","","","","","","","","","","72","H","0","img/none_selected.jpg","","112","main_expt",""
"","bandit","192","730704","0.0-153.0-0.0","72112420","wem/bandit_either_3","A3VP27UUQ34OXK","either","8","420","","","","","","","1","0","0","0.8573528835","","0.6","0.8","0.4","0.2","","","","","0.8573528835","0.3433702059","0.7932436089","0.1026187258","","","","","","","","72","H","0","img/none_selected.jpg","","113","main_expt",""
"","bandit","193","732675","0.0-154.0-0.0","72112420","wem/bandit_either_3","A3VP27UUQ34OXK","either","8","435","","","","","","","1","0","0","0.8291807482","","0.6","0.8","0.4","0.2","","","","","0.8291807482","0.4828882278","0.849407262","0.1044839951","","","","","","","","72","H","0","img/none_selected.jpg","","114","main_expt",""
"","bandit","194","734606","0.0-155.0-0.0","72112420","wem/bandit_either_3","A3VP27UUQ34OXK","either","8","391","","","","","","","1","0","0","0.761972944","","0.6","0.8","0.4","0.2","","","","","0.761972944","0.54932579","0.8882716547","0.1213931844","","","","","","","","72","H","0","img/none_selected.jpg","","115","main_expt",""
"","bandit","195","736545","0.0-156.0-0.0","72112420","wem/bandit_either_3","A3VP27UUQ34OXK","either","8","413","","","","","","","0","1","0","","0.786197192","0.6","0.8","0.4","0.2","0.786197192","0.6971345968","0.8741354715","0.1184144227","","","","","","","","","","","","72","H","0","img/none_selected.jpg","","116","main_expt",""
"","bandit","196","738586","0.0-157.0-0.0","72112420","wem/bandit_either_3","A3VP27UUQ34OXK","either","8","497","","","","","","","1","0","0","0.7834453561","","0.6","0.8","0.4","0.2","","","","","0.7834453561","0.5396272374","0.8083823922","0.1983931569","","","","","","","","72","H","0","img/none_selected.jpg","","117","main_expt",""
"","bandit","197","740600","0.0-158.0-0.0","72112420","wem/bandit_either_3","A3VP27UUQ34OXK","either","8","472","","","","","","","0","0","1","0.6742380839","","0.6","0.8","0.4","0.2","","","","","0.6742380839","0.5544567993","0.868525306","0.2840039584","","","","","","","","72","H","0","img/none_selected.jpg","","118","main_expt",""
"","bandit","198","742579","0.0-159.0-0.0","72112420","wem/bandit_either_3","A3VP27UUQ34OXK","either","8","437","","","","","","","0","1","0","","0.8386471998","0.6","0.8","0.4","0.2","0.7350700153","0.5504896642","0.8386471998","0.3563325119","","","","","","","","","","","","75","K","2","","","119","main_expt",""
"","bandit","199","744455","0.0-160.0-0.0","72112420","wem/bandit_either_3","A3VP27UUQ34OXK","either","8","331","","","","","","","0","1","0","","0.5812137135","0.6","0.8","0.4","0.2","0.70601835","0.5812137135","0.8103559508","0.5682387565","","","","","","","","","","","","74","J","1","","","120","main_expt",""
"","bandit","200","746409","0.0-161.0-0.0","72112420","wem/bandit_either_3","A3VP27UUQ34OXK","either","8","404","","","","","","","1","0","0","0.6033058466","","0.6","0.8","0.4","0.2","","","","","0.7347719752","0.6033058466","0.8193015173","0.5189107771","","","","","","","","74","J","1","","","121","main_expt",""
"","bandit","201","748383","0.0-162.0-0.0","72112420","wem/bandit_either_3","A3VP27UUQ34OXK","either","8","401","","","","","","","1","0","0","0.6102220397","","0.6","0.8","0.4","0.2","","","","","0.8270923978","0.6102220397","0.8025146027","0.4428493372","","","","","","","","74","J","1","","","122","main_expt",""
"","bandit","202","750237","0.0-163.0-0.0","72112420","wem/bandit_either_3","A3VP27UUQ34OXK","either","8","322","","","","","","","1","0","0","0.6108151959","","0.6","0.8","0.4","0.2","","","","","0.7980631313","0.6108151959","0.8121847492","0.472724465","","","","","","","","74","J","1","","","123","main_expt",""
"","bandit","203","752083","0.0-164.0-0.0","72112420","wem/bandit_either_3","A3VP27UUQ34OXK","either","8","308","","","","","","","1","0","0","0.7117385939","","0.6","0.8","0.4","0.2","","","","","0.7369852887","0.7117385939","0.8299418439","0.4799585558","","","","","","","","74","J","1","","","124","main_expt",""
"","bandit","204","754191","0.0-165.0-0.0","72112420","wem/bandit_either_3","A3VP27UUQ34OXK","either","8","478","","","","","","","0","1","0","","0.7554186078","0.6","0.8","0.4","0.2","0.7465944313","0.7554186078","0.825688343","0.5080184993","","","","","","","","","","","","74","J","1","","","125","main_expt",""
"","bandit","205","756208","0.0-166.0-0.0","72112420","wem/bandit_either_3","A3VP27UUQ34OXK","either","8","404","","","","","","","0","1","0","","0.8855751833","0.6","0.8","0.4","0.2","0.7596834852","0.8855751833","0.8372054396","0.4555098289","","","","","","","","","","","","74","J","1","","","126","main_expt",""
"","bandit","206","758272","0.0-167.0-0.0","72112420","wem/bandit_either_3","A3VP27UUQ34OXK","either","8","522","","","","","","","1","0","0","0.8003015049","","0.6","0.8","0.4","0.2","","","","","0.7398299979","0.8003015049","0.7906689898","0.5475411796","","","","","","","","74","J","1","","","127","main_expt",""
"","bandit","207","760427","0.0-168.0-0.0","72112420","wem/bandit_either_3","A3VP27UUQ34OXK","either","8","618","","","","","","","0","0","1","0.8403113951","","0.6","0.8","0.4","0.2","","","","","0.7764866849","0.8403113951","0.8008571507","0.612647382","","","","","","","","74","J","1","","","128","main_expt",""
"","bandit","208","762437","0.0-169.0-0.0","72112420","wem/bandit_either_3","A3VP27UUQ34OXK","either","8","439","","","","","","","0","1","0","","0.7128970287","0.6","0.8","0.4","0.2","0.6435675963","0.8826872071","0.7829297973","0.7128970287","","","","","","","","","","","","76","L","3","","","129","main_expt",""
"","bandit","209","764522","0.0-170.0-0.0","72112420","wem/bandit_either_3","A3VP27UUQ34OXK","either","8","532","","","","","","","0","1","0","","0.7309911721","0.6","0.8","0.4","0.2","0.7030252038","0.8641000085","0.6898445721","0.7309911721","","","","","","","","","","","","76","L","3","","","130","main_expt",""
"","bandit","210","766535","0.0-171.0-0.0","72112420","wem/bandit_either_3","A3VP27UUQ34OXK","either","8","468","","","","","","","0","0","1","","0.73180147","0.6","0.8","0.4","0.2","0.6829232191","0.8752037592","0.5864867529","0.73180147","","","","","","","","","","","","76","L","3","","","131","main_expt",""
"","bandit","211","768615","0.0-172.0-0.0","72112420","wem/bandit_either_3","A3VP27UUQ34OXK","either","8","537","","","","","","","0","1","0","","0.8467134838","0.6","0.8","0.4","0.2","0.7406452387","0.8279556795","0.560122833","0.8467134838","","","","","","","","","","","","76","L","3","","","132","main_expt",""
"","bandit","212","770617","0.0-173.0-0.0","72112420","wem/bandit_either_3","A3VP27UUQ34OXK","either","8","469","","","","","","","0","0","1","","0.8481264083","0.6","0.8","0.4","0.2","0.6666234363","0.8194722428","0.48439517","0.8481264083","","","","","","","","","","","","76","L","3","","","133","main_expt",""
"","bandit","213","772854","0.0-174.0-0.0","72112420","wem/bandit_either_3","A3VP27UUQ34OXK","either","8","706","","","","","","","0","1","0","","0.3919863126","0.6","0.8","0.4","0.2","0.680542061","0.8037084922","0.3919863126","0.8771050955","","","","","","","","","","","","75","K","2","","","134","main_expt",""
"","bandit","214","776026","0.0-175.0-0.0","72112420","wem/bandit_either_3","A3VP27UUQ34OXK","either","8","1627","","","","","","","0","0","1","0.5174750093","","0.6","0.8","0.4","0.2","","","","","0.7006187635","0.8155916457","0.5174750093","0.9103241533","","","","","","","","75","K","2","","","135","main_expt",""
"","bandit","215","778040","0.0-176.0-0.0","72112420","wem/bandit_either_3","A3VP27UUQ34OXK","either","8","480","","","","","","","1","0","0","0.6936815578","","0.6","0.8","0.4","0.2","","","","","0.6936815578","0.8281957705","0.4264762493","0.9126032517","","","","","","","","72","H","0","img/none_selected.jpg","","136","main_expt",""
"","bandit","216","780129","0.0-177.0-0.0","72112420","wem/bandit_either_3","A3VP27UUQ34OXK","either","8","545","","","","","","","0","0","1","0.6531428085","","0.6","0.8","0.4","0.2","","","","","0.6531428085","0.7055403129","0.5351999402","0.8983360858","","","","","","","","72","H","0","img/none_selected.jpg","","137","main_expt",""
"","bandit","217","782158","0.0-178.0-0.0","72112420","wem/bandit_either_3","A3VP27UUQ34OXK","either","8","484","","","","","","","0","0","1","0.6884351598","","0.6","0.8","0.4","0.2","","","","","0.6769758131","0.6884351598","0.4758748922","0.8851370462","","","","","","","","74","J","1","","","138","main_expt",""
"","bandit","218","784105","0.0-179.0-0.0","72112420","wem/bandit_either_3","A3VP27UUQ34OXK","either","8","382","","","","","","","0","0","1","0.4039793023","","0.6","0.8","0.4","0.2","","","","","0.7649589049","0.6090423031","0.4039793023","0.8662270416","","","","","","","","75","K","2","","","139","main_expt",""
"","bandit","219","786066","0.0-180.0-0.0","72112420","wem/bandit_either_3","A3VP27UUQ34OXK","either","8","381","","","","","","","1","0","0","0.7674202191","","0.6","0.8","0.4","0.2","","","","","0.7674202191","0.7000077187","0.384774136","0.8345767194","","","","","","","","72","H","0","img/none_selected.jpg","","140","main_expt",""
"","bandit","220","788097","0.0-181.0-0.0","72112420","wem/bandit_either_3","A3VP27UUQ34OXK","either","8","485","","","","","","","1","0","0","0.8575114448","","0.6","0.8","0.4","0.2","","","","","0.8575114448","0.6643185619","0.327254859","0.8783670964","","","","","","","","72","H","0","img/none_selected.jpg","","141","main_expt",""
"","bandit","221","790117","0.0-182.0-0.0","72112420","wem/bandit_either_3","A3VP27UUQ34OXK","either","8","455","","","","","","","0","0","1","","0.8134430427","0.6","0.8","0.4","0.2","0.8134430427","0.7079845674","0.4536641492","0.8895828315","","","","","","","","","","","","72","H","0","img/none_selected.jpg","","142","main_expt",""
"","bandit","222","791886","0.0-183.0-0.0","72112420","wem/bandit_either_3","A3VP27UUQ34OXK","either","8","228","","","","","","","0","1","0","","0.8345505038","0.6","0.8","0.4","0.2","0.8345505038","0.6624187643","0.4348486293","0.9053928798","","","","","","","","","","","","72","H","0","img/none_selected.jpg","","143","main_expt",""
"","bandit","223","793794","0.0-184.0-0.0","72112420","wem/bandit_either_3","A3VP27UUQ34OXK","either","8","370","","","","","","","1","0","0","0.7482817554","","0.6","0.8","0.4","0.2","","","","","0.7482817554","0.6779247185","0.4086594597","0.9033088386","","","","","","","","72","H","0","img/none_selected.jpg","","144","main_expt",""
"","bandit","224","795766","0.0-185.0-0.0","72112420","wem/bandit_either_3","A3VP27UUQ34OXK","either","8","436","","","","","","","0","0","1","0.7400387939","","0.6","0.8","0.4","0.2","","","","","0.7400387939","0.7216102374","0.4420772456","0.8572864227","","","","","","","","72","H","0","img/none_selected.jpg","","145","main_expt",""
"","bandit","225","797826","0.0-186.0-0.0","72112420","wem/bandit_either_3","A3VP27UUQ34OXK","either","8","517","","","","","","","1","0","0","0.795971973","","0.6","0.8","0.4","0.2","","","","","0.795971973","0.7837267619","0.508741462","0.8687508917","","","","","","","","72","H","0","img/none_selected.jpg","","146","main_expt",""
"","bandit","226","799878","0.0-187.0-0.0","72112420","wem/bandit_either_3","A3VP27UUQ34OXK","either","8","511","","","","","","","1","0","0","0.7503502301","","0.6","0.8","0.4","0.2","","","","","0.7503502301","0.7652264833","0.4624398998","0.8657621525","","","","","","","","72","H","0","img/none_selected.jpg","","147","main_expt",""
"","bandit","227","801916","0.0-188.0-0.0","72112420","wem/bandit_either_3","A3VP27UUQ34OXK","either","8","490","","","","","","","1","0","0","0.8200474043","","0.6","0.8","0.4","0.2","","","","","0.8200474043","0.7358716413","0.4062589849","0.8362891365","","","","","","","","72","H","0","img/none_selected.jpg","","148","main_expt",""
"","bandit","228","804538","0.0-189.0-0.0","72112420","wem/bandit_either_3","A3VP27UUQ34OXK","either","8","1085","","","","","","","1","0","0","0.8509010271","","0.6","0.8","0.4","0.2","","","","","0.8509010271","0.7129200786","0.4895331913","0.8144386017","","","","","","","","72","H","0","img/none_selected.jpg","","149","main_expt",""
"","bandit","229","806898","0.0-190.0-0.0","72112420","wem/bandit_either_3","A3VP27UUQ34OXK","either","8","823","","","","","","","0","1","0","","0.8298908313","0.6","0.8","0.4","0.2","0.8298908313","0.705531668","0.4704746919","0.6948055455","","","","","","","","","","","","72","H","0","img/none_selected.jpg","","150","main_expt",""
"","bandit","230","808898","0.0-191.0-0.0","72112420","wem/bandit_either_3","A3VP27UUQ34OXK","either","8","475","","","","","","","0","0","1","0.7362749002","","0.6","0.8","0.4","0.2","","","","","0.7362749002","0.5744604188","0.4725745774","0.6231991314","","","","","","","","72","H","0","img/none_selected.jpg","","151","main_expt",""
"","bandit","231","810787","0.0-192.0-0.0","72112420","wem/bandit_either_3","A3VP27UUQ34OXK","either","8","349","","","","","","","1","0","0","0.7601791643","","0.6","0.8","0.4","0.2","","","","","0.7601791643","0.5372669321","0.4943906398","0.7045057733","","","","","","","","72","H","0","img/none_selected.jpg","","152","main_expt",""
"","bandit","232","812941","0.0-193.0-0.0","72112420","wem/bandit_either_3","A3VP27UUQ34OXK","either","8","599","","","","","","","1","0","0","0.7590648118","","0.6","0.8","0.4","0.2","","","","","0.7590648118","0.5447545218","0.4639524782","0.5331338622","","","","","","","","72","H","0","img/none_selected.jpg","","153","main_expt",""
"","bandit","233","814954","0.0-194.0-0.0","72112420","wem/bandit_either_3","A3VP27UUQ34OXK","either","8","455","","","","","","","1","0","0","0.7805387907","","0.6","0.8","0.4","0.2","","","","","0.7805387907","0.4191749193","0.3935792086","0.5096720896","","","","","","","","72","H","0","img/none_selected.jpg","","154","main_expt",""
"","bandit","234","817003","0.0-195.0-0.0","72112420","wem/bandit_either_3","A3VP27UUQ34OXK","either","8","496","","","","","","","0","1","0","","0.8450805748","0.6","0.8","0.4","0.2","0.8450805748","0.4269770229","0.4127348605","0.4719011365","","","","","","","","","","","","72","H","0","img/none_selected.jpg","","155","main_expt",""
"","bandit","235","818921","0.0-196.0-0.0","72112420","wem/bandit_either_3","A3VP27UUQ34OXK","either","8","358","","","","","","","0","0","1","","0.8513110265","0.6","0.8","0.4","0.2","0.8513110265","0.4589862704","0.3697675558","0.5818713095","","","","","","","","","","","","72","H","0","img/none_selected.jpg","","156","main_expt",""
"","bandit","236","820895","0.0-197.0-0.0","72112420","wem/bandit_either_3","A3VP27UUQ34OXK","either","8","424","","","","","","","1","0","0","0.8226236001","","0.6","0.8","0.4","0.2","","","","","0.8226236001","0.5370818316","0.3604398023","0.5804022203","","","","","","","","72","H","0","img/none_selected.jpg","","157","main_expt",""
"","bandit","237","822818","0.0-198.0-0.0","72112420","wem/bandit_either_3","A3VP27UUQ34OXK","either","8","389","","","","","","","0","1","0","","0.8843141367","0.6","0.8","0.4","0.2","0.8843141367","0.4757376888","0.4061750625","0.4773166223","","","","","","","","","","","","72","H","0","img/none_selected.jpg","","158","main_expt",""
"","bandit","238","824517","0.0-199.0-0.0","72112420","wem/bandit_either_3","A3VP27UUQ34OXK","either","8","145","","","","","","","0","0","1","","0.8078798749","0.6","0.8","0.4","0.2","0.8078798749","0.4887287223","0.4696417586","0.419048585","","","","","","","","","","","","72","H","0","img/none_selected.jpg","","159","main_expt",""
"","bandit","239","826116","0.0-200.0-0.0","72112420","wem/bandit_either_3","A3VP27UUQ34OXK","either","8","60","","","","","","","1","0","0","0.7689164465","","0.6","0.8","0.4","0.2","","","","","0.7689164465","0.4588489809","0.4659569923","0.4672574386","","","","","","","","72","H","0","img/none_selected.jpg","","160","main_expt",""
"","bandit","240","828038","0.0-201.0-0.0","72112420","wem/bandit_either_3","A3VP27UUQ34OXK","either","8","381","","","","","","","0","1","0","","0.7863156869","0.6","0.8","0.4","0.2","0.7863156869","0.4920004413","0.3947207546","0.5612985374","","","","","","","","","","","","72","H","0","img/none_selected.jpg","","161","main_expt",""
"","bandit","241","829751","0.0-202.0-0.0","72112420","wem/bandit_either_3","A3VP27UUQ34OXK","either","8","177","","","","","","","1","0","0","0.8098475403","","0.6","0.8","0.4","0.2","","","","","0.8098475403","0.5389881207","0.2460097942","0.5288680036","","","","","","","","72","H","0","img/none_selected.jpg","","162","main_expt",""
"","bandit","242","832222","0.0-203.0-0.0","72112420","wem/bandit_either_3","A3VP27UUQ34OXK","either","8","929","","","","","","","0","1","0","","0.8222712862","0.6","0.8","0.4","0.2","0.8222712862","0.6040136001","0.3603606056","0.6096883849","","","","","","","","","","","","72","H","0","img/none_selected.jpg","","163","main_expt",""
"","bandit","243","834396","0.0-204.0-0.0","72112420","wem/bandit_either_3","A3VP27UUQ34OXK","either","8","634","","","","","","","1","0","0","0.7876031225","","0.6","0.8","0.4","0.2","","","","","0.7876031225","0.623756827","0.2507209727","0.4868922288","","","","","","","","72","H","0","img/none_selected.jpg","","164","main_expt",""
"","bandit","244","836313","0.0-205.0-0.0","72112420","wem/bandit_either_3","A3VP27UUQ34OXK","either","8","365","","","","","","","1","0","0","0.7435052823","","0.6","0.8","0.4","0.2","","","","","0.7435052823","0.6164515281","0.2162043423","0.4055552053","","","","","","","","72","H","0","img/none_selected.jpg","","165","main_expt",""
"","bandit","245","838237","0.0-206.0-0.0","72112420","wem/bandit_either_3","A3VP27UUQ34OXK","either","8","372","","","","","","","0","0","1","0.6545739251","","0.6","0.8","0.4","0.2","","","","","0.6545739251","0.4660222187","0.2573409732","0.4748236382","","","","","","","","72","H","0","img/none_selected.jpg","","166","main_expt",""
"","bandit","246","840021","0.0-207.0-0.0","72112420","wem/bandit_either_3","A3VP27UUQ34OXK","either","8","252","","","","","","","0","0","1","","0.4016088623","0.6","0.8","0.4","0.2","0.6645907447","0.3336058786","0.4016088623","0.4725242185","","","","","","","","","","","","75","K","2","","","167","main_expt",""
"","bandit","247","841786","0.0-208.0-0.0","72112420","wem/bandit_either_3","A3VP27UUQ34OXK","either","8","228","","","","","","","0","0","1","0.2887723434","","0.6","0.8","0.4","0.2","","","","","0.7243751722","0.2887723434","0.5522858252","0.4775208721","","","","","","","","74","J","1","","","168","main_expt",""
"","bandit","248","843636","0.0-209.0-0.0","72112420","wem/bandit_either_3","A3VP27UUQ34OXK","either","8","285","","","","","","","0","0","1","","0.4682732781","0.6","0.8","0.4","0.2","0.6453105543","0.3357056981","0.5461138513","0.4682732781","","","","","","","","","","","","76","L","3","","","169","main_expt",""
"","bandit","249","845514","0.0-210.0-0.0","72112420","wem/bandit_either_3","A3VP27UUQ34OXK","either","8","351","","","","","","","1","0","0","0.5334010147","","0.6","0.8","0.4","0.2","","","","","0.5334010147","0.4179693295","0.4402798015","0.4246621539","","","","","","","","72","H","0","img/none_selected.jpg","","170","main_expt",""
"","bandit","250","847393","0.0-211.0-0.0","72112420","wem/bandit_either_3","A3VP27UUQ34OXK","either","8","341","","","","","","","1","0","0","0.498122785","","0.6","0.8","0.4","0.2","","","","","0.498122785","0.3050406521","0.450294849","0.2843380906","","","","","","","","72","H","0","img/none_selected.jpg","","171","main_expt",""
"","bandit","251","849018","0.0-212.0-0.0","72112420","wem/bandit_either_3","A3VP27UUQ34OXK","either","8","96","","","","","","","0","0","1","0.4356988635","","0.6","0.8","0.4","0.2","","","","","0.4356988635","0.3364500029","0.6475755847","0.2668952485","","","","","","","","72","H","0","img/none_selected.jpg","","172","main_expt",""
"","bandit","252","850620","0.0-213.0-0.0","72112420","wem/bandit_either_3","A3VP27UUQ34OXK","either","8","46","","","","","","","0","0","1","0.3964199688","","0.6","0.8","0.4","0.2","","","","","0.3964199688","0.421339117","0.6095255177","0.3802819164","","","","","","","","72","H","0","img/none_selected.jpg","","173","main_expt",""
"","bandit","253","853724","0.0-214.0-0.0","72112420","wem/bandit_either_3","A3VP27UUQ34OXK","either","8","1484","","","","","","","0","1","0","","0.5003628493","0.6","0.8","0.4","0.2","0.3194345802","0.4913704717","0.5003628493","0.4042455133","","","","","","","","","","","","75","K","2","","","174","main_expt",""
"","bandit","254","855602","0.0-215.0-0.0","72112420","wem/bandit_either_3","A3VP27UUQ34OXK","either","8","350","","","","","","","0","0","1","0.5576212716","","0.6","0.8","0.4","0.2","","","","","0.2865230234","0.5882611891","0.5576212716","0.4393989914","","","","","","","","75","K","2","","","175","main_expt",""
"","bandit","255","857166","0.0-216.0-0.0","72112420","wem/bandit_either_3","A3VP27UUQ34OXK","either","8","17","","","","","","","1","0","0","0.6230679906","","0.6","0.8","0.4","0.2","","","","","0.3352692614","0.6313830356","0.6230679906","0.4705173801","","","","","","","","75","K","2","","","176","main_expt",""
"","bandit","256","858896","0.0-217.0-0.0","72112420","wem/bandit_either_3","A3VP27UUQ34OXK","either","8","204","","","","","","","0","0","1","0.6501784685","","0.6","0.8","0.4","0.2","","","","","0.3389264817","0.5531265137","0.6501784685","0.4698597734","","","","","","","","75","K","2","","","177","main_expt",""
"","bandit","257","860622","0.0-218.0-0.0","72112420","wem/bandit_either_3","A3VP27UUQ34OXK","either","8","195","","","","","","","0","1","0","","0.6334155083","0.6","0.8","0.4","0.2","0.3709673039","0.4621004187","0.6334155083","0.3570804947","","","","","","","","","","","","75","K","2","","","178","main_expt",""
"","bandit","258","862676","0.0-219.0-0.0","72112420","wem/bandit_either_3","A3VP27UUQ34OXK","either","8","264","","","","","","","1","0","0","0.7548338289","","0.6","0.8","0.4","0.2","","","","","0.2940579202","0.512884041","0.7548338289","0.3441184995","","","","","","","","75","K","2","","","179","main_expt",""
"","bandit","259","864333","0.0-220.0-0.0","72112420","wem/bandit_either_3","A3VP27UUQ34OXK","either","8","123","","","","","","","1","0","0","0.8074073351","","0.6","0.8","0.4","0.2","","","","","0.3218724025","0.506744284","0.8074073351","0.3646136501","","","","","","","","75","K","2","","","180","main_expt",""
"","bandit","260","866226","0.0-221.0-0.0","72112420","wem/bandit_either_3","A3VP27UUQ34OXK","either","8","351","","","","","","","0","0","1","","0.780721516","0.6","0.8","0.4","0.2","0.3633286182","0.4556494723","0.780721516","0.3777688814","","","","","","","","","","","","75","K","2","","","181","main_expt",""
"","bandit","261","868691","0.0-222.0-0.0","72112420","wem/bandit_either_3","A3VP27UUQ34OXK","either","8","931","","","","","","","0","1","0","","0.7647415088","0.6","0.8","0.4","0.2","0.3324048704","0.4494525508","0.7647415088","0.4578236703","","","","","","","","","","","","75","K","2","","","182","main_expt",""
"","bandit","262","870848","0.0-223.0-0.0","72112420","wem/bandit_either_3","A3VP27UUQ34OXK","either","8","611","","","","","","","0","0","1","","0.7349307529","0.6","0.8","0.4","0.2","0.3092830871","0.5189143621","0.7349307529","0.4244895098","","","","","","","","","","","","75","K","2","","","183","main_expt",""
"","bandit","263","872910","0.0-224.0-0.0","72112420","wem/bandit_either_3","A3VP27UUQ34OXK","either","8","512","","","","","","","0","1","0","","0.5167606333","0.6","0.8","0.4","0.2","0.3905692936","0.5167606333","0.8298088288","0.3566779322","","","","","","","","","","","","74","J","1","","","184","main_expt",""
"","bandit","264","874936","0.0-225.0-0.0","72112420","wem/bandit_either_3","A3VP27UUQ34OXK","either","8","481","","","","","","","0","0","1","0.5270237034","","0.6","0.8","0.4","0.2","","","","","0.4626192444","0.5270237034","0.7894193193","0.3737416658","","","","","","","","74","J","1","","","185","main_expt",""
"","bandit","265","877331","0.0-226.0-0.0","72112420","wem/bandit_either_3","A3VP27UUQ34OXK","either","8","814","","","","","","","0","0","1","0.5556036571","","0.6","0.8","0.4","0.2","","","","","0.6061762586","0.5556036571","0.7665022487","0.3120176694","","","","","","","","74","J","1","","","186","main_expt",""
"","bandit","266","879260","0.0-227.0-0.0","72112420","wem/bandit_either_3","A3VP27UUQ34OXK","either","8","388","","","","","","","0","0","1","","0.4134691065","0.6","0.8","0.4","0.2","0.530958695","0.5865134094","0.7394266891","0.4134691065","","","","","","","","","","","","76","L","3","","","187","main_expt",""
"","bandit","267","881205","0.0-228.0-0.0","72112420","wem/bandit_either_3","A3VP27UUQ34OXK","either","8","381","","","","","","","0","1","0","","0.4637770407","0.6","0.8","0.4","0.2","0.380024655","0.5034866795","0.6567361442","0.4637770407","","","","","","","","","","","","76","L","3","","","188","main_expt",""
"","bandit","268","883227","0.0-229.0-0.0","72112420","wem/bandit_either_3","A3VP27UUQ34OXK","either","8","463","","","","","","","0","0","1","0.5739034088","","0.6","0.8","0.4","0.2","","","","","0.4563575644","0.5761715841","0.6572443956","0.5739034088","","","","","","","","76","L","3","","","189","main_expt",""
"","bandit","269","885176","0.0-230.0-0.0","72112420","wem/bandit_either_3","A3VP27UUQ34OXK","either","8","426","","","","","","","0","0","1","0.4540853102","","0.6","0.8","0.4","0.2","","","","","0.4540853102","0.5325489933","0.6735764162","0.5859504021","","","","","","","","72","H","0","img/none_selected.jpg","","190","main_expt",""
"","bandit","270","887253","0.0-231.0-0.0","72112420","wem/bandit_either_3","A3VP27UUQ34OXK","either","8","542","","","","","","","0","1","0","","0.4328006462","0.6","0.8","0.4","0.2","0.4328006462","0.5614919892","0.5997518312","0.5325822721","","","","","","","","","","","","72","H","0","img/none_selected.jpg","","191","main_expt",""
"","bandit","271","889402","0.0-232.0-0.0","72112420","wem/bandit_either_3","A3VP27UUQ34OXK","either","8","595","","","","","","","0","1","0","","0.4979354652","0.6","0.8","0.4","0.2","0.4979354652","0.5972832049","0.6582178794","0.4622441745","","","","","","","","","","","","72","H","0","img/none_selected.jpg","","192","main_expt",""
"","bandit","272","891415","0.0-233.0-0.0","72112420","wem/bandit_either_3","A3VP27UUQ34OXK","either","8","449","","","","","","","0","0","1","","0.4887187701","0.6","0.8","0.4","0.2","0.4887187701","0.6997951875","0.7246172867","0.4765036663","","","","","","","","","","","","72","H","0","img/none_selected.jpg","","193","main_expt",""
"","bandit","273","893535","0.0-234.0-0.0","72112420","wem/bandit_either_3","A3VP27UUQ34OXK","either","8","590","","","","","","","0","0","1","","0.4993882896","0.6","0.8","0.4","0.2","0.4993882896","0.7511051992","0.7721250451","0.4504155567","","","","","","","","","","","","72","H","0","img/none_selected.jpg","","194","main_expt",""
"","bandit","274","895219","0.0-235.0-0.0","72112420","wem/bandit_either_3","A3VP27UUQ34OXK","either","8","151","","","","","","","1","0","0","0.4354252764","","0.6","0.8","0.4","0.2","","","","","0.5011331455","0.8281457055","0.8366496483","0.4354252764","","","","","","","","76","L","3","","","195","main_expt",""
"","bandit","275","897548","0.0-236.0-0.0","72112420","wem/bandit_either_3","A3VP27UUQ34OXK","either","8","777","","","","","","","0","0","1","","0.4170899215","0.6","0.8","0.4","0.2","0.4487960683","0.8248544968","0.8484646997","0.4170899215","","","","","","","","","","","","76","L","3","","","196","main_expt",""
"","bandit","276","899537","0.0-237.0-0.0","72112420","wem/bandit_either_3","A3VP27UUQ34OXK","either","8","433","","","","","","","1","0","0","0.8734060335","","0.6","0.8","0.4","0.2","","","","","0.3975590019","0.8532714289","0.8734060335","0.4149059055","","","","","","","","75","K","2","","","197","main_expt",""
"","bandit","277","901404","0.0-238.0-0.0","72112420","wem/bandit_either_3","A3VP27UUQ34OXK","either","8","320","","","","","","","0","0","1","","0.8515360685","0.6","0.8","0.4","0.2","0.4161601929","0.7587337752","0.8515360685","0.4737306044","","","","","","","","","","","","75","K","2","","","198","main_expt",""
"","bandit","278","903392","0.0-239.0-0.0","72112420","wem/bandit_either_3","A3VP27UUQ34OXK","either","8","431","","","","","","","1","0","0","0.8805923715","","0.6","0.8","0.4","0.2","","","","","0.4483979408","0.8124408481","0.8805923715","0.4541760911","","","","","","","","75","K","2","","","199","main_expt",""
"","bandit","279","905327","0.0-240.0-0.0","72112420","wem/bandit_either_3","A3VP27UUQ34OXK","either","8","395","","","","","","","0","1","0","","0.9645818821","0.6","0.8","0.4","0.2","0.5303380975","0.7935778268","0.9645818821","0.3964714959","","","","","","","","","","","","75","K","2","","","200","main_expt",""
"","bandit","280","907277","0.0-241.0-0.0","72112420","wem/bandit_either_3","A3VP27UUQ34OXK","either","8","379","","","","","","","1","0","0","0.9689478708","","0.6","0.8","0.4","0.2","","","","","0.4014045657","0.736942723","0.9689478708","0.3815447649","","","","","","","","75","K","2","","","201","main_expt",""
"","bandit","281","909484","0.0-242.0-0.0","72112420","wem/bandit_either_3","A3VP27UUQ34OXK","either","8","651","","","","","","","0","1","0","","0.9678291885","0.6","0.8","0.4","0.2","0.5115169607","0.7001951276","0.9678291885","0.3726367513","","","","","","","","","","","","75","K","2","","","202","main_expt",""
"","bandit","282","911896","0.0-243.0-0.0","72112420","wem/bandit_either_3","A3VP27UUQ34OXK","either","8","866","","","","","","","0","1","0","","0.9633244117","0.6","0.8","0.4","0.2","0.5026191452","0.7209300446","0.9633244117","0.3062653216","","","","","","","","","","","","75","K","2","","","203","main_expt",""
"","bandit","283","914088","0.0-244.0-0.0","72112420","wem/bandit_either_3","A3VP27UUQ34OXK","either","8","625","","","","","","","0","1","0","","0.9730812582","0.6","0.8","0.4","0.2","0.4736298566","0.8574132932","0.9730812582","0.2848501254","","","","","","","","","","","","75","K","2","","","204","main_expt",""
"","bandit","284","916088","0.0-245.0-0.0","72112420","wem/bandit_either_3","A3VP27UUQ34OXK","either","8","438","","","","","","","1","0","0","0.9521206422","","0.6","0.8","0.4","0.2","","","","","0.6121858428","0.9038760074","0.9521206422","0.3457586416","","","","","","","","75","K","2","","","205","main_expt",""
"","bandit","285","917964","0.0-246.0-0.0","72112420","wem/bandit_either_3","A3VP27UUQ34OXK","either","8","343","","","","","","","1","0","0","0.9614764056","","0.6","0.8","0.4","0.2","","","","","0.6377028942","0.9273356803","0.9614764056","0.4609097875","","","","","","","","75","K","2","","","206","main_expt",""
"","bandit","286","920405","0.0-247.0-0.0","72112420","wem/bandit_either_3","A3VP27UUQ34OXK","either","8","891","","","","","","","0","1","0","","0.9625830716","0.6","0.8","0.4","0.2","0.5700483165","0.9502037039","0.9625830716","0.4980316736","","","","","","","","","","","","75","K","2","","","207","main_expt",""
"","bandit","287","922378","0.0-248.0-0.0","72112420","wem/bandit_either_3","A3VP27UUQ34OXK","either","8","433","","","","","","","1","0","0","0.9359306517","","0.6","0.8","0.4","0.2","","","","","0.624428721","0.944094639","0.9359306517","0.4537691537","","","","","","","","75","K","2","","","208","main_expt",""
"","bandit","288","924430","0.0-249.0-0.0","72112420","wem/bandit_either_3","A3VP27UUQ34OXK","either","8","508","","","","","","","0","1","0","","0.9632917203","0.6","0.8","0.4","0.2","0.4861871301","0.9070839441","0.9632917203","0.4475842875","","","","","","","","","","","","75","K","2","","","209","main_expt",""
"","bandit","289","926344","0.0-250.0-0.0","72112420","wem/bandit_either_3","A3VP27UUQ34OXK","either","8","379","","","","","","","0","1","0","","0.9633226214","0.6","0.8","0.4","0.2","0.3956361612","0.8960653589","0.9633226214","0.4803454055","","","","","","","","","","","","75","K","2","","","210","main_expt",""
"","bandit","290","928338","0.0-251.0-0.0","72112420","wem/bandit_either_3","A3VP27UUQ34OXK","either","8","456","","","","","","","1","0","0","0.9719781217","","0.6","0.8","0.4","0.2","","","","","0.3599204452","0.9155455821","0.9719781217","0.4126443349","","","","","","","","75","K","2","","","211","main_expt",""
"","bandit","291","930347","0.0-252.0-0.0","72112420","wem/bandit_either_3","A3VP27UUQ34OXK","either","8","461","","","","","","","1","0","0","0.9700781686","","0.6","0.8","0.4","0.2","","","","","0.3349000901","0.9087954588","0.9700781686","0.3384802849","","","","","","","","75","K","2","","","212","main_expt",""
"","bandit","292","932392","0.0-253.0-0.0","72112420","wem/bandit_either_3","A3VP27UUQ34OXK","either","8","506","","","","","","","0","1","0","","0.971165811","0.6","0.8","0.4","0.2","0.3183344176","0.8528540962","0.971165811","0.3039242722","","","","","","","","","","","","75","K","2","","","213","main_expt",""
"","bandit","293","934628","0.0-254.0-0.0","72112420","wem/bandit_either_3","A3VP27UUQ34OXK","either","8","684","","","","","","","0","1","0","","0.9627117","0.6","0.8","0.4","0.2","0.2390758011","0.8506041988","0.9627117","0.4541530846","","","","","","","","","","","","75","K","2","","","214","main_expt",""
"","bandit","294","936699","0.0-255.0-0.0","72112420","wem/bandit_either_3","A3VP27UUQ34OXK","either","8","524","","","","","","","1","0","0","0.9552130497","","0.6","0.8","0.4","0.2","","","","","0.1997060473","0.8001829978","0.9552130497","0.5101749692","","","","","","","","75","K","2","","","215","main_expt",""
"","bandit","295","939070","0.0-256.0-0.0","72112420","wem/bandit_either_3","A3VP27UUQ34OXK","either","8","830","","","","","","","0","1","0","","0.9220350188","0.6","0.8","0.4","0.2","0.2326539104","0.733614842","0.9220350188","0.5580520347","","","","","","","","","","","","75","K","2","","","216","main_expt",""
"","bandit","296","941082","0.0-257.0-0.0","72112420","wem/bandit_either_3","A3VP27UUQ34OXK","either","8","457","","","","","","","0","1","0","","0.8736667029","0.6","0.8","0.4","0.2","0.2319826337","0.7479737912","0.8736667029","0.4368451062","","","","","","","","","","","","75","K","2","","","217","main_expt",""
"","bandit","297","943328","0.0-258.0-0.0","72112420","wem/bandit_either_3","A3VP27UUQ34OXK","either","8","664","","","","","","","0","0","1","","0.7602784417","0.6","0.8","0.4","0.2","0.3143382807","0.7713398237","0.7602784417","0.3963441813","","","","","","","","","","","","75","K","2","","","218","main_expt",""
"","bandit","298","945327","0.0-259.0-0.0","72112420","wem/bandit_either_3","A3VP27UUQ34OXK","either","8","454","","","","","","","1","0","0","0.7643050859","","0.6","0.8","0.4","0.2","","","","","0.3304972923","0.8077055691","0.7643050859","0.4809426617","","","","","","","","75","K","2","","","219","main_expt",""
"","bandit","299","947418","0.0-260.0-0.0","72112420","wem/bandit_either_3","A3VP27UUQ34OXK","either","8","547","","","","","","","0","1","0","","0.7793587236","0.6","0.8","0.4","0.2","0.2866104843","0.7778114837","0.7793587236","0.397759556","","","","","","","","","","","","75","K","2","","","220","main_expt",""
"","bandit","300","949328","0.0-261.0-0.0","72112420","wem/bandit_either_3","A3VP27UUQ34OXK","either","8","363","","","","","","","1","0","0","0.82086311","","0.6","0.8","0.4","0.2","","","","","0.3602561646","0.7214198583","0.82086311","0.4087677593","","","","","","","","75","K","2","","","221","main_expt",""
"","bandit","301","951268","0.0-262.0-0.0","72112420","wem/bandit_either_3","A3VP27UUQ34OXK","either","8","388","","","","","","","1","0","0","0.8543662658","","0.6","0.8","0.4","0.2","","","","","0.3228749062","0.8091526303","0.8543662658","0.4561280915","","","","","","","","75","K","2","","","222","main_expt",""
"","bandit","302","953167","0.0-263.0-0.0","72112420","wem/bandit_either_3","A3VP27UUQ34OXK","either","8","341","","","","","","","1","0","0","0.8599459829","","0.6","0.8","0.4","0.2","","","","","0.2549485676","0.8240838469","0.8599459829","0.4419858618","","","","","","","","75","K","2","","","223","main_expt",""
"","bandit","303","955090","0.0-264.0-0.0","72112420","wem/bandit_either_3","A3VP27UUQ34OXK","either","8","353","","","","","","","0","1","0","","0.8747991669","0.6","0.8","0.4","0.2","0.2389333491","0.7670685714","0.8747991669","0.494409337","","","","","","","","","","","","75","K","2","","","224","main_expt",""
"","bandit","304","957029","0.0-265.0-0.0","72112420","wem/bandit_either_3","A3VP27UUQ34OXK","either","8","375","","","","","","","0","1","0","","0.7910409491","0.6","0.8","0.4","0.2","0.1517307125","0.8775689376","0.7910409491","0.3713348049","","","","","","","","","","","","75","K","2","","","225","main_expt",""
"","bandit","305","959019","0.0-266.0-0.0","72112420","wem/bandit_either_3","A3VP27UUQ34OXK","either","8","403","","","","","","","1","0","0","0.7212928749","","0.6","0.8","0.4","0.2","","","","","0.1002450003","0.8846504348","0.7212928749","0.4013452417","","","","","","","","75","K","2","","","226","main_expt",""
"","bandit","306","960914","0.0-267.0-0.0","72112420","wem/bandit_either_3","A3VP27UUQ34OXK","either","8","347","","","","","","","0","1","0","","0.7090989562","0.6","0.8","0.4","0.2","0.1049945928","0.851087938","0.7090989562","0.393451628","","","","","","","","","","","","75","K","2","","","227","main_expt",""
"","bandit","307","962976","0.0-268.0-0.0","72112420","wem/bandit_either_3","A3VP27UUQ34OXK","either","8","521","","","","","","","1","0","0","0.6606736223","","0.6","0.8","0.4","0.2","","","","","0.03915988122","0.9074720337","0.6606736223","0.4175844788","","","","","","","","75","K","2","","","228","main_expt",""
"","bandit","308","964973","0.0-269.0-0.0","72112420","wem/bandit_either_3","A3VP27UUQ34OXK","either","8","455","","","","","","","1","0","0","0.6893924153","","0.6","0.8","0.4","0.2","","","","","0.03767516843","0.872332114","0.6893924153","0.408368909","","","","","","","","75","K","2","","","229","main_expt",""
"","bandit","309","967179","0.0-270.0-0.0","72112420","wem/bandit_either_3","A3VP27UUQ34OXK","either","8","665","","","","","","","0","0","1","","0.6067604319","0.6","0.8","0.4","0.2","0.05804790214","0.7967167456","0.6067604319","0.4777699032","","","","","","","","","","","","75","K","2","","","230","main_expt",""
"","bandit","310","969208","0.0-271.0-0.0","72112420","wem/bandit_either_3","A3VP27UUQ34OXK","either","8","472","","","","","","","0","0","1","0.5037419277","","0.6","0.8","0.4","0.2","","","","","0.04963095007","0.7760618079","0.5037419277","0.4935442242","","","","","","","","75","K","2","","","231","main_expt",""
"","bandit","311","971249","0.0-272.0-0.0","72112420","wem/bandit_either_3","A3VP27UUQ34OXK","either","8","485","","","","","","","0","0","1","0.03759782928","","0.6","0.8","0.4","0.2","","","","","0.03759782928","0.7765467853","0.4339479185","0.4889590317","","","","","","","","72","H","0","img/none_selected.jpg","","232","main_expt",""
"","bandit","312","973227","0.0-273.0-0.0","72112420","wem/bandit_either_3","A3VP27UUQ34OXK","either","8","449","","","","","","","0","1","0","","0.7895219362","0.6","0.8","0.4","0.2","0.03147013274","0.7895219362","0.4525546635","0.5212294662","","","","","","","","","","","","74","J","1","","","233","main_expt",""
"","bandit","313","975258","0.0-274.0-0.0","72112420","wem/bandit_either_3","A3VP27UUQ34OXK","either","8","465","","","","","","","1","0","0","0.7491899586","","0.6","0.8","0.4","0.2","","","","","0.03547440544","0.7491899586","0.3680080929","0.4420617392","","","","","","","","74","J","1","","","234","main_expt",""
"","bandit","314","977146","0.0-275.0-0.0","72112420","wem/bandit_either_3","A3VP27UUQ34OXK","either","8","367","","","","","","","1","0","0","0.7397351474","","0.6","0.8","0.4","0.2","","","","","0.04486782706","0.7397351474","0.3416373547","0.4816955248","","","","","","","","74","J","1","","","235","main_expt",""
"","bandit","315","979150","0.0-276.0-0.0","72112420","wem/bandit_either_3","A3VP27UUQ34OXK","either","8","466","","","","","","","1","0","0","0.6587673302","","0.6","0.8","0.4","0.2","","","","","0.03122339122","0.6587673302","0.3722877153","0.3028121716","","","","","","","","74","J","1","","","236","main_expt",""
"","bandit","316","981179","0.0-277.0-0.0","72112420","wem/bandit_either_3","A3VP27UUQ34OXK","either","8","486","","","","","","","0","0","1","0.7534934878","","0.6","0.8","0.4","0.2","","","","","0.04191117605","0.7534934878","0.3081002542","0.3802502189","","","","","","","","74","J","1","","","237","main_expt",""
"","bandit","317","983050","0.0-278.0-0.0","72112420","wem/bandit_either_3","A3VP27UUQ34OXK","either","8","329","","","","","","","0","0","1","0.8023031038","","0.6","0.8","0.4","0.2","","","","","0.06367740527","0.8023031038","0.2546656634","0.4160754302","","","","","","","","74","J","1","","","238","main_expt",""
"","bandit","318","984786","0.0-279.0-0.0","72112420","wem/bandit_either_3","A3VP27UUQ34OXK","either","8","206","","","","","","","1","0","0","0.8333986962","","0.6","0.8","0.4","0.2","","","","","0.06315957527","0.8333986962","0.3038323055","0.3510440385","","","","","","","","74","J","1","","","239","main_expt",""
"","bandit","319","986729","0.0-280.0-0.0","72112420","wem/bandit_either_3","A3VP27UUQ34OXK","either","8","413","","","","","","","0","1","0","","0.840768508","0.6","0.8","0.4","0.2","0.05324295338","0.840768508","0.291884511","0.4182550587","","","","","","","","","","","","74","J","1","","","240","main_expt",""
"","bandit","320","988624","0.0-281.0-0.0","72112420","wem/bandit_either_3","A3VP27UUQ34OXK","either","8","347","","","","","","","0","0","1","0.823006268","","0.6","0.8","0.4","0.2","","","","","0.04641095239","0.823006268","0.3124975621","0.5037088371","","","","","","","","74","J","1","","","241","main_expt",""
"","bandit","321","990597","0.0-282.0-0.0","72112420","wem/bandit_either_3","A3VP27UUQ34OXK","either","8","428","","","","","","","1","0","0","0.8152254121","","0.6","0.8","0.4","0.2","","","","","0.04954190216","0.8152254121","0.3637146884","0.4877747003","","","","","","","","74","J","1","","","242","main_expt",""
