"consent","trial_type","trial_index","time_elapsed","internal_node_id","subjID","study","MID","cond","drift","rt","responses","key_press","expt_phase","like","value","connected","gems","bombs","no_reward","GemPrChosen","BombPrChosen","GainOverPainPr_0","GainOverPainPr_1","GainOverPainPr_2","GainOverPainPr_3","LosePr_0","LosePr_1","LosePr_2","LosePr_3","WinPr_0","WinPr_1","WinPr_2","WinPr_3","Q0","Q1","Q2","gender","age","ethnicity","target","respCharCode","respKey","respChoiceNum","respChoice","practice","trial_counter","trial_label","button_pressed"
"INL_behavioral_consent_30min_online.html","consent","0","20488","0.0-0.0","72592555","wem/bandit_either_3","A1CGDMOPDIC7EU","either","3","","","","","","","","","","","","","","","","","","","","","","","","","","","","","","","","","","","","","","",""
"","survey-text","1","32021","0.0-1.0","72592555","wem/bandit_either_3","A1CGDMOPDIC7EU","either","3","10510","{""Q0"":""A1CGDMOPDIC7EU""}","","","","","","","","","","","","","","","","","","","","","","","","","","","","","","","","","","","","",""
"","text","2","53390","0.0-2.0","72592555","wem/bandit_either_3","A1CGDMOPDIC7EU","either","3","20360","","32","","","","","","","","","","","","","","","","","","","","","","","","","","","","","","","","","","","",""
"","text","3","61935","0.0-3.0","72592555","wem/bandit_either_3","A1CGDMOPDIC7EU","either","3","8543","","32","","","","","","","","","","","","","","","","","","","","","","","","","","","","","","","","","","","",""
"","text","4","135371","0.0-4.0","72592555","wem/bandit_either_3","A1CGDMOPDIC7EU","either","3","73433","","32","","","","","","","","","","","","","","","","","","","","","","","","","","","","","","","","","","","",""
"","text","5","152294","0.0-5.0","72592555","wem/bandit_either_3","A1CGDMOPDIC7EU","either","3","16921","","32","","","","","","","","","","","","","","","","","","","","","","","","","","","","","","","","","","","",""
"","text","6","179155","0.0-6.0","72592555","wem/bandit_either_3","A1CGDMOPDIC7EU","either","3","26860","","32","","","","","","","","","","","","","","","","","","","","","","","","","","","","","","","","","","","",""
"","text","7","197108","0.0-7.0","72592555","wem/bandit_either_3","A1CGDMOPDIC7EU","either","3","17951","","32","","","","","","","","","","","","","","","","","","","","","","","","","","","","","","","","","","","",""
"","text","8","203056","0.0-8.0","72592555","wem/bandit_either_3","A1CGDMOPDIC7EU","either","3","5945","","32","","","","","","","","","","","","","","","","","","","","","","","","","","","","","","","","","","","",""
"","identification","9","217504","0.0-9.0-0.0","72592555","wem/bandit_either_3","A1CGDMOPDIC7EU","either","3","14420","","","","3","5","5","","","","","","","","","","","","","","","","","","","","","","","","the village of Zur","","","","","","","",""
"","identification","10","232538","0.0-9.0-1.0","72592555","wem/bandit_either_3","A1CGDMOPDIC7EU","either","3","14004","","","","2","2","3","","","","","","","","","","","","","","","","","","","","","","","","the village of Nyx","","","","","","","",""
"","text","11","248537","0.0-10.0","72592555","wem/bandit_either_3","A1CGDMOPDIC7EU","either","3","14987","","32","","","","","","","","","","","","","","","","","","","","","","","","","","","","","","","","","","","",""
"","text","12","250960","0.0-11.0","72592555","wem/bandit_either_3","A1CGDMOPDIC7EU","either","3","2421","","32","","","","","","","","","","","","","","","","","","","","","","","","","","","","","","","","","","","",""
"","text","13","252932","0.0-12.0","72592555","wem/bandit_either_3","A1CGDMOPDIC7EU","either","3","1969","","32","","","","","","","","","","","","","","","","","","","","","","","","","","","","","","","","","","","",""
"","text","14","257497","0.0-13.0","72592555","wem/bandit_either_3","A1CGDMOPDIC7EU","either","3","4564","","32","","","","","","","","","","","","","","","","","","","","","","","","","","","","","","","","","","","",""
"","bandit","15","259873","0.0-14.0-0.0","72592555","wem/bandit_either_3","A1CGDMOPDIC7EU","either","3","849","","","","","","","0","0","1","0","0","","","","","0","","","","0","","","","","","","","","","","74","J","0","img/none_selected_demo.jpg","true","0","",""
"","bandit","16","264065","0.0-15.0-0.0","72592555","wem/bandit_either_3","A1CGDMOPDIC7EU","either","3","2684","","","","","","","0","0","1","0","0","","","","","0","","","","0","","","","","","","","","","","75","K","0","img/none_selected_demo.jpg","true","0","",""
"","text","17","296613","0.0-16.0","72592555","wem/bandit_either_3","A1CGDMOPDIC7EU","either","3","32545","","32","","","","","","","","","","","","","","","","","","","","","","","","","","","","","","","","","","","",""
"","text","18","313871","0.0-17.0","72592555","wem/bandit_either_3","A1CGDMOPDIC7EU","either","3","17255","","32","","","","","","","","","","","","","","","","","","","","","","","","","","","","","","","","","","","",""
"","text","19","332628","0.0-18.0","72592555","wem/bandit_either_3","A1CGDMOPDIC7EU","either","3","18755","","32","","","","","","","","","","","","","","","","","","","","","","","","","","","","","","","","","","","",""
"","text","20","335856","0.0-19.0","72592555","wem/bandit_either_3","A1CGDMOPDIC7EU","either","3","3226","","32","","","","","","","","","","","","","","","","","","","","","","","","","","","","","","","","","","","",""
"","bandit","21","338399","0.0-20.0-0.0","72592555","wem/bandit_either_3","A1CGDMOPDIC7EU","either","3","1027","","","","","","","0","1","0","","0.8","0.5","0.5","","","0.8","0.2","","","","","","","","","","","","","","74","J","0","img/none_selected_demo.jpg","true","0","80_20_practice",""
"","bandit","22","340628","0.0-20.0-1.0","72592555","wem/bandit_either_3","A1CGDMOPDIC7EU","either","3","698","","","","","","","0","0","1","0.2","","0.5","0.5","","","","","","","0.8","0.2","","","","","","","","","","75","K","1","","true","0","80_20_practice",""
"","bandit","23","342800","0.0-20.0-2.0","72592555","wem/bandit_either_3","A1CGDMOPDIC7EU","either","3","640","","","","","","","0","0","1","","0.2","0.5","0.5","","","0.8","0.2","","","","","","","","","","","","","","75","K","1","","true","0","80_20_practice",""
"","bandit","24","346578","0.0-20.0-3.0","72592555","wem/bandit_either_3","A1CGDMOPDIC7EU","either","3","2251","","","","","","","1","0","0","0.8","","0.5","0.5","","","","","","","0.8","0.2","","","","","","","","","","74","J","0","img/none_selected_demo.jpg","true","0","80_20_practice",""
"","bandit","25","349156","0.0-20.0-4.0","72592555","wem/bandit_either_3","A1CGDMOPDIC7EU","either","3","1054","","","","","","","0","0","1","","0.8","0.5","0.5","","","0.8","0.2","","","","","","","","","","","","","","74","J","0","img/none_selected_demo.jpg","true","0","80_20_practice",""
"","bandit","26","350972","0.0-20.0-5.0","72592555","wem/bandit_either_3","A1CGDMOPDIC7EU","either","3","306","","","","","","","0","0","1","","0.8","0.5","0.5","","","0.8","0.2","","","","","","","","","","","","","","74","J","0","img/none_selected_demo.jpg","true","0","80_20_practice",""
"","bandit","27","352895","0.0-20.0-6.0","72592555","wem/bandit_either_3","A1CGDMOPDIC7EU","either","3","398","","","","","","","0","0","1","0.8","","0.5","0.5","","","","","","","0.8","0.2","","","","","","","","","","74","J","0","img/none_selected_demo.jpg","true","0","80_20_practice",""
"","bandit","28","354590","0.0-20.0-7.0","72592555","wem/bandit_either_3","A1CGDMOPDIC7EU","either","3","181","","","","","","","0","0","1","0.2","","0.5","0.5","","","","","","","0.8","0.2","","","","","","","","","","75","K","1","","true","0","80_20_practice",""
"","bandit","29","356418","0.0-20.0-8.0","72592555","wem/bandit_either_3","A1CGDMOPDIC7EU","either","3","295","","","","","","","0","0","1","","0.2","0.5","0.5","","","0.8","0.2","","","","","","","","","","","","","","75","K","1","","true","0","80_20_practice",""
"","bandit","30","358267","0.0-20.0-9.0","72592555","wem/bandit_either_3","A1CGDMOPDIC7EU","either","3","331","","","","","","","0","0","1","","0.2","0.5","0.5","","","0.8","0.2","","","","","","","","","","","","","","75","K","1","","true","0","80_20_practice",""
"","bandit","31","360039","0.0-20.0-10.0","72592555","wem/bandit_either_3","A1CGDMOPDIC7EU","either","3","264","","","","","","","0","0","1","0.8","","0.5","0.5","","","","","","","0.8","0.2","","","","","","","","","","74","J","0","img/none_selected_demo.jpg","true","0","80_20_practice",""
"","bandit","32","361888","0.0-20.0-11.0","72592555","wem/bandit_either_3","A1CGDMOPDIC7EU","either","3","326","","","","","","","1","0","0","0.8","","0.5","0.5","","","","","","","0.8","0.2","","","","","","","","","","74","J","0","img/none_selected_demo.jpg","true","0","80_20_practice",""
"","bandit","33","363850","0.0-20.0-12.0","72592555","wem/bandit_either_3","A1CGDMOPDIC7EU","either","3","435","","","","","","","0","0","1","0.8","","0.5","0.5","","","","","","","0.8","0.2","","","","","","","","","","74","J","0","img/none_selected_demo.jpg","true","0","80_20_practice",""
"","bandit","34","365997","0.0-20.0-13.0","72592555","wem/bandit_either_3","A1CGDMOPDIC7EU","either","3","622","","","","","","","1","0","0","0.8","","0.5","0.5","","","","","","","0.8","0.2","","","","","","","","","","74","J","0","img/none_selected_demo.jpg","true","0","80_20_practice",""
"","bandit","35","367927","0.0-20.0-14.0","72592555","wem/bandit_either_3","A1CGDMOPDIC7EU","either","3","405","","","","","","","1","0","0","0.8","","0.5","0.5","","","","","","","0.8","0.2","","","","","","","","","","74","J","0","img/none_selected_demo.jpg","true","0","80_20_practice",""
"","bandit","36","370010","0.0-20.0-15.0","72592555","wem/bandit_either_3","A1CGDMOPDIC7EU","either","3","552","","","","","","","0","1","0","","0.8","0.5","0.5","","","0.8","0.2","","","","","","","","","","","","","","74","J","0","img/none_selected_demo.jpg","true","0","80_20_practice",""
"","bandit","37","371881","0.0-20.0-16.0","72592555","wem/bandit_either_3","A1CGDMOPDIC7EU","either","3","340","","","","","","","0","1","0","","0.8","0.5","0.5","","","0.8","0.2","","","","","","","","","","","","","","74","J","0","img/none_selected_demo.jpg","true","0","80_20_practice",""
"","bandit","38","374353","0.0-20.0-17.0","72592555","wem/bandit_either_3","A1CGDMOPDIC7EU","either","3","951","","","","","","","0","0","1","","0.8","0.5","0.5","","","0.8","0.2","","","","","","","","","","","","","","74","J","0","img/none_selected_demo.jpg","true","0","80_20_practice",""
"","bandit","39","376945","0.0-20.0-18.0","72592555","wem/bandit_either_3","A1CGDMOPDIC7EU","either","3","1072","","","","","","","1","0","0","0.8","","0.5","0.5","","","","","","","0.8","0.2","","","","","","","","","","74","J","0","img/none_selected_demo.jpg","true","0","80_20_practice",""
"","bandit","40","379329","0.0-20.0-19.0","72592555","wem/bandit_either_3","A1CGDMOPDIC7EU","either","3","852","","","","","","","0","1","0","","0.8","0.5","0.5","","","0.8","0.2","","","","","","","","","","","","","","74","J","0","img/none_selected_demo.jpg","true","0","80_20_practice",""
"","text","41","385450","0.0-21.0","72592555","wem/bandit_either_3","A1CGDMOPDIC7EU","either","3","6116","","32","","","","","","","","","","","","","","","","","","","","","","","","","","","","","","","","","","","",""
"","bandit","42","389561","0.0-22.0-0.0","72592555","wem/bandit_either_3","A1CGDMOPDIC7EU","either","3","2586","","","","","","","1","0","0","1","0","","","","","0","1","","","1","0","","","","","","","","","","74","J","0","img/none_selected_demo.jpg","true","0","",""
"","text","43","402382","0.0-23.0","72592555","wem/bandit_either_3","A1CGDMOPDIC7EU","either","3","12818","","32","","","","","","","","","","","","","","","","","","","","","","","","","","","","","","","","","","","",""
"","text","44","407775","0.0-24.0","72592555","wem/bandit_either_3","A1CGDMOPDIC7EU","either","3","5390","","32","","","","","","","","","","","","","","","","","","","","","","","","","","","","","","","","","","","",""
"","text","45","411788","0.0-25.0","72592555","wem/bandit_either_3","A1CGDMOPDIC7EU","either","3","4009","","32","","","","","","","","","","","","","","","","","","","","","","","","","","","","","","","","","","","",""
"","text","46","415400","0.0-26.0","72592555","wem/bandit_either_3","A1CGDMOPDIC7EU","either","3","3610","","32","","","","","","","","","","","","","","","","","","","","","","","","","","","","","","","","","","","",""
"","text","47","423005","0.0-27.0","72592555","wem/bandit_either_3","A1CGDMOPDIC7EU","either","3","7602","","32","","","","","","","","","","","","","","","","","","","","","","","","","","","","","","","","","","","",""
"","text","48","452081","0.0-28.0","72592555","wem/bandit_either_3","A1CGDMOPDIC7EU","either","3","29072","","32","","","","","","","","","","","","","","","","","","","","","","","","","","","","","","","","","","","",""
"","text","49","456943","0.0-29.0","72592555","wem/bandit_either_3","A1CGDMOPDIC7EU","either","3","4860","","32","","","","","","","","","","","","","","","","","","","","","","","","","","","","","","","","","","","",""
"","text","50","462610","0.0-30.0","72592555","wem/bandit_either_3","A1CGDMOPDIC7EU","either","3","5665","","32","","","","","","","","","","","","","","","","","","","","","","","","","","","","","","","","","","","",""
"","text","51","470826","0.0-31.0","72592555","wem/bandit_either_3","A1CGDMOPDIC7EU","either","3","8213","","32","","","","","","","","","","","","","","","","","","","","","","","","","","","","","","","","","","","",""
"","text","52","473314","0.0-32.0","72592555","wem/bandit_either_3","A1CGDMOPDIC7EU","either","3","2486","","32","","","","","","","","","","","","","","","","","","","","","","","","","","","","","","","","","","","",""
"","text","53","476254","0.0-33.0","72592555","wem/bandit_either_3","A1CGDMOPDIC7EU","either","3","2937","","32","","","","","","","","","","","","","","","","","","","","","","","","","","","","","","","","","","","",""
"","bandit","54","478907","0.0-34.0-0.0","72592555","wem/bandit_either_3","A1CGDMOPDIC7EU","either","3","1119","","","","","","","0","1","0","","0.8","0.5","0.5","0.5","0.5","0.8","0.2","0.6","0.2","","","","","","","","","","","","72","H","0","img/none_selected.jpg","true","0","full_practice",""
"","bandit","55","480720","0.0-34.0-1.0","72592555","wem/bandit_either_3","A1CGDMOPDIC7EU","either","3","291","","","","","","","0","1","0","","0.2","0.5","0.5","0.5","0.5","0.8","0.2","0.6","0.2","","","","","","","","","","","","74","J","1","","true","0","full_practice",""
"","bandit","56","482506","0.0-34.0-2.0","72592555","wem/bandit_either_3","A1CGDMOPDIC7EU","either","3","276","","","","","","","0","0","1","","0.6","0.5","0.5","0.5","0.5","0.8","0.2","0.6","0.2","","","","","","","","","","","","75","K","2","","true","0","full_practice",""
"","bandit","57","484395","0.0-34.0-3.0","72592555","wem/bandit_either_3","A1CGDMOPDIC7EU","either","3","367","","","","","","","0","0","1","0.2","","0.5","0.5","0.5","0.5","","","","","0.8","0.2","0.6","0.2","","","","","","","","76","L","3","","true","0","full_practice",""
"","bandit","58","487036","0.0-34.0-4.0","72592555","wem/bandit_either_3","A1CGDMOPDIC7EU","either","3","1121","","","","","","","1","0","0","0.8","","0.5","0.5","0.5","0.5","","","","","0.8","0.2","0.6","0.2","","","","","","","","72","H","0","img/none_selected.jpg","true","0","full_practice",""
"","bandit","59","489001","0.0-34.0-5.0","72592555","wem/bandit_either_3","A1CGDMOPDIC7EU","either","3","447","","","","","","","1","0","0","0.8","","0.5","0.5","0.5","0.5","","","","","0.8","0.2","0.6","0.2","","","","","","","","72","H","0","img/none_selected.jpg","true","0","full_practice",""
"","bandit","60","490943","0.0-34.0-6.0","72592555","wem/bandit_either_3","A1CGDMOPDIC7EU","either","3","420","","","","","","","0","1","0","","0.8","0.5","0.5","0.5","0.5","0.8","0.2","0.6","0.2","","","","","","","","","","","","72","H","0","img/none_selected.jpg","true","0","full_practice",""
"","bandit","61","492927","0.0-34.0-7.0","72592555","wem/bandit_either_3","A1CGDMOPDIC7EU","either","3","465","","","","","","","0","0","1","","0.2","0.5","0.5","0.5","0.5","0.8","0.2","0.6","0.2","","","","","","","","","","","","74","J","1","","true","0","full_practice",""
"","bandit","62","494702","0.0-34.0-8.0","72592555","wem/bandit_either_3","A1CGDMOPDIC7EU","either","3","250","","","","","","","0","0","1","0.2","","0.5","0.5","0.5","0.5","","","","","0.8","0.2","0.6","0.2","","","","","","","","74","J","1","","true","0","full_practice",""
"","bandit","63","496426","0.0-34.0-9.0","72592555","wem/bandit_either_3","A1CGDMOPDIC7EU","either","3","196","","","","","","","0","1","0","","0.8","0.5","0.5","0.5","0.5","0.8","0.2","0.6","0.2","","","","","","","","","","","","72","H","0","img/none_selected.jpg","true","0","full_practice",""
"","bandit","64","498221","0.0-34.0-10.0","72592555","wem/bandit_either_3","A1CGDMOPDIC7EU","either","3","278","","","","","","","0","1","0","","0.8","0.5","0.5","0.5","0.5","0.8","0.2","0.6","0.2","","","","","","","","","","","","72","H","0","img/none_selected.jpg","true","0","full_practice",""
"","bandit","65","500016","0.0-34.0-11.0","72592555","wem/bandit_either_3","A1CGDMOPDIC7EU","either","3","276","","","","","","","1","0","0","0.8","","0.5","0.5","0.5","0.5","","","","","0.8","0.2","0.6","0.2","","","","","","","","72","H","0","img/none_selected.jpg","true","0","full_practice",""
"","bandit","66","501827","0.0-34.0-12.0","72592555","wem/bandit_either_3","A1CGDMOPDIC7EU","either","3","287","","","","","","","1","0","0","0.8","","0.5","0.5","0.5","0.5","","","","","0.8","0.2","0.6","0.2","","","","","","","","72","H","0","img/none_selected.jpg","true","0","full_practice",""
"","bandit","67","503560","0.0-34.0-13.0","72592555","wem/bandit_either_3","A1CGDMOPDIC7EU","either","3","215","","","","","","","0","0","1","0.8","","0.5","0.5","0.5","0.5","","","","","0.8","0.2","0.6","0.2","","","","","","","","72","H","0","img/none_selected.jpg","true","0","full_practice",""
"","bandit","68","505349","0.0-34.0-14.0","72592555","wem/bandit_either_3","A1CGDMOPDIC7EU","either","3","251","","","","","","","0","1","0","","0.8","0.5","0.5","0.5","0.5","0.8","0.2","0.6","0.2","","","","","","","","","","","","72","H","0","img/none_selected.jpg","true","0","full_practice",""
"","bandit","69","507166","0.0-34.0-15.0","72592555","wem/bandit_either_3","A1CGDMOPDIC7EU","either","3","294","","","","","","","1","0","0","0.8","","0.5","0.5","0.5","0.5","","","","","0.8","0.2","0.6","0.2","","","","","","","","72","H","0","img/none_selected.jpg","true","0","full_practice",""
"","bandit","70","508903","0.0-34.0-16.0","72592555","wem/bandit_either_3","A1CGDMOPDIC7EU","either","3","216","","","","","","","0","0","1","","0.8","0.5","0.5","0.5","0.5","0.8","0.2","0.6","0.2","","","","","","","","","","","","72","H","0","img/none_selected.jpg","true","0","full_practice",""
"","bandit","71","510986","0.0-34.0-17.0","72592555","wem/bandit_either_3","A1CGDMOPDIC7EU","either","3","557","","","","","","","1","0","0","0.8","","0.5","0.5","0.5","0.5","","","","","0.8","0.2","0.6","0.2","","","","","","","","72","H","0","img/none_selected.jpg","true","0","full_practice",""
"","bandit","72","512833","0.0-34.0-18.0","72592555","wem/bandit_either_3","A1CGDMOPDIC7EU","either","3","336","","","","","","","0","1","0","","0.8","0.5","0.5","0.5","0.5","0.8","0.2","0.6","0.2","","","","","","","","","","","","72","H","0","img/none_selected.jpg","true","0","full_practice",""
"","bandit","73","514641","0.0-34.0-19.0","72592555","wem/bandit_either_3","A1CGDMOPDIC7EU","either","3","281","","","","","","","0","1","0","","0.8","0.5","0.5","0.5","0.5","0.8","0.2","0.6","0.2","","","","","","","","","","","","72","H","0","img/none_selected.jpg","true","0","full_practice",""
"","text","74","519292","0.0-35.0","72592555","wem/bandit_either_3","A1CGDMOPDIC7EU","either","3","4638","","32","","","","","","","","","","","","","","","","","","","","","","","","","","","","","","","","","","","",""
"","text","75","533180","0.0-36.0","72592555","wem/bandit_either_3","A1CGDMOPDIC7EU","either","3","12884","","32","","","","","","","","","","","","","","","","","","","","","","","","","","","","","","","","","","","",""
"","text","76","544204","0.0-37.0","72592555","wem/bandit_either_3","A1CGDMOPDIC7EU","either","3","11021","","32","","","","","","","","","","","","","","","","","","","","","","","","","","","","","","","","","","","",""
"","text","77","549895","0.0-38.0","72592555","wem/bandit_either_3","A1CGDMOPDIC7EU","either","3","5687","","32","","","","","","","","","","","","","","","","","","","","","","","","","","","","","","","","","","","",""
"","text","78","553728","0.0-39.0","72592555","wem/bandit_either_3","A1CGDMOPDIC7EU","either","3","3828","","32","","","","","","","","","","","","","","","","","","","","","","","","","","","","","","","","","","","",""
"","text","79","556650","0.0-40.0","72592555","wem/bandit_either_3","A1CGDMOPDIC7EU","either","3","2919","","32","","","","","","","","","","","","","","","","","","","","","","","","","","","","","","","","","","","",""
"","bandit","80","559327","0.0-41.0-0.0","72592555","wem/bandit_either_3","A1CGDMOPDIC7EU","either","3","1159","","","","","","","0","1","0","","0.4261870849","0.4","0.2","0.8","0.6","0.6473934842","0.4261870849","0.1387034319","0.6494041588","","","","","","","","","","","","74","J","1","","","1","main_expt",""
"","bandit","81","561112","0.0-42.0-0.0","72592555","wem/bandit_either_3","A1CGDMOPDIC7EU","either","3","269","","","","","","","0","1","0","","0.5221866694","0.4","0.2","0.8","0.6","0.5221866694","0.3223101542","0.2166337036","0.7608835745","","","","","","","","","","","","72","H","0","img/none_selected.jpg","","2","main_expt",""
"","bandit","82","562875","0.0-43.0-0.0","72592555","wem/bandit_either_3","A1CGDMOPDIC7EU","either","3","245","","","","","","","0","0","1","0.3253899216","","0.4","0.2","0.8","0.6","","","","","0.5356292978","0.2541217019","0.3253899216","0.7745567172","","","","","","","","75","K","2","","","3","main_expt",""
"","bandit","83","564665","0.0-44.0-0.0","72592555","wem/bandit_either_3","A1CGDMOPDIC7EU","either","3","268","","","","","","","1","0","0","0.3003293127","","0.4","0.2","0.8","0.6","","","","","0.5154592071","0.2272043942","0.3003293127","0.8315703218","","","","","","","","75","K","2","","","4","main_expt",""
"","bandit","84","566543","0.0-45.0-0.0","72592555","wem/bandit_either_3","A1CGDMOPDIC7EU","either","3","355","","","","","","","0","0","1","0.3839660868","","0.4","0.2","0.8","0.6","","","","","0.4578896037","0.2967729676","0.3839660868","0.8380789219","","","","","","","","75","K","2","","","5","main_expt",""
"","bandit","85","568215","0.0-46.0-0.0","72592555","wem/bandit_either_3","A1CGDMOPDIC7EU","either","3","141","","","","","","","0","0","1","0.3833463511","","0.4","0.2","0.8","0.6","","","","","0.4825789634","0.3211998527","0.3833463511","0.8233568153","","","","","","","","75","K","2","","","6","main_expt",""
"","bandit","86","569853","0.0-47.0-0.0","72592555","wem/bandit_either_3","A1CGDMOPDIC7EU","either","3","112","","","","","","","0","0","1","0.3173395401","","0.4","0.2","0.8","0.6","","","","","0.4013658759","0.4190649117","0.3173395401","0.8672840292","","","","","","","","75","K","2","","","7","main_expt",""
"","bandit","87","571640","0.0-48.0-0.0","72592555","wem/bandit_either_3","A1CGDMOPDIC7EU","either","3","266","","","","","","","0","0","1","0.3265190876","","0.4","0.2","0.8","0.6","","","","","0.3721769634","0.5253498774","0.3265190876","0.7921451217","","","","","","","","75","K","2","","","8","main_expt",""
"","bandit","88","573173","0.0-49.0-0.0","72592555","wem/bandit_either_3","A1CGDMOPDIC7EU","either","3","9","","","","","","","1","0","0","0.7826569337","","0.4","0.2","0.8","0.6","","","","","0.3934089605","0.5552176016","0.4229840653","0.7826569337","","","","","","","","76","L","3","","","9","main_expt",""
"","bandit","89","575037","0.0-50.0-0.0","72592555","wem/bandit_either_3","A1CGDMOPDIC7EU","either","3","335","","","","","","","0","1","0","","0.7150392401","0.4","0.2","0.8","0.6","0.3360942297","0.654745146","0.5107168356","0.7150392401","","","","","","","","","","","","76","L","3","","","10","main_expt",""
"","bandit","90","576831","0.0-51.0-0.0","72592555","wem/bandit_either_3","A1CGDMOPDIC7EU","either","3","272","","","","","","","0","0","1","0.4383577931","","0.4","0.2","0.8","0.6","","","","","0.4969537907","0.6089063278","0.4383577931","0.6906605055","","","","","","","","75","K","2","","","11","main_expt",""
"","bandit","91","578442","0.0-52.0-0.0","72592555","wem/bandit_either_3","A1CGDMOPDIC7EU","either","3","94","","","","","","","0","1","0","","0.6725575113","0.4","0.2","0.8","0.6","0.4760264401","0.559155858","0.5487148549","0.6725575113","","","","","","","","","","","","76","L","3","","","12","main_expt",""
"","bandit","92","580156","0.0-53.0-0.0","72592555","wem/bandit_either_3","A1CGDMOPDIC7EU","either","3","169","","","","","","","0","0","1","","0.4008761295","0.4","0.2","0.8","0.6","0.4008761295","0.6464491645","0.7407599438","0.7404599176","","","","","","","","","","","","72","H","0","img/none_selected.jpg","","13","main_expt",""
"","bandit","93","581757","0.0-54.0-0.0","72592555","wem/bandit_either_3","A1CGDMOPDIC7EU","either","3","80","","","","","","","0","0","1","0.358486362","","0.4","0.2","0.8","0.6","","","","","0.358486362","0.6936958995","0.8307131687","0.6751607758","","","","","","","","72","H","0","img/none_selected.jpg","","14","main_expt",""
"","bandit","94","583874","0.0-55.0-0.0","72592555","wem/bandit_either_3","A1CGDMOPDIC7EU","either","3","589","","","","","","","0","1","0","","0.731471075","0.4","0.2","0.8","0.6","0.395258373","0.731471075","0.8114394421","0.6115440925","","","","","","","","","","","","74","J","1","","","15","main_expt",""
"","bandit","95","585683","0.0-56.0-0.0","72592555","wem/bandit_either_3","A1CGDMOPDIC7EU","either","3","293","","","","","","","0","0","1","","0.6487541525","0.4","0.2","0.8","0.6","0.4197334966","0.6487541525","0.8242397169","0.7019001419","","","","","","","","","","","","74","J","1","","","16","main_expt",""
"","bandit","96","587466","0.0-57.0-0.0","72592555","wem/bandit_either_3","A1CGDMOPDIC7EU","either","3","270","","","","","","","0","1","0","","0.7654634758","0.4","0.2","0.8","0.6","0.2160816064","0.7654634758","0.8317633157","0.7017998","","","","","","","","","","","","74","J","1","","","17","main_expt",""
"","bandit","97","589363","0.0-58.0-0.0","72592555","wem/bandit_either_3","A1CGDMOPDIC7EU","either","3","379","","","","","","","0","0","1","0.8158638682","","0.4","0.2","0.8","0.6","","","","","0.2058632209","0.7160830043","0.8158638682","0.7672473748","","","","","","","","75","K","2","","","18","main_expt",""
"","bandit","98","591209","0.0-59.0-0.0","72592555","wem/bandit_either_3","A1CGDMOPDIC7EU","either","3","313","","","","","","","1","0","0","0.8291878069","","0.4","0.2","0.8","0.6","","","","","0.2314559036","0.6856656502","0.8291878069","0.7950219121","","","","","","","","75","K","2","","","19","main_expt",""
"","bandit","99","593089","0.0-60.0-0.0","72592555","wem/bandit_either_3","A1CGDMOPDIC7EU","either","3","347","","","","","","","0","1","0","","0.8665153398","0.4","0.2","0.8","0.6","0.1762066147","0.6829400921","0.8665153398","0.8460513568","","","","","","","","","","","","75","K","2","","","20","main_expt",""
"","bandit","100","594749","0.0-61.0-0.0","72592555","wem/bandit_either_3","A1CGDMOPDIC7EU","either","3","134","","","","","","","1","0","0","0.8181415858","","0.4","0.2","0.8","0.6","","","","","0.150477598","0.6849203215","0.8181415858","0.8571228725","","","","","","","","75","K","2","","","21","main_expt",""
"","bandit","101","596458","0.0-62.0-0.0","72592555","wem/bandit_either_3","A1CGDMOPDIC7EU","either","3","185","","","","","","","1","0","0","0.7731960963","","0.4","0.2","0.8","0.6","","","","","0.1957635407","0.6832197831","0.7731960963","0.8498483749","","","","","","","","75","K","2","","","22","main_expt",""
"","bandit","102","598229","0.0-63.0-0.0","72592555","wem/bandit_either_3","A1CGDMOPDIC7EU","either","3","242","","","","","","","0","0","1","","0.8004626553","0.4","0.2","0.8","0.6","0.2193187944","0.6103957523","0.8004626553","0.887495535","","","","","","","","","","","","75","K","2","","","23","main_expt",""
"","bandit","103","600003","0.0-64.0-0.0","72592555","wem/bandit_either_3","A1CGDMOPDIC7EU","either","3","258","","","","","","","1","0","0","0.7941911222","","0.4","0.2","0.8","0.6","","","","","0.1836328706","0.5485819736","0.7941911222","0.918231735","","","","","","","","75","K","2","","","24","main_expt",""
"","bandit","104","601892","0.0-65.0-0.0","72592555","wem/bandit_either_3","A1CGDMOPDIC7EU","either","3","361","","","","","","","1","0","0","0.7100633829","","0.4","0.2","0.8","0.6","","","","","0.1410441375","0.5852935809","0.7100633829","0.9111146318","","","","","","","","75","K","2","","","25","main_expt",""
"","bandit","105","603751","0.0-66.0-0.0","72592555","wem/bandit_either_3","A1CGDMOPDIC7EU","either","3","322","","","","","","","1","0","0","0.6872129375","","0.4","0.2","0.8","0.6","","","","","0.1082593399","0.6097892937","0.6872129375","0.9190640316","","","","","","","","75","K","2","","","26","main_expt",""
"","bandit","106","605535","0.0-67.0-0.0","72592555","wem/bandit_either_3","A1CGDMOPDIC7EU","either","3","250","","","","","","","0","0","1","0.6798864795","","0.4","0.2","0.8","0.6","","","","","0.1042047793","0.6653335402","0.6798864795","0.9372614837","","","","","","","","75","K","2","","","27","main_expt",""
"","bandit","107","607324","0.0-68.0-0.0","72592555","wem/bandit_either_3","A1CGDMOPDIC7EU","either","3","263","","","","","","","0","0","1","","0.6812343762","0.4","0.2","0.8","0.6","0.1153509117","0.6850825106","0.6812343762","0.9269484959","","","","","","","","","","","","75","K","2","","","28","main_expt",""
"","bandit","108","609136","0.0-69.0-0.0","72592555","wem/bandit_either_3","A1CGDMOPDIC7EU","either","3","293","","","","","","","0","0","1","0.5305157647","","0.4","0.2","0.8","0.6","","","","","0.1601566248","0.7309016742","0.5305157647","0.9376772981","","","","","","","","75","K","2","","","29","main_expt",""
"","bandit","109","610665","0.0-70.0-0.0","72592555","wem/bandit_either_3","A1CGDMOPDIC7EU","either","3","1","","","","","","","0","1","0","","0.8795505253","0.4","0.2","0.8","0.6","0.09548927903","0.8141980113","0.4713174284","0.8795505253","","","","","","","","","","","","76","L","3","","","30","main_expt",""
"","bandit","110","612471","0.0-71.0-0.0","72592555","wem/bandit_either_3","A1CGDMOPDIC7EU","either","3","291","","","","","","","1","0","0","0.8605863748","","0.4","0.2","0.8","0.6","","","","","0.09272353297","0.8926711601","0.2938490869","0.8605863748","","","","","","","","76","L","3","","","31","main_expt",""
"","bandit","111","614309","0.0-72.0-0.0","72592555","wem/bandit_either_3","A1CGDMOPDIC7EU","either","3","311","","","","","","","1","0","0","0.757600507","","0.4","0.2","0.8","0.6","","","","","0.09547929832","0.8397563013","0.3005160425","0.757600507","","","","","","","","76","L","3","","","32","main_expt",""
"","bandit","112","616156","0.0-73.0-0.0","72592555","wem/bandit_either_3","A1CGDMOPDIC7EU","either","3","317","","","","","","","0","0","1","","0.7257103923","0.4","0.2","0.8","0.6","0.08683876107","0.8251988787","0.3661211491","0.7257103923","","","","","","","","","","","","76","L","3","","","33","main_expt",""
"","bandit","113","617813","0.0-74.0-0.0","72592555","wem/bandit_either_3","A1CGDMOPDIC7EU","either","3","144","","","","","","","0","1","0","","0.5786815464","0.4","0.2","0.8","0.6","0.08117088791","0.7303528712","0.4614725573","0.5786815464","","","","","","","","","","","","76","L","3","","","34","main_expt",""
"","bandit","114","619594","0.0-75.0-0.0","72592555","wem/bandit_either_3","A1CGDMOPDIC7EU","either","3","257","","","","","","","0","1","0","","0.4812266686","0.4","0.2","0.8","0.6","0.09593582107","0.8093673003","0.4597324626","0.4812266686","","","","","","","","","","","","76","L","3","","","35","main_expt",""
"","bandit","115","621709","0.0-76.0-0.0","72592555","wem/bandit_either_3","A1CGDMOPDIC7EU","either","3","585","","","","","","","0","0","1","","0.1392988708","0.4","0.2","0.8","0.6","0.1392988708","0.79718131","0.4294742096","0.4459447539","","","","","","","","","","","","72","H","0","img/none_selected.jpg","","36","main_expt",""
"","bandit","116","623595","0.0-77.0-0.0","72592555","wem/bandit_either_3","A1CGDMOPDIC7EU","either","3","364","","","","","","","0","0","1","","0.07673209605","0.4","0.2","0.8","0.6","0.07673209605","0.8157762275","0.5301274199","0.5737218407","","","","","","","","","","","","72","H","0","img/none_selected.jpg","","37","main_expt",""
"","bandit","117","625210","0.0-78.0-0.0","72592555","wem/bandit_either_3","A1CGDMOPDIC7EU","either","3","102","","","","","","","0","0","1","","0.1078843958","0.4","0.2","0.8","0.6","0.1078843958","0.7941499978","0.5746889943","0.6008421093","","","","","","","","","","","","72","H","0","img/none_selected.jpg","","38","main_expt",""
"","bandit","118","626818","0.0-79.0-0.0","72592555","wem/bandit_either_3","A1CGDMOPDIC7EU","either","3","80","","","","","","","0","1","0","","0.7352357368","0.4","0.2","0.8","0.6","0.09731722171","0.7352357368","0.6621100331","0.6076920036","","","","","","","","","","","","74","J","1","","","39","main_expt",""
"","bandit","119","628574","0.0-80.0-0.0","72592555","wem/bandit_either_3","A1CGDMOPDIC7EU","either","3","231","","","","","","","0","1","0","","0.7920886563","0.4","0.2","0.8","0.6","0.2123509389","0.7920886563","0.6794361822","0.6616622706","","","","","","","","","","","","74","J","1","","","40","main_expt",""
"","bandit","120","630277","0.0-81.0-0.0","72592555","wem/bandit_either_3","A1CGDMOPDIC7EU","either","3","168","","","","","","","0","1","0","","0.8780543775","0.4","0.2","0.8","0.6","0.1265365425","0.8780543775","0.7140523024","0.6945341382","","","","","","","","","","","","74","J","1","","","41","main_expt",""
"","bandit","121","631839","0.0-82.0-0.0","72592555","wem/bandit_either_3","A1CGDMOPDIC7EU","either","3","40","","","","","","","0","0","1","0.6669732994","","0.4","0.2","0.8","0.6","","","","","0.166138795","0.9167256642","0.6669732994","0.6833149102","","","","","","","","75","K","2","","","42","main_expt",""
"","bandit","122","633419","0.0-83.0-0.0","72592555","wem/bandit_either_3","A1CGDMOPDIC7EU","either","3","50","","","","","","","0","0","1","","0.5435093165","0.4","0.2","0.8","0.6","0.1782339186","0.9407985187","0.5435093165","0.7094953576","","","","","","","","","","","","75","K","2","","","43","main_expt",""
"","bandit","123","635071","0.0-84.0-0.0","72592555","wem/bandit_either_3","A1CGDMOPDIC7EU","either","3","133","","","","","","","0","0","1","0.1342945815","","0.4","0.2","0.8","0.6","","","","","0.1342945815","0.9000978766","0.6002661395","0.7519468023","","","","","","","","72","H","0","img/none_selected.jpg","","44","main_expt",""
"","bandit","124","636692","0.0-85.0-0.0","72592555","wem/bandit_either_3","A1CGDMOPDIC7EU","either","3","95","","","","","","","0","0","1","","0.09086288848","0.4","0.2","0.8","0.6","0.09086288848","0.9190036262","0.5948203474","0.7673203249","","","","","","","","","","","","72","H","0","img/none_selected.jpg","","45","main_expt",""
"","bandit","125","638471","0.0-86.0-0.0","72592555","wem/bandit_either_3","A1CGDMOPDIC7EU","either","3","262","","","","","","","0","0","1","","0.06420934006","0.4","0.2","0.8","0.6","0.06420934006","0.8865788656","0.6230250108","0.722836051","","","","","","","","","","","","72","H","0","img/none_selected.jpg","","46","main_expt",""
"","bandit","126","640420","0.0-87.0-0.0","72592555","wem/bandit_either_3","A1CGDMOPDIC7EU","either","3","431","","","","","","","1","0","0","0.7392487755","","0.4","0.2","0.8","0.6","","","","","0.02332738683","0.8207935484","0.7239235909","0.7392487755","","","","","","","","76","L","3","","","47","main_expt",""
"","bandit","127","642242","0.0-88.0-0.0","72592555","wem/bandit_either_3","A1CGDMOPDIC7EU","either","3","311","","","","","","","1","0","0","0.7551111279","","0.4","0.2","0.8","0.6","","","","","0.03517565614","0.8170742187","0.7715310514","0.7551111279","","","","","","","","76","L","3","","","48","main_expt",""
"","bandit","128","644037","0.0-89.0-0.0","72592555","wem/bandit_either_3","A1CGDMOPDIC7EU","either","3","272","","","","","","","0","0","1","0.6917772817","","0.4","0.2","0.8","0.6","","","","","0.04466115719","0.7874830355","0.822179592","0.6917772817","","","","","","","","76","L","3","","","49","main_expt",""
"","bandit","129","645594","0.0-90.0-0.0","72592555","wem/bandit_either_3","A1CGDMOPDIC7EU","either","3","39","","","","","","","1","0","0","0.6689959301","","0.4","0.2","0.8","0.6","","","","","0.05053383529","0.8279472521","0.8108951243","0.6689959301","","","","","","","","76","L","3","","","50","main_expt",""
"","bandit","130","647353","0.0-91.0-0.0","72592555","wem/bandit_either_3","A1CGDMOPDIC7EU","either","3","229","","","","","","","0","0","1","0.6020608281","","0.4","0.2","0.8","0.6","","","","","0.04681033125","0.8426817256","0.7649170446","0.6020608281","","","","","","","","76","L","3","","","51","main_expt",""
"","bandit","131","648983","0.0-92.0-0.0","72592555","wem/bandit_either_3","A1CGDMOPDIC7EU","either","3","108","","","","","","","1","0","0","0.6583182673","","0.4","0.2","0.8","0.6","","","","","0.09308222201","0.8377647656","0.8169848275","0.6583182673","","","","","","","","76","L","3","","","52","main_expt",""
"","bandit","132","650988","0.0-93.0-0.0","72592555","wem/bandit_either_3","A1CGDMOPDIC7EU","either","3","477","","","","","","","1","0","0","0.5419436754","","0.4","0.2","0.8","0.6","","","","","0.1397702629","0.8241398149","0.8843577791","0.5419436754","","","","","","","","76","L","3","","","53","main_expt",""
"","bandit","133","652853","0.0-94.0-0.0","72592555","wem/bandit_either_3","A1CGDMOPDIC7EU","either","3","338","","","","","","","0","1","0","","0.5717614462","0.4","0.2","0.8","0.6","0.110287685","0.7289352116","0.8854515068","0.5717614462","","","","","","","","","","","","76","L","3","","","54","main_expt",""
"","bandit","134","654541","0.0-95.0-0.0","72592555","wem/bandit_either_3","A1CGDMOPDIC7EU","either","3","161","","","","","","","0","1","0","","0.5497935615","0.4","0.2","0.8","0.6","0.1843384007","0.5895019519","0.8884574585","0.5497935615","","","","","","","","","","","","76","L","3","","","55","main_expt",""
"","bandit","135","656274","0.0-96.0-0.0","72592555","wem/bandit_either_3","A1CGDMOPDIC7EU","either","3","204","","","","","","","0","0","1","0.4902645195","","0.4","0.2","0.8","0.6","","","","","0.2056752237","0.4622464331","0.8840911236","0.4902645195","","","","","","","","76","L","3","","","56","main_expt",""
"","bandit","136","658283","0.0-97.0-0.0","72592555","wem/bandit_either_3","A1CGDMOPDIC7EU","either","3","485","","","","","","","0","0","1","","0.5258365243","0.4","0.2","0.8","0.6","0.3410726922","0.490024734","0.864283103","0.5258365243","","","","","","","","","","","","76","L","3","","","57","main_expt",""
"","bandit","137","660124","0.0-98.0-0.0","72592555","wem/bandit_either_3","A1CGDMOPDIC7EU","either","3","316","","","","","","","1","0","0","0.6097664349","","0.4","0.2","0.8","0.6","","","","","0.3873695161","0.6182628796","0.7377821737","0.6097664349","","","","","","","","76","L","3","","","58","main_expt",""
"","bandit","138","661992","0.0-99.0-0.0","72592555","wem/bandit_either_3","A1CGDMOPDIC7EU","either","3","341","","","","","","","0","0","1","0.6016711108","","0.4","0.2","0.8","0.6","","","","","0.3281321534","0.6976829826","0.7469541206","0.6016711108","","","","","","","","76","L","3","","","59","main_expt",""
"","bandit","139","663774","0.0-100.0-0.0","72592555","wem/bandit_either_3","A1CGDMOPDIC7EU","either","3","255","","","","","","","0","0","1","","0.5544917648","0.4","0.2","0.8","0.6","0.2380439254","0.675433977","0.8019510571","0.5544917648","","","","","","","","","","","","76","L","3","","","60","main_expt",""
"","bandit","140","665525","0.0-101.0-0.0","72592555","wem/bandit_either_3","A1CGDMOPDIC7EU","either","3","221","","","","","","","0","1","0","","0.6842720067","0.4","0.2","0.8","0.6","0.2228222105","0.7206550838","0.8943887388","0.6842720067","","","","","","","","","","","","76","L","3","","","61","main_expt",""
"","bandit","141","667264","0.0-102.0-0.0","72592555","wem/bandit_either_3","A1CGDMOPDIC7EU","either","3","213","","","","","","","0","1","0","","0.6824345281","0.4","0.2","0.8","0.6","0.2489253665","0.7184677658","0.8942973556","0.6824345281","","","","","","","","","","","","76","L","3","","","62","main_expt",""
"","bandit","142","669025","0.0-103.0-0.0","72592555","wem/bandit_either_3","A1CGDMOPDIC7EU","either","3","244","","","","","","","0","0","1","0.2298237489","","0.4","0.2","0.8","0.6","","","","","0.2298237489","0.6785259816","0.8829609874","0.7321168219","","","","","","","","72","H","0","img/none_selected.jpg","","63","main_expt",""
"","bandit","143","670748","0.0-104.0-0.0","72592555","wem/bandit_either_3","A1CGDMOPDIC7EU","either","3","200","","","","","","","0","1","0","","0.1849055857","0.4","0.2","0.8","0.6","0.1849055857","0.6349383059","0.8175344892","0.8123013145","","","","","","","","","","","","72","H","0","img/none_selected.jpg","","64","main_expt",""
"","bandit","144","672545","0.0-105.0-0.0","72592555","wem/bandit_either_3","A1CGDMOPDIC7EU","either","3","282","","","","","","","0","1","0","","0.2285715909","0.4","0.2","0.8","0.6","0.2285715909","0.629769122","0.7812905168","0.8236121316","","","","","","","","","","","","72","H","0","img/none_selected.jpg","","65","main_expt",""
"","bandit","145","674195","0.0-106.0-0.0","72592555","wem/bandit_either_3","A1CGDMOPDIC7EU","either","3","139","","","","","","","0","1","0","","0.7158950816","0.4","0.2","0.8","0.6","0.2477643906","0.7158950816","0.7848445355","0.8270077233","","","","","","","","","","","","74","J","1","","","66","main_expt",""
"","bandit","146","675958","0.0-107.0-0.0","72592555","wem/bandit_either_3","A1CGDMOPDIC7EU","either","3","243","","","","","","","1","0","0","0.6309271871","","0.4","0.2","0.8","0.6","","","","","0.1801078726","0.6309271871","0.763143195","0.7601471472","","","","","","","","74","J","1","","","67","main_expt",""
"","bandit","147","677809","0.0-108.0-0.0","72592555","wem/bandit_either_3","A1CGDMOPDIC7EU","either","3","325","","","","","","","0","0","1","0.617221228","","0.4","0.2","0.8","0.6","","","","","0.08479184886","0.617221228","0.7966751536","0.7567750057","","","","","","","","74","J","1","","","68","main_expt",""
"","bandit","148","680232","0.0-109.0-0.0","72592555","wem/bandit_either_3","A1CGDMOPDIC7EU","either","3","889","","","","","","","1","0","0","0.6235929763","","0.4","0.2","0.8","0.6","","","","","0.06982522498","0.6235929763","0.8534335227","0.6871277649","","","","","","","","74","J","1","","","69","main_expt",""
"","bandit","149","682094","0.0-110.0-0.0","72592555","wem/bandit_either_3","A1CGDMOPDIC7EU","either","3","332","","","","","","","0","0","1","","0.5543620559","0.4","0.2","0.8","0.6","0.05029268469","0.5543620559","0.8915498471","0.773099018","","","","","","","","","","","","74","J","1","","","70","main_expt",""
"","bandit","150","683816","0.0-111.0-0.0","72592555","wem/bandit_either_3","A1CGDMOPDIC7EU","either","3","187","","","","","","","0","0","1","","0.5333999135","0.4","0.2","0.8","0.6","0.06413839938","0.5333999135","0.8736989015","0.7412476729","","","","","","","","","","","","74","J","1","","","71","main_expt",""
"","bandit","151","685756","0.0-112.0-0.0","72592555","wem/bandit_either_3","A1CGDMOPDIC7EU","either","3","422","","","","","","","0","1","0","","0.5905126671","0.4","0.2","0.8","0.6","0.05155778705","0.5905126671","0.8837551658","0.8080704968","","","","","","","","","","","","74","J","1","","","72","main_expt",""
"","bandit","152","687504","0.0-113.0-0.0","72592555","wem/bandit_either_3","A1CGDMOPDIC7EU","either","3","236","","","","","","","0","1","0","","0.8495494246","0.4","0.2","0.8","0.6","0.0232747386","0.6925119087","0.8495494246","0.8270016227","","","","","","","","","","","","75","K","2","","","73","main_expt",""
"","bandit","153","689288","0.0-114.0-0.0","72592555","wem/bandit_either_3","A1CGDMOPDIC7EU","either","3","271","","","","","","","1","0","0","0.9127472651","","0.4","0.2","0.8","0.6","","","","","0.04751547773","0.7134745341","0.9127472651","0.7872017979","","","","","","","","75","K","2","","","74","main_expt",""
"","bandit","154","691219","0.0-115.0-0.0","72592555","wem/bandit_either_3","A1CGDMOPDIC7EU","either","3","395","","","","","","","1","0","0","0.9199060817","","0.4","0.2","0.8","0.6","","","","","0.05282531612","0.8065440948","0.9199060817","0.6167225576","","","","","","","","75","K","2","","","75","main_expt",""
"","bandit","155","693118","0.0-116.0-0.0","72592555","wem/bandit_either_3","A1CGDMOPDIC7EU","either","3","363","","","","","","","0","0","1","","0.8691294168","0.4","0.2","0.8","0.6","0.08738729654","0.7849172319","0.8691294168","0.637182095","","","","","","","","","","","","75","K","2","","","76","main_expt",""
"","bandit","156","694898","0.0-117.0-0.0","72592555","wem/bandit_either_3","A1CGDMOPDIC7EU","either","3","251","","","","","","","1","0","0","0.9111329321","","0.4","0.2","0.8","0.6","","","","","0.08851312664","0.7818962729","0.9111329321","0.7169911294","","","","","","","","75","K","2","","","77","main_expt",""
"","bandit","157","696648","0.0-118.0-0.0","72592555","wem/bandit_either_3","A1CGDMOPDIC7EU","either","3","228","","","","","","","0","1","0","","0.9286966754","0.4","0.2","0.8","0.6","0.145228539","0.7002933386","0.9286966754","0.7446448061","","","","","","","","","","","","75","K","2","","","78","main_expt",""
"","bandit","158","698452","0.0-119.0-0.0","72592555","wem/bandit_either_3","A1CGDMOPDIC7EU","either","3","266","","","","","","","1","0","0","0.9616021792","","0.4","0.2","0.8","0.6","","","","","0.1669860915","0.6510109529","0.9616021792","0.8152221547","","","","","","","","75","K","2","","","79","main_expt",""
"","bandit","159","700353","0.0-120.0-0.0","72592555","wem/bandit_either_3","A1CGDMOPDIC7EU","either","3","380","","","","","","","1","0","0","0.950571795","","0.4","0.2","0.8","0.6","","","","","0.1922913003","0.6765614865","0.950571795","0.810351938","","","","","","","","75","K","2","","","80","main_expt",""
"","bandit","160","702530","0.0-121.0-0.0","72592555","wem/bandit_either_3","A1CGDMOPDIC7EU","either","3","654","","","","","","","1","0","0","0.9331160128","","0.4","0.2","0.8","0.6","","","","","0.2407870914","0.5908869344","0.9331160128","0.8895110989","","","","","","","","75","K","2","","","81","main_expt",""
"","bandit","161","704458","0.0-122.0-0.0","72592555","wem/bandit_either_3","A1CGDMOPDIC7EU","either","3","412","","","","","","","0","1","0","","0.9465986336","0.4","0.2","0.8","0.6","0.3077898034","0.5267531711","0.9465986336","0.9046816681","","","","","","","","","","","","75","K","2","","","82","main_expt",""
"","bandit","162","706210","0.0-123.0-0.0","72592555","wem/bandit_either_3","A1CGDMOPDIC7EU","either","3","214","","","","","","","1","0","0","0.9371159138","","0.4","0.2","0.8","0.6","","","","","0.2337579628","0.6168373964","0.9371159138","0.8465278631","","","","","","","","75","K","2","","","83","main_expt",""
"","bandit","163","708052","0.0-124.0-0.0","72592555","wem/bandit_either_3","A1CGDMOPDIC7EU","either","3","316","","","","","","","1","0","0","0.8998840018","","0.4","0.2","0.8","0.6","","","","","0.2781329454","0.5733990252","0.8998840018","0.7584930438","","","","","","","","75","K","2","","","84","main_expt",""
"","bandit","164","710029","0.0-125.0-0.0","72592555","wem/bandit_either_3","A1CGDMOPDIC7EU","either","3","446","","","","","","","1","0","0","0.9102188985","","0.4","0.2","0.8","0.6","","","","","0.3013149798","0.4719695616","0.9102188985","0.7727946294","","","","","","","","75","K","2","","","85","main_expt",""
"","bandit","165","711876","0.0-126.0-0.0","72592555","wem/bandit_either_3","A1CGDMOPDIC7EU","either","3","325","","","","","","","1","0","0","0.9000055418","","0.4","0.2","0.8","0.6","","","","","0.3231836659","0.6941651786","0.9000055418","0.8216594778","","","","","","","","75","K","2","","","86","main_expt",""
"","bandit","166","713739","0.0-127.0-0.0","72592555","wem/bandit_either_3","A1CGDMOPDIC7EU","either","3","350","","","","","","","0","0","1","0.8563468124","","0.4","0.2","0.8","0.6","","","","","0.3986379136","0.5408952125","0.8563468124","0.7833884788","","","","","","","","75","K","2","","","87","main_expt",""
"","bandit","167","716152","0.0-128.0-0.0","72592555","wem/bandit_either_3","A1CGDMOPDIC7EU","either","3","886","","","","","","","1","0","0","0.7349543302","","0.4","0.2","0.8","0.6","","","","","0.4230151841","0.5438891422","0.7349543302","0.7804426693","","","","","","","","75","K","2","","","88","main_expt",""
"","bandit","168","718026","0.0-129.0-0.0","72592555","wem/bandit_either_3","A1CGDMOPDIC7EU","either","3","343","","","","","","","1","0","0","0.7907967515","","0.4","0.2","0.8","0.6","","","","","0.3761858397","0.4294971294","0.7907967515","0.7930928848","","","","","","","","75","K","2","","","89","main_expt",""
"","bandit","169","719931","0.0-130.0-0.0","72592555","wem/bandit_either_3","A1CGDMOPDIC7EU","either","3","372","","","","","","","1","0","0","0.7883246469","","0.4","0.2","0.8","0.6","","","","","0.4799086841","0.4928337868","0.7883246469","0.7683039237","","","","","","","","75","K","2","","","90","main_expt",""
"","bandit","170","721814","0.0-131.0-0.0","72592555","wem/bandit_either_3","A1CGDMOPDIC7EU","either","3","370","","","","","","","1","0","0","0.8389096604","","0.4","0.2","0.8","0.6","","","","","0.4558425901","0.5655090935","0.8389096604","0.8072091422","","","","","","","","75","K","2","","","91","main_expt",""
"","bandit","171","723730","0.0-132.0-0.0","72592555","wem/bandit_either_3","A1CGDMOPDIC7EU","either","3","377","","","","","","","0","1","0","","0.8064187158","0.4","0.2","0.8","0.6","0.3781515597","0.6154818033","0.8064187158","0.7791444337","","","","","","","","","","","","75","K","2","","","92","main_expt",""
"","bandit","172","725452","0.0-133.0-0.0","72592555","wem/bandit_either_3","A1CGDMOPDIC7EU","either","3","195","","","","","","","0","1","0","","0.7542368763","0.4","0.2","0.8","0.6","0.2858753042","0.7381217307","0.7542368763","0.8498372391","","","","","","","","","","","","75","K","2","","","93","main_expt",""
"","bandit","173","727250","0.0-134.0-0.0","72592555","wem/bandit_either_3","A1CGDMOPDIC7EU","either","3","255","","","","","","","0","0","1","0.6932487021","","0.4","0.2","0.8","0.6","","","","","0.3914428564","0.7776388333","0.6932487021","0.8440610374","","","","","","","","75","K","2","","","94","main_expt",""
"","bandit","174","728838","0.0-135.0-0.0","72592555","wem/bandit_either_3","A1CGDMOPDIC7EU","either","3","75","","","","","","","0","0","1","","0.8092418145","0.4","0.2","0.8","0.6","0.3800018616","0.8299152283","0.6706070003","0.8092418145","","","","","","","","","","","","76","L","3","","","95","main_expt",""
"","bandit","175","730716","0.0-136.0-0.0","72592555","wem/bandit_either_3","A1CGDMOPDIC7EU","either","3","347","","","","","","","0","1","0","","0.8655172998","0.4","0.2","0.8","0.6","0.3078584031","0.7697811485","0.6670251336","0.8655172998","","","","","","","","","","","","76","L","3","","","96","main_expt",""
"","bandit","176","732474","0.0-137.0-0.0","72592555","wem/bandit_either_3","A1CGDMOPDIC7EU","either","3","225","","","","","","","0","1","0","","0.8735151232","0.4","0.2","0.8","0.6","0.218486712","0.7487724405","0.7023758817","0.8735151232","","","","","","","","","","","","76","L","3","","","97","main_expt",""
"","bandit","177","734045","0.0-138.0-0.0","72592555","wem/bandit_either_3","A1CGDMOPDIC7EU","either","3","51","","","","","","","0","0","1","0.2037628256","","0.4","0.2","0.8","0.6","","","","","0.2037628256","0.7450583294","0.7036518389","0.84409386","","","","","","","","72","H","0","img/none_selected.jpg","","98","main_expt",""
"","bandit","178","735883","0.0-139.0-0.0","72592555","wem/bandit_either_3","A1CGDMOPDIC7EU","either","3","321","","","","","","","0","0","1","0.2400196326","","0.4","0.2","0.8","0.6","","","","","0.2400196326","0.7227120129","0.8401346726","0.8089648913","","","","","","","","72","H","0","img/none_selected.jpg","","99","main_expt",""
"","bandit","179","737685","0.0-140.0-0.0","72592555","wem/bandit_either_3","A1CGDMOPDIC7EU","either","3","283","","","","","","","0","0","1","0.3298222115","","0.4","0.2","0.8","0.6","","","","","0.3298222115","0.5872141049","0.8640782416","0.7259557377","","","","","","","","72","H","0","img/none_selected.jpg","","100","main_expt",""
"","bandit","180","739281","0.0-141.0-0.0","72592555","wem/bandit_either_3","A1CGDMOPDIC7EU","either","3","69","","","","","","","0","1","0","","0.6432213136","0.4","0.2","0.8","0.6","0.3108047587","0.6432213136","0.8232172207","0.6332869741","","","","","","","","","","","","74","J","1","","","101","main_expt",""
"","bandit","181","741046","0.0-142.0-0.0","72592555","wem/bandit_either_3","A1CGDMOPDIC7EU","either","3","241","","","","","","","0","0","1","","0.6009476408","0.4","0.2","0.8","0.6","0.2869381514","0.6009476408","0.8451901448","0.659443461","","","","","","","","","","","","74","J","1","","","102","main_expt",""
"","bandit","182","742807","0.0-143.0-0.0","72592555","wem/bandit_either_3","A1CGDMOPDIC7EU","either","3","236","","","","","","","1","0","0","0.6120105745","","0.4","0.2","0.8","0.6","","","","","0.246485708","0.6120105745","0.8792283932","0.5959971703","","","","","","","","74","J","1","","","103","main_expt",""
"","bandit","183","744927","0.0-144.0-0.0","72592555","wem/bandit_either_3","A1CGDMOPDIC7EU","either","3","590","","","","","","","0","1","0","","0.6821098495","0.4","0.2","0.8","0.6","0.2175667678","0.6821098495","0.8887181638","0.5643630141","","","","","","","","","","","","74","J","1","","","104","main_expt",""
"","bandit","184","746858","0.0-145.0-0.0","72592555","wem/bandit_either_3","A1CGDMOPDIC7EU","either","3","403","","","","","","","1","0","0","0.7228510016","","0.4","0.2","0.8","0.6","","","","","0.2645808036","0.7228510016","0.8013578166","0.5489079514","","","","","","","","74","J","1","","","105","main_expt",""
"","bandit","185","748715","0.0-146.0-0.0","72592555","wem/bandit_either_3","A1CGDMOPDIC7EU","either","3","320","","","","","","","1","0","0","0.6639212405","","0.4","0.2","0.8","0.6","","","","","0.2652424516","0.6639212405","0.7307006529","0.4336033326","","","","","","","","74","J","1","","","106","main_expt",""
"","bandit","186","750554","0.0-147.0-0.0","72592555","wem/bandit_either_3","A1CGDMOPDIC7EU","either","3","304","","","","","","","0","1","0","","0.6237034742","0.4","0.2","0.8","0.6","0.2481661544","0.6237034742","0.7519500851","0.4779201531","","","","","","","","","","","","74","J","1","","","107","main_expt",""
"","bandit","187","752096","0.0-148.0-0.0","72592555","wem/bandit_either_3","A1CGDMOPDIC7EU","either","3","13","","","","","","","0","0","1","","0.5847293191","0.4","0.2","0.8","0.6","0.2361720859","0.5847293191","0.7457577851","0.5075294874","","","","","","","","","","","","74","J","1","","","108","main_expt",""
"","bandit","188","753735","0.0-149.0-0.0","72592555","wem/bandit_either_3","A1CGDMOPDIC7EU","either","3","116","","","","","","","0","0","1","","0.6260859175","0.4","0.2","0.8","0.6","0.2799679389","0.6260859175","0.77583868","0.522842385","","","","","","","","","","","","74","J","1","","","109","main_expt",""
"","bandit","189","755570","0.0-150.0-0.0","72592555","wem/bandit_either_3","A1CGDMOPDIC7EU","either","3","299","","","","","","","0","0","1","","0.4788227383","0.4","0.2","0.8","0.6","0.3333098602","0.4788227383","0.7520827962","0.419893696","","","","","","","","","","","","74","J","1","","","110","main_expt",""
"","bandit","190","757451","0.0-151.0-0.0","72592555","wem/bandit_either_3","A1CGDMOPDIC7EU","either","3","370","","","","","","","1","0","0","0.6512809768","","0.4","0.2","0.8","0.6","","","","","0.3669732535","0.6019778282","0.6512809768","0.431092028","","","","","","","","75","K","2","","","111","main_expt",""
"","bandit","191","759350","0.0-152.0-0.0","72592555","wem/bandit_either_3","A1CGDMOPDIC7EU","either","3","364","","","","","","","1","0","0","0.5891937939","","0.4","0.2","0.8","0.6","","","","","0.389765336","0.546445977","0.5891937939","0.3590071368","","","","","","","","75","K","2","","","112","main_expt",""
"","bandit","192","761181","0.0-153.0-0.0","72592555","wem/bandit_either_3","A1CGDMOPDIC7EU","either","3","313","","","","","","","1","0","0","0.6490525038","","0.4","0.2","0.8","0.6","","","","","0.3191506652","0.6256092846","0.6490525038","0.4498419114","","","","","","","","75","K","2","","","113","main_expt",""
"","bandit","193","762949","0.0-154.0-0.0","72592555","wem/bandit_either_3","A1CGDMOPDIC7EU","either","3","237","","","","","","","0","0","1","","0.6283680234","0.4","0.2","0.8","0.6","0.2090321438","0.6577617598","0.6283680234","0.4829831469","","","","","","","","","","","","75","K","2","","","114","main_expt",""
"","bandit","194","764990","0.0-155.0-0.0","72592555","wem/bandit_either_3","A1CGDMOPDIC7EU","either","3","513","","","","","","","1","0","0","0.6064224059","","0.4","0.2","0.8","0.6","","","","","0.2094439124","0.7140476354","0.6064224059","0.4846695964","","","","","","","","75","K","2","","","115","main_expt",""
"","bandit","195","767018","0.0-156.0-0.0","72592555","wem/bandit_either_3","A1CGDMOPDIC7EU","either","3","513","","","","","","","0","0","1","0.545813367","","0.4","0.2","0.8","0.6","","","","","0.2695181069","0.6589976567","0.545813367","0.5396909338","","","","","","","","75","K","2","","","116","main_expt",""
"","bandit","196","768565","0.0-157.0-0.0","72592555","wem/bandit_either_3","A1CGDMOPDIC7EU","either","3","30","","","","","","","0","0","1","0.5179373022","","0.4","0.2","0.8","0.6","","","","","0.3402036285","0.6937703341","0.5179373022","0.5378282835","","","","","","","","75","K","2","","","117","main_expt",""
"","bandit","197","770749","0.0-158.0-0.0","72592555","wem/bandit_either_3","A1CGDMOPDIC7EU","either","3","657","","","","","","","0","0","1","0.4014157923","","0.4","0.2","0.8","0.6","","","","","0.3101634078","0.77114399","0.4014157923","0.5729988564","","","","","","","","75","K","2","","","118","main_expt",""
"","bandit","198","772843","0.0-159.0-0.0","72592555","wem/bandit_either_3","A1CGDMOPDIC7EU","either","3","577","","","","","","","1","0","0","0.4360264599","","0.4","0.2","0.8","0.6","","","","","0.3242193616","0.710000291","0.4360264599","0.5630251564","","","","","","","","75","K","2","","","119","main_expt",""
"","bandit","199","775043","0.0-160.0-0.0","72592555","wem/bandit_either_3","A1CGDMOPDIC7EU","either","3","661","","","","","","","1","0","0","0.3297853269","","0.4","0.2","0.8","0.6","","","","","0.3334277272","0.6767982245","0.3297853269","0.6482115929","","","","","","","","75","K","2","","","120","main_expt",""
"","bandit","200","777069","0.0-161.0-0.0","72592555","wem/bandit_either_3","A1CGDMOPDIC7EU","either","3","515","","","","","","","0","0","1","","0.3767442019","0.4","0.2","0.8","0.6","0.4066521311","0.7360115258","0.3767442019","0.5688505083","","","","","","","","","","","","75","K","2","","","121","main_expt",""
"","bandit","201","778924","0.0-162.0-0.0","72592555","wem/bandit_either_3","A1CGDMOPDIC7EU","either","3","320","","","","","","","0","0","1","","0.3589515546","0.4","0.2","0.8","0.6","0.5193034213","0.7258716992","0.3589515546","0.5349597204","","","","","","","","","","","","75","K","2","","","122","main_expt",""
"","bandit","202","780652","0.0-163.0-0.0","72592555","wem/bandit_either_3","A1CGDMOPDIC7EU","either","3","203","","","","","","","0","0","1","0.3461890545","","0.4","0.2","0.8","0.6","","","","","0.5594962391","0.7848203729","0.3461890545","0.412887176","","","","","","","","75","K","2","","","123","main_expt",""
"","bandit","203","782291","0.0-164.0-0.0","72592555","wem/bandit_either_3","A1CGDMOPDIC7EU","either","3","110","","","","","","","1","0","0","0.4137060999","","0.4","0.2","0.8","0.6","","","","","0.6876014299","0.7673004895","0.2287340519","0.4137060999","","","","","","","","76","L","3","","","124","main_expt",""
"","bandit","204","784743","0.0-165.0-0.0","72592555","wem/bandit_either_3","A1CGDMOPDIC7EU","either","3","918","","","","","","","0","1","0","","0.3226696341","0.4","0.2","0.8","0.6","0.7354493796","0.8020703208","0.2900718705","0.3226696341","","","","","","","","","","","","76","L","3","","","125","main_expt",""
"","bandit","205","786480","0.0-166.0-0.0","72592555","wem/bandit_either_3","A1CGDMOPDIC7EU","either","3","213","","","","","","","0","0","1","","0.3904211026","0.4","0.2","0.8","0.6","0.76840964","0.8196031782","0.2880997441","0.3904211026","","","","","","","","","","","","76","L","3","","","126","main_expt",""
"","bandit","206","788336","0.0-167.0-0.0","72592555","wem/bandit_either_3","A1CGDMOPDIC7EU","either","3","342","","","","","","","0","0","1","0.4227014292","","0.4","0.2","0.8","0.6","","","","","0.7310750685","0.7095492128","0.3451069126","0.4227014292","","","","","","","","76","L","3","","","127","main_expt",""
"","bandit","207","790233","0.0-168.0-0.0","72592555","wem/bandit_either_3","A1CGDMOPDIC7EU","either","3","367","","","","","","","0","1","0","","0.543317668","0.4","0.2","0.8","0.6","0.6582635175","0.711577854","0.3129298861","0.543317668","","","","","","","","","","","","76","L","3","","","128","main_expt",""
"","bandit","208","792068","0.0-169.0-0.0","72592555","wem/bandit_either_3","A1CGDMOPDIC7EU","either","3","310","","","","","","","0","1","0","","0.5906282681","0.4","0.2","0.8","0.6","0.7529887683","0.7022761705","0.3507055597","0.5906282681","","","","","","","","","","","","76","L","3","","","129","main_expt",""
"","bandit","209","793960","0.0-170.0-0.0","72592555","wem/bandit_either_3","A1CGDMOPDIC7EU","either","3","366","","","","","","","0","0","1","","0.7929301986","0.4","0.2","0.8","0.6","0.7929301986","0.7309419319","0.3753424236","0.6636268631","","","","","","","","","","","","72","H","0","img/none_selected.jpg","","130","main_expt",""
"","bandit","210","795956","0.0-171.0-0.0","72592555","wem/bandit_either_3","A1CGDMOPDIC7EU","either","3","474","","","","","","","1","0","0","0.8149544693","","0.4","0.2","0.8","0.6","","","","","0.8149544693","0.6904825683","0.3473486375","0.5686699027","","","","","","","","72","H","0","img/none_selected.jpg","","131","main_expt",""
"","bandit","211","797944","0.0-172.0-0.0","72592555","wem/bandit_either_3","A1CGDMOPDIC7EU","either","3","474","","","","","","","0","1","0","","0.7626544417","0.4","0.2","0.8","0.6","0.7626544417","0.7153166113","0.303679922","0.6564012045","","","","","","","","","","","","72","H","0","img/none_selected.jpg","","132","main_expt",""
"","bandit","212","799751","0.0-173.0-0.0","72592555","wem/bandit_either_3","A1CGDMOPDIC7EU","either","3","288","","","","","","","1","0","0","0.7584501248","","0.4","0.2","0.8","0.6","","","","","0.7584501248","0.8135501627","0.3385565331","0.5876654864","","","","","","","","72","H","0","img/none_selected.jpg","","133","main_expt",""
"","bandit","213","801619","0.0-174.0-0.0","72592555","wem/bandit_either_3","A1CGDMOPDIC7EU","either","3","351","","","","","","","0","0","1","0.7905015291","","0.4","0.2","0.8","0.6","","","","","0.7905015291","0.7707892239","0.3686406913","0.5299368298","","","","","","","","72","H","0","img/none_selected.jpg","","134","main_expt",""
"","bandit","214","803316","0.0-175.0-0.0","72592555","wem/bandit_either_3","A1CGDMOPDIC7EU","either","3","168","","","","","","","0","1","0","","0.7515189777","0.4","0.2","0.8","0.6","0.7515189777","0.7689088841","0.3672202126","0.4547966061","","","","","","","","","","","","72","H","0","img/none_selected.jpg","","135","main_expt",""
"","bandit","215","805069","0.0-176.0-0.0","72592555","wem/bandit_either_3","A1CGDMOPDIC7EU","either","3","224","","","","","","","0","1","0","","0.7293518859","0.4","0.2","0.8","0.6","0.7293518859","0.6641324257","0.4064769993","0.5290841583","","","","","","","","","","","","72","H","0","img/none_selected.jpg","","136","main_expt",""
"","bandit","216","807172","0.0-177.0-0.0","72592555","wem/bandit_either_3","A1CGDMOPDIC7EU","either","3","578","","","","","","","0","0","1","","0.7286216209","0.4","0.2","0.8","0.6","0.7286216209","0.635388201","0.3492503667","0.419904672","","","","","","","","","","","","72","H","0","img/none_selected.jpg","","137","main_expt",""
"","bandit","217","809071","0.0-178.0-0.0","72592555","wem/bandit_either_3","A1CGDMOPDIC7EU","either","3","375","","","","","","","0","1","0","","0.7425921641","0.4","0.2","0.8","0.6","0.7425921641","0.6889508363","0.3315752647","0.4532768315","","","","","","","","","","","","72","H","0","img/none_selected.jpg","","138","main_expt",""
"","bandit","218","810907","0.0-179.0-0.0","72592555","wem/bandit_either_3","A1CGDMOPDIC7EU","either","3","316","","","","","","","0","1","0","","0.6481427694","0.4","0.2","0.8","0.6","0.7356638012","0.6481427694","0.3080831972","0.4194835996","","","","","","","","","","","","74","J","1","","","139","main_expt",""
"","bandit","219","812725","0.0-180.0-0.0","72592555","wem/bandit_either_3","A1CGDMOPDIC7EU","either","3","303","","","","","","","0","0","1","","0.6497449761","0.4","0.2","0.8","0.6","0.7334346803","0.6497449761","0.3254670704","0.420008375","","","","","","","","","","","","74","J","1","","","140","main_expt",""
"","bandit","220","814773","0.0-181.0-0.0","72592555","wem/bandit_either_3","A1CGDMOPDIC7EU","either","3","521","","","","","","","0","1","0","","0.7328205829","0.4","0.2","0.8","0.6","0.7737071977","0.7328205829","0.3452870884","0.3908595681","","","","","","","","","","","","74","J","1","","","141","main_expt",""
"","bandit","221","816557","0.0-182.0-0.0","72592555","wem/bandit_either_3","A1CGDMOPDIC7EU","either","3","250","","","","","","","1","0","0","0.6396752577","","0.4","0.2","0.8","0.6","","","","","0.7912630164","0.6396752577","0.2659846132","0.3994278682","","","","","","","","74","J","1","","","142","main_expt",""
"","bandit","222","818367","0.0-183.0-0.0","72592555","wem/bandit_either_3","A1CGDMOPDIC7EU","either","3","293","","","","","","","0","1","0","","0.5974809775","0.4","0.2","0.8","0.6","0.7709923268","0.5974809775","0.2549781044","0.3137486051","","","","","","","","","","","","74","J","1","","","143","main_expt",""
"","bandit","223","820060","0.0-184.0-0.0","72592555","wem/bandit_either_3","A1CGDMOPDIC7EU","either","3","178","","","","","","","0","0","1","","0.5953980303","0.4","0.2","0.8","0.6","0.7492848764","0.5953980303","0.3603981418","0.3961992406","","","","","","","","","","","","74","J","1","","","144","main_expt",""
"","bandit","224","821740","0.0-185.0-0.0","72592555","wem/bandit_either_3","A1CGDMOPDIC7EU","either","3","141","","","","","","","0","0","1","","0.6215671736","0.4","0.2","0.8","0.6","0.7343485297","0.6215671736","0.3682949958","0.3186856111","","","","","","","","","","","","74","J","1","","","145","main_expt",""
"","bandit","225","823745","0.0-186.0-0.0","72592555","wem/bandit_either_3","A1CGDMOPDIC7EU","either","3","477","","","","","","","1","0","0","0.5028772858","","0.4","0.2","0.8","0.6","","","","","0.7701032705","0.5766937592","0.5028772858","0.2724247948","","","","","","","","75","K","2","","","146","main_expt",""
"","bandit","226","825614","0.0-187.0-0.0","72592555","wem/bandit_either_3","A1CGDMOPDIC7EU","either","3","345","","","","","","","1","0","0","0.4186890645","","0.4","0.2","0.8","0.6","","","","","0.7521601774","0.4600492943","0.4186890645","0.2844288079","","","","","","","","75","K","2","","","147","main_expt",""
"","bandit","227","827632","0.0-188.0-0.0","72592555","wem/bandit_either_3","A1CGDMOPDIC7EU","either","3","495","","","","","","","0","0","1","0.3928328601","","0.4","0.2","0.8","0.6","","","","","0.7762143641","0.4575448178","0.3928328601","0.3095389551","","","","","","","","75","K","2","","","148","main_expt",""
"","bandit","228","830553","0.0-189.0-0.0","72592555","wem/bandit_either_3","A1CGDMOPDIC7EU","either","3","1396","","","","","","","1","0","0","0.4220063763","","0.4","0.2","0.8","0.6","","","","","0.716016993","0.3840278576","0.4220063763","0.2464654743","","","","","","","","75","K","2","","","149","main_expt",""
"","bandit","229","832450","0.0-190.0-0.0","72592555","wem/bandit_either_3","A1CGDMOPDIC7EU","either","3","368","","","","","","","0","0","1","0.3206822378","","0.4","0.2","0.8","0.6","","","","","0.7182774931","0.3004406684","0.3206822378","0.2088091358","","","","","","","","75","K","2","","","150","main_expt",""
"","bandit","230","834126","0.0-191.0-0.0","72592555","wem/bandit_either_3","A1CGDMOPDIC7EU","either","3","162","","","","","","","0","1","0","","0.3380172956","0.4","0.2","0.8","0.6","0.8028216805","0.2769981479","0.3380172956","0.2670014618","","","","","","","","","","","","75","K","2","","","151","main_expt",""
"","bandit","231","836008","0.0-192.0-0.0","72592555","wem/bandit_either_3","A1CGDMOPDIC7EU","either","3","353","","","","","","","0","0","1","0.2461440624","","0.4","0.2","0.8","0.6","","","","","0.8634692279","0.40565407","0.2461440624","0.3100930243","","","","","","","","75","K","2","","","152","main_expt",""
"","bandit","232","839326","0.0-193.0-0.0","72592555","wem/bandit_either_3","A1CGDMOPDIC7EU","either","3","1794","","","","","","","0","0","1","0.1852716423","","0.4","0.2","0.8","0.6","","","","","0.7719190238","0.3829351634","0.1852716423","0.3796096158","","","","","","","","75","K","2","","","153","main_expt",""
"","bandit","233","841343","0.0-194.0-0.0","72592555","wem/bandit_either_3","A1CGDMOPDIC7EU","either","3","500","","","","","","","0","0","1","0.1660439368","","0.4","0.2","0.8","0.6","","","","","0.8343429945","0.4912137185","0.1660439368","0.2265028128","","","","","","","","75","K","2","","","154","main_expt",""
"","bandit","234","843163","0.0-195.0-0.0","72592555","wem/bandit_either_3","A1CGDMOPDIC7EU","either","3","304","","","","","","","1","0","0","0.2241607793","","0.4","0.2","0.8","0.6","","","","","0.7908731232","0.5312535156","0.2241607793","0.2135741777","","","","","","","","75","K","2","","","155","main_expt",""
"","bandit","235","847080","0.0-196.0-0.0","72592555","wem/bandit_either_3","A1CGDMOPDIC7EU","either","3","2388","","","","","","","0","0","1","","0.1338357519","0.4","0.2","0.8","0.6","0.7848911391","0.5747898199","0.1566338899","0.1338357519","","","","","","","","","","","","76","L","3","","","156","main_expt",""
"","bandit","236","848879","0.0-197.0-0.0","72592555","wem/bandit_either_3","A1CGDMOPDIC7EU","either","3","278","","","","","","","0","0","1","0.1344370697","","0.4","0.2","0.8","0.6","","","","","0.7467155263","0.5948125822","0.1839373886","0.1344370697","","","","","","","","76","L","3","","","157","main_expt",""
"","bandit","237","850826","0.0-198.0-0.0","72592555","wem/bandit_either_3","A1CGDMOPDIC7EU","either","3","411","","","","","","","1","0","0","0.7413618202","","0.4","0.2","0.8","0.6","","","","","0.7413618202","0.6533804049","0.155802242","0.1217930933","","","","","","","","72","H","0","img/none_selected.jpg","","158","main_expt",""
"","bandit","238","852753","0.0-199.0-0.0","72592555","wem/bandit_either_3","A1CGDMOPDIC7EU","either","3","396","","","","","","","0","0","1","","0.6882043704","0.4","0.2","0.8","0.6","0.6882043704","0.5777198579","0.2304237345","0.08524485746","","","","","","","","","","","","72","H","0","img/none_selected.jpg","","159","main_expt",""
"","bandit","239","854553","0.0-200.0-0.0","72592555","wem/bandit_either_3","A1CGDMOPDIC7EU","either","3","276","","","","","","","0","1","0","","0.7253096401","0.4","0.2","0.8","0.6","0.7253096401","0.6777741118","0.2242026456","0.07332219892","","","","","","","","","","","","72","H","0","img/none_selected.jpg","","160","main_expt",""
"","bandit","240","857758","0.0-201.0-0.0","72592555","wem/bandit_either_3","A1CGDMOPDIC7EU","either","3","1686","","","","","","","0","1","0","","0.6989182833","0.4","0.2","0.8","0.6","0.6989182833","0.6249074267","0.2708915048","0.1063489691","","","","","","","","","","","","72","H","0","img/none_selected.jpg","","161","main_expt",""
"","bandit","241","860005","0.0-202.0-0.0","72592555","wem/bandit_either_3","A1CGDMOPDIC7EU","either","3","730","","","","","","","1","0","0","0.7679575172","","0.4","0.2","0.8","0.6","","","","","0.7679575172","0.6755041601","0.2921592604","0.09670310095","","","","","","","","72","H","0","img/none_selected.jpg","","162","main_expt",""
"","bandit","242","862058","0.0-203.0-0.0","72592555","wem/bandit_either_3","A1CGDMOPDIC7EU","either","3","525","","","","","","","0","1","0","","0.6877390752","0.4","0.2","0.8","0.6","0.6877390752","0.6461818487","0.2050535257","0.1266359811","","","","","","","","","","","","72","H","0","img/none_selected.jpg","","163","main_expt",""
"","bandit","243","863899","0.0-204.0-0.0","72592555","wem/bandit_either_3","A1CGDMOPDIC7EU","either","3","314","","","","","","","1","0","0","0.6957575266","","0.4","0.2","0.8","0.6","","","","","0.6957575266","0.76368027","0.1998759094","0.1212611996","","","","","","","","72","H","0","img/none_selected.jpg","","164","main_expt",""
"","bandit","244","865845","0.0-205.0-0.0","72592555","wem/bandit_either_3","A1CGDMOPDIC7EU","either","3","414","","","","","","","0","0","1","0.6760148625","","0.4","0.2","0.8","0.6","","","","","0.6760148625","0.8400099296","0.1821974317","0.1917887173","","","","","","","","72","H","0","img/none_selected.jpg","","165","main_expt",""
"","bandit","245","867534","0.0-206.0-0.0","72592555","wem/bandit_either_3","A1CGDMOPDIC7EU","either","3","163","","","","","","","1","0","0","0.6463317238","","0.4","0.2","0.8","0.6","","","","","0.6463317238","0.8573275969","0.2916844583","0.1560613016","","","","","","","","72","H","0","img/none_selected.jpg","","166","main_expt",""
"","bandit","246","869577","0.0-207.0-0.0","72592555","wem/bandit_either_3","A1CGDMOPDIC7EU","either","3","511","","","","","","","0","0","1","0.5613055562","","0.4","0.2","0.8","0.6","","","","","0.5613055562","0.7735369509","0.3087465624","0.2214887095","","","","","","","","72","H","0","img/none_selected.jpg","","167","main_expt",""
"","bandit","247","871712","0.0-208.0-0.0","72592555","wem/bandit_either_3","A1CGDMOPDIC7EU","either","3","617","","","","","","","0","0","1","","0.5586162784","0.4","0.2","0.8","0.6","0.5586162784","0.8091314607","0.3896626528","0.3463453368","","","","","","","","","","","","72","H","0","img/none_selected.jpg","","168","main_expt",""
"","bandit","248","873861","0.0-209.0-0.0","72592555","wem/bandit_either_3","A1CGDMOPDIC7EU","either","3","633","","","","","","","1","0","0","0.597448185","","0.4","0.2","0.8","0.6","","","","","0.597448185","0.8364166478","0.4458805252","0.3222551453","","","","","","","","72","H","0","img/none_selected.jpg","","169","main_expt",""
"","bandit","249","875855","0.0-210.0-0.0","72592555","wem/bandit_either_3","A1CGDMOPDIC7EU","either","3","457","","","","","","","0","0","1","","0.5351242352","0.4","0.2","0.8","0.6","0.5351242352","0.7867883415","0.4844269655","0.2556410415","","","","","","","","","","","","72","H","0","img/none_selected.jpg","","170","main_expt",""
"","bandit","250","877729","0.0-211.0-0.0","72592555","wem/bandit_either_3","A1CGDMOPDIC7EU","either","3","343","","","","","","","1","0","0","0.4819966971","","0.4","0.2","0.8","0.6","","","","","0.4819966971","0.8728822524","0.4858642724","0.2248109201","","","","","","","","72","H","0","img/none_selected.jpg","","171","main_expt",""
"","bandit","251","882198","0.0-212.0-0.0","72592555","wem/bandit_either_3","A1CGDMOPDIC7EU","either","3","2939","","","","","","","0","0","1","","0.4038669266","0.4","0.2","0.8","0.6","0.4038669266","0.7804912391","0.5060245996","0.3468742366","","","","","","","","","","","","72","H","0","img/none_selected.jpg","","172","main_expt",""
"","bandit","252","885196","0.0-213.0-0.0","72592555","wem/bandit_either_3","A1CGDMOPDIC7EU","either","3","1473","","","","","","","0","0","1","","0.3102533384","0.4","0.2","0.8","0.6","0.3102533384","0.7728490534","0.5413528159","0.234408543","","","","","","","","","","","","72","H","0","img/none_selected.jpg","","173","main_expt",""
"","bandit","253","887116","0.0-214.0-0.0","72592555","wem/bandit_either_3","A1CGDMOPDIC7EU","either","3","397","","","","","","","0","1","0","","0.3818943333","0.4","0.2","0.8","0.6","0.3818943333","0.814185781","0.6505326818","0.1404050277","","","","","","","","","","","","72","H","0","img/none_selected.jpg","","174","main_expt",""
"","bandit","254","888945","0.0-215.0-0.0","72592555","wem/bandit_either_3","A1CGDMOPDIC7EU","either","3","292","","","","","","","0","0","1","0.2893198216","","0.4","0.2","0.8","0.6","","","","","0.2893198216","0.8010682597","0.6470977149","0.1081611795","","","","","","","","72","H","0","img/none_selected.jpg","","175","main_expt",""
"","bandit","255","890596","0.0-216.0-0.0","72592555","wem/bandit_either_3","A1CGDMOPDIC7EU","either","3","119","","","","","","","0","0","1","","0.226416223","0.4","0.2","0.8","0.6","0.226416223","0.7083228223","0.6844229635","0.0730283124","","","","","","","","","","","","72","H","0","img/none_selected.jpg","","176","main_expt",""
"","bandit","256","892296","0.0-217.0-0.0","72592555","wem/bandit_either_3","A1CGDMOPDIC7EU","either","3","177","","","","","","","0","1","0","","0.7408938443","0.4","0.2","0.8","0.6","0.2786676386","0.7408938443","0.6883244284","0.07044941978","","","","","","","","","","","","74","J","1","","","177","main_expt",""
"","bandit","257","894119","0.0-218.0-0.0","72592555","wem/bandit_either_3","A1CGDMOPDIC7EU","either","3","301","","","","","","","0","1","0","","0.6621187214","0.4","0.2","0.8","0.6","0.2279078815","0.6621187214","0.6098590842","0.06886985111","","","","","","","","","","","","74","J","1","","","178","main_expt",""
"","bandit","258","895984","0.0-219.0-0.0","72592555","wem/bandit_either_3","A1CGDMOPDIC7EU","either","3","338","","","","","","","0","0","1","","0.6765487854","0.4","0.2","0.8","0.6","0.1690126781","0.6765487854","0.5924449164","0.07254371148","","","","","","","","","","","","74","J","1","","","179","main_expt",""
"","bandit","259","897798","0.0-220.0-0.0","72592555","wem/bandit_either_3","A1CGDMOPDIC7EU","either","3","284","","","","","","","0","0","1","","0.7276027883","0.4","0.2","0.8","0.6","0.1356066944","0.7276027883","0.4915111467","0.055057054","","","","","","","","","","","","74","J","1","","","180","main_expt",""
"","bandit","260","899464","0.0-221.0-0.0","72592555","wem/bandit_either_3","A1CGDMOPDIC7EU","either","3","143","","","","","","","1","0","0","0.4713933083","","0.4","0.2","0.8","0.6","","","","","0.1889441784","0.7083410305","0.4713933083","0.1187845962","","","","","","","","75","K","2","","","181","main_expt",""
"","bandit","261","901423","0.0-222.0-0.0","72592555","wem/bandit_either_3","A1CGDMOPDIC7EU","either","3","426","","","","","","","0","0","1","0.500114893","","0.4","0.2","0.8","0.6","","","","","0.2163976064","0.6489729838","0.500114893","0.1304227184","","","","","","","","75","K","2","","","182","main_expt",""
"","bandit","262","903217","0.0-223.0-0.0","72592555","wem/bandit_either_3","A1CGDMOPDIC7EU","either","3","276","","","","","","","1","0","0","0.4949273894","","0.4","0.2","0.8","0.6","","","","","0.1902524086","0.6956751073","0.4949273894","0.1374638341","","","","","","","","75","K","2","","","183","main_expt",""
"","bandit","263","905349","0.0-224.0-0.0","72592555","wem/bandit_either_3","A1CGDMOPDIC7EU","either","3","594","","","","","","","0","0","1","0.4271361476","","0.4","0.2","0.8","0.6","","","","","0.2265805791","0.6066537109","0.4271361476","0.1914365344","","","","","","","","75","K","2","","","184","main_expt",""
"","bandit","264","907442","0.0-225.0-0.0","72592555","wem/bandit_either_3","A1CGDMOPDIC7EU","either","3","572","","","","","","","0","0","1","0.4558255176","","0.4","0.2","0.8","0.6","","","","","0.1843452782","0.6337362372","0.4558255176","0.1939872458","","","","","","","","75","K","2","","","185","main_expt",""
"","bandit","265","909352","0.0-226.0-0.0","72592555","wem/bandit_either_3","A1CGDMOPDIC7EU","either","3","375","","","","","","","1","0","0","0.4031301461","","0.4","0.2","0.8","0.6","","","","","0.1898387663","0.5908962551","0.4031301461","0.2219937035","","","","","","","","75","K","2","","","186","main_expt",""
"","bandit","266","911263","0.0-227.0-0.0","72592555","wem/bandit_either_3","A1CGDMOPDIC7EU","either","3","373","","","","","","","1","0","0","0.3993697366","","0.4","0.2","0.8","0.6","","","","","0.210498268","0.7651761031","0.3993697366","0.2024523472","","","","","","","","75","K","2","","","187","main_expt",""
"","bandit","267","912905","0.0-228.0-0.0","72592555","wem/bandit_either_3","A1CGDMOPDIC7EU","either","3","106","","","","","","","0","0","1","0.4478687375","","0.4","0.2","0.8","0.6","","","","","0.2368649008","0.7928336054","0.4478687375","0.1930401344","","","","","","","","75","K","2","","","188","main_expt",""
"","bandit","268","914909","0.0-229.0-0.0","72592555","wem/bandit_either_3","A1CGDMOPDIC7EU","either","3","483","","","","","","","0","0","1","0.3699601256","","0.4","0.2","0.8","0.6","","","","","0.291591963","0.8917358491","0.3699601256","0.3255404916","","","","","","","","75","K","2","","","189","main_expt",""
"","bandit","269","918619","0.0-230.0-0.0","72592555","wem/bandit_either_3","A1CGDMOPDIC7EU","either","3","2177","","","","","","","0","1","0","","0.3723251068","0.4","0.2","0.8","0.6","0.4411779124","0.898448025","0.3723251068","0.2364063212","","","","","","","","","","","","75","K","2","","","190","main_expt",""
"","bandit","270","920694","0.0-231.0-0.0","72592555","wem/bandit_either_3","A1CGDMOPDIC7EU","either","3","550","","","","","","","0","0","1","","0.3309849287","0.4","0.2","0.8","0.6","0.3968704403","0.9186708851","0.3309849287","0.2662767285","","","","","","","","","","","","75","K","2","","","191","main_expt",""
"","bandit","271","922593","0.0-232.0-0.0","72592555","wem/bandit_either_3","A1CGDMOPDIC7EU","either","3","376","","","","","","","0","0","1","","0.2865625263","0.4","0.2","0.8","0.6","0.4512817608","0.9314477517","0.2865625263","0.2815174114","","","","","","","","","","","","75","K","2","","","192","main_expt",""
"","bandit","272","924133","0.0-233.0-0.0","72592555","wem/bandit_either_3","A1CGDMOPDIC7EU","either","3","24","","","","","","","0","0","1","0.3461293965","","0.4","0.2","0.8","0.6","","","","","0.4788006455","0.9090465067","0.2862811746","0.3461293965","","","","","","","","76","L","3","","","193","main_expt",""
"","bandit","273","925957","0.0-234.0-0.0","72592555","wem/bandit_either_3","A1CGDMOPDIC7EU","either","3","294","","","","","","","1","0","0","0.3303735913","","0.4","0.2","0.8","0.6","","","","","0.4651889587","0.8762249788","0.2785288642","0.3303735913","","","","","","","","76","L","3","","","194","main_expt",""
"","bandit","274","927825","0.0-235.0-0.0","72592555","wem/bandit_either_3","A1CGDMOPDIC7EU","either","3","344","","","","","","","0","0","1","0.3194565039","","0.4","0.2","0.8","0.6","","","","","0.4718629942","0.8623185747","0.2283941808","0.3194565039","","","","","","","","76","L","3","","","195","main_expt",""
"","bandit","275","929529","0.0-236.0-0.0","72592555","wem/bandit_either_3","A1CGDMOPDIC7EU","either","3","184","","","","","","","1","0","0","0.4103944464","","0.4","0.2","0.8","0.6","","","","","0.3825708332","0.7745977574","0.214282227","0.4103944464","","","","","","","","76","L","3","","","196","main_expt",""
"","bandit","276","931553","0.0-237.0-0.0","72592555","wem/bandit_either_3","A1CGDMOPDIC7EU","either","3","493","","","","","","","1","0","0","0.4445726534","","0.4","0.2","0.8","0.6","","","","","0.4530864699","0.7723069829","0.1422959513","0.4445726534","","","","","","","","76","L","3","","","197","main_expt",""
"","bandit","277","933248","0.0-238.0-0.0","72592555","wem/bandit_either_3","A1CGDMOPDIC7EU","either","3","158","","","","","","","0","0","1","","0.4351718099","0.4","0.2","0.8","0.6","0.4337652667","0.7084082875","0.1126324943","0.4351718099","","","","","","","","","","","","76","L","3","","","198","main_expt",""
"","bandit","278","935072","0.0-239.0-0.0","72592555","wem/bandit_either_3","A1CGDMOPDIC7EU","either","3","290","","","","","","","0","1","0","","0.4641294157","0.4","0.2","0.8","0.6","0.4138332966","0.7016883558","0.1144166609","0.4641294157","","","","","","","","","","","","76","L","3","","","199","main_expt",""
"","bandit","279","936670","0.0-240.0-0.0","72592555","wem/bandit_either_3","A1CGDMOPDIC7EU","either","3","74","","","","","","","0","0","1","0.4468687069","","0.4","0.2","0.8","0.6","","","","","0.5005175686","0.6504384346","0.1518003708","0.4468687069","","","","","","","","76","L","3","","","200","main_expt",""
"","bandit","280","938559","0.0-241.0-0.0","72592555","wem/bandit_either_3","A1CGDMOPDIC7EU","either","3","364","","","","","","","0","1","0","","0.5087435212","0.4","0.2","0.8","0.6","0.5122642399","0.7904945102","0.1974433607","0.5087435212","","","","","","","","","","","","76","L","3","","","201","main_expt",""
"","bandit","281","940354","0.0-242.0-0.0","72592555","wem/bandit_either_3","A1CGDMOPDIC7EU","either","3","261","","","","","","","0","0","1","","0.4992132835","0.4","0.2","0.8","0.6","0.5414597976","0.7039472437","0.2000842809","0.4992132835","","","","","","","","","","","","76","L","3","","","202","main_expt",""
"","bandit","282","942083","0.0-243.0-0.0","72592555","wem/bandit_either_3","A1CGDMOPDIC7EU","either","3","202","","","","","","","0","0","1","0.4859842053","","0.4","0.2","0.8","0.6","","","","","0.4993649945","0.7478807213","0.1715580826","0.4859842053","","","","","","","","76","L","3","","","203","main_expt",""
"","bandit","283","943961","0.0-244.0-0.0","72592555","wem/bandit_either_3","A1CGDMOPDIC7EU","either","3","346","","","","","","","0","0","1","","0.4056752737","0.4","0.2","0.8","0.6","0.4056752737","0.7346150791","0.3028604286","0.6162755314","","","","","","","","","","","","72","H","0","img/none_selected.jpg","","204","main_expt",""
"","bandit","284","945862","0.0-245.0-0.0","72592555","wem/bandit_either_3","A1CGDMOPDIC7EU","either","3","361","","","","","","","0","1","0","","0.4174768156","0.4","0.2","0.8","0.6","0.4174768156","0.7240623961","0.3714949669","0.6204906845","","","","","","","","","","","","72","H","0","img/none_selected.jpg","","205","main_expt",""
"","bandit","285","947755","0.0-246.0-0.0","72592555","wem/bandit_either_3","A1CGDMOPDIC7EU","either","3","358","","","","","","","0","1","0","","0.4364097613","0.4","0.2","0.8","0.6","0.4364097613","0.733657826","0.3034865557","0.6390595606","","","","","","","","","","","","72","H","0","img/none_selected.jpg","","206","main_expt",""
"","bandit","286","949497","0.0-247.0-0.0","72592555","wem/bandit_either_3","A1CGDMOPDIC7EU","either","3","209","","","","","","","0","0","1","","0.6797091947","0.4","0.2","0.8","0.6","0.4666062126","0.6797091947","0.2688105372","0.6022157482","","","","","","","","","","","","74","J","1","","","207","main_expt",""
"","bandit","287","951499","0.0-248.0-0.0","72592555","wem/bandit_either_3","A1CGDMOPDIC7EU","either","3","479","","","","","","","0","0","1","0.472157919","","0.4","0.2","0.8","0.6","","","","","0.4594719295","0.472157919","0.2240001326","0.6598502583","","","","","","","","74","J","1","","","208","main_expt",""
"","bandit","288","953335","0.0-249.0-0.0","72592555","wem/bandit_either_3","A1CGDMOPDIC7EU","either","3","321","","","","","","","0","1","0","","0.3284172364","0.4","0.2","0.8","0.6","0.5415101973","0.4993955773","0.3284172364","0.6329069529","","","","","","","","","","","","75","K","2","","","209","main_expt",""
"","bandit","289","955504","0.0-250.0-0.0","72592555","wem/bandit_either_3","A1CGDMOPDIC7EU","either","3","640","","","","","","","1","0","0","0.3178667136","","0.4","0.2","0.8","0.6","","","","","0.5627952802","0.3923888982","0.3178667136","0.5418549626","","","","","","","","75","K","2","","","210","main_expt",""
"","bandit","290","957616","0.0-251.0-0.0","72592555","wem/bandit_either_3","A1CGDMOPDIC7EU","either","3","581","","","","","","","0","1","0","","0.278360526","0.4","0.2","0.8","0.6","0.5779033475","0.4183885941","0.278360526","0.7265410197","","","","","","","","","","","","75","K","2","","","211","main_expt",""
"","bandit","291","959263","0.0-252.0-0.0","72592555","wem/bandit_either_3","A1CGDMOPDIC7EU","either","3","130","","","","","","","0","1","0","","0.2720231684","0.4","0.2","0.8","0.6","0.6169713091","0.5367383083","0.2720231684","0.6550819281","","","","","","","","","","","","75","K","2","","","212","main_expt",""
"","bandit","292","960865","0.0-253.0-0.0","72592555","wem/bandit_either_3","A1CGDMOPDIC7EU","either","3","62","","","","","","","1","0","0","0.3445332441","","0.4","0.2","0.8","0.6","","","","","0.5688165975","0.5779451767","0.3445332441","0.5812500281","","","","","","","","75","K","2","","","213","main_expt",""
"","bandit","293","962701","0.0-254.0-0.0","72592555","wem/bandit_either_3","A1CGDMOPDIC7EU","either","3","294","","","","","","","0","0","1","0.331154659","","0.4","0.2","0.8","0.6","","","","","0.5354690829","0.5615700258","0.331154659","0.6912727382","","","","","","","","75","K","2","","","214","main_expt",""
"","bandit","294","964600","0.0-255.0-0.0","72592555","wem/bandit_either_3","A1CGDMOPDIC7EU","either","3","365","","","","","","","0","0","1","0.3168016653","","0.4","0.2","0.8","0.6","","","","","0.4395706401","0.5361399643","0.3168016653","0.695573978","","","","","","","","75","K","2","","","215","main_expt",""
"","bandit","295","966604","0.0-256.0-0.0","72592555","wem/bandit_either_3","A1CGDMOPDIC7EU","either","3","491","","","","","","","0","0","1","","0.2870858596","0.4","0.2","0.8","0.6","0.4522294324","0.620750855","0.2870858596","0.6531454011","","","","","","","","","","","","75","K","2","","","216","main_expt",""
"","bandit","296","968759","0.0-257.0-0.0","72592555","wem/bandit_either_3","A1CGDMOPDIC7EU","either","3","615","","","","","","","1","0","0","0.2877345098","","0.4","0.2","0.8","0.6","","","","","0.4141575353","0.4812239037","0.2877345098","0.6459690495","","","","","","","","75","K","2","","","217","main_expt",""
"","bandit","297","970704","0.0-258.0-0.0","72592555","wem/bandit_either_3","A1CGDMOPDIC7EU","either","3","405","","","","","","","0","0","1","0.3608492067","","0.4","0.2","0.8","0.6","","","","","0.3009722504","0.4028497994","0.3608492067","0.6679944541","","","","","","","","75","K","2","","","218","main_expt",""
"","bandit","298","972711","0.0-259.0-0.0","72592555","wem/bandit_either_3","A1CGDMOPDIC7EU","either","3","471","","","","","","","1","0","0","0.4380407461","","0.4","0.2","0.8","0.6","","","","","0.2706893249","0.4441021312","0.4380407461","0.7159195147","","","","","","","","75","K","2","","","219","main_expt",""
"","bandit","299","974831","0.0-260.0-0.0","72592555","wem/bandit_either_3","A1CGDMOPDIC7EU","either","3","589","","","","","","","0","0","1","0.4769938592","","0.4","0.2","0.8","0.6","","","","","0.3821277721","0.4867825248","0.4769938592","0.6874484601","","","","","","","","75","K","2","","","220","main_expt",""
"","bandit","300","976941","0.0-261.0-0.0","72592555","wem/bandit_either_3","A1CGDMOPDIC7EU","either","3","569","","","","","","","0","1","0","","0.4612627877","0.4","0.2","0.8","0.6","0.4534214389","0.5428062785","0.4612627877","0.6528128226","","","","","","","","","","","","75","K","2","","","221","main_expt",""
"","bandit","301","978915","0.0-262.0-0.0","72592555","wem/bandit_either_3","A1CGDMOPDIC7EU","either","3","445","","","","","","","0","0","1","0.4192901336","","0.4","0.2","0.8","0.6","","","","","0.6049712458","0.5993321864","0.4192901336","0.6836467719","","","","","","","","75","K","2","","","222","main_expt",""
"","bandit","302","981872","0.0-263.0-0.0","72592555","wem/bandit_either_3","A1CGDMOPDIC7EU","either","3","1418","","","","","","","1","0","0","0.5559965486","","0.4","0.2","0.8","0.6","","","","","0.6389506418","0.4920604154","0.5559965486","0.7820879334","","","","","","","","75","K","2","","","223","main_expt",""
"","bandit","303","983877","0.0-264.0-0.0","72592555","wem/bandit_either_3","A1CGDMOPDIC7EU","either","3","458","","","","","","","1","0","0","0.6687933923","","0.4","0.2","0.8","0.6","","","","","0.6677375732","0.5344282052","0.6687933923","0.763226653","","","","","","","","75","K","2","","","224","main_expt",""
"","bandit","304","987386","0.0-265.0-0.0","72592555","wem/bandit_either_3","A1CGDMOPDIC7EU","either","3","1990","","","","","","","1","0","0","0.5954484576","","0.4","0.2","0.8","0.6","","","","","0.7706853934","0.5583452501","0.5954484576","0.6931961842","","","","","","","","75","K","2","","","225","main_expt",""
"","bandit","305","990762","0.0-266.0-0.0","72592555","wem/bandit_either_3","A1CGDMOPDIC7EU","either","3","1849","","","","","","","0","0","1","","0.6152447968","0.4","0.2","0.8","0.6","0.7624197083","0.5126042404","0.6152447968","0.6633974694","","","","","","","","","","","","75","K","2","","","226","main_expt",""
"","bandit","306","994296","0.0-267.0-0.0","72592555","wem/bandit_either_3","A1CGDMOPDIC7EU","either","3","2019","","","","","","","0","0","1","0.6597553912","","0.4","0.2","0.8","0.6","","","","","0.7287840805","0.5720595628","0.6597553912","0.6567175756","","","","","","","","75","K","2","","","227","main_expt",""
"","bandit","307","996930","0.0-268.0-0.0","72592555","wem/bandit_either_3","A1CGDMOPDIC7EU","either","3","1092","","","","","","","0","1","0","","0.594895186","0.4","0.2","0.8","0.6","0.7993891034","0.6134710885","0.594895186","0.6052730858","","","","","","","","","","","","75","K","2","","","228","main_expt",""
"","bandit","308","998529","0.0-269.0-0.0","72592555","wem/bandit_either_3","A1CGDMOPDIC7EU","either","3","65","","","","","","","1","0","0","0.5548990383","","0.4","0.2","0.8","0.6","","","","","0.8374027748","0.5669106804","0.5722559027","0.5548990383","","","","","","","","76","L","3","","","229","main_expt",""
"","bandit","309","1000499","0.0-270.0-0.0","72592555","wem/bandit_either_3","A1CGDMOPDIC7EU","either","3","443","","","","","","","1","0","0","0.6017114108","","0.4","0.2","0.8","0.6","","","","","0.8414873787","0.6286782819","0.5409090622","0.6017114108","","","","","","","","76","L","3","","","230","main_expt",""
"","bandit","310","1002636","0.0-271.0-0.0","72592555","wem/bandit_either_3","A1CGDMOPDIC7EU","either","3","596","","","","","","","0","0","1","0.5525336349","","0.4","0.2","0.8","0.6","","","","","0.8531648874","0.5594948871","0.518727512","0.5525336349","","","","","","","","76","L","3","","","231","main_expt",""
"","bandit","311","1005298","0.0-272.0-0.0","72592555","wem/bandit_either_3","A1CGDMOPDIC7EU","either","3","1125","","","","","","","0","0","1","0.4493361955","","0.4","0.2","0.8","0.6","","","","","0.8813812612","0.5817998964","0.5200298571","0.4493361955","","","","","","","","76","L","3","","","232","main_expt",""
"","bandit","312","1007389","0.0-273.0-0.0","72592555","wem/bandit_either_3","A1CGDMOPDIC7EU","either","3","575","","","","","","","1","0","0","0.5280832246","","0.4","0.2","0.8","0.6","","","","","0.8916766345","0.5971875981","0.4564343731","0.5280832246","","","","","","","","76","L","3","","","233","main_expt",""
"","bandit","313","1009777","0.0-274.0-0.0","72592555","wem/bandit_either_3","A1CGDMOPDIC7EU","either","3","869","","","","","","","0","0","1","0.6814540918","","0.4","0.2","0.8","0.6","","","","","0.842820862","0.5227237997","0.4168065644","0.6814540918","","","","","","","","76","L","3","","","234","main_expt",""
"","bandit","314","1011628","0.0-275.0-0.0","72592555","wem/bandit_either_3","A1CGDMOPDIC7EU","either","3","327","","","","","","","1","0","0","0.5518959403","","0.4","0.2","0.8","0.6","","","","","0.7856269381","0.6231997156","0.4340770274","0.5518959403","","","","","","","","76","L","3","","","235","main_expt",""
"","bandit","315","1013730","0.0-276.0-0.0","72592555","wem/bandit_either_3","A1CGDMOPDIC7EU","either","3","574","","","","","","","1","0","0","0.4965619817","","0.4","0.2","0.8","0.6","","","","","0.8092971262","0.558272317","0.4489205242","0.4965619817","","","","","","","","76","L","3","","","236","main_expt",""
"","bandit","316","1015671","0.0-277.0-0.0","72592555","wem/bandit_either_3","A1CGDMOPDIC7EU","either","3","404","","","","","","","1","0","0","0.4762879104","","0.4","0.2","0.8","0.6","","","","","0.8125536838","0.6118965497","0.4838648791","0.4762879104","","","","","","","","76","L","3","","","237","main_expt",""
"","bandit","317","1017572","0.0-278.0-0.0","72592555","wem/bandit_either_3","A1CGDMOPDIC7EU","either","3","371","","","","","","","0","0","1","0.4991976808","","0.4","0.2","0.8","0.6","","","","","0.8684257659","0.7415542647","0.4615645545","0.4991976808","","","","","","","","76","L","3","","","238","main_expt",""
"","bandit","318","1019239","0.0-279.0-0.0","72592555","wem/bandit_either_3","A1CGDMOPDIC7EU","either","3","129","","","","","","","0","0","1","0.4627972202","","0.4","0.2","0.8","0.6","","","","","0.8891050988","0.794517608","0.4263497721","0.4627972202","","","","","","","","76","L","3","","","239","main_expt",""
"","bandit","319","1045854","0.0-280.0-0.0","72592555","wem/bandit_either_3","A1CGDMOPDIC7EU","either","3","25090","","","","","","","0","1","0","","0.7966429163","0.4","0.2","0.8","0.6","0.8983693474","0.7966429163","0.4372282776","0.484486763","","","","","","","","","","","","74","J","1","","","240","main_expt",""
"","bandit","320","1053007","0.0-281.0-0.0","72592555","wem/bandit_either_3","A1CGDMOPDIC7EU","either","3","5637","","","","","","","0","1","0","","0.8608109038","0.4","0.2","0.8","0.6","0.8608109038","0.7827696357","0.5558093781","0.3450886106","","","","","","","","","","","","72","H","0","img/none_selected.jpg","","241","main_expt",""
"","bandit","321","1055130","0.0-282.0-0.0","72592555","wem/bandit_either_3","A1CGDMOPDIC7EU","either","3","595","","","","","","","0","1","0","","0.8807376199","0.4","0.2","0.8","0.6","0.8807376199","0.8077769827","0.654661817","0.4066884652","","","","","","","","","","","","72","H","0","img/none_selected.jpg","","242","main_expt",""
"","bandit","322","1056865","0.0-283.0-0.0","72592555","wem/bandit_either_3","A1CGDMOPDIC7EU","either","3","198","","","","","","","1","0","0","0.7680675523","","0.4","0.2","0.8","0.6","","","","","0.8782163565","0.7680675523","0.5869565726","0.3574054959","","","","","","","","74","J","1","","","243","main_expt",""
"","bandit","323","1058712","0.0-284.0-0.0","72592555","wem/bandit_either_3","A1CGDMOPDIC7EU","either","3","315","","","","","","","0","1","0","","0.6802465609","0.4","0.2","0.8","0.6","0.8691088863","0.6802465609","0.6282978891","0.4200458239","","","","","","","","","","","","74","J","1","","","244","main_expt",""
"","bandit","324","1060479","0.0-285.0-0.0","72592555","wem/bandit_either_3","A1CGDMOPDIC7EU","either","3","246","","","","","","","1","0","0","0.6110509309","","0.4","0.2","0.8","0.6","","","","","0.8516976639","0.6110509309","0.5918678021","0.3587254574","","","","","","","","74","J","1","","","245","main_expt",""
