"consent","trial_type","trial_index","time_elapsed","internal_node_id","subjID","study","MID","cond","drift","rt","responses","key_press","expt_phase","like","value","connected","gems","bombs","no_reward","GemPrChosen","BombPrChosen","GainOverPainPr_0","GainOverPainPr_1","GainOverPainPr_2","GainOverPainPr_3","LosePr_0","LosePr_1","LosePr_2","LosePr_3","WinPr_0","WinPr_1","WinPr_2","WinPr_3","Q0","Q1","Q2","gender","age","ethnicity","target","respCharCode","respKey","respChoiceNum","respChoice","practice","trial_counter","trial_label","button_pressed"
"INL_behavioral_consent_30min_online.html","consent","0","5155","0.0-0.0","72778408","wem/bandit_either_3","AT0COJ1G23ZB0","either","2","","","","","","","","","","","","","","","","","","","","","","","","","","","","","","","","","","","","","","",""
"","survey-text","1","7921","0.0-1.0","72778408","wem/bandit_either_3","AT0COJ1G23ZB0","either","2","1752","{""Q0"":""AT0COJ1G23ZB0""}","","","","","","","","","","","","","","","","","","","","","","","","","","","","","","","","","","","","",""
"","text","2","12343","0.0-2.0","72778408","wem/bandit_either_3","AT0COJ1G23ZB0","either","2","3420","","32","","","","","","","","","","","","","","","","","","","","","","","","","","","","","","","","","","","",""
"","text","3","15206","0.0-3.0","72778408","wem/bandit_either_3","AT0COJ1G23ZB0","either","2","2860","","32","","","","","","","","","","","","","","","","","","","","","","","","","","","","","","","","","","","",""
"","text","4","21927","0.0-4.0","72778408","wem/bandit_either_3","AT0COJ1G23ZB0","either","2","6717","","32","","","","","","","","","","","","","","","","","","","","","","","","","","","","","","","","","","","",""
"","text","5","27879","0.0-5.0","72778408","wem/bandit_either_3","AT0COJ1G23ZB0","either","2","5948","","32","","","","","","","","","","","","","","","","","","","","","","","","","","","","","","","","","","","",""
"","text","6","35543","0.0-6.0","72778408","wem/bandit_either_3","AT0COJ1G23ZB0","either","2","7659","","32","","","","","","","","","","","","","","","","","","","","","","","","","","","","","","","","","","","",""
"","text","7","38151","0.0-7.0","72778408","wem/bandit_either_3","AT0COJ1G23ZB0","either","2","2603","","32","","","","","","","","","","","","","","","","","","","","","","","","","","","","","","","","","","","",""
"","text","8","39701","0.0-8.0","72778408","wem/bandit_either_3","AT0COJ1G23ZB0","either","2","1548","","32","","","","","","","","","","","","","","","","","","","","","","","","","","","","","","","","","","","",""
"","identification","9","44235","0.0-9.0-0.0","72778408","wem/bandit_either_3","AT0COJ1G23ZB0","either","2","4496","","","","6","6","6","","","","","","","","","","","","","","","","","","","","","","","","the village of Zur","","","","","","","",""
"","identification","10","47400","0.0-9.0-1.0","72778408","wem/bandit_either_3","AT0COJ1G23ZB0","either","2","2131","","","","0","0","0","","","","","","","","","","","","","","","","","","","","","","","","the village of Nyx","","","","","","","",""
"","text","11","50509","0.0-10.0","72778408","wem/bandit_either_3","AT0COJ1G23ZB0","either","2","2090","","32","","","","","","","","","","","","","","","","","","","","","","","","","","","","","","","","","","","",""
"","text","12","51685","0.0-11.0","72778408","wem/bandit_either_3","AT0COJ1G23ZB0","either","2","1172","","32","","","","","","","","","","","","","","","","","","","","","","","","","","","","","","","","","","","",""
"","text","13","52613","0.0-12.0","72778408","wem/bandit_either_3","AT0COJ1G23ZB0","either","2","926","","32","","","","","","","","","","","","","","","","","","","","","","","","","","","","","","","","","","","",""
"","text","14","54212","0.0-13.0","72778408","wem/bandit_either_3","AT0COJ1G23ZB0","either","2","1593","","32","","","","","","","","","","","","","","","","","","","","","","","","","","","","","","","","","","","",""
"","bandit","15","57423","0.0-14.0-0.0","72778408","wem/bandit_either_3","AT0COJ1G23ZB0","either","2","1673","","","","","","","0","0","1","0","0","","","","","0","","","","0","","","","","","","","","","","74","J","0","img/none_selected_demo.jpg","true","0","",""
"","bandit","16","59607","0.0-15.0-0.0","72778408","wem/bandit_either_3","AT0COJ1G23ZB0","either","2","670","","","","","","","0","0","1","0","0","","","","","0","","","","0","","","","","","","","","","","75","K","0","img/none_selected_demo.jpg","true","0","",""
"","text","17","63556","0.0-16.0","72778408","wem/bandit_either_3","AT0COJ1G23ZB0","either","2","3946","","32","","","","","","","","","","","","","","","","","","","","","","","","","","","","","","","","","","","",""
"","text","18","69543","0.0-17.0","72778408","wem/bandit_either_3","AT0COJ1G23ZB0","either","2","5982","","32","","","","","","","","","","","","","","","","","","","","","","","","","","","","","","","","","","","",""
"","text","19","72774","0.0-18.0","72778408","wem/bandit_either_3","AT0COJ1G23ZB0","either","2","3224","","32","","","","","","","","","","","","","","","","","","","","","","","","","","","","","","","","","","","",""
"","text","20","74326","0.0-19.0","72778408","wem/bandit_either_3","AT0COJ1G23ZB0","either","2","1546","","32","","","","","","","","","","","","","","","","","","","","","","","","","","","","","","","","","","","",""
"","bandit","21","76534","0.0-20.0-0.0","72778408","wem/bandit_either_3","AT0COJ1G23ZB0","either","2","690","","","","","","","0","1","0","","0.8","0.5","0.5","","","0.8","0.2","","","","","","","","","","","","","","74","J","0","img/none_selected_demo.jpg","true","0","80_20_practice",""
"","bandit","22","78758","0.0-20.0-1.0","72778408","wem/bandit_either_3","AT0COJ1G23ZB0","either","2","659","","","","","","","0","1","0","","0.8","0.5","0.5","","","0.8","0.2","","","","","","","","","","","","","","74","J","0","img/none_selected_demo.jpg","true","0","80_20_practice",""
"","bandit","23","80822","0.0-20.0-2.0","72778408","wem/bandit_either_3","AT0COJ1G23ZB0","either","2","552","","","","","","","0","1","0","","0.8","0.5","0.5","","","0.8","0.2","","","","","","","","","","","","","","74","J","0","img/none_selected_demo.jpg","true","0","80_20_practice",""
"","bandit","24","82757","0.0-20.0-3.0","72778408","wem/bandit_either_3","AT0COJ1G23ZB0","either","2","408","","","","","","","0","0","1","","0.2","0.5","0.5","","","0.8","0.2","","","","","","","","","","","","","","75","K","1","","true","0","80_20_practice",""
"","bandit","25","84660","0.0-20.0-4.0","72778408","wem/bandit_either_3","AT0COJ1G23ZB0","either","2","367","","","","","","","0","0","1","","0.2","0.5","0.5","","","0.8","0.2","","","","","","","","","","","","","","75","K","1","","true","0","80_20_practice",""
"","bandit","26","86565","0.0-20.0-5.0","72778408","wem/bandit_either_3","AT0COJ1G23ZB0","either","2","373","","","","","","","0","0","1","0.2","","0.5","0.5","","","","","","","0.8","0.2","","","","","","","","","","75","K","1","","true","0","80_20_practice",""
"","bandit","27","88436","0.0-20.0-6.0","72778408","wem/bandit_either_3","AT0COJ1G23ZB0","either","2","339","","","","","","","1","0","0","0.8","","0.5","0.5","","","","","","","0.8","0.2","","","","","","","","","","74","J","0","img/none_selected_demo.jpg","true","0","80_20_practice",""
"","bandit","28","90463","0.0-20.0-7.0","72778408","wem/bandit_either_3","AT0COJ1G23ZB0","either","2","485","","","","","","","0","1","0","","0.8","0.5","0.5","","","0.8","0.2","","","","","","","","","","","","","","74","J","0","img/none_selected_demo.jpg","true","0","80_20_practice",""
"","bandit","29","92430","0.0-20.0-8.0","72778408","wem/bandit_either_3","AT0COJ1G23ZB0","either","2","428","","","","","","","0","0","1","","0.2","0.5","0.5","","","0.8","0.2","","","","","","","","","","","","","","75","K","1","","true","0","80_20_practice",""
"","bandit","30","94320","0.0-20.0-9.0","72778408","wem/bandit_either_3","AT0COJ1G23ZB0","either","2","344","","","","","","","1","0","0","0.2","","0.5","0.5","","","","","","","0.8","0.2","","","","","","","","","","75","K","1","","true","0","80_20_practice",""
"","bandit","31","96158","0.0-20.0-10.0","72778408","wem/bandit_either_3","AT0COJ1G23ZB0","either","2","309","","","","","","","1","0","0","0.2","","0.5","0.5","","","","","","","0.8","0.2","","","","","","","","","","75","K","1","","true","0","80_20_practice",""
"","bandit","32","98030","0.0-20.0-11.0","72778408","wem/bandit_either_3","AT0COJ1G23ZB0","either","2","347","","","","","","","0","0","1","","0.2","0.5","0.5","","","0.8","0.2","","","","","","","","","","","","","","75","K","1","","true","0","80_20_practice",""
"","bandit","33","99933","0.0-20.0-12.0","72778408","wem/bandit_either_3","AT0COJ1G23ZB0","either","2","366","","","","","","","0","0","1","","0.2","0.5","0.5","","","0.8","0.2","","","","","","","","","","","","","","75","K","1","","true","0","80_20_practice",""
"","bandit","34","101772","0.0-20.0-13.0","72778408","wem/bandit_either_3","AT0COJ1G23ZB0","either","2","309","","","","","","","0","0","1","","0.2","0.5","0.5","","","0.8","0.2","","","","","","","","","","","","","","75","K","1","","true","0","80_20_practice",""
"","bandit","35","103628","0.0-20.0-14.0","72778408","wem/bandit_either_3","AT0COJ1G23ZB0","either","2","317","","","","","","","0","0","1","","0.2","0.5","0.5","","","0.8","0.2","","","","","","","","","","","","","","75","K","1","","true","0","80_20_practice",""
"","bandit","36","105440","0.0-20.0-15.0","72778408","wem/bandit_either_3","AT0COJ1G23ZB0","either","2","289","","","","","","","0","0","1","0.2","","0.5","0.5","","","","","","","0.8","0.2","","","","","","","","","","75","K","1","","true","0","80_20_practice",""
"","bandit","37","107234","0.0-20.0-16.0","72778408","wem/bandit_either_3","AT0COJ1G23ZB0","either","2","274","","","","","","","1","0","0","0.8","","0.5","0.5","","","","","","","0.8","0.2","","","","","","","","","","74","J","0","img/none_selected_demo.jpg","true","0","80_20_practice",""
"","bandit","38","109426","0.0-20.0-17.0","72778408","wem/bandit_either_3","AT0COJ1G23ZB0","either","2","306","","","","","","","0","0","1","","0.8","0.5","0.5","","","0.8","0.2","","","","","","","","","","","","","","74","J","0","img/none_selected_demo.jpg","true","0","80_20_practice",""
"","bandit","39","111351","0.0-20.0-18.0","72778408","wem/bandit_either_3","AT0COJ1G23ZB0","either","2","390","","","","","","","0","0","1","0.8","","0.5","0.5","","","","","","","0.8","0.2","","","","","","","","","","74","J","0","img/none_selected_demo.jpg","true","0","80_20_practice",""
"","bandit","40","113566","0.0-20.0-19.0","72778408","wem/bandit_either_3","AT0COJ1G23ZB0","either","2","586","","","","","","","1","0","0","0.8","","0.5","0.5","","","","","","","0.8","0.2","","","","","","","","","","74","J","0","img/none_selected_demo.jpg","true","0","80_20_practice",""
"","text","41","113747","0.0-21.0","72778408","wem/bandit_either_3","AT0COJ1G23ZB0","either","2","177","","32","","","","","","","","","","","","","","","","","","","","","","","","","","","","","","","","","","","",""
"","bandit","42","117013","0.0-22.0-0.0","72778408","wem/bandit_either_3","AT0COJ1G23ZB0","either","2","1738","","","","","","","1","0","0","1","0","","","","","0","1","","","1","0","","","","","","","","","","74","J","0","img/none_selected_demo.jpg","true","0","",""
"","text","43","119587","0.0-23.0","72778408","wem/bandit_either_3","AT0COJ1G23ZB0","either","2","2570","","32","","","","","","","","","","","","","","","","","","","","","","","","","","","","","","","","","","","",""
"","text","44","120563","0.0-24.0","72778408","wem/bandit_either_3","AT0COJ1G23ZB0","either","2","972","","32","","","","","","","","","","","","","","","","","","","","","","","","","","","","","","","","","","","",""
"","text","45","121203","0.0-25.0","72778408","wem/bandit_either_3","AT0COJ1G23ZB0","either","2","635","","32","","","","","","","","","","","","","","","","","","","","","","","","","","","","","","","","","","","",""
"","text","46","122355","0.0-26.0","72778408","wem/bandit_either_3","AT0COJ1G23ZB0","either","2","1148","","32","","","","","","","","","","","","","","","","","","","","","","","","","","","","","","","","","","","",""
"","text","47","122964","0.0-27.0","72778408","wem/bandit_either_3","AT0COJ1G23ZB0","either","2","604","","32","","","","","","","","","","","","","","","","","","","","","","","","","","","","","","","","","","","",""
"","text","48","123891","0.0-28.0","72778408","wem/bandit_either_3","AT0COJ1G23ZB0","either","2","922","","32","","","","","","","","","","","","","","","","","","","","","","","","","","","","","","","","","","","",""
"","text","49","124579","0.0-29.0","72778408","wem/bandit_either_3","AT0COJ1G23ZB0","either","2","683","","32","","","","","","","","","","","","","","","","","","","","","","","","","","","","","","","","","","","",""
"","text","50","125387","0.0-30.0","72778408","wem/bandit_either_3","AT0COJ1G23ZB0","either","2","802","","32","","","","","","","","","","","","","","","","","","","","","","","","","","","","","","","","","","","",""
"","text","51","126153","0.0-31.0","72778408","wem/bandit_either_3","AT0COJ1G23ZB0","either","2","757","","32","","","","","","","","","","","","","","","","","","","","","","","","","","","","","","","","","","","",""
"","text","52","126965","0.0-32.0","72778408","wem/bandit_either_3","AT0COJ1G23ZB0","either","2","805","","32","","","","","","","","","","","","","","","","","","","","","","","","","","","","","","","","","","","",""
"","text","53","128996","0.0-33.0","72778408","wem/bandit_either_3","AT0COJ1G23ZB0","either","2","2024","","32","","","","","","","","","","","","","","","","","","","","","","","","","","","","","","","","","","","",""
"","bandit","54","131038","0.0-34.0-0.0","72778408","wem/bandit_either_3","AT0COJ1G23ZB0","either","2","498","","","","","","","0","1","0","","0.8","0.5","0.5","0.5","0.5","0.8","0.2","0.6","0.2","","","","","","","","","","","","72","H","0","img/none_selected.jpg","true","0","full_practice",""
"","bandit","55","132943","0.0-34.0-1.0","72778408","wem/bandit_either_3","AT0COJ1G23ZB0","either","2","378","","","","","","","0","0","1","","0.2","0.5","0.5","0.5","0.5","0.8","0.2","0.6","0.2","","","","","","","","","","","","74","J","1","","true","0","full_practice",""
"","bandit","56","134720","0.0-34.0-2.0","72778408","wem/bandit_either_3","AT0COJ1G23ZB0","either","2","193","","","","","","","0","0","1","","0.6","0.5","0.5","0.5","0.5","0.8","0.2","0.6","0.2","","","","","","","","","","","","75","K","2","","true","0","full_practice",""
"","bandit","57","136514","0.0-34.0-3.0","72778408","wem/bandit_either_3","AT0COJ1G23ZB0","either","2","263","","","","","","","0","0","1","","0.2","0.5","0.5","0.5","0.5","0.8","0.2","0.6","0.2","","","","","","","","","","","","76","L","3","","true","0","full_practice",""
"","bandit","58","138276","0.0-34.0-4.0","72778408","wem/bandit_either_3","AT0COJ1G23ZB0","either","2","230","","","","","","","0","0","1","0.2","","0.5","0.5","0.5","0.5","","","","","0.8","0.2","0.6","0.2","","","","","","","","74","J","1","","true","0","full_practice",""
"","bandit","59","139851","0.0-34.0-5.0","72778408","wem/bandit_either_3","AT0COJ1G23ZB0","either","2","37","","","","","","","0","1","0","","0.6","0.5","0.5","0.5","0.5","0.8","0.2","0.6","0.2","","","","","","","","","","","","75","K","2","","true","0","full_practice",""
"","bandit","60","141678","0.0-34.0-6.0","72778408","wem/bandit_either_3","AT0COJ1G23ZB0","either","2","286","","","","","","","0","0","1","0.8","","0.5","0.5","0.5","0.5","","","","","0.8","0.2","0.6","0.2","","","","","","","","72","H","0","img/none_selected.jpg","true","0","full_practice",""
"","bandit","61","143471","0.0-34.0-7.0","72778408","wem/bandit_either_3","AT0COJ1G23ZB0","either","2","268","","","","","","","0","1","0","","0.8","0.5","0.5","0.5","0.5","0.8","0.2","0.6","0.2","","","","","","","","","","","","72","H","0","img/none_selected.jpg","true","0","full_practice",""
"","bandit","62","145326","0.0-34.0-8.0","72778408","wem/bandit_either_3","AT0COJ1G23ZB0","either","2","331","","","","","","","1","0","0","0.6","","0.5","0.5","0.5","0.5","","","","","0.8","0.2","0.6","0.2","","","","","","","","75","K","2","","true","0","full_practice",""
"","bandit","63","147113","0.0-34.0-9.0","72778408","wem/bandit_either_3","AT0COJ1G23ZB0","either","2","266","","","","","","","0","1","0","","0.6","0.5","0.5","0.5","0.5","0.8","0.2","0.6","0.2","","","","","","","","","","","","75","K","2","","true","0","full_practice",""
"","bandit","64","148867","0.0-34.0-10.0","72778408","wem/bandit_either_3","AT0COJ1G23ZB0","either","2","223","","","","","","","0","1","0","","0.6","0.5","0.5","0.5","0.5","0.8","0.2","0.6","0.2","","","","","","","","","","","","75","K","2","","true","0","full_practice",""
"","bandit","65","150678","0.0-34.0-11.0","72778408","wem/bandit_either_3","AT0COJ1G23ZB0","either","2","278","","","","","","","0","0","1","0.6","","0.5","0.5","0.5","0.5","","","","","0.8","0.2","0.6","0.2","","","","","","","","75","K","2","","true","0","full_practice",""
"","bandit","66","152332","0.0-34.0-12.0","72778408","wem/bandit_either_3","AT0COJ1G23ZB0","either","2","129","","","","","","","0","1","0","","0.8","0.5","0.5","0.5","0.5","0.8","0.2","0.6","0.2","","","","","","","","","","","","72","H","0","img/none_selected.jpg","true","0","full_practice",""
"","bandit","67","154199","0.0-34.0-13.0","72778408","wem/bandit_either_3","AT0COJ1G23ZB0","either","2","315","","","","","","","1","0","0","0.8","","0.5","0.5","0.5","0.5","","","","","0.8","0.2","0.6","0.2","","","","","","","","72","H","0","img/none_selected.jpg","true","0","full_practice",""
"","bandit","68","156072","0.0-34.0-14.0","72778408","wem/bandit_either_3","AT0COJ1G23ZB0","either","2","330","","","","","","","0","1","0","","0.8","0.5","0.5","0.5","0.5","0.8","0.2","0.6","0.2","","","","","","","","","","","","72","H","0","img/none_selected.jpg","true","0","full_practice",""
"","bandit","69","157777","0.0-34.0-15.0","72778408","wem/bandit_either_3","AT0COJ1G23ZB0","either","2","162","","","","","","","0","0","1","0.8","","0.5","0.5","0.5","0.5","","","","","0.8","0.2","0.6","0.2","","","","","","","","72","H","0","img/none_selected.jpg","true","0","full_practice",""
"","bandit","70","159788","0.0-34.0-16.0","72778408","wem/bandit_either_3","AT0COJ1G23ZB0","either","2","340","","","","","","","0","1","0","","0.8","0.5","0.5","0.5","0.5","0.8","0.2","0.6","0.2","","","","","","","","","","","","72","H","0","img/none_selected.jpg","true","0","full_practice",""
"","bandit","71","161457","0.0-34.0-17.0","72778408","wem/bandit_either_3","AT0COJ1G23ZB0","either","2","138","","","","","","","0","0","1","0.6","","0.5","0.5","0.5","0.5","","","","","0.8","0.2","0.6","0.2","","","","","","","","75","K","2","","true","0","full_practice",""
"","bandit","72","163174","0.0-34.0-18.0","72778408","wem/bandit_either_3","AT0COJ1G23ZB0","either","2","181","","","","","","","0","0","1","0.8","","0.5","0.5","0.5","0.5","","","","","0.8","0.2","0.6","0.2","","","","","","","","72","H","0","img/none_selected.jpg","true","0","full_practice",""
"","bandit","73","164922","0.0-34.0-19.0","72778408","wem/bandit_either_3","AT0COJ1G23ZB0","either","2","206","","","","","","","0","1","0","","0.6","0.5","0.5","0.5","0.5","0.8","0.2","0.6","0.2","","","","","","","","","","","","75","K","2","","true","0","full_practice",""
"","text","74","165588","0.0-35.0","72778408","wem/bandit_either_3","AT0COJ1G23ZB0","either","2","638","","32","","","","","","","","","","","","","","","","","","","","","","","","","","","","","","","","","","","",""
"","text","75","172022","0.0-36.0","72778408","wem/bandit_either_3","AT0COJ1G23ZB0","either","2","5412","","32","","","","","","","","","","","","","","","","","","","","","","","","","","","","","","","","","","","",""
"","text","76","173942","0.0-37.0","72778408","wem/bandit_either_3","AT0COJ1G23ZB0","either","2","1906","","32","","","","","","","","","","","","","","","","","","","","","","","","","","","","","","","","","","","",""
"","text","77","176003","0.0-38.0","72778408","wem/bandit_either_3","AT0COJ1G23ZB0","either","2","2054","","32","","","","","","","","","","","","","","","","","","","","","","","","","","","","","","","","","","","",""
"","text","78","177075","0.0-39.0","72778408","wem/bandit_either_3","AT0COJ1G23ZB0","either","2","1062","","32","","","","","","","","","","","","","","","","","","","","","","","","","","","","","","","","","","","",""
"","text","79","178131","0.0-40.0","72778408","wem/bandit_either_3","AT0COJ1G23ZB0","either","2","1047","","32","","","","","","","","","","","","","","","","","","","","","","","","","","","","","","","","","","","",""
"","bandit","80","180151","0.0-41.0-0.0","72778408","wem/bandit_either_3","AT0COJ1G23ZB0","either","2","482","","","","","","","0","1","0","","0.7092854079","0.6","0.4","0.2","0.8","0.7092854079","0.7961415707","0.9925337928","0.4841938304","","","","","","","","","","","","72","H","0","img/none_selected.jpg","","1","main_expt",""
"","bandit","81","182066","0.0-42.0-0.0","72778408","wem/bandit_either_3","AT0COJ1G23ZB0","either","2","379","","","","","","","0","1","0","","0.7343230146","0.6","0.4","0.2","0.8","0.7343230146","0.7739630809","0.9909612399","0.5300888233","","","","","","","","","","","","72","H","0","img/none_selected.jpg","","2","main_expt",""
"","bandit","82","183892","0.0-43.0-0.0","72778408","wem/bandit_either_3","AT0COJ1G23ZB0","either","2","308","","","","","","","0","0","1","0.7616266478","","0.6","0.4","0.2","0.8","","","","","0.7616266478","0.807852523","0.9875934203","0.4747636274","","","","","","","","72","H","0","img/none_selected.jpg","","3","main_expt",""
"","bandit","83","185564","0.0-44.0-0.0","72778408","wem/bandit_either_3","AT0COJ1G23ZB0","either","2","127","","","","","","","1","0","0","0.7922386472","","0.6","0.4","0.2","0.8","","","","","0.7555889459","0.7922386472","0.9782241123","0.4841015375","","","","","","","","74","J","1","","","4","main_expt",""
"","bandit","84","187368","0.0-45.0-0.0","72778408","wem/bandit_either_3","AT0COJ1G23ZB0","either","2","263","","","","","","","1","0","0","0.865094385","","0.6","0.4","0.2","0.8","","","","","0.733520678","0.865094385","0.9756627961","0.5545204825","","","","","","","","74","J","1","","","5","main_expt",""
"","bandit","85","189178","0.0-46.0-0.0","72778408","wem/bandit_either_3","AT0COJ1G23ZB0","either","2","270","","","","","","","0","0","1","","0.800956518","0.6","0.4","0.2","0.8","0.6705264102","0.800956518","0.967089612","0.6032406034","","","","","","","","","","","","74","J","1","","","6","main_expt",""
"","bandit","86","191489","0.0-47.0-0.0","72778408","wem/bandit_either_3","AT0COJ1G23ZB0","either","2","763","","","","","","","1","0","0","0.9581374084","","0.6","0.4","0.2","0.8","","","","","0.6395389268","0.826484282","0.9581374084","0.6629125932","","","","","","","","75","K","2","","","7","main_expt",""
"","bandit","87","193329","0.0-48.0-0.0","72778408","wem/bandit_either_3","AT0COJ1G23ZB0","either","2","300","","","","","","","0","0","1","0.9470057872","","0.6","0.4","0.2","0.8","","","","","0.6463283336","0.8721258401","0.9470057872","0.6179372523","","","","","","","","75","K","2","","","8","main_expt",""
"","bandit","88","195106","0.0-49.0-0.0","72778408","wem/bandit_either_3","AT0COJ1G23ZB0","either","2","115","","","","","","","1","0","0","0.7126464358","","0.6","0.4","0.2","0.8","","","","","0.5257156782","0.9123847657","0.9776699295","0.7126464358","","","","","","","","76","L","3","","","9","main_expt",""
"","bandit","89","196917","0.0-50.0-0.0","72778408","wem/bandit_either_3","AT0COJ1G23ZB0","either","2","278","","","","","","","0","0","1","0.7356985298","","0.6","0.4","0.2","0.8","","","","","0.4763364632","0.8996742502","0.9728878591","0.7356985298","","","","","","","","76","L","3","","","10","main_expt",""
"","bandit","90","198618","0.0-51.0-0.0","72778408","wem/bandit_either_3","AT0COJ1G23ZB0","either","2","160","","","","","","","0","0","1","0.4284616273","","0.6","0.4","0.2","0.8","","","","","0.4284616273","0.9131723876","0.9593139104","0.768711937","","","","","","","","72","H","0","img/none_selected.jpg","","11","main_expt",""
"","bandit","91","200301","0.0-52.0-0.0","72778408","wem/bandit_either_3","AT0COJ1G23ZB0","either","2","142","","","","","","","0","1","0","","0.8766857583","0.6","0.4","0.2","0.8","0.3846657661","0.8766857583","0.9498917819","0.775032537","","","","","","","","","","","","74","J","1","","","12","main_expt",""
"","bandit","92","202141","0.0-53.0-0.0","72778408","wem/bandit_either_3","AT0COJ1G23ZB0","either","2","297","","","","","","","1","0","0","0.8395211377","","0.6","0.4","0.2","0.8","","","","","0.4534267517","0.8395211377","0.9541602679","0.8005481332","","","","","","","","74","J","1","","","13","main_expt",""
"","bandit","93","203982","0.0-54.0-0.0","72778408","wem/bandit_either_3","AT0COJ1G23ZB0","either","2","301","","","","","","","1","0","0","0.8716273459","","0.6","0.4","0.2","0.8","","","","","0.5781166702","0.8716273459","0.9457654821","0.8437703121","","","","","","","","74","J","1","","","14","main_expt",""
"","bandit","94","205730","0.0-55.0-0.0","72778408","wem/bandit_either_3","AT0COJ1G23ZB0","either","2","232","","","","","","","0","1","0","","0.8884181174","0.6","0.4","0.2","0.8","0.6683268695","0.8884181174","0.961431504","0.7878475566","","","","","","","","","","","","74","J","1","","","15","main_expt",""
"","bandit","95","207452","0.0-56.0-0.0","72778408","wem/bandit_either_3","AT0COJ1G23ZB0","either","2","180","","","","","","","0","1","0","","0.9144873871","0.6","0.4","0.2","0.8","0.6948649322","0.9144873871","0.9614480804","0.7873795395","","","","","","","","","","","","74","J","1","","","16","main_expt",""
"","bandit","96","209324","0.0-57.0-0.0","72778408","wem/bandit_either_3","AT0COJ1G23ZB0","either","2","124","","","","","","","1","0","0","0.915766025","","0.6","0.4","0.2","0.8","","","","","0.7674725463","0.915766025","0.981184269","0.8084550093","","","","","","","","74","J","1","","","17","main_expt",""
"","bandit","97","211220","0.0-58.0-0.0","72778408","wem/bandit_either_3","AT0COJ1G23ZB0","either","2","363","","","","","","","0","1","0","","0.9357816117","0.6","0.4","0.2","0.8","0.7706733977","0.9357816117","0.9861919244","0.8436933745","","","","","","","","","","","","74","J","1","","","18","main_expt",""
"","bandit","98","213031","0.0-59.0-0.0","72778408","wem/bandit_either_3","AT0COJ1G23ZB0","either","2","290","","","","","","","1","0","0","0.9482019282","","0.6","0.4","0.2","0.8","","","","","0.7396491891","0.9482019282","0.986789567","0.8059530903","","","","","","","","74","J","1","","","19","main_expt",""
"","bandit","99","214902","0.0-60.0-0.0","72778408","wem/bandit_either_3","AT0COJ1G23ZB0","either","2","326","","","","","","","1","0","0","0.9433726768","","0.6","0.4","0.2","0.8","","","","","0.6712916173","0.9433726768","0.986183881","0.7839513496","","","","","","","","74","J","1","","","20","main_expt",""
"","bandit","100","216755","0.0-61.0-0.0","72778408","wem/bandit_either_3","AT0COJ1G23ZB0","either","2","285","","","","","","","0","1","0","","0.9488284628","0.6","0.4","0.2","0.8","0.6728887443","0.9488284628","0.9887099493","0.7841815244","","","","","","","","","","","","74","J","1","","","21","main_expt",""
"","bandit","101","218635","0.0-62.0-0.0","72778408","wem/bandit_either_3","AT0COJ1G23ZB0","either","2","325","","","","","","","0","1","0","","0.9500515088","0.6","0.4","0.2","0.8","0.7838502077","0.9500515088","0.992558567","0.8256278583","","","","","","","","","","","","74","J","1","","","22","main_expt",""
"","bandit","102","220365","0.0-63.0-0.0","72778408","wem/bandit_either_3","AT0COJ1G23ZB0","either","2","187","","","","","","","1","0","0","0.9645760881","","0.6","0.4","0.2","0.8","","","","","0.8711917965","0.9645760881","0.9906074595","0.7043778873","","","","","","","","74","J","1","","","23","main_expt",""
"","bandit","103","222203","0.0-64.0-0.0","72778408","wem/bandit_either_3","AT0COJ1G23ZB0","either","2","284","","","","","","","1","0","0","0.946785539","","0.6","0.4","0.2","0.8","","","","","0.861124964","0.946785539","0.9828703082","0.7662705475","","","","","","","","74","J","1","","","24","main_expt",""
"","bandit","104","224030","0.0-65.0-0.0","72778408","wem/bandit_either_3","AT0COJ1G23ZB0","either","2","282","","","","","","","0","1","0","","0.9229473608","0.6","0.4","0.2","0.8","0.8551403996","0.9229473608","0.984618899","0.6915147264","","","","","","","","","","","","74","J","1","","","25","main_expt",""
"","bandit","105","225927","0.0-66.0-0.0","72778408","wem/bandit_either_3","AT0COJ1G23ZB0","either","2","332","","","","","","","1","0","0","0.8729820127","","0.6","0.4","0.2","0.8","","","","","0.8959771014","0.8729820127","0.9780938917","0.6844606422","","","","","","","","74","J","1","","","26","main_expt",""
"","bandit","106","227774","0.0-67.0-0.0","72778408","wem/bandit_either_3","AT0COJ1G23ZB0","either","2","280","","","","","","","1","0","0","0.859067388","","0.6","0.4","0.2","0.8","","","","","0.8786292531","0.859067388","0.9634866904","0.7953701942","","","","","","","","74","J","1","","","27","main_expt",""
"","bandit","107","229630","0.0-68.0-0.0","72778408","wem/bandit_either_3","AT0COJ1G23ZB0","either","2","301","","","","","","","0","1","0","","0.836267867","0.6","0.4","0.2","0.8","0.8920593834","0.836267867","0.946494378","0.622657036","","","","","","","","","","","","74","J","1","","","28","main_expt",""
"","bandit","108","231485","0.0-69.0-0.0","72778408","wem/bandit_either_3","AT0COJ1G23ZB0","either","2","307","","","","","","","0","0","1","","0.7158546556","0.6","0.4","0.2","0.8","0.8234517222","0.7158546556","0.9338647731","0.5757463716","","","","","","","","","","","","74","J","1","","","29","main_expt",""
"","bandit","109","233076","0.0-70.0-0.0","72778408","wem/bandit_either_3","AT0COJ1G23ZB0","either","2","54","","","","","","","0","0","1","","0.9354801528","0.6","0.4","0.2","0.8","0.7963444676","0.7262950886","0.9354801528","0.6048158844","","","","","","","","","","","","75","K","2","","","30","main_expt",""
"","bandit","110","234824","0.0-71.0-0.0","72778408","wem/bandit_either_3","AT0COJ1G23ZB0","either","2","206","","","","","","","0","1","0","","0.9323861487","0.6","0.4","0.2","0.8","0.6847131082","0.7049485024","0.9323861487","0.4831208743","","","","","","","","","","","","75","K","2","","","31","main_expt",""
"","bandit","111","236618","0.0-72.0-0.0","72778408","wem/bandit_either_3","AT0COJ1G23ZB0","either","2","256","","","","","","","0","1","0","","0.9159531952","0.6","0.4","0.2","0.8","0.7745616343","0.6294605358","0.9159531952","0.4413454117","","","","","","","","","","","","75","K","2","","","32","main_expt",""
"","bandit","112","238271","0.0-73.0-0.0","72778408","wem/bandit_either_3","AT0COJ1G23ZB0","either","2","121","","","","","","","0","1","0","","0.9501333659","0.6","0.4","0.2","0.8","0.8111568365","0.7097184707","0.9501333659","0.589686364","","","","","","","","","","","","75","K","2","","","33","main_expt",""
"","bandit","113","239909","0.0-74.0-0.0","72778408","wem/bandit_either_3","AT0COJ1G23ZB0","either","2","114","","","","","","","1","0","0","0.9485118263","","0.6","0.4","0.2","0.8","","","","","0.7291364049","0.6324728327","0.9485118263","0.5789977489","","","","","","","","75","K","2","","","34","main_expt",""
"","bandit","114","241671","0.0-75.0-0.0","72778408","wem/bandit_either_3","AT0COJ1G23ZB0","either","2","142","","","","","","","0","1","0","","0.959491173","0.6","0.4","0.2","0.8","0.7920219322","0.6809104991","0.959491173","0.5605822786","","","","","","","","","","","","75","K","2","","","35","main_expt",""
"","bandit","115","243595","0.0-76.0-0.0","72778408","wem/bandit_either_3","AT0COJ1G23ZB0","either","2","353","","","","","","","0","1","0","","0.9523687656","0.6","0.4","0.2","0.8","0.7889809596","0.5745256001","0.9523687656","0.3330948712","","","","","","","","","","","","75","K","2","","","36","main_expt",""
"","bandit","116","245453","0.0-77.0-0.0","72778408","wem/bandit_either_3","AT0COJ1G23ZB0","either","2","333","","","","","","","0","1","0","","0.9504344127","0.6","0.4","0.2","0.8","0.8060385269","0.6249275122","0.9504344127","0.2430176499","","","","","","","","","","","","75","K","2","","","37","main_expt",""
"","bandit","117","247272","0.0-78.0-0.0","72778408","wem/bandit_either_3","AT0COJ1G23ZB0","either","2","276","","","","","","","0","1","0","","0.9321408283","0.6","0.4","0.2","0.8","0.7188782676","0.5582777804","0.9321408283","0.3106083343","","","","","","","","","","","","75","K","2","","","38","main_expt",""
"","bandit","118","249159","0.0-79.0-0.0","72778408","wem/bandit_either_3","AT0COJ1G23ZB0","either","2","347","","","","","","","0","1","0","","0.9135525369","0.6","0.4","0.2","0.8","0.7387945131","0.6619895395","0.9135525369","0.3239447463","","","","","","","","","","","","75","K","2","","","39","main_expt",""
"","bandit","119","250984","0.0-80.0-0.0","72778408","wem/bandit_either_3","AT0COJ1G23ZB0","either","2","309","","","","","","","1","0","0","0.8840916364","","0.6","0.4","0.2","0.8","","","","","0.7478035428","0.6522152691","0.8840916364","0.2946631509","","","","","","","","75","K","2","","","40","main_expt",""
"","bandit","120","252653","0.0-81.0-0.0","72778408","wem/bandit_either_3","AT0COJ1G23ZB0","either","2","138","","","","","","","1","0","0","0.8747037504","","0.6","0.4","0.2","0.8","","","","","0.7802386085","0.6714070371","0.8747037504","0.193597671","","","","","","","","75","K","2","","","41","main_expt",""
"","bandit","121","254634","0.0-82.0-0.0","72778408","wem/bandit_either_3","AT0COJ1G23ZB0","either","2","442","","","","","","","0","1","0","","0.826315498","0.6","0.4","0.2","0.8","0.7994277013","0.6390104416","0.826315498","0.1834529884","","","","","","","","","","","","75","K","2","","","42","main_expt",""
"","bandit","122","256430","0.0-83.0-0.0","72778408","wem/bandit_either_3","AT0COJ1G23ZB0","either","2","254","","","","","","","0","1","0","","0.7681371561","0.6","0.4","0.2","0.8","0.8718069658","0.6318841448","0.7681371561","0.1558663495","","","","","","","","","","","","75","K","2","","","43","main_expt",""
"","bandit","123","258114","0.0-84.0-0.0","72778408","wem/bandit_either_3","AT0COJ1G23ZB0","either","2","133","","","","","","","1","0","0","0.7584360225","","0.6","0.4","0.2","0.8","","","","","0.7725207311","0.5708139437","0.7584360225","0.1573065196","","","","","","","","75","K","2","","","44","main_expt",""
"","bandit","124","259876","0.0-85.0-0.0","72778408","wem/bandit_either_3","AT0COJ1G23ZB0","either","2","244","","","","","","","0","0","1","","0.816959585","0.6","0.4","0.2","0.8","0.8399140445","0.5703812278","0.816959585","0.1743203636","","","","","","","","","","","","75","K","2","","","45","main_expt",""
"","bandit","125","261436","0.0-86.0-0.0","72778408","wem/bandit_either_3","AT0COJ1G23ZB0","either","2","30","","","","","","","0","0","1","0.1234040722","","0.6","0.4","0.2","0.8","","","","","0.7830678696","0.4520700595","0.7571269921","0.1234040722","","","","","","","","76","L","3","","","46","main_expt",""
"","bandit","126","263043","0.0-87.0-0.0","72778408","wem/bandit_either_3","AT0COJ1G23ZB0","either","2","75","","","","","","","0","0","1","","0.4953600952","0.6","0.4","0.2","0.8","0.8255209912","0.4953600952","0.7086567283","0.1592846429","","","","","","","","","","","","74","J","1","","","47","main_expt",""
"","bandit","127","264619","0.0-88.0-0.0","72778408","wem/bandit_either_3","AT0COJ1G23ZB0","either","2","36","","","","","","","0","1","0","","0.7728754614","0.6","0.4","0.2","0.8","0.7728754614","0.4912921637","0.6428227569","0.1880090658","","","","","","","","","","","","72","H","0","img/none_selected.jpg","","48","main_expt",""
"","bandit","128","266351","0.0-89.0-0.0","72778408","wem/bandit_either_3","AT0COJ1G23ZB0","either","2","215","","","","","","","0","0","1","0.8607162984","","0.6","0.4","0.2","0.8","","","","","0.8607162984","0.4694413912","0.7004196772","0.3190576765","","","","","","","","72","H","0","img/none_selected.jpg","","49","main_expt",""
"","bandit","129","267957","0.0-90.0-0.0","72778408","wem/bandit_either_3","AT0COJ1G23ZB0","either","2","66","","","","","","","0","0","1","0.6418514465","","0.6","0.4","0.2","0.8","","","","","0.8526113732","0.5835687148","0.6418514465","0.277770718","","","","","","","","75","K","2","","","50","main_expt",""
"","bandit","130","269813","0.0-91.0-0.0","72778408","wem/bandit_either_3","AT0COJ1G23ZB0","either","2","314","","","","","","","1","0","0","0.3304163056","","0.6","0.4","0.2","0.8","","","","","0.8630835666","0.581499138","0.6322169777","0.3304163056","","","","","","","","76","L","3","","","51","main_expt",""
"","bandit","131","271608","0.0-92.0-0.0","72778408","wem/bandit_either_3","AT0COJ1G23ZB0","either","2","257","","","","","","","0","0","1","","0.3074301744","0.6","0.4","0.2","0.8","0.8689990829","0.6521379128","0.6160259873","0.3074301744","","","","","","","","","","","","76","L","3","","","52","main_expt",""
"","bandit","132","273262","0.0-93.0-0.0","72778408","wem/bandit_either_3","AT0COJ1G23ZB0","either","2","122","","","","","","","0","0","1","","0.8829627288","0.6","0.4","0.2","0.8","0.8829627288","0.5743957808","0.6635838846","0.3292402402","","","","","","","","","","","","72","H","0","img/none_selected.jpg","","53","main_expt",""
"","bandit","133","275055","0.0-94.0-0.0","72778408","wem/bandit_either_3","AT0COJ1G23ZB0","either","2","255","","","","","","","0","1","0","","0.4765250731","0.6","0.4","0.2","0.8","0.8577096669","0.4765250731","0.7334380463","0.3701383524","","","","","","","","","","","","74","J","1","","","54","main_expt",""
"","bandit","134","276835","0.0-95.0-0.0","72778408","wem/bandit_either_3","AT0COJ1G23ZB0","either","2","242","","","","","","","0","1","0","","0.472038817","0.6","0.4","0.2","0.8","0.7951355038","0.472038817","0.6625049704","0.4023440482","","","","","","","","","","","","74","J","1","","","55","main_expt",""
"","bandit","135","278539","0.0-96.0-0.0","72778408","wem/bandit_either_3","AT0COJ1G23ZB0","either","2","162","","","","","","","1","0","0","0.6060805283","","0.6","0.4","0.2","0.8","","","","","0.7832403428","0.6060805283","0.6244126183","0.3320470731","","","","","","","","74","J","1","","","56","main_expt",""
"","bandit","136","280109","0.0-97.0-0.0","72778408","wem/bandit_either_3","AT0COJ1G23ZB0","either","2","42","","","","","","","0","1","0","","0.5733746242","0.6","0.4","0.2","0.8","0.7165346004","0.5733746242","0.693445159","0.3398704556","","","","","","","","","","","","74","J","1","","","57","main_expt",""
"","bandit","137","281654","0.0-98.0-0.0","72778408","wem/bandit_either_3","AT0COJ1G23ZB0","either","2","11","","","","","","","0","0","1","0.5268086549","","0.6","0.4","0.2","0.8","","","","","0.7840704931","0.5268086549","0.6603141298","0.3171476707","","","","","","","","74","J","1","","","58","main_expt",""
"","bandit","138","283552","0.0-99.0-0.0","72778408","wem/bandit_either_3","AT0COJ1G23ZB0","either","2","302","","","","","","","0","0","1","","0.5298916697","0.6","0.4","0.2","0.8","0.7166558068","0.5298916697","0.6435133917","0.1868584885","","","","","","","","","","","","74","J","1","","","59","main_expt",""
"","bandit","139","285556","0.0-100.0-0.0","72778408","wem/bandit_either_3","AT0COJ1G23ZB0","either","2","465","","","","","","","1","0","0","0.6720075741","","0.6","0.4","0.2","0.8","","","","","0.6505055492","0.5547432704","0.6720075741","0.2163153633","","","","","","","","75","K","2","","","60","main_expt",""
"","bandit","140","287224","0.0-101.0-0.0","72778408","wem/bandit_either_3","AT0COJ1G23ZB0","either","2","44","","","","","","","0","1","0","","0.6703611074","0.6","0.4","0.2","0.8","0.6465946667","0.5407031957","0.6703611074","0.2086512551","","","","","","","","","","","","75","K","2","","","61","main_expt",""
"","bandit","141","289097","0.0-102.0-0.0","72778408","wem/bandit_either_3","AT0COJ1G23ZB0","either","2","345","","","","","","","1","0","0","0.64477312","","0.6","0.4","0.2","0.8","","","","","0.709990362","0.6993449034","0.64477312","0.2250062338","","","","","","","","75","K","2","","","62","main_expt",""
"","bandit","142","290979","0.0-103.0-0.0","72778408","wem/bandit_either_3","AT0COJ1G23ZB0","either","2","332","","","","","","","0","0","1","0.509049177","","0.6","0.4","0.2","0.8","","","","","0.7542168012","0.6342967703","0.509049177","0.2739380208","","","","","","","","75","K","2","","","63","main_expt",""
"","bandit","143","292574","0.0-104.0-0.0","72778408","wem/bandit_either_3","AT0COJ1G23ZB0","either","2","54","","","","","","","0","0","1","","0.3449536465","0.6","0.4","0.2","0.8","0.7660604158","0.5961490325","0.5535424332","0.3449536465","","","","","","","","","","","","76","L","3","","","64","main_expt",""
"","bandit","144","294352","0.0-105.0-0.0","72778408","wem/bandit_either_3","AT0COJ1G23ZB0","either","2","237","","","","","","","1","0","0","0.7572602099","","0.6","0.4","0.2","0.8","","","","","0.7572602099","0.5771190674","0.6608621899","0.34640195","","","","","","","","72","H","0","img/none_selected.jpg","","65","main_expt",""
"","bandit","145","296099","0.0-106.0-0.0","72778408","wem/bandit_either_3","AT0COJ1G23ZB0","either","2","204","","","","","","","0","1","0","","0.686926195","0.6","0.4","0.2","0.8","0.686926195","0.4765921407","0.6535341977","0.5266288285","","","","","","","","","","","","72","H","0","img/none_selected.jpg","","66","main_expt",""
"","bandit","146","297988","0.0-107.0-0.0","72778408","wem/bandit_either_3","AT0COJ1G23ZB0","either","2","351","","","","","","","1","0","0","0.7334195653","","0.6","0.4","0.2","0.8","","","","","0.7334195653","0.5714361875","0.6592628399","0.5588671697","","","","","","","","72","H","0","img/none_selected.jpg","","67","main_expt",""
"","bandit","147","300002","0.0-108.0-0.0","72778408","wem/bandit_either_3","AT0COJ1G23ZB0","either","2","466","","","","","","","0","1","0","","0.6114245881","0.6","0.4","0.2","0.8","0.6114245881","0.6231829193","0.6735013879","0.6097536784","","","","","","","","","","","","72","H","0","img/none_selected.jpg","","68","main_expt",""
"","bandit","148","301966","0.0-109.0-0.0","72778408","wem/bandit_either_3","AT0COJ1G23ZB0","either","2","429","","","","","","","1","0","0","0.6460921668","","0.6","0.4","0.2","0.8","","","","","0.6460921668","0.5130256365","0.7209687993","0.533457584","","","","","","","","72","H","0","img/none_selected.jpg","","69","main_expt",""
"","bandit","149","303632","0.0-110.0-0.0","72778408","wem/bandit_either_3","AT0COJ1G23ZB0","either","2","78","","","","","","","0","1","0","","0.6700702736","0.6","0.4","0.2","0.8","0.6700702736","0.5167166","0.690528825","0.4124750721","","","","","","","","","","","","72","H","0","img/none_selected.jpg","","70","main_expt",""
"","bandit","150","305412","0.0-111.0-0.0","72778408","wem/bandit_either_3","AT0COJ1G23ZB0","either","2","243","","","","","","","0","0","1","0.6388012411","","0.6","0.4","0.2","0.8","","","","","0.6388012411","0.6448170737","0.6453310316","0.4486526525","","","","","","","","72","H","0","img/none_selected.jpg","","71","main_expt",""
"","bandit","151","306957","0.0-112.0-0.0","72778408","wem/bandit_either_3","AT0COJ1G23ZB0","either","2","0","","","","","","","0","1","0","","0.5640434706","0.6","0.4","0.2","0.8","0.6046900378","0.5640434706","0.8140348339","0.4313602212","","","","","","","","","","","","74","J","1","","","72","main_expt",""
"","bandit","152","308705","0.0-113.0-0.0","72778408","wem/bandit_either_3","AT0COJ1G23ZB0","either","2","210","","","","","","","0","0","1","0.6296110197","","0.6","0.4","0.2","0.8","","","","","0.6062428704","0.6296110197","0.820931829","0.3639072561","","","","","","","","74","J","1","","","73","main_expt",""
"","bandit","153","310248","0.0-114.0-0.0","72778408","wem/bandit_either_3","AT0COJ1G23ZB0","either","2","2","","","","","","","0","1","0","","0.8096233945","0.6","0.4","0.2","0.8","0.6237194739","0.6730210969","0.8096233945","0.2882181569","","","","","","","","","","","","75","K","2","","","74","main_expt",""
"","bandit","154","311887","0.0-115.0-0.0","72778408","wem/bandit_either_3","AT0COJ1G23ZB0","either","2","100","","","","","","","0","1","0","","0.7615001707","0.6","0.4","0.2","0.8","0.5971007372","0.5720403827","0.7615001707","0.3561187133","","","","","","","","","","","","75","K","2","","","75","main_expt",""
"","bandit","155","313659","0.0-116.0-0.0","72778408","wem/bandit_either_3","AT0COJ1G23ZB0","either","2","149","","","","","","","0","1","0","","0.8147365981","0.6","0.4","0.2","0.8","0.5810032438","0.6303512149","0.8147365981","0.4480894403","","","","","","","","","","","","75","K","2","","","76","main_expt",""
"","bandit","156","315396","0.0-117.0-0.0","72778408","wem/bandit_either_3","AT0COJ1G23ZB0","either","2","199","","","","","","","0","1","0","","0.8926338818","0.6","0.4","0.2","0.8","0.5792233978","0.5531797874","0.8926338818","0.3220850356","","","","","","","","","","","","75","K","2","","","77","main_expt",""
"","bandit","157","317144","0.0-118.0-0.0","72778408","wem/bandit_either_3","AT0COJ1G23ZB0","either","2","199","","","","","","","0","1","0","","0.8669072201","0.6","0.4","0.2","0.8","0.692511921","0.5449672882","0.8669072201","0.3281133775","","","","","","","","","","","","75","K","2","","","78","main_expt",""
"","bandit","158","318699","0.0-119.0-0.0","72778408","wem/bandit_either_3","AT0COJ1G23ZB0","either","2","5","","","","","","","1","0","0","0.9114006046","","0.6","0.4","0.2","0.8","","","","","0.7019625083","0.4484013318","0.9114006046","0.3814329202","","","","","","","","75","K","2","","","79","main_expt",""
"","bandit","159","320498","0.0-120.0-0.0","72778408","wem/bandit_either_3","AT0COJ1G23ZB0","either","2","263","","","","","","","0","1","0","","0.9268398106","0.6","0.4","0.2","0.8","0.6785675641","0.5041425745","0.9268398106","0.3512572076","","","","","","","","","","","","75","K","2","","","80","main_expt",""
"","bandit","160","322059","0.0-121.0-0.0","72778408","wem/bandit_either_3","AT0COJ1G23ZB0","either","2","16","","","","","","","0","1","0","","0.9582858862","0.6","0.4","0.2","0.8","0.7101061672","0.3462078978","0.9582858862","0.3624285329","","","","","","","","","","","","75","K","2","","","81","main_expt",""
"","bandit","161","323804","0.0-122.0-0.0","72778408","wem/bandit_either_3","AT0COJ1G23ZB0","either","2","215","","","","","","","0","1","0","","0.9590071975","0.6","0.4","0.2","0.8","0.7217376576","0.3226795418","0.9590071975","0.3111883408","","","","","","","","","","","","75","K","2","","","82","main_expt",""
"","bandit","162","325614","0.0-123.0-0.0","72778408","wem/bandit_either_3","AT0COJ1G23ZB0","either","2","277","","","","","","","0","1","0","","0.9379973093","0.6","0.4","0.2","0.8","0.6437777395","0.3023868023","0.9379973093","0.243162563","","","","","","","","","","","","75","K","2","","","83","main_expt",""
"","bandit","163","327362","0.0-124.0-0.0","72778408","wem/bandit_either_3","AT0COJ1G23ZB0","either","2","207","","","","","","","0","1","0","","0.9411979228","0.6","0.4","0.2","0.8","0.6533183273","0.4040419094","0.9411979228","0.347146949","","","","","","","","","","","","75","K","2","","","84","main_expt",""
"","bandit","164","329154","0.0-125.0-0.0","72778408","wem/bandit_either_3","AT0COJ1G23ZB0","either","2","267","","","","","","","0","1","0","","0.9441700551","0.6","0.4","0.2","0.8","0.7469548387","0.4716136817","0.9441700551","0.4416309426","","","","","","","","","","","","75","K","2","","","85","main_expt",""
"","bandit","165","330996","0.0-126.0-0.0","72778408","wem/bandit_either_3","AT0COJ1G23ZB0","either","2","304","","","","","","","0","1","0","","0.9323605113","0.6","0.4","0.2","0.8","0.7366570046","0.4455883603","0.9323605113","0.4523797492","","","","","","","","","","","","75","K","2","","","86","main_expt",""
"","bandit","166","332650","0.0-127.0-0.0","72778408","wem/bandit_either_3","AT0COJ1G23ZB0","either","2","109","","","","","","","0","1","0","","0.8871332711","0.6","0.4","0.2","0.8","0.7142428019","0.5952575165","0.8871332711","0.4621103264","","","","","","","","","","","","75","K","2","","","87","main_expt",""
"","bandit","167","334428","0.0-128.0-0.0","72778408","wem/bandit_either_3","AT0COJ1G23ZB0","either","2","242","","","","","","","0","1","0","","0.8520973281","0.6","0.4","0.2","0.8","0.7057172343","0.5333825583","0.8520973281","0.3800084876","","","","","","","","","","","","75","K","2","","","88","main_expt",""
"","bandit","168","336285","0.0-129.0-0.0","72778408","wem/bandit_either_3","AT0COJ1G23ZB0","either","2","320","","","","","","","0","0","1","","0.7882210871","0.6","0.4","0.2","0.8","0.7289934888","0.4583166828","0.7882210871","0.2354372355","","","","","","","","","","","","75","K","2","","","89","main_expt",""
"","bandit","169","338237","0.0-130.0-0.0","72778408","wem/bandit_either_3","AT0COJ1G23ZB0","either","2","391","","","","","","","0","0","1","0.2978482647","","0.6","0.4","0.2","0.8","","","","","0.7475354559","0.4782349553","0.720110267","0.2978482647","","","","","","","","76","L","3","","","90","main_expt",""
"","bandit","170","339935","0.0-131.0-0.0","72778408","wem/bandit_either_3","AT0COJ1G23ZB0","either","2","156","","","","","","","1","0","0","0.6316706059","","0.6","0.4","0.2","0.8","","","","","0.6316706059","0.464138054","0.7390342074","0.3723871884","","","","","","","","72","H","0","img/none_selected.jpg","","91","main_expt",""
"","bandit","171","341761","0.0-132.0-0.0","72778408","wem/bandit_either_3","AT0COJ1G23ZB0","either","2","299","","","","","","","1","0","0","0.6957908828","","0.6","0.4","0.2","0.8","","","","","0.6957908828","0.5084128334","0.8135224625","0.5400298203","","","","","","","","72","H","0","img/none_selected.jpg","","92","main_expt",""
"","bandit","172","343633","0.0-133.0-0.0","72778408","wem/bandit_either_3","AT0COJ1G23ZB0","either","2","332","","","","","","","0","1","0","","0.6812665662","0.6","0.4","0.2","0.8","0.6812665662","0.5211356389","0.7814404678","0.5134744583","","","","","","","","","","","","72","H","0","img/none_selected.jpg","","93","main_expt",""
"","bandit","173","345504","0.0-134.0-0.0","72778408","wem/bandit_either_3","AT0COJ1G23ZB0","either","2","336","","","","","","","0","0","1","0.6412933588","","0.6","0.4","0.2","0.8","","","","","0.6412933588","0.4554037602","0.7672416568","0.4101580275","","","","","","","","72","H","0","img/none_selected.jpg","","94","main_expt",""
"","bandit","174","347376","0.0-135.0-0.0","72778408","wem/bandit_either_3","AT0COJ1G23ZB0","either","2","332","","","","","","","0","0","1","0.4195046205","","0.6","0.4","0.2","0.8","","","","","0.5696630174","0.4195046205","0.7573973965","0.2995167601","","","","","","","","74","J","1","","","95","main_expt",""
"","bandit","175","349096","0.0-136.0-0.0","72778408","wem/bandit_either_3","AT0COJ1G23ZB0","either","2","170","","","","","","","0","1","0","","0.8177369732","0.6","0.4","0.2","0.8","0.6076398096","0.3638478563","0.8177369732","0.2934894425","","","","","","","","","","","","75","K","2","","","96","main_expt",""
"","bandit","176","350696","0.0-137.0-0.0","72778408","wem/bandit_either_3","AT0COJ1G23ZB0","either","2","49","","","","","","","0","1","0","","0.8124666872","0.6","0.4","0.2","0.8","0.5551612935","0.2839735208","0.8124666872","0.2802715202","","","","","","","","","","","","75","K","2","","","97","main_expt",""
"","bandit","177","352259","0.0-138.0-0.0","72778408","wem/bandit_either_3","AT0COJ1G23ZB0","either","2","24","","","","","","","0","1","0","","0.881496875","0.6","0.4","0.2","0.8","0.6354974245","0.2109275999","0.881496875","0.2703087955","","","","","","","","","","","","75","K","2","","","98","main_expt",""
"","bandit","178","353975","0.0-139.0-0.0","72778408","wem/bandit_either_3","AT0COJ1G23ZB0","either","2","170","","","","","","","1","0","0","0.8785981907","","0.6","0.4","0.2","0.8","","","","","0.5945745664","0.1531506719","0.8785981907","0.3027543159","","","","","","","","75","K","2","","","99","main_expt",""
"","bandit","179","355723","0.0-140.0-0.0","72778408","wem/bandit_either_3","AT0COJ1G23ZB0","either","2","218","","","","","","","0","1","0","","0.8494581726","0.6","0.4","0.2","0.8","0.5679097985","0.1262108991","0.8494581726","0.3645318829","","","","","","","","","","","","75","K","2","","","100","main_expt",""
"","bandit","180","357471","0.0-141.0-0.0","72778408","wem/bandit_either_3","AT0COJ1G23ZB0","either","2","207","","","","","","","0","0","1","","0.7754784616","0.6","0.4","0.2","0.8","0.6430580454","0.1340220502","0.7754784616","0.4315832637","","","","","","","","","","","","75","K","2","","","101","main_expt",""
"","bandit","181","359220","0.0-142.0-0.0","72778408","wem/bandit_either_3","AT0COJ1G23ZB0","either","2","193","","","","","","","0","0","1","0.3608531129","","0.6","0.4","0.2","0.8","","","","","0.6340200926","0.2167126086","0.7626736499","0.3608531129","","","","","","","","76","L","3","","","102","main_expt",""
"","bandit","182","360916","0.0-143.0-0.0","72778408","wem/bandit_either_3","AT0COJ1G23ZB0","either","2","156","","","","","","","0","0","1","0.3688981903","","0.6","0.4","0.2","0.8","","","","","0.6377668076","0.2796352144","0.7329996306","0.3688981903","","","","","","","","76","L","3","","","103","main_expt",""
"","bandit","183","362509","0.0-144.0-0.0","72778408","wem/bandit_either_3","AT0COJ1G23ZB0","either","2","58","","","","","","","0","0","1","","0.6578341575","0.6","0.4","0.2","0.8","0.6578341575","0.3556406549","0.7467689404","0.3758155051","","","","","","","","","","","","72","H","0","img/none_selected.jpg","","104","main_expt",""
"","bandit","184","364072","0.0-145.0-0.0","72778408","wem/bandit_either_3","AT0COJ1G23ZB0","either","2","20","","","","","","","0","0","1","","0.3233911601","0.6","0.4","0.2","0.8","0.6727034752","0.3233911601","0.737018723","0.4508947075","","","","","","","","","","","","74","J","1","","","105","main_expt",""
"","bandit","185","366051","0.0-146.0-0.0","72778408","wem/bandit_either_3","AT0COJ1G23ZB0","either","2","432","","","","","","","0","0","1","","0.655194185","0.6","0.4","0.2","0.8","0.6386482702","0.2024631506","0.655194185","0.4132181144","","","","","","","","","","","","75","K","2","","","106","main_expt",""
"","bandit","186","367906","0.0-147.0-0.0","72778408","wem/bandit_either_3","AT0COJ1G23ZB0","either","2","309","","","","","","","1","0","0","0.4393512677","","0.6","0.4","0.2","0.8","","","","","0.6788938686","0.2290393164","0.7122819559","0.4393512677","","","","","","","","76","L","3","","","107","main_expt",""
"","bandit","187","369982","0.0-148.0-0.0","72778408","wem/bandit_either_3","AT0COJ1G23ZB0","either","2","247","","","","","","","0","1","0","","0.4964319729","0.6","0.4","0.2","0.8","0.7076498576","0.2217712157","0.7326995505","0.4964319729","","","","","","","","","","","","76","L","3","","","108","main_expt",""
"","bandit","188","371839","0.0-149.0-0.0","72778408","wem/bandit_either_3","AT0COJ1G23ZB0","either","2","323","","","","","","","1","0","0","0.4790921069","","0.6","0.4","0.2","0.8","","","","","0.6932550908","0.1566860935","0.7165499475","0.4790921069","","","","","","","","76","L","3","","","109","main_expt",""
"","bandit","189","373877","0.0-150.0-0.0","72778408","wem/bandit_either_3","AT0COJ1G23ZB0","either","2","374","","","","","","","1","0","0","0.5856434505","","0.6","0.4","0.2","0.8","","","","","0.7436061547","0.1083987113","0.6058017554","0.5856434505","","","","","","","","76","L","3","","","110","main_expt",""
"","bandit","190","375488","0.0-151.0-0.0","72778408","wem/bandit_either_3","AT0COJ1G23ZB0","either","2","72","","","","","","","0","0","1","0.6444230696","","0.6","0.4","0.2","0.8","","","","","0.657194241","0.217828795","0.5476823758","0.6444230696","","","","","","","","76","L","3","","","111","main_expt",""
"","bandit","191","377187","0.0-152.0-0.0","72778408","wem/bandit_either_3","AT0COJ1G23ZB0","either","2","153","","","","","","","0","0","1","0.6317228327","","0.6","0.4","0.2","0.8","","","","","0.6317228327","0.2212119155","0.5688313193","0.603417252","","","","","","","","72","H","0","img/none_selected.jpg","","112","main_expt",""
"","bandit","192","378858","0.0-153.0-0.0","72778408","wem/bandit_either_3","AT0COJ1G23ZB0","either","2","139","","","","","","","0","0","1","","0.2374112476","0.6","0.4","0.2","0.8","0.4985892417","0.2374112476","0.50852785","0.420613871","","","","","","","","","","","","74","J","1","","","113","main_expt",""
"","bandit","193","380652","0.0-154.0-0.0","72778408","wem/bandit_either_3","AT0COJ1G23ZB0","either","2","253","","","","","","","0","0","1","","0.5711084253","0.6","0.4","0.2","0.8","0.579071345","0.2703699348","0.5711084253","0.2851569533","","","","","","","","","","","","75","K","2","","","114","main_expt",""
"","bandit","194","382444","0.0-155.0-0.0","72778408","wem/bandit_either_3","AT0COJ1G23ZB0","either","2","270","","","","","","","0","0","1","","0.3166589884","0.6","0.4","0.2","0.8","0.4595939904","0.1928485376","0.4177754351","0.3166589884","","","","","","","","","","","","76","L","3","","","115","main_expt",""
"","bandit","195","384295","0.0-156.0-0.0","72778408","wem/bandit_either_3","AT0COJ1G23ZB0","either","2","299","","","","","","","0","1","0","","0.3744567546","0.6","0.4","0.2","0.8","0.3744567546","0.136356343","0.387840809","0.3928451607","","","","","","","","","","","","72","H","0","img/none_selected.jpg","","116","main_expt",""
"","bandit","196","386141","0.0-157.0-0.0","72778408","wem/bandit_either_3","AT0COJ1G23ZB0","either","2","305","","","","","","","0","0","1","","0.302145019","0.6","0.4","0.2","0.8","0.302145019","0.2193113504","0.4456731606","0.560845346","","","","","","","","","","","","72","H","0","img/none_selected.jpg","","117","main_expt",""
"","bandit","197","387982","0.0-158.0-0.0","72778408","wem/bandit_either_3","AT0COJ1G23ZB0","either","2","314","","","","","","","1","0","0","0.3522466686","","0.6","0.4","0.2","0.8","","","","","0.3522466686","0.2686792008","0.3045880574","0.5536818424","","","","","","","","72","H","0","img/none_selected.jpg","","118","main_expt",""
"","bandit","198","389761","0.0-159.0-0.0","72778408","wem/bandit_either_3","AT0COJ1G23ZB0","either","2","243","","","","","","","0","0","1","0.4425542362","","0.6","0.4","0.2","0.8","","","","","0.4425542362","0.2668270476","0.3994134075","0.3617659687","","","","","","","","72","H","0","img/none_selected.jpg","","119","main_expt",""
"","bandit","199","391447","0.0-160.0-0.0","72778408","wem/bandit_either_3","AT0COJ1G23ZB0","either","2","139","","","","","","","0","0","1","0.3723992114","","0.6","0.4","0.2","0.8","","","","","0.3377532805","0.3723992114","0.351449483","0.3454740543","","","","","","","","74","J","1","","","120","main_expt",""
"","bandit","200","393006","0.0-161.0-0.0","72778408","wem/bandit_either_3","AT0COJ1G23ZB0","either","2","18","","","","","","","1","0","0","0.3641911367","","0.6","0.4","0.2","0.8","","","","","0.2929504356","0.4001238515","0.3641911367","0.2798257893","","","","","","","","75","K","2","","","121","main_expt",""
"","bandit","201","394722","0.0-162.0-0.0","72778408","wem/bandit_either_3","AT0COJ1G23ZB0","either","2","176","","","","","","","0","0","1","","0.2673706252","0.6","0.4","0.2","0.8","0.2504028886","0.4090120715","0.2673706252","0.2261540995","","","","","","","","","","","","75","K","2","","","122","main_expt",""
"","bandit","202","396407","0.0-163.0-0.0","72778408","wem/bandit_either_3","AT0COJ1G23ZB0","either","2","134","","","","","","","1","0","0","0.2766663047","","0.6","0.4","0.2","0.8","","","","","0.2414849785","0.4746108064","0.3455372181","0.2766663047","","","","","","","","76","L","3","","","123","main_expt",""
"","bandit","203","398168","0.0-164.0-0.0","72778408","wem/bandit_either_3","AT0COJ1G23ZB0","either","2","216","","","","","","","1","0","0","0.3126864395","","0.6","0.4","0.2","0.8","","","","","0.1791255979","0.453231646","0.3524137631","0.3126864395","","","","","","","","76","L","3","","","124","main_expt",""
"","bandit","204","399885","0.0-165.0-0.0","72778408","wem/bandit_either_3","AT0COJ1G23ZB0","either","2","181","","","","","","","0","0","1","0.2772507379","","0.6","0.4","0.2","0.8","","","","","0.1952456852","0.4888945922","0.3680881866","0.2772507379","","","","","","","","76","L","3","","","125","main_expt",""
"","bandit","205","401743","0.0-166.0-0.0","72778408","wem/bandit_either_3","AT0COJ1G23ZB0","either","2","319","","","","","","","0","0","1","0.2614303707","","0.6","0.4","0.2","0.8","","","","","0.2614303707","0.396932523","0.2884444508","0.2441417391","","","","","","","","72","H","0","img/none_selected.jpg","","126","main_expt",""
"","bandit","206","403380","0.0-167.0-0.0","72778408","wem/bandit_either_3","AT0COJ1G23ZB0","either","2","89","","","","","","","0","1","0","","0.4026562496","0.6","0.4","0.2","0.8","0.267511235","0.4026562496","0.2931854252","0.2304038214","","","","","","","","","","","","74","J","1","","","127","main_expt",""
"","bandit","207","404955","0.0-168.0-0.0","72778408","wem/bandit_either_3","AT0COJ1G23ZB0","either","2","43","","","","","","","1","0","0","0.3072143153","","0.6","0.4","0.2","0.8","","","","","0.2582460394","0.3072143153","0.3115494401","0.2463692943","","","","","","","","74","J","1","","","128","main_expt",""
"","bandit","208","406781","0.0-169.0-0.0","72778408","wem/bandit_either_3","AT0COJ1G23ZB0","either","2","284","","","","","","","0","1","0","","0.3024431642","0.6","0.4","0.2","0.8","0.249100023","0.3024431642","0.287093163","0.262841392","","","","","","","","","","","","74","J","1","","","129","main_expt",""
"","bandit","209","408652","0.0-170.0-0.0","72778408","wem/bandit_either_3","AT0COJ1G23ZB0","either","2","331","","","","","","","0","1","0","","0.383823705","0.6","0.4","0.2","0.8","0.2014680341","0.383823705","0.242368994","0.3044503748","","","","","","","","","","","","74","J","1","","","130","main_expt",""
"","bandit","210","410306","0.0-171.0-0.0","72778408","wem/bandit_either_3","AT0COJ1G23ZB0","either","2","108","","","","","","","0","0","1","","0.5448185218","0.6","0.4","0.2","0.8","0.2514612397","0.5448185218","0.3141093292","0.2231782293","","","","","","","","","","","","74","J","1","","","131","main_expt",""
"","bandit","211","411900","0.0-172.0-0.0","72778408","wem/bandit_either_3","AT0COJ1G23ZB0","either","2","43","","","","","","","0","0","1","","0.3186943837","0.6","0.4","0.2","0.8","0.1719215191","0.5741986762","0.3186943837","0.265126842","","","","","","","","","","","","75","K","2","","","132","main_expt",""
"","bandit","212","413753","0.0-173.0-0.0","72778408","wem/bandit_either_3","AT0COJ1G23ZB0","either","2","300","","","","","","","0","1","0","","0.1996467811","0.6","0.4","0.2","0.8","0.151851594","0.54298015","0.3218599317","0.1996467811","","","","","","","","","","","","76","L","3","","","133","main_expt",""
"","bandit","213","415344","0.0-174.0-0.0","72778408","wem/bandit_either_3","AT0COJ1G23ZB0","either","2","14","","","","","","","0","0","1","0.1900899503","","0.6","0.4","0.2","0.8","","","","","0.1693242304","0.5504084981","0.3372263261","0.1900899503","","","","","","","","76","L","3","","","134","main_expt",""
"","bandit","214","416967","0.0-175.0-0.0","72778408","wem/bandit_either_3","AT0COJ1G23ZB0","either","2","95","","","","","","","0","0","1","0.1541174352","","0.6","0.4","0.2","0.8","","","","","0.1541174352","0.4874659601","0.3515125386","0.172295534","","","","","","","","72","H","0","img/none_selected.jpg","","135","main_expt",""
"","bandit","215","418824","0.0-176.0-0.0","72778408","wem/bandit_either_3","AT0COJ1G23ZB0","either","2","306","","","","","","","0","0","1","0.3677382912","","0.6","0.4","0.2","0.8","","","","","0.1374012581","0.3677382912","0.2312583875","0.1171098277","","","","","","","","74","J","1","","","136","main_expt",""
"","bandit","216","420477","0.0-177.0-0.0","72778408","wem/bandit_either_3","AT0COJ1G23ZB0","either","2","118","","","","","","","0","0","1","0.3496768842","","0.6","0.4","0.2","0.8","","","","","0.2889288236","0.2944012193","0.3496768842","0.1390909791","","","","","","","","75","K","2","","","137","main_expt",""
"","bandit","217","422121","0.0-178.0-0.0","72778408","wem/bandit_either_3","AT0COJ1G23ZB0","either","2","92","","","","","","","0","0","1","0.1209370274","","0.6","0.4","0.2","0.8","","","","","0.2177367931","0.3020033879","0.4217982028","0.1209370274","","","","","","","","76","L","3","","","138","main_expt",""
"","bandit","218","423675","0.0-179.0-0.0","72778408","wem/bandit_either_3","AT0COJ1G23ZB0","either","2","16","","","","","","","0","0","1","0.1704259453","","0.6","0.4","0.2","0.8","","","","","0.1704259453","0.2908104057","0.5123523738","0.1441291996","","","","","","","","72","H","0","img/none_selected.jpg","","139","main_expt",""
"","bandit","219","425282","0.0-180.0-0.0","72778408","wem/bandit_either_3","AT0COJ1G23ZB0","either","2","60","","","","","","","0","0","1","","0.2738290205","0.6","0.4","0.2","0.8","0.1827322183","0.2738290205","0.3892042576","0.1380406349","","","","","","","","","","","","74","J","1","","","140","main_expt",""
"","bandit","220","426905","0.0-181.0-0.0","72778408","wem/bandit_either_3","AT0COJ1G23ZB0","either","2","73","","","","","","","0","1","0","","0.4680147771","0.6","0.4","0.2","0.8","0.2030288612","0.3865798498","0.4680147771","0.1312769784","","","","","","","","","","","","75","K","2","","","141","main_expt",""
"","bandit","221","428670","0.0-182.0-0.0","72778408","wem/bandit_either_3","AT0COJ1G23ZB0","either","2","107","","","","","","","0","0","1","","0.3970866904","0.6","0.4","0.2","0.8","0.1760536641","0.3507917403","0.3970866904","0.1880730553","","","","","","","","","","","","75","K","2","","","142","main_expt",""
"","bandit","222","430664","0.0-183.0-0.0","72778408","wem/bandit_either_3","AT0COJ1G23ZB0","either","2","471","","","","","","","0","0","1","0.1798266991","","0.6","0.4","0.2","0.8","","","","","0.1428921374","0.2787839286","0.3609481858","0.1798266991","","","","","","","","76","L","3","","","143","main_expt",""
"","bandit","223","432334","0.0-184.0-0.0","72778408","wem/bandit_either_3","AT0COJ1G23ZB0","either","2","127","","","","","","","0","0","1","0.1260474704","","0.6","0.4","0.2","0.8","","","","","0.1260474704","0.2106619402","0.3701270871","0.1881666754","","","","","","","","72","H","0","img/none_selected.jpg","","144","main_expt",""
"","bandit","224","434044","0.0-185.0-0.0","72778408","wem/bandit_either_3","AT0COJ1G23ZB0","either","2","152","","","","","","","0","0","1","0.3211677341","","0.6","0.4","0.2","0.8","","","","","0.151337539","0.3211677341","0.3110645609","0.1683386122","","","","","","","","74","J","1","","","145","main_expt",""
"","bandit","225","435953","0.0-186.0-0.0","72778408","wem/bandit_either_3","AT0COJ1G23ZB0","either","2","368","","","","","","","0","0","1","","0.356964637","0.6","0.4","0.2","0.8","0.1600114734","0.4417580917","0.356964637","0.2609121533","","","","","","","","","","","","75","K","2","","","146","main_expt",""
"","bandit","226","437856","0.0-187.0-0.0","72778408","wem/bandit_either_3","AT0COJ1G23ZB0","either","2","352","","","","","","","0","0","1","0.280259565","","0.6","0.4","0.2","0.8","","","","","0.1262446547","0.278611551","0.5143633813","0.280259565","","","","","","","","76","L","3","","","147","main_expt",""
"","bandit","227","439839","0.0-188.0-0.0","72778408","wem/bandit_either_3","AT0COJ1G23ZB0","either","2","437","","","","","","","0","0","1","0.1030311585","","0.6","0.4","0.2","0.8","","","","","0.1030311585","0.2811332351","0.5086187798","0.2972918914","","","","","","","","72","H","0","img/none_selected.jpg","","148","main_expt",""
"","bandit","228","442115","0.0-189.0-0.0","72778408","wem/bandit_either_3","AT0COJ1G23ZB0","either","2","732","","","","","","","0","0","1","0.2606345315","","0.6","0.4","0.2","0.8","","","","","0.123834606","0.2606345315","0.4676315778","0.3284309668","","","","","","","","74","J","1","","","149","main_expt",""
"","bandit","229","443862","0.0-190.0-0.0","72778408","wem/bandit_either_3","AT0COJ1G23ZB0","either","2","40","","","","","","","0","0","1","","0.4737351686","0.6","0.4","0.2","0.8","0.06566206942","0.260677327","0.4737351686","0.3186890608","","","","","","","","","","","","75","K","2","","","150","main_expt",""
"","bandit","230","445564","0.0-191.0-0.0","72778408","wem/bandit_either_3","AT0COJ1G23ZB0","either","2","161","","","","","","","0","0","1","0.3331747037","","0.6","0.4","0.2","0.8","","","","","0.06342121736","0.2579624968","0.5387476985","0.3331747037","","","","","","","","76","L","3","","","151","main_expt",""
"","bandit","231","447419","0.0-192.0-0.0","72778408","wem/bandit_either_3","AT0COJ1G23ZB0","either","2","299","","","","","","","0","0","1","0.1162046696","","0.6","0.4","0.2","0.8","","","","","0.1162046696","0.2536911072","0.5065138565","0.364096089","","","","","","","","72","H","0","img/none_selected.jpg","","152","main_expt",""
"","bandit","232","449702","0.0-193.0-0.0","72778408","wem/bandit_either_3","AT0COJ1G23ZB0","either","2","734","","","","","","","0","1","0","","0.1427943183","0.6","0.4","0.2","0.8","0.1388943584","0.1427943183","0.5190676077","0.3189440566","","","","","","","","","","","","74","J","1","","","153","main_expt",""
"","bandit","233","451523","0.0-194.0-0.0","72778408","wem/bandit_either_3","AT0COJ1G23ZB0","either","2","263","","","","","","","0","1","0","","0.08934943386","0.6","0.4","0.2","0.8","0.1188489222","0.08934943386","0.4944482457","0.486858514","","","","","","","","","","","","74","J","1","","","154","main_expt",""
"","bandit","234","453174","0.0-195.0-0.0","72778408","wem/bandit_either_3","AT0COJ1G23ZB0","either","2","100","","","","","","","0","0","1","","0.1048919666","0.6","0.4","0.2","0.8","0.1255079792","0.1048919666","0.4987902374","0.398958755","","","","","","","","","","","","74","J","1","","","155","main_expt",""
"","bandit","235","455156","0.0-196.0-0.0","72778408","wem/bandit_either_3","AT0COJ1G23ZB0","either","2","461","","","","","","","0","0","1","0.1348874752","","0.6","0.4","0.2","0.8","","","","","0.1705129017","0.1348874752","0.4151199053","0.3508932217","","","","","","","","74","J","1","","","156","main_expt",""
"","bandit","236","456716","0.0-197.0-0.0","72778408","wem/bandit_either_3","AT0COJ1G23ZB0","either","2","0","","","","","","","0","1","0","","0.4215128153","0.6","0.4","0.2","0.8","0.1892203872","0.1197456909","0.4215128153","0.3736640956","","","","","","","","","","","","75","K","2","","","157","main_expt",""
"","bandit","237","458322","0.0-198.0-0.0","72778408","wem/bandit_either_3","AT0COJ1G23ZB0","either","2","59","","","","","","","1","0","0","0.3666899102","","0.6","0.4","0.2","0.8","","","","","0.1589595026","0.1343935597","0.3666899102","0.3215678611","","","","","","","","75","K","2","","","158","main_expt",""
"","bandit","238","460086","0.0-199.0-0.0","72778408","wem/bandit_either_3","AT0COJ1G23ZB0","either","2","225","","","","","","","0","0","1","","0.3906786657","0.6","0.4","0.2","0.8","0.1426383857","0.04604274909","0.3906786657","0.2732838962","","","","","","","","","","","","75","K","2","","","159","main_expt",""
"","bandit","239","461645","0.0-200.0-0.0","72778408","wem/bandit_either_3","AT0COJ1G23ZB0","either","2","22","","","","","","","0","0","1","0.2323229575","","0.6","0.4","0.2","0.8","","","","","0.2747613825","0.08927965808","0.4769972016","0.2323229575","","","","","","","","76","L","3","","","160","main_expt",""
"","bandit","240","463397","0.0-201.0-0.0","72778408","wem/bandit_either_3","AT0COJ1G23ZB0","either","2","175","","","","","","","0","0","1","0.2046882866","","0.6","0.4","0.2","0.8","","","","","0.2046882866","0.1038156196","0.4405879513","0.399022808","","","","","","","","72","H","0","img/none_selected.jpg","","161","main_expt",""
"","bandit","241","464999","0.0-202.0-0.0","72778408","wem/bandit_either_3","AT0COJ1G23ZB0","either","2","1","","","","","","","1","0","0","0.1470739062","","0.6","0.4","0.2","0.8","","","","","0.1715152701","0.1470739062","0.44055992","0.4967313539","","","","","","","","74","J","1","","","162","main_expt",""
"","bandit","242","466715","0.0-203.0-0.0","72778408","wem/bandit_either_3","AT0COJ1G23ZB0","either","2","159","","","","","","","0","0","1","","0.1214264794","0.6","0.4","0.2","0.8","0.2396687428","0.1214264794","0.3434222481","0.5245029489","","","","","","","","","","","","74","J","1","","","163","main_expt",""
"","bandit","243","468756","0.0-204.0-0.0","72778408","wem/bandit_either_3","AT0COJ1G23ZB0","either","2","360","","","","","","","0","0","1","0.3862652833","","0.6","0.4","0.2","0.8","","","","","0.3359744524","0.1563758897","0.3862652833","0.5808119749","","","","","","","","75","K","2","","","164","main_expt",""
"","bandit","244","470303","0.0-205.0-0.0","72778408","wem/bandit_either_3","AT0COJ1G23ZB0","either","2","0","","","","","","","0","0","1","0.6473032069","","0.6","0.4","0.2","0.8","","","","","0.4940159592","0.1311500467","0.4270444342","0.6473032069","","","","","","","","76","L","3","","","165","main_expt",""
"","bandit","245","471973","0.0-206.0-0.0","72778408","wem/bandit_either_3","AT0COJ1G23ZB0","either","2","133","","","","","","","0","1","0","","0.5922229292","0.6","0.4","0.2","0.8","0.5922229292","0.1419689761","0.5073102058","0.6790689848","","","","","","","","","","","","72","H","0","img/none_selected.jpg","","166","main_expt",""
"","bandit","246","473753","0.0-207.0-0.0","72778408","wem/bandit_either_3","AT0COJ1G23ZB0","either","2","223","","","","","","","0","1","0","","0.5562626425","0.6","0.4","0.2","0.8","0.5562626425","0.150246256","0.5417092253","0.5959653185","","","","","","","","","","","","72","H","0","img/none_selected.jpg","","167","main_expt",""
"","bandit","247","475467","0.0-208.0-0.0","72778408","wem/bandit_either_3","AT0COJ1G23ZB0","either","2","168","","","","","","","0","1","0","","0.6489587791","0.6","0.4","0.2","0.8","0.6489587791","0.2070971521","0.6505471885","0.361841396","","","","","","","","","","","","72","H","0","img/none_selected.jpg","","168","main_expt",""
"","bandit","248","477122","0.0-209.0-0.0","72778408","wem/bandit_either_3","AT0COJ1G23ZB0","either","2","121","","","","","","","0","0","1","","0.5652428614","0.6","0.4","0.2","0.8","0.5652428614","0.2564452127","0.6226729341","0.2594844845","","","","","","","","","","","","72","H","0","img/none_selected.jpg","","169","main_expt",""
"","bandit","249","478994","0.0-210.0-0.0","72778408","wem/bandit_either_3","AT0COJ1G23ZB0","either","2","310","","","","","","","0","0","1","0.2845729388","","0.6","0.4","0.2","0.8","","","","","0.5344749526","0.2845729388","0.7574543886","0.1987556041","","","","","","","","74","J","1","","","170","main_expt",""
"","bandit","250","480584","0.0-211.0-0.0","72778408","wem/bandit_either_3","AT0COJ1G23ZB0","either","2","31","","","","","","","0","1","0","","0.774201251","0.6","0.4","0.2","0.8","0.6364900983","0.2360657399","0.774201251","0.1583585206","","","","","","","","","","","","75","K","2","","","171","main_expt",""
"","bandit","251","482199","0.0-212.0-0.0","72778408","wem/bandit_either_3","AT0COJ1G23ZB0","either","2","66","","","","","","","0","1","0","","0.7739789177","0.6","0.4","0.2","0.8","0.5516193693","0.3453554921","0.7739789177","0.1494938987","","","","","","","","","","","","75","K","2","","","172","main_expt",""
"","bandit","252","483830","0.0-213.0-0.0","72778408","wem/bandit_either_3","AT0COJ1G23ZB0","either","2","98","","","","","","","0","1","0","","0.7146420849","0.6","0.4","0.2","0.8","0.5081608063","0.2909261263","0.7146420849","0.1996494969","","","","","","","","","","","","75","K","2","","","173","main_expt",""
"","bandit","253","485468","0.0-214.0-0.0","72778408","wem/bandit_either_3","AT0COJ1G23ZB0","either","2","89","","","","","","","1","0","0","0.683245412","","0.6","0.4","0.2","0.8","","","","","0.5247340446","0.3807546558","0.683245412","0.2200767262","","","","","","","","75","K","2","","","174","main_expt",""
"","bandit","254","487260","0.0-215.0-0.0","72778408","wem/bandit_either_3","AT0COJ1G23ZB0","either","2","243","","","","","","","0","1","0","","0.7163731774","0.6","0.4","0.2","0.8","0.5823110366","0.3889518003","0.7163731774","0.1929710708","","","","","","","","","","","","75","K","2","","","175","main_expt",""
"","bandit","255","488899","0.0-216.0-0.0","72778408","wem/bandit_either_3","AT0COJ1G23ZB0","either","2","110","","","","","","","0","1","0","","0.6676116703","0.6","0.4","0.2","0.8","0.7693722391","0.3662842853","0.6676116703","0.1756556012","","","","","","","","","","","","75","K","2","","","176","main_expt",""
"","bandit","256","490661","0.0-217.0-0.0","72778408","wem/bandit_either_3","AT0COJ1G23ZB0","either","2","225","","","","","","","0","1","0","","0.711116056","0.6","0.4","0.2","0.8","0.8048595062","0.3102656016","0.711116056","0.2404611203","","","","","","","","","","","","75","K","2","","","177","main_expt",""
"","bandit","257","492502","0.0-218.0-0.0","72778408","wem/bandit_either_3","AT0COJ1G23ZB0","either","2","284","","","","","","","0","0","1","","0.6541247318","0.6","0.4","0.2","0.8","0.8147320782","0.3272385177","0.6541247318","0.1651874793","","","","","","","","","","","","75","K","2","","","178","main_expt",""
"","bandit","258","494311","0.0-219.0-0.0","72778408","wem/bandit_either_3","AT0COJ1G23ZB0","either","2","244","","","","","","","1","0","0","0.1297692321","","0.6","0.4","0.2","0.8","","","","","0.7755432213","0.3185807274","0.600925469","0.1297692321","","","","","","","","76","L","3","","","179","main_expt",""
"","bandit","259","495951","0.0-220.0-0.0","72778408","wem/bandit_either_3","AT0COJ1G23ZB0","either","2","99","","","","","","","0","0","1","0.1311169289","","0.6","0.4","0.2","0.8","","","","","0.7309951384","0.3896265469","0.6321701674","0.1311169289","","","","","","","","76","L","3","","","180","main_expt",""
"","bandit","260","497672","0.0-221.0-0.0","72778408","wem/bandit_either_3","AT0COJ1G23ZB0","either","2","156","","","","","","","1","0","0","0.8068071681","","0.6","0.4","0.2","0.8","","","","","0.8068071681","0.4381139349","0.7040606398","0.2184653543","","","","","","","","72","H","0","img/none_selected.jpg","","181","main_expt",""
"","bandit","261","499319","0.0-222.0-0.0","72778408","wem/bandit_either_3","AT0COJ1G23ZB0","either","2","97","","","","","","","1","0","0","0.8096694819","","0.6","0.4","0.2","0.8","","","","","0.8096694819","0.4339703771","0.6551517927","0.156745214","","","","","","","","72","H","0","img/none_selected.jpg","","182","main_expt",""
"","bandit","262","500925","0.0-223.0-0.0","72778408","wem/bandit_either_3","AT0COJ1G23ZB0","either","2","64","","","","","","","1","0","0","0.8522040983","","0.6","0.4","0.2","0.8","","","","","0.8522040983","0.5270594011","0.7709035389","0.07710569088","","","","","","","","72","H","0","img/none_selected.jpg","","183","main_expt",""
"","bandit","263","502736","0.0-224.0-0.0","72778408","wem/bandit_either_3","AT0COJ1G23ZB0","either","2","258","","","","","","","1","0","0","0.8636776132","","0.6","0.4","0.2","0.8","","","","","0.8636776132","0.4791569234","0.7869666122","0.07901501252","","","","","","","","72","H","0","img/none_selected.jpg","","184","main_expt",""
"","bandit","264","504646","0.0-225.0-0.0","72778408","wem/bandit_either_3","AT0COJ1G23ZB0","either","2","191","","","","","","","1","0","0","0.8605951951","","0.6","0.4","0.2","0.8","","","","","0.8605951951","0.464074867","0.804571828","0.05695362571","","","","","","","","72","H","0","img/none_selected.jpg","","185","main_expt",""
"","bandit","265","506544","0.0-226.0-0.0","72778408","wem/bandit_either_3","AT0COJ1G23ZB0","either","2","353","","","","","","","1","0","0","0.8578427848","","0.6","0.4","0.2","0.8","","","","","0.8578427848","0.4654947356","0.7866627628","0.03796608352","","","","","","","","72","H","0","img/none_selected.jpg","","186","main_expt",""
"","bandit","266","508336","0.0-227.0-0.0","72778408","wem/bandit_either_3","AT0COJ1G23ZB0","either","2","239","","","","","","","0","1","0","","0.8253306036","0.6","0.4","0.2","0.8","0.8253306036","0.4338668179","0.8006736442","0.05986429342","","","","","","","","","","","","72","H","0","img/none_selected.jpg","","187","main_expt",""
"","bandit","267","510176","0.0-228.0-0.0","72778408","wem/bandit_either_3","AT0COJ1G23ZB0","either","2","291","","","","","","","1","0","0","0.8118593573","","0.6","0.4","0.2","0.8","","","","","0.8118593573","0.4679469354","0.7687627789","0.05827831728","","","","","","","","72","H","0","img/none_selected.jpg","","188","main_expt",""
"","bandit","268","511882","0.0-229.0-0.0","72778408","wem/bandit_either_3","AT0COJ1G23ZB0","either","2","168","","","","","","","1","0","0","0.8319104568","","0.6","0.4","0.2","0.8","","","","","0.8319104568","0.4645116859","0.7009429779","0.06499387038","","","","","","","","72","H","0","img/none_selected.jpg","","189","main_expt",""
"","bandit","269","513670","0.0-230.0-0.0","72778408","wem/bandit_either_3","AT0COJ1G23ZB0","either","2","249","","","","","","","0","0","1","","0.8949986836","0.6","0.4","0.2","0.8","0.8949986836","0.4260553166","0.7531121838","0.0878029059","","","","","","","","","","","","72","H","0","img/none_selected.jpg","","190","main_expt",""
"","bandit","270","515372","0.0-231.0-0.0","72778408","wem/bandit_either_3","AT0COJ1G23ZB0","either","2","161","","","","","","","0","1","0","","0.5323747461","0.6","0.4","0.2","0.8","0.9258368343","0.5323747461","0.6174616994","0.1101088583","","","","","","","","","","","","74","J","1","","","191","main_expt",""
"","bandit","271","517135","0.0-232.0-0.0","72778408","wem/bandit_either_3","AT0COJ1G23ZB0","either","2","222","","","","","","","0","0","1","0.6013900654","","0.6","0.4","0.2","0.8","","","","","0.9221438833","0.6013900654","0.6331996982","0.1559643099","","","","","","","","74","J","1","","","192","main_expt",""
"","bandit","272","518961","0.0-233.0-0.0","72778408","wem/bandit_either_3","AT0COJ1G23ZB0","either","2","281","","","","","","","0","0","1","","0.5596167322","0.6","0.4","0.2","0.8","0.878376231","0.5332063066","0.5596167322","0.1348882638","","","","","","","","","","","","75","K","2","","","193","main_expt",""
"","bandit","273","520503","0.0-234.0-0.0","72778408","wem/bandit_either_3","AT0COJ1G23ZB0","either","2","1","","","","","","","0","0","1","0.243093686","","0.6","0.4","0.2","0.8","","","","","0.7914694382","0.5499496643","0.5887018809","0.243093686","","","","","","","","76","L","3","","","194","main_expt",""
"","bandit","274","522142","0.0-235.0-0.0","72778408","wem/bandit_either_3","AT0COJ1G23ZB0","either","2","88","","","","","","","0","1","0","","0.7843027812","0.6","0.4","0.2","0.8","0.7843027812","0.4170732774","0.561552955","0.2792315856","","","","","","","","","","","","72","H","0","img/none_selected.jpg","","195","main_expt",""
"","bandit","275","523893","0.0-236.0-0.0","72778408","wem/bandit_either_3","AT0COJ1G23ZB0","either","2","192","","","","","","","1","0","0","0.7888241066","","0.6","0.4","0.2","0.8","","","","","0.7888241066","0.4050854298","0.6199522587","0.2075419965","","","","","","","","72","H","0","img/none_selected.jpg","","196","main_expt",""
"","bandit","276","525838","0.0-237.0-0.0","72778408","wem/bandit_either_3","AT0COJ1G23ZB0","either","2","392","","","","","","","0","0","1","0.8145025162","","0.6","0.4","0.2","0.8","","","","","0.8145025162","0.4522405917","0.6886125155","0.1899284635","","","","","","","","72","H","0","img/none_selected.jpg","","197","main_expt",""
"","bandit","277","527477","0.0-238.0-0.0","72778408","wem/bandit_either_3","AT0COJ1G23ZB0","either","2","80","","","","","","","0","1","0","","0.4547961131","0.6","0.4","0.2","0.8","0.8795467387","0.4547961131","0.6468609917","0.1632143895","","","","","","","","","","","","74","J","1","","","198","main_expt",""
"","bandit","278","529130","0.0-239.0-0.0","72778408","wem/bandit_either_3","AT0COJ1G23ZB0","either","2","114","","","","","","","0","0","1","0.456709553","","0.6","0.4","0.2","0.8","","","","","0.8716255916","0.456709553","0.7134983028","0.1580048483","","","","","","","","74","J","1","","","199","main_expt",""
"","bandit","279","530752","0.0-240.0-0.0","72778408","wem/bandit_either_3","AT0COJ1G23ZB0","either","2","68","","","","","","","0","1","0","","0.6545285445","0.6","0.4","0.2","0.8","0.8596876402","0.4197111003","0.6545285445","0.1815025648","","","","","","","","","","","","75","K","2","","","200","main_expt",""
"","bandit","280","532468","0.0-241.0-0.0","72778408","wem/bandit_either_3","AT0COJ1G23ZB0","either","2","158","","","","","","","0","1","0","","0.6827561938","0.6","0.4","0.2","0.8","0.8714244785","0.4468864226","0.6827561938","0.1453003075","","","","","","","","","","","","75","K","2","","","201","main_expt",""
"","bandit","281","534153","0.0-242.0-0.0","72778408","wem/bandit_either_3","AT0COJ1G23ZB0","either","2","138","","","","","","","1","0","0","0.6590680519","","0.6","0.4","0.2","0.8","","","","","0.8679491409","0.3852152277","0.6590680519","0.1061510446","","","","","","","","75","K","2","","","202","main_expt",""
"","bandit","282","535978","0.0-243.0-0.0","72778408","wem/bandit_either_3","AT0COJ1G23ZB0","either","2","271","","","","","","","1","0","0","0.67998256","","0.6","0.4","0.2","0.8","","","","","0.8421855008","0.3481501846","0.67998256","0.09667757311","","","","","","","","75","K","2","","","203","main_expt",""
"","bandit","283","537663","0.0-244.0-0.0","72778408","wem/bandit_either_3","AT0COJ1G23ZB0","either","2","132","","","","","","","0","1","0","","0.7157802034","0.6","0.4","0.2","0.8","0.8741547355","0.3688904748","0.7157802034","0.109576977","","","","","","","","","","","","75","K","2","","","204","main_expt",""
"","bandit","284","539269","0.0-245.0-0.0","72778408","wem/bandit_either_3","AT0COJ1G23ZB0","either","2","57","","","","","","","0","1","0","","0.6750594522","0.6","0.4","0.2","0.8","0.8589537271","0.4196025605","0.6750594522","0.1370524017","","","","","","","","","","","","75","K","2","","","205","main_expt",""
"","bandit","285","541001","0.0-246.0-0.0","72778408","wem/bandit_either_3","AT0COJ1G23ZB0","either","2","184","","","","","","","1","0","0","0.7170784861","","0.6","0.4","0.2","0.8","","","","","0.8009191088","0.3558717694","0.7170784861","0.1005848846","","","","","","","","75","K","2","","","206","main_expt",""
"","bandit","286","542764","0.0-247.0-0.0","72778408","wem/bandit_either_3","AT0COJ1G23ZB0","either","2","213","","","","","","","0","0","1","","0.6886550294","0.6","0.4","0.2","0.8","0.8146279372","0.3978287694","0.6886550294","0.1100528349","","","","","","","","","","","","75","K","2","","","207","main_expt",""
"","bandit","287","544747","0.0-248.0-0.0","72778408","wem/bandit_either_3","AT0COJ1G23ZB0","either","2","433","","","","","","","0","0","1","","0.1165568201","0.6","0.4","0.2","0.8","0.7498886323","0.3647175361","0.7340041914","0.1165568201","","","","","","","","","","","","76","L","3","","","208","main_expt",""
"","bandit","288","546477","0.0-249.0-0.0","72778408","wem/bandit_either_3","AT0COJ1G23ZB0","either","2","204","","","","","","","0","1","0","","0.781298432","0.6","0.4","0.2","0.8","0.781298432","0.2942091963","0.7108339061","0.1607141963","","","","","","","","","","","","72","H","0","img/none_selected.jpg","","209","main_expt",""
"","bandit","289","548367","0.0-250.0-0.0","72778408","wem/bandit_either_3","AT0COJ1G23ZB0","either","2","314","","","","","","","0","1","0","","0.8374694261","0.6","0.4","0.2","0.8","0.8374694261","0.3228874634","0.7322658343","0.2005879304","","","","","","","","","","","","72","H","0","img/none_selected.jpg","","210","main_expt",""
"","bandit","290","550175","0.0-251.0-0.0","72778408","wem/bandit_either_3","AT0COJ1G23ZB0","either","2","264","","","","","","","0","1","0","","0.7461264045","0.6","0.4","0.2","0.8","0.7461264045","0.3300931135","0.6220956771","0.1999716741","","","","","","","","","","","","72","H","0","img/none_selected.jpg","","211","main_expt",""
"","bandit","291","551969","0.0-252.0-0.0","72778408","wem/bandit_either_3","AT0COJ1G23ZB0","either","2","248","","","","","","","0","1","0","","0.7267359419","0.6","0.4","0.2","0.8","0.7267359419","0.4044608811","0.5400145011","0.2135957141","","","","","","","","","","","","72","H","0","img/none_selected.jpg","","212","main_expt",""
"","bandit","292","553836","0.0-253.0-0.0","72778408","wem/bandit_either_3","AT0COJ1G23ZB0","either","2","311","","","","","","","0","0","1","0.6529835343","","0.6","0.4","0.2","0.8","","","","","0.6529835343","0.4916994921","0.5419994818","0.2041793084","","","","","","","","72","H","0","img/none_selected.jpg","","213","main_expt",""
"","bandit","293","555571","0.0-254.0-0.0","72778408","wem/bandit_either_3","AT0COJ1G23ZB0","either","2","204","","","","","","","1","0","0","0.5387088508","","0.6","0.4","0.2","0.8","","","","","0.5734554779","0.5387088508","0.6195319152","0.2563089198","","","","","","","","74","J","1","","","214","main_expt",""
"","bandit","294","557521","0.0-255.0-0.0","72778408","wem/bandit_either_3","AT0COJ1G23ZB0","either","2","405","","","","","","","0","1","0","","0.567041903","0.6","0.4","0.2","0.8","0.7056003711","0.567041903","0.7405966814","0.2870699064","","","","","","","","","","","","74","J","1","","","215","main_expt",""
"","bandit","295","559394","0.0-256.0-0.0","72778408","wem/bandit_either_3","AT0COJ1G23ZB0","either","2","331","","","","","","","0","1","0","","0.539749723","0.6","0.4","0.2","0.8","0.7717913507","0.539749723","0.8005734678","0.2715554895","","","","","","","","","","","","74","J","1","","","216","main_expt",""
"","bandit","296","561390","0.0-257.0-0.0","72778408","wem/bandit_either_3","AT0COJ1G23ZB0","either","2","442","","","","","","","0","1","0","","0.3803352486","0.6","0.4","0.2","0.8","0.834894728","0.3803352486","0.8392159132","0.2027777883","","","","","","","","","","","","74","J","1","","","217","main_expt",""
"","bandit","297","563044","0.0-258.0-0.0","72778408","wem/bandit_either_3","AT0COJ1G23ZB0","either","2","103","","","","","","","1","0","0","0.3236333655","","0.6","0.4","0.2","0.8","","","","","0.868580258","0.3236333655","0.7445585264","0.2169787163","","","","","","","","74","J","1","","","218","main_expt",""
"","bandit","298","564699","0.0-259.0-0.0","72778408","wem/bandit_either_3","AT0COJ1G23ZB0","either","2","105","","","","","","","0","0","1","","0.2612589469","0.6","0.4","0.2","0.8","0.8236231074","0.2612589469","0.7174829008","0.2292932202","","","","","","","","","","","","74","J","1","","","219","main_expt",""
"","bandit","299","566258","0.0-260.0-0.0","72778408","wem/bandit_either_3","AT0COJ1G23ZB0","either","2","17","","","","","","","0","0","1","","0.6601767392","0.6","0.4","0.2","0.8","0.7719294443","0.2228319794","0.6601767392","0.2829053382","","","","","","","","","","","","75","K","2","","","220","main_expt",""
"","bandit","300","567958","0.0-261.0-0.0","72778408","wem/bandit_either_3","AT0COJ1G23ZB0","either","2","139","","","","","","","1","0","0","0.2691731019","","0.6","0.4","0.2","0.8","","","","","0.7609360252","0.2204856404","0.703996204","0.2691731019","","","","","","","","76","L","3","","","221","main_expt",""
"","bandit","301","569689","0.0-262.0-0.0","72778408","wem/bandit_either_3","AT0COJ1G23ZB0","either","2","179","","","","","","","0","0","1","0.1974112065","","0.6","0.4","0.2","0.8","","","","","0.7319851961","0.2269951902","0.6188024556","0.1974112065","","","","","","","","76","L","3","","","222","main_expt",""
"","bandit","302","571452","0.0-263.0-0.0","72778408","wem/bandit_either_3","AT0COJ1G23ZB0","either","2","221","","","","","","","1","0","0","0.6994646324","","0.6","0.4","0.2","0.8","","","","","0.6994646324","0.3417830843","0.5695888615","0.08486155027","","","","","","","","72","H","0","img/none_selected.jpg","","223","main_expt",""
"","bandit","303","573262","0.0-264.0-0.0","72778408","wem/bandit_either_3","AT0COJ1G23ZB0","either","2","258","","","","","","","0","0","1","","0.6817307813","0.6","0.4","0.2","0.8","0.6817307813","0.4057490183","0.6590173842","0.1930609847","","","","","","","","","","","","72","H","0","img/none_selected.jpg","","224","main_expt",""
"","bandit","304","575057","0.0-265.0-0.0","72778408","wem/bandit_either_3","AT0COJ1G23ZB0","either","2","251","","","","","","","0","0","1","","0.4266979185","0.6","0.4","0.2","0.8","0.67394888","0.4266979185","0.6779124893","0.2026087193","","","","","","","","","","","","74","J","1","","","225","main_expt",""
"","bandit","305","576889","0.0-266.0-0.0","72778408","wem/bandit_either_3","AT0COJ1G23ZB0","either","2","215","","","","","","","0","0","1","","0.6433757785","0.6","0.4","0.2","0.8","0.6520670614","0.4723095555","0.6433757785","0.1295559036","","","","","","","","","","","","75","K","2","","","226","main_expt",""
"","bandit","306","578833","0.0-267.0-0.0","72778408","wem/bandit_either_3","AT0COJ1G23ZB0","either","2","304","","","","","","","0","0","1","0.1014701128","","0.6","0.4","0.2","0.8","","","","","0.6598054912","0.4396274322","0.6050090536","0.1014701128","","","","","","","","76","L","3","","","227","main_expt",""
"","bandit","307","580455","0.0-268.0-0.0","72778408","wem/bandit_either_3","AT0COJ1G23ZB0","either","2","59","","","","","","","0","0","1","0.7313296172","","0.6","0.4","0.2","0.8","","","","","0.7313296172","0.4581465293","0.5614220587","0.1374428951","","","","","","","","72","H","0","img/none_selected.jpg","","228","main_expt",""
"","bandit","308","582325","0.0-269.0-0.0","72778408","wem/bandit_either_3","AT0COJ1G23ZB0","either","2","325","","","","","","","0","0","1","","0.3635076811","0.6","0.4","0.2","0.8","0.5771612872","0.3635076811","0.536938762","0.2147377822","","","","","","","","","","","","74","J","1","","","229","main_expt",""
"","bandit","309","584169","0.0-270.0-0.0","72778408","wem/bandit_either_3","AT0COJ1G23ZB0","either","2","292","","","","","","","0","1","0","","0.4691369301","0.6","0.4","0.2","0.8","0.6474737632","0.4109812081","0.4691369301","0.2128984172","","","","","","","","","","","","75","K","2","","","230","main_expt",""
"","bandit","310","585914","0.0-271.0-0.0","72778408","wem/bandit_either_3","AT0COJ1G23ZB0","either","2","185","","","","","","","0","1","0","","0.3801843724","0.6","0.4","0.2","0.8","0.77083729","0.3769467169","0.3801843724","0.2566260117","","","","","","","","","","","","75","K","2","","","231","main_expt",""
"","bandit","311","587818","0.0-272.0-0.0","72778408","wem/bandit_either_3","AT0COJ1G23ZB0","either","2","349","","","","","","","0","1","0","","0.4401380948","0.6","0.4","0.2","0.8","0.7372448464","0.4489681289","0.4401380948","0.307190163","","","","","","","","","","","","75","K","2","","","232","main_expt",""
"","bandit","312","589704","0.0-273.0-0.0","72778408","wem/bandit_either_3","AT0COJ1G23ZB0","either","2","338","","","","","","","0","0","1","","0.4589823784","0.6","0.4","0.2","0.8","0.8061851957","0.5191563331","0.4589823784","0.3235632008","","","","","","","","","","","","75","K","2","","","233","main_expt",""
"","bandit","313","591328","0.0-274.0-0.0","72778408","wem/bandit_either_3","AT0COJ1G23ZB0","either","2","64","","","","","","","0","0","1","0.2229472669","","0.6","0.4","0.2","0.8","","","","","0.7628128465","0.5635532962","0.412850409","0.2229472669","","","","","","","","76","L","3","","","234","main_expt",""
"","bandit","314","592888","0.0-275.0-0.0","72778408","wem/bandit_either_3","AT0COJ1G23ZB0","either","2","0","","","","","","","0","0","1","","0.7139354314","0.6","0.4","0.2","0.8","0.7139354314","0.6059211115","0.3071086281","0.3245092944","","","","","","","","","","","","72","H","0","img/none_selected.jpg","","235","main_expt",""
"","bandit","315","594462","0.0-276.0-0.0","72778408","wem/bandit_either_3","AT0COJ1G23ZB0","either","2","18","","","","","","","0","1","0","","0.5767319418","0.6","0.4","0.2","0.8","0.8459685894","0.5767319418","0.3088172556","0.3817813951","","","","","","","","","","","","74","J","1","","","236","main_expt",""
"","bandit","316","596100","0.0-277.0-0.0","72778408","wem/bandit_either_3","AT0COJ1G23ZB0","either","2","75","","","","","","","1","0","0","0.6195352853","","0.6","0.4","0.2","0.8","","","","","0.8258062243","0.6195352853","0.2725525041","0.5108794425","","","","","","","","74","J","1","","","237","main_expt",""
"","bandit","317","597817","0.0-278.0-0.0","72778408","wem/bandit_either_3","AT0COJ1G23ZB0","either","2","190","","","","","","","0","0","1","","0.7504070514","0.6","0.4","0.2","0.8","0.7390020401","0.7504070514","0.2929581335","0.545868674","","","","","","","","","","","","74","J","1","","","238","main_expt",""
"","bandit","318","599876","0.0-279.0-0.0","72778408","wem/bandit_either_3","AT0COJ1G23ZB0","either","2","501","","","","","","","0","0","1","","0.3009301418","0.6","0.4","0.2","0.8","0.7159327665","0.7863609923","0.3009301418","0.5696008367","","","","","","","","","","","","75","K","2","","","239","main_expt",""
"","bandit","319","601560","0.0-280.0-0.0","72778408","wem/bandit_either_3","AT0COJ1G23ZB0","either","2","144","","","","","","","1","0","0","0.7175907516","","0.6","0.4","0.2","0.8","","","","","0.7704913736","0.7472107855","0.1757133805","0.7175907516","","","","","","","","76","L","3","","","240","main_expt",""
"","bandit","320","603277","0.0-281.0-0.0","72778408","wem/bandit_either_3","AT0COJ1G23ZB0","either","2","177","","","","","","","1","0","0","0.8333566257","","0.6","0.4","0.2","0.8","","","","","0.7832900934","0.7633099306","0.1490953818","0.8333566257","","","","","","","","76","L","3","","","241","main_expt",""
"","bandit","321","605105","0.0-282.0-0.0","72778408","wem/bandit_either_3","AT0COJ1G23ZB0","either","2","265","","","","","","","0","0","1","0.8661582331","","0.6","0.4","0.2","0.8","","","","","0.746364214","0.8192624891","0.1187436938","0.8661582331","","","","","","","","76","L","3","","","242","main_expt",""
"","bandit","322","606740","0.0-283.0-0.0","72778408","wem/bandit_either_3","AT0COJ1G23ZB0","either","2","65","","","","","","","0","1","0","","0.7014576998","0.6","0.4","0.2","0.8","0.7014576998","0.7500708258","0.07814629235","0.8970489214","","","","","","","","","","","","72","H","0","img/none_selected.jpg","","243","main_expt",""
"","bandit","323","608408","0.0-284.0-0.0","72778408","wem/bandit_either_3","AT0COJ1G23ZB0","either","2","98","","","","","","","0","0","1","","0.6810302351","0.6","0.4","0.2","0.8","0.6810302351","0.7656319196","0.06497313331","0.8760308497","","","","","","","","","","","","72","H","0","img/none_selected.jpg","","244","main_expt",""
"","bandit","324","610282","0.0-285.0-0.0","72778408","wem/bandit_either_3","AT0COJ1G23ZB0","either","2","312","","","","","","","0","0","1","0.7726297554","","0.6","0.4","0.2","0.8","","","","","0.5349569219","0.7726297554","0.1053527342","0.9080051643","","","","","","","","74","J","1","","","245","main_expt",""
"","bandit","325","611921","0.0-286.0-0.0","72778408","wem/bandit_either_3","AT0COJ1G23ZB0","either","2","79","","","","","","","0","0","1","0.1410713538","","0.6","0.4","0.2","0.8","","","","","0.4945526892","0.8033922047","0.1410713538","0.8951486804","","","","","","","","75","K","2","","","246","main_expt",""
