"consent","trial_type","trial_index","time_elapsed","internal_node_id","subjID","study","MID","cond","drift","rt","responses","key_press","expt_phase","like","value","connected","gems","bombs","no_reward","GemPrChosen","BombPrChosen","GainOverPainPr_0","GainOverPainPr_1","GainOverPainPr_2","GainOverPainPr_3","LosePr_0","LosePr_1","LosePr_2","LosePr_3","WinPr_0","WinPr_1","WinPr_2","WinPr_3","Q0","Q1","Q2","gender","age","ethnicity","target","respCharCode","respKey","respChoiceNum","respChoice","practice","trial_counter","trial_label","button_pressed"
"INL_behavioral_consent_30min_online.html","consent","0","4333","0.0-0.0","72887333","wem/bandit_either_3","A1727A5VJOZAMR","either","8","","","","","","","","","","","","","","","","","","","","","","","","","","","","","","","","","","","","","","",""
"","survey-text","1","6493","0.0-1.0","72887333","wem/bandit_either_3","A1727A5VJOZAMR","either","8","1144","{""Q0"":""A1727A5VJOZAMR""}","","","","","","","","","","","","","","","","","","","","","","","","","","","","","","","","","","","","",""
"","text","2","52078","0.0-2.0","72887333","wem/bandit_either_3","A1727A5VJOZAMR","either","8","44580","","32","","","","","","","","","","","","","","","","","","","","","","","","","","","","","","","","","","","",""
"","text","3","55416","0.0-3.0","72887333","wem/bandit_either_3","A1727A5VJOZAMR","either","8","3335","","32","","","","","","","","","","","","","","","","","","","","","","","","","","","","","","","","","","","",""
"","text","4","58749","0.0-4.0","72887333","wem/bandit_either_3","A1727A5VJOZAMR","either","8","3330","","32","","","","","","","","","","","","","","","","","","","","","","","","","","","","","","","","","","","",""
"","text","5","62071","0.0-5.0","72887333","wem/bandit_either_3","A1727A5VJOZAMR","either","8","3320","","32","","","","","","","","","","","","","","","","","","","","","","","","","","","","","","","","","","","",""
"","text","6","65396","0.0-6.0","72887333","wem/bandit_either_3","A1727A5VJOZAMR","either","8","3322","","32","","","","","","","","","","","","","","","","","","","","","","","","","","","","","","","","","","","",""
"","text","7","68731","0.0-7.0","72887333","wem/bandit_either_3","A1727A5VJOZAMR","either","8","3332","","32","","","","","","","","","","","","","","","","","","","","","","","","","","","","","","","","","","","",""
"","text","8","72080","0.0-8.0","72887333","wem/bandit_either_3","A1727A5VJOZAMR","either","8","3347","","32","","","","","","","","","","","","","","","","","","","","","","","","","","","","","","","","","","","",""
"","identification","9","98302","0.0-9.0-0.0","72887333","wem/bandit_either_3","A1727A5VJOZAMR","either","8","26195","","","","5","3","4","","","","","","","","","","","","","","","","","","","","","","","","the village of Zur","","","","","","","",""
"","identification","10","101814","0.0-9.0-1.0","72887333","wem/bandit_either_3","A1727A5VJOZAMR","either","8","2485","","","","6","2","4","","","","","","","","","","","","","","","","","","","","","","","","the village of Nyx","","","","","","","",""
"","text","11","105433","0.0-10.0","72887333","wem/bandit_either_3","A1727A5VJOZAMR","either","8","2615","","32","","","","","","","","","","","","","","","","","","","","","","","","","","","","","","","","","","","",""
"","text","12","108762","0.0-11.0","72887333","wem/bandit_either_3","A1727A5VJOZAMR","either","8","3325","","32","","","","","","","","","","","","","","","","","","","","","","","","","","","","","","","","","","","",""
"","text","13","112092","0.0-12.0","72887333","wem/bandit_either_3","A1727A5VJOZAMR","either","8","3327","","32","","","","","","","","","","","","","","","","","","","","","","","","","","","","","","","","","","","",""
"","text","14","115412","0.0-13.0","72887333","wem/bandit_either_3","A1727A5VJOZAMR","either","8","3318","","32","","","","","","","","","","","","","","","","","","","","","","","","","","","","","","","","","","","",""
"","bandit","15","117452","0.0-14.0-0.0","72887333","wem/bandit_either_3","A1727A5VJOZAMR","either","8","509","","","","","","","0","0","1","0","0","","","","","0","","","","0","","","","","","","","","","","74","J","0","img/none_selected_demo.jpg","true","0","",""
"","bandit","16","121290","0.0-15.0-0.0","72887333","wem/bandit_either_3","A1727A5VJOZAMR","either","8","2313","","","","","","","0","0","1","0","0","","","","","0","","","","0","","","","","","","","","","","75","K","0","img/none_selected_demo.jpg","true","0","",""
"","text","17","122065","0.0-16.0","72887333","wem/bandit_either_3","A1727A5VJOZAMR","either","8","773","","32","","","","","","","","","","","","","","","","","","","","","","","","","","","","","","","","","","","",""
"","text","18","132065","0.0-17.0","72887333","wem/bandit_either_3","A1727A5VJOZAMR","either","8","9998","","32","","","","","","","","","","","","","","","","","","","","","","","","","","","","","","","","","","","",""
"","text","19","135407","0.0-18.0","72887333","wem/bandit_either_3","A1727A5VJOZAMR","either","8","3340","","32","","","","","","","","","","","","","","","","","","","","","","","","","","","","","","","","","","","",""
"","text","20","138735","0.0-19.0","72887333","wem/bandit_either_3","A1727A5VJOZAMR","either","8","3326","","32","","","","","","","","","","","","","","","","","","","","","","","","","","","","","","","","","","","",""
"","bandit","21","140758","0.0-20.0-0.0","72887333","wem/bandit_either_3","A1727A5VJOZAMR","either","8","513","","","","","","","0","0","1","","0.8","0.5","0.5","","","0.8","0.2","","","","","","","","","","","","","","74","J","0","img/none_selected_demo.jpg","true","0","80_20_practice",""
"","bandit","22","144102","0.0-20.0-1.0","72887333","wem/bandit_either_3","A1727A5VJOZAMR","either","8","1828","","","","","","","0","1","0","","0.8","0.5","0.5","","","0.8","0.2","","","","","","","","","","","","","","74","J","0","img/none_selected_demo.jpg","true","0","80_20_practice",""
"","bandit","23","147433","0.0-20.0-2.0","72887333","wem/bandit_either_3","A1727A5VJOZAMR","either","8","1812","","","","","","","1","0","0","0.8","","0.5","0.5","","","","","","","0.8","0.2","","","","","","","","","","74","J","0","img/none_selected_demo.jpg","true","0","80_20_practice",""
"","bandit","24","150756","0.0-20.0-3.0","72887333","wem/bandit_either_3","A1727A5VJOZAMR","either","8","1799","","","","","","","0","1","0","","0.8","0.5","0.5","","","0.8","0.2","","","","","","","","","","","","","","74","J","0","img/none_selected_demo.jpg","true","0","80_20_practice",""
"","bandit","25","154112","0.0-20.0-4.0","72887333","wem/bandit_either_3","A1727A5VJOZAMR","either","8","1829","","","","","","","0","1","0","","0.8","0.5","0.5","","","0.8","0.2","","","","","","","","","","","","","","74","J","0","img/none_selected_demo.jpg","true","0","80_20_practice",""
"","bandit","26","157451","0.0-20.0-5.0","72887333","wem/bandit_either_3","A1727A5VJOZAMR","either","8","1812","","","","","","","1","0","0","0.8","","0.5","0.5","","","","","","","0.8","0.2","","","","","","","","","","74","J","0","img/none_selected_demo.jpg","true","0","80_20_practice",""
"","bandit","27","160795","0.0-20.0-6.0","72887333","wem/bandit_either_3","A1727A5VJOZAMR","either","8","1826","","","","","","","1","0","0","0.8","","0.5","0.5","","","","","","","0.8","0.2","","","","","","","","","","74","J","0","img/none_selected_demo.jpg","true","0","80_20_practice",""
"","bandit","28","164131","0.0-20.0-7.0","72887333","wem/bandit_either_3","A1727A5VJOZAMR","either","8","1814","","","","","","","0","1","0","","0.8","0.5","0.5","","","0.8","0.2","","","","","","","","","","","","","","74","J","0","img/none_selected_demo.jpg","true","0","80_20_practice",""
"","bandit","29","167534","0.0-20.0-8.0","72887333","wem/bandit_either_3","A1727A5VJOZAMR","either","8","1874","","","","","","","0","0","1","","0.8","0.5","0.5","","","0.8","0.2","","","","","","","","","","","","","","74","J","0","img/none_selected_demo.jpg","true","0","80_20_practice",""
"","bandit","30","170835","0.0-20.0-9.0","72887333","wem/bandit_either_3","A1727A5VJOZAMR","either","8","1791","","","","","","","0","1","0","","0.8","0.5","0.5","","","0.8","0.2","","","","","","","","","","","","","","74","J","0","img/none_selected_demo.jpg","true","0","80_20_practice",""
"","bandit","31","172373","0.0-20.0-10.0","72887333","wem/bandit_either_3","A1727A5VJOZAMR","either","8","32","","","","","","","1","0","0","0.8","","0.5","0.5","","","","","","","0.8","0.2","","","","","","","","","","74","J","0","img/none_selected_demo.jpg","true","0","80_20_practice",""
"","bandit","32","174010","0.0-20.0-11.0","72887333","wem/bandit_either_3","A1727A5VJOZAMR","either","8","103","","","","","","","0","0","1","0.2","","0.5","0.5","","","","","","","0.8","0.2","","","","","","","","","","75","K","1","","true","0","80_20_practice",""
"","bandit","33","175676","0.0-20.0-12.0","72887333","wem/bandit_either_3","A1727A5VJOZAMR","either","8","139","","","","","","","0","0","1","","0.2","0.5","0.5","","","0.8","0.2","","","","","","","","","","","","","","75","K","1","","true","0","80_20_practice",""
"","bandit","34","177274","0.0-20.0-13.0","72887333","wem/bandit_either_3","A1727A5VJOZAMR","either","8","75","","","","","","","0","1","0","","0.8","0.5","0.5","","","0.8","0.2","","","","","","","","","","","","","","74","J","0","img/none_selected_demo.jpg","true","0","80_20_practice",""
"","bandit","35","178907","0.0-20.0-14.0","72887333","wem/bandit_either_3","A1727A5VJOZAMR","either","8","101","","","","","","","0","0","1","","0.2","0.5","0.5","","","0.8","0.2","","","","","","","","","","","","","","75","K","1","","true","0","80_20_practice",""
"","bandit","36","180516","0.0-20.0-15.0","72887333","wem/bandit_either_3","A1727A5VJOZAMR","either","8","92","","","","","","","0","0","1","","0.2","0.5","0.5","","","0.8","0.2","","","","","","","","","","","","","","75","K","1","","true","0","80_20_practice",""
"","bandit","37","182165","0.0-20.0-16.0","72887333","wem/bandit_either_3","A1727A5VJOZAMR","either","8","127","","","","","","","0","0","1","0.2","","0.5","0.5","","","","","","","0.8","0.2","","","","","","","","","","75","K","1","","true","0","80_20_practice",""
"","bandit","38","183734","0.0-20.0-17.0","72887333","wem/bandit_either_3","A1727A5VJOZAMR","either","8","53","","","","","","","0","0","1","","0.2","0.5","0.5","","","0.8","0.2","","","","","","","","","","","","","","75","K","1","","true","0","80_20_practice",""
"","bandit","39","185306","0.0-20.0-18.0","72887333","wem/bandit_either_3","A1727A5VJOZAMR","either","8","44","","","","","","","0","0","1","0.2","","0.5","0.5","","","","","","","0.8","0.2","","","","","","","","","","75","K","1","","true","0","80_20_practice",""
"","bandit","40","186984","0.0-20.0-19.0","72887333","wem/bandit_either_3","A1727A5VJOZAMR","either","8","152","","","","","","","0","0","1","","0.8","0.5","0.5","","","0.8","0.2","","","","","","","","","","","","","","74","J","0","img/none_selected_demo.jpg","true","0","80_20_practice",""
"","text","41","187763","0.0-21.0","72887333","wem/bandit_either_3","A1727A5VJOZAMR","either","8","775","","32","","","","","","","","","","","","","","","","","","","","","","","","","","","","","","","","","","","",""
"","bandit","42","190903","0.0-22.0-0.0","72887333","wem/bandit_either_3","A1727A5VJOZAMR","either","8","1621","","","","","","","1","0","0","1","0","","","","","0","1","","","1","0","","","","","","","","","","74","J","0","img/none_selected_demo.jpg","true","0","",""
"","text","43","191175","0.0-23.0","72887333","wem/bandit_either_3","A1727A5VJOZAMR","either","8","269","","72","","","","","","","","","","","","","","","","","","","","","","","","","","","","","","","","","","","",""
"","text","44","192199","0.0-24.0","72887333","wem/bandit_either_3","A1727A5VJOZAMR","either","8","1022","","32","","","","","","","","","","","","","","","","","","","","","","","","","","","","","","","","","","","",""
"","text","45","193363","0.0-25.0","72887333","wem/bandit_either_3","A1727A5VJOZAMR","either","8","1161","","32","","","","","","","","","","","","","","","","","","","","","","","","","","","","","","","","","","","",""
"","text","46","193600","0.0-26.0","72887333","wem/bandit_either_3","A1727A5VJOZAMR","either","8","232","","32","","","","","","","","","","","","","","","","","","","","","","","","","","","","","","","","","","","",""
"","text","47","193820","0.0-27.0","72887333","wem/bandit_either_3","A1727A5VJOZAMR","either","8","217","","32","","","","","","","","","","","","","","","","","","","","","","","","","","","","","","","","","","","",""
"","text","48","194027","0.0-28.0","72887333","wem/bandit_either_3","A1727A5VJOZAMR","either","8","202","","32","","","","","","","","","","","","","","","","","","","","","","","","","","","","","","","","","","","",""
"","text","49","194221","0.0-29.0","72887333","wem/bandit_either_3","A1727A5VJOZAMR","either","8","191","","32","","","","","","","","","","","","","","","","","","","","","","","","","","","","","","","","","","","",""
"","text","50","194432","0.0-30.0","72887333","wem/bandit_either_3","A1727A5VJOZAMR","either","8","208","","32","","","","","","","","","","","","","","","","","","","","","","","","","","","","","","","","","","","",""
"","text","51","194637","0.0-31.0","72887333","wem/bandit_either_3","A1727A5VJOZAMR","either","8","202","","32","","","","","","","","","","","","","","","","","","","","","","","","","","","","","","","","","","","",""
"","text","52","194844","0.0-32.0","72887333","wem/bandit_either_3","A1727A5VJOZAMR","either","8","204","","32","","","","","","","","","","","","","","","","","","","","","","","","","","","","","","","","","","","",""
"","text","53","195058","0.0-33.0","72887333","wem/bandit_either_3","A1727A5VJOZAMR","either","8","210","","32","","","","","","","","","","","","","","","","","","","","","","","","","","","","","","","","","","","",""
"","bandit","54","197557","0.0-34.0-0.0","72887333","wem/bandit_either_3","A1727A5VJOZAMR","either","8","989","","","","","","","0","0","1","","0.2","0.5","0.5","0.5","0.5","0.8","0.2","0.6","0.2","","","","","","","","","","","","74","J","1","","true","0","full_practice",""
"","bandit","55","199379","0.0-34.0-1.0","72887333","wem/bandit_either_3","A1727A5VJOZAMR","either","8","296","","","","","","","1","0","0","0.8","","0.5","0.5","0.5","0.5","","","","","0.8","0.2","0.6","0.2","","","","","","","","72","H","0","img/none_selected.jpg","true","0","full_practice",""
"","bandit","56","200894","0.0-34.0-2.0","72887333","wem/bandit_either_3","A1727A5VJOZAMR","either","8","1","","","","","","","0","0","1","0.2","","0.5","0.5","0.5","0.5","","","","","0.8","0.2","0.6","0.2","","","","","","","","74","J","1","","true","0","full_practice",""
"","bandit","57","202727","0.0-34.0-3.0","72887333","wem/bandit_either_3","A1727A5VJOZAMR","either","8","304","","","","","","","0","0","1","","0.8","0.5","0.5","0.5","0.5","0.8","0.2","0.6","0.2","","","","","","","","","","","","72","H","0","img/none_selected.jpg","true","0","full_practice",""
"","bandit","58","204243","0.0-34.0-4.0","72887333","wem/bandit_either_3","A1727A5VJOZAMR","either","8","1","","","","","","","0","0","1","","0.2","0.5","0.5","0.5","0.5","0.8","0.2","0.6","0.2","","","","","","","","","","","","74","J","1","","true","0","full_practice",""
"","bandit","59","206056","0.0-34.0-5.0","72887333","wem/bandit_either_3","A1727A5VJOZAMR","either","8","276","","","","","","","1","0","0","0.8","","0.5","0.5","0.5","0.5","","","","","0.8","0.2","0.6","0.2","","","","","","","","72","H","0","img/none_selected.jpg","true","0","full_practice",""
"","bandit","60","207580","0.0-34.0-6.0","72887333","wem/bandit_either_3","A1727A5VJOZAMR","either","8","0","","","","","","","0","0","1","","0.2","0.5","0.5","0.5","0.5","0.8","0.2","0.6","0.2","","","","","","","","","","","","74","J","1","","true","0","full_practice",""
"","bandit","61","209379","0.0-34.0-7.0","72887333","wem/bandit_either_3","A1727A5VJOZAMR","either","8","272","","","","","","","0","1","0","","0.8","0.5","0.5","0.5","0.5","0.8","0.2","0.6","0.2","","","","","","","","","","","","72","H","0","img/none_selected.jpg","true","0","full_practice",""
"","bandit","62","210904","0.0-34.0-8.0","72887333","wem/bandit_either_3","A1727A5VJOZAMR","either","8","0","","","","","","","0","0","1","0.2","","0.5","0.5","0.5","0.5","","","","","0.8","0.2","0.6","0.2","","","","","","","","74","J","1","","true","0","full_practice",""
"","bandit","63","212681","0.0-34.0-9.0","72887333","wem/bandit_either_3","A1727A5VJOZAMR","either","8","263","","","","","","","0","1","0","","0.8","0.5","0.5","0.5","0.5","0.8","0.2","0.6","0.2","","","","","","","","","","","","72","H","0","img/none_selected.jpg","true","0","full_practice",""
"","bandit","64","214223","0.0-34.0-10.0","72887333","wem/bandit_either_3","A1727A5VJOZAMR","either","8","22","","","","","","","0","0","1","0.2","","0.5","0.5","0.5","0.5","","","","","0.8","0.2","0.6","0.2","","","","","","","","74","J","1","","true","0","full_practice",""
"","bandit","65","216035","0.0-34.0-11.0","72887333","wem/bandit_either_3","A1727A5VJOZAMR","either","8","288","","","","","","","0","1","0","","0.8","0.5","0.5","0.5","0.5","0.8","0.2","0.6","0.2","","","","","","","","","","","","72","H","0","img/none_selected.jpg","true","0","full_practice",""
"","bandit","66","234289","0.0-34.0-12.0","72887333","wem/bandit_either_3","A1727A5VJOZAMR","either","8","16722","","","","","","","0","1","0","","0.2","0.5","0.5","0.5","0.5","0.8","0.2","0.6","0.2","","","","","","","","","","","","74","J","1","","true","0","full_practice",""
"","bandit","67","235872","0.0-34.0-13.0","72887333","wem/bandit_either_3","A1727A5VJOZAMR","either","8","64","","","","","","","0","0","1","0.8","","0.5","0.5","0.5","0.5","","","","","0.8","0.2","0.6","0.2","","","","","","","","72","H","0","img/none_selected.jpg","true","0","full_practice",""
"","bandit","68","237401","0.0-34.0-14.0","72887333","wem/bandit_either_3","A1727A5VJOZAMR","either","8","0","","","","","","","0","0","1","0.2","","0.5","0.5","0.5","0.5","","","","","0.8","0.2","0.6","0.2","","","","","","","","76","L","3","","true","0","full_practice",""
"","bandit","69","238946","0.0-34.0-15.0","72887333","wem/bandit_either_3","A1727A5VJOZAMR","either","8","36","","","","","","","0","0","1","0.2","","0.5","0.5","0.5","0.5","","","","","0.8","0.2","0.6","0.2","","","","","","","","76","L","3","","true","0","full_practice",""
"","bandit","70","240506","0.0-34.0-16.0","72887333","wem/bandit_either_3","A1727A5VJOZAMR","either","8","27","","","","","","","0","1","0","","0.6","0.5","0.5","0.5","0.5","0.8","0.2","0.6","0.2","","","","","","","","","","","","75","K","2","","true","0","full_practice",""
"","bandit","71","242057","0.0-34.0-17.0","72887333","wem/bandit_either_3","A1727A5VJOZAMR","either","8","35","","","","","","","0","1","0","","0.6","0.5","0.5","0.5","0.5","0.8","0.2","0.6","0.2","","","","","","","","","","","","75","K","2","","true","0","full_practice",""
"","bandit","72","243653","0.0-34.0-18.0","72887333","wem/bandit_either_3","A1727A5VJOZAMR","either","8","64","","","","","","","0","0","1","0.2","","0.5","0.5","0.5","0.5","","","","","0.8","0.2","0.6","0.2","","","","","","","","74","J","1","","true","0","full_practice",""
"","bandit","73","245175","0.0-34.0-19.0","72887333","wem/bandit_either_3","A1727A5VJOZAMR","either","8","1","","","","","","","0","1","0","","0.8","0.5","0.5","0.5","0.5","0.8","0.2","0.6","0.2","","","","","","","","","","","","72","H","0","img/none_selected.jpg","true","0","full_practice",""
"","text","74","245289","0.0-35.0","72887333","wem/bandit_either_3","A1727A5VJOZAMR","either","8","102","","32","","","","","","","","","","","","","","","","","","","","","","","","","","","","","","","","","","","",""
"","text","75","246558","0.0-36.0","72887333","wem/bandit_either_3","A1727A5VJOZAMR","either","8","262","","32","","","","","","","","","","","","","","","","","","","","","","","","","","","","","","","","","","","",""
"","text","76","246871","0.0-37.0","72887333","wem/bandit_either_3","A1727A5VJOZAMR","either","8","310","","32","","","","","","","","","","","","","","","","","","","","","","","","","","","","","","","","","","","",""
"","text","77","247218","0.0-38.0","72887333","wem/bandit_either_3","A1727A5VJOZAMR","either","8","341","","32","","","","","","","","","","","","","","","","","","","","","","","","","","","","","","","","","","","",""
"","text","78","247521","0.0-39.0","72887333","wem/bandit_either_3","A1727A5VJOZAMR","either","8","299","","32","","","","","","","","","","","","","","","","","","","","","","","","","","","","","","","","","","","",""
"","text","79","247841","0.0-40.0","72887333","wem/bandit_either_3","A1727A5VJOZAMR","either","8","315","","32","","","","","","","","","","","","","","","","","","","","","","","","","","","","","","","","","","","",""
"","bandit","80","249415","0.0-41.0-0.0","72887333","wem/bandit_either_3","A1727A5VJOZAMR","either","8","61","","","","","","","0","0","1","0.4468950172","","0.2","0.8","0.4","0.6","","","","","0.6337563202","0.4468950172","0.3040937467","0.2428949588","","","","","","","","74","J","1","","","1","main_expt",""
"","bandit","81","251018","0.0-42.0-0.0","72887333","wem/bandit_either_3","A1727A5VJOZAMR","either","8","85","","","","","","","0","0","1","0.3846124694","","0.2","0.8","0.4","0.6","","","","","0.7380673114","0.3846124694","0.2687625136","0.248961424","","","","","","","","74","J","1","","","2","main_expt",""
"","bandit","82","252633","0.0-43.0-0.0","72887333","wem/bandit_either_3","A1727A5VJOZAMR","either","8","81","","","","","","","0","0","1","0.3885967974","","0.2","0.8","0.4","0.6","","","","","0.7715549737","0.3885967974","0.3017919557","0.1878604038","","","","","","","","74","J","1","","","3","main_expt",""
"","bandit","83","254220","0.0-44.0-0.0","72887333","wem/bandit_either_3","A1727A5VJOZAMR","either","8","66","","","","","","","0","0","1","0.2891644394","","0.2","0.8","0.4","0.6","","","","","0.8257013646","0.2891644394","0.3388517529","0.1194049449","","","","","","","","74","J","1","","","4","main_expt",""
"","bandit","84","255742","0.0-45.0-0.0","72887333","wem/bandit_either_3","A1727A5VJOZAMR","either","8","1","","","","","","","0","0","1","","0.8617886559","0.2","0.8","0.4","0.6","0.8617886559","0.2654579937","0.389096829","0.197046458","","","","","","","","","","","","72","H","0","img/none_selected.jpg","","5","main_expt",""
"","bandit","85","257278","0.0-46.0-0.0","72887333","wem/bandit_either_3","A1727A5VJOZAMR","either","8","24","","","","","","","1","0","0","0.2312720201","","0.2","0.8","0.4","0.6","","","","","0.8452125903","0.355160999","0.4799636182","0.2312720201","","","","","","","","76","L","3","","","6","main_expt",""
"","bandit","86","258848","0.0-47.0-0.0","72887333","wem/bandit_either_3","A1727A5VJOZAMR","either","8","53","","","","","","","1","0","0","0.5316557606","","0.2","0.8","0.4","0.6","","","","","0.8765288384","0.4733904832","0.5316557606","0.3255591742","","","","","","","","75","K","2","","","7","main_expt",""
"","bandit","87","260387","0.0-48.0-0.0","72887333","wem/bandit_either_3","A1727A5VJOZAMR","either","8","14","","","","","","","1","0","0","0.4900136729","","0.2","0.8","0.4","0.6","","","","","0.8625068071","0.4900136729","0.4935712437","0.163151729","","","","","","","","74","J","1","","","8","main_expt",""
"","bandit","88","261946","0.0-49.0-0.0","72887333","wem/bandit_either_3","A1727A5VJOZAMR","either","8","35","","","","","","","0","0","1","0.4543552171","","0.2","0.8","0.4","0.6","","","","","0.8385781597","0.4543552171","0.5400450001","0.1671639775","","","","","","","","74","J","1","","","9","main_expt",""
"","bandit","89","263518","0.0-50.0-0.0","72887333","wem/bandit_either_3","A1727A5VJOZAMR","either","8","49","","","","","","","0","1","0","","0.833356221","0.2","0.8","0.4","0.6","0.833356221","0.4523920981","0.6510952772","0.1315225434","","","","","","","","","","","","72","H","0","img/none_selected.jpg","","10","main_expt",""
"","bandit","90","265112","0.0-51.0-0.0","72887333","wem/bandit_either_3","A1727A5VJOZAMR","either","8","75","","","","","","","0","1","0","","0.9030756702","0.2","0.8","0.4","0.6","0.9030756702","0.4053083118","0.6117649901","0.1287002637","","","","","","","","","","","","72","H","0","img/none_selected.jpg","","11","main_expt",""
"","bandit","91","266642","0.0-52.0-0.0","72887333","wem/bandit_either_3","A1727A5VJOZAMR","either","8","0","","","","","","","0","0","1","0.1026596936","","0.2","0.8","0.4","0.6","","","","","0.9129290363","0.4059907931","0.6360746298","0.1026596936","","","","","","","","76","L","3","","","12","main_expt",""
"","bandit","92","268202","0.0-53.0-0.0","72887333","wem/bandit_either_3","A1727A5VJOZAMR","either","8","44","","","","","","","0","0","1","0.1287514256","","0.2","0.8","0.4","0.6","","","","","0.8638417716","0.2934167972","0.5673960652","0.1287514256","","","","","","","","76","L","3","","","13","main_expt",""
"","bandit","93","269729","0.0-54.0-0.0","72887333","wem/bandit_either_3","A1727A5VJOZAMR","either","8","0","","","","","","","0","0","1","0.3260927596","","0.2","0.8","0.4","0.6","","","","","0.787806988","0.3260927596","0.6747725803","0.1786171179","","","","","","","","74","J","1","","","14","main_expt",""
"","bandit","94","271254","0.0-55.0-0.0","72887333","wem/bandit_either_3","A1727A5VJOZAMR","either","8","5","","","","","","","0","0","1","","0.7254212376","0.2","0.8","0.4","0.6","0.7254212376","0.3355382734","0.6277188345","0.1459410532","","","","","","","","","","","","72","H","0","img/none_selected.jpg","","15","main_expt",""
"","bandit","95","272781","0.0-56.0-0.0","72887333","wem/bandit_either_3","A1727A5VJOZAMR","either","8","1","","","","","","","0","0","1","0.2255600906","","0.2","0.8","0.4","0.6","","","","","0.7238415528","0.3040928121","0.5435568235","0.2255600906","","","","","","","","76","L","3","","","16","main_expt",""
"","bandit","96","274314","0.0-57.0-0.0","72887333","wem/bandit_either_3","A1727A5VJOZAMR","either","8","1","","","","","","","0","0","1","","0.4180161478","0.2","0.8","0.4","0.6","0.7796243455","0.2730366263","0.4180161478","0.2052013943","","","","","","","","","","","","75","K","2","","","17","main_expt",""
"","bandit","97","275835","0.0-58.0-0.0","72887333","wem/bandit_either_3","A1727A5VJOZAMR","either","8","9","","","","","","","1","0","0","0.4105298721","","0.2","0.8","0.4","0.6","","","","","0.6928902724","0.4105298721","0.4961111773","0.1780354615","","","","","","","","74","J","1","","","18","main_expt",""
"","bandit","98","277446","0.0-59.0-0.0","72887333","wem/bandit_either_3","A1727A5VJOZAMR","either","8","86","","","","","","","0","0","1","","0.3586923344","0.2","0.8","0.4","0.6","0.7658630901","0.3586923344","0.445530788","0.1576496117","","","","","","","","","","","","74","J","1","","","19","main_expt",""
"","bandit","99","278978","0.0-60.0-0.0","72887333","wem/bandit_either_3","A1727A5VJOZAMR","either","8","1","","","","","","","1","0","0","0.7584200513","","0.2","0.8","0.4","0.6","","","","","0.7584200513","0.3220075653","0.3443163705","0.1618752313","","","","","","","","72","H","0","img/none_selected.jpg","","20","main_expt",""
"","bandit","100","280520","0.0-61.0-0.0","72887333","wem/bandit_either_3","A1727A5VJOZAMR","either","8","19","","","","","","","0","0","1","","0.7727038765","0.2","0.8","0.4","0.6","0.7727038765","0.2729660799","0.3012808647","0.2152187387","","","","","","","","","","","","72","H","0","img/none_selected.jpg","","21","main_expt",""
"","bandit","101","282127","0.0-62.0-0.0","72887333","wem/bandit_either_3","A1727A5VJOZAMR","either","8","83","","","","","","","1","0","0","0.8152565923","","0.2","0.8","0.4","0.6","","","","","0.8152565923","0.2712352107","0.2882062485","0.3547982299","","","","","","","","72","H","0","img/none_selected.jpg","","22","main_expt",""
"","bandit","102","283726","0.0-63.0-0.0","72887333","wem/bandit_either_3","A1727A5VJOZAMR","either","8","75","","","","","","","0","1","0","","0.7537075358","0.2","0.8","0.4","0.6","0.7537075358","0.3390855774","0.2113421372","0.323805638","","","","","","","","","","","","72","H","0","img/none_selected.jpg","","23","main_expt",""
"","bandit","103","285244","0.0-64.0-0.0","72887333","wem/bandit_either_3","A1727A5VJOZAMR","either","8","0","","","","","","","0","0","1","0.3588909826","","0.2","0.8","0.4","0.6","","","","","0.7108822858","0.3483259141","0.2201805416","0.3588909826","","","","","","","","76","L","3","","","24","main_expt",""
"","bandit","104","286789","0.0-65.0-0.0","72887333","wem/bandit_either_3","A1727A5VJOZAMR","either","8","25","","","","","","","0","1","0","","0.2580956466","0.2","0.8","0.4","0.6","0.6930515954","0.3416976173","0.2580956466","0.3885553436","","","","","","","","","","","","75","K","2","","","25","main_expt",""
"","bandit","105","288301","0.0-66.0-0.0","72887333","wem/bandit_either_3","A1727A5VJOZAMR","either","8","0","","","","","","","0","0","1","0.4243476322","","0.2","0.8","0.4","0.6","","","","","0.6905393417","0.4243476322","0.2153432854","0.4871556374","","","","","","","","74","J","1","","","26","main_expt",""
"","bandit","106","289814","0.0-67.0-0.0","72887333","wem/bandit_either_3","A1727A5VJOZAMR","either","8","2","","","","","","","0","0","1","0.7531652131","","0.2","0.8","0.4","0.6","","","","","0.7531652131","0.5257754898","0.1727955236","0.4934119911","","","","","","","","72","H","0","img/none_selected.jpg","","27","main_expt",""
"","bandit","107","291342","0.0-68.0-0.0","72887333","wem/bandit_either_3","A1727A5VJOZAMR","either","8","15","","","","","","","1","0","0","0.1894296703","","0.2","0.8","0.4","0.6","","","","","0.8001777041","0.5246232361","0.1894296703","0.4322092846","","","","","","","","75","K","2","","","28","main_expt",""
"","bandit","108","292868","0.0-69.0-0.0","72887333","wem/bandit_either_3","A1727A5VJOZAMR","either","8","2","","","","","","","0","0","1","0.375994784","","0.2","0.8","0.4","0.6","","","","","0.8118404327","0.375994784","0.2128919211","0.3459113699","","","","","","","","74","J","1","","","29","main_expt",""
"","bandit","109","294423","0.0-70.0-0.0","72887333","wem/bandit_either_3","A1727A5VJOZAMR","either","8","27","","","","","","","0","1","0","","0.7839534503","0.2","0.8","0.4","0.6","0.7839534503","0.2936890161","0.206056468","0.280789843","","","","","","","","","","","","72","H","0","img/none_selected.jpg","","30","main_expt",""
"","bandit","110","296006","0.0-71.0-0.0","72887333","wem/bandit_either_3","A1727A5VJOZAMR","either","8","58","","","","","","","0","1","0","","0.8066372971","0.2","0.8","0.4","0.6","0.8066372971","0.2878812258","0.1725623241","0.2613810438","","","","","","","","","","","","72","H","0","img/none_selected.jpg","","31","main_expt",""
"","bandit","111","297543","0.0-72.0-0.0","72887333","wem/bandit_either_3","A1727A5VJOZAMR","either","8","8","","","","","","","0","1","0","","0.3821585683","0.2","0.8","0.4","0.6","0.8049259064","0.2451492808","0.1629883914","0.3821585683","","","","","","","","","","","","76","L","3","","","32","main_expt",""
"","bandit","112","299070","0.0-73.0-0.0","72887333","wem/bandit_either_3","A1727A5VJOZAMR","either","8","4","","","","","","","0","0","1","0.2107911223","","0.2","0.8","0.4","0.6","","","","","0.7891664673","0.2802113289","0.2107911223","0.2714925976","","","","","","","","75","K","2","","","33","main_expt",""
"","bandit","113","300621","0.0-74.0-0.0","72887333","wem/bandit_either_3","A1727A5VJOZAMR","either","8","26","","","","","","","0","0","1","0.2892342718","","0.2","0.8","0.4","0.6","","","","","0.7854278051","0.2892342718","0.1025901997","0.2755575364","","","","","","","","74","J","1","","","34","main_expt",""
"","bandit","114","302204","0.0-75.0-0.0","72887333","wem/bandit_either_3","A1727A5VJOZAMR","either","8","60","","","","","","","0","0","1","0.2486893666","","0.2","0.8","0.4","0.6","","","","","0.7260182018","0.2486893666","0.1289879153","0.2697856654","","","","","","","","74","J","1","","","35","main_expt",""
"","bandit","115","303802","0.0-76.0-0.0","72887333","wem/bandit_either_3","A1727A5VJOZAMR","either","8","73","","","","","","","0","0","1","0.3536408983","","0.2","0.8","0.4","0.6","","","","","0.7910957192","0.3536408983","0.1645491317","0.2483646443","","","","","","","","74","J","1","","","36","main_expt",""
"","bandit","116","305338","0.0-77.0-0.0","72887333","wem/bandit_either_3","A1727A5VJOZAMR","either","8","9","","","","","","","0","1","0","","0.7996551039","0.2","0.8","0.4","0.6","0.7996551039","0.2493566902","0.1698046746","0.2103950957","","","","","","","","","","","","72","H","0","img/none_selected.jpg","","37","main_expt",""
"","bandit","117","306853","0.0-78.0-0.0","72887333","wem/bandit_either_3","A1727A5VJOZAMR","either","8","1","","","","","","","0","0","1","0.2128944509","","0.2","0.8","0.4","0.6","","","","","0.6717479894","0.2948354516","0.2281502886","0.2128944509","","","","","","","","76","L","3","","","38","main_expt",""
"","bandit","118","308394","0.0-79.0-0.0","72887333","wem/bandit_either_3","A1727A5VJOZAMR","either","8","14","","","","","","","0","0","1","0.1561271762","","0.2","0.8","0.4","0.6","","","","","0.7121128808","0.3373274679","0.1561271762","0.2965153327","","","","","","","","75","K","2","","","39","main_expt",""
"","bandit","119","309955","0.0-80.0-0.0","72887333","wem/bandit_either_3","A1727A5VJOZAMR","either","8","38","","","","","","","0","0","1","0.4138768052","","0.2","0.8","0.4","0.6","","","","","0.7157410044","0.4138768052","0.1543620621","0.4447532253","","","","","","","","74","J","1","","","40","main_expt",""
"","bandit","120","311571","0.0-81.0-0.0","72887333","wem/bandit_either_3","A1727A5VJOZAMR","either","8","83","","","","","","","0","0","1","","0.438096834","0.2","0.8","0.4","0.6","0.681196038","0.438096834","0.2271499981","0.5330008696","","","","","","","","","","","","74","J","1","","","41","main_expt",""
"","bandit","121","313099","0.0-82.0-0.0","72887333","wem/bandit_either_3","A1727A5VJOZAMR","either","8","3","","","","","","","0","0","1","","0.6504320647","0.2","0.8","0.4","0.6","0.6504320647","0.4185173612","0.2882452936","0.573861049","","","","","","","","","","","","72","H","0","img/none_selected.jpg","","42","main_expt",""
"","bandit","122","314682","0.0-83.0-0.0","72887333","wem/bandit_either_3","A1727A5VJOZAMR","either","8","57","","","","","","","0","1","0","","0.7369830744","0.2","0.8","0.4","0.6","0.7369830744","0.3796335567","0.298522686","0.6654349765","","","","","","","","","","","","72","H","0","img/none_selected.jpg","","43","main_expt",""
"","bandit","123","316259","0.0-84.0-0.0","72887333","wem/bandit_either_3","A1727A5VJOZAMR","either","8","56","","","","","","","0","1","0","","0.6797935378","0.2","0.8","0.4","0.6","0.6797935378","0.31766129","0.3188886026","0.691198465","","","","","","","","","","","","72","H","0","img/none_selected.jpg","","44","main_expt",""
"","bandit","124","317843","0.0-85.0-0.0","72887333","wem/bandit_either_3","A1727A5VJOZAMR","either","8","64","","","","","","","0","1","0","","0.6507473666","0.2","0.8","0.4","0.6","0.6507473666","0.4047397141","0.2705760174","0.7652674903","","","","","","","","","","","","72","H","0","img/none_selected.jpg","","45","main_expt",""
"","bandit","125","319361","0.0-86.0-0.0","72887333","wem/bandit_either_3","A1727A5VJOZAMR","either","8","2","","","","","","","0","1","0","","0.8065230058","0.2","0.8","0.4","0.6","0.6334510787","0.4961613307","0.2506880939","0.8065230058","","","","","","","","","","","","76","L","3","","","46","main_expt",""
"","bandit","126","320896","0.0-87.0-0.0","72887333","wem/bandit_either_3","A1727A5VJOZAMR","either","8","0","","","","","","","0","0","1","0.2491585872","","0.2","0.8","0.4","0.6","","","","","0.6143175143","0.4624468315","0.2491585872","0.7774474893","","","","","","","","75","K","2","","","47","main_expt",""
"","bandit","127","322437","0.0-88.0-0.0","72887333","wem/bandit_either_3","A1727A5VJOZAMR","either","8","25","","","","","","","0","1","0","","0.4886537242","0.2","0.8","0.4","0.6","0.6404512611","0.4886537242","0.1997021219","0.7693176975","","","","","","","","","","","","74","J","1","","","48","main_expt",""
"","bandit","128","324037","0.0-89.0-0.0","72887333","wem/bandit_either_3","A1727A5VJOZAMR","either","8","76","","","","","","","1","0","0","0.4270302022","","0.2","0.8","0.4","0.6","","","","","0.6758621215","0.4270302022","0.2119577724","0.807419373","","","","","","","","74","J","1","","","49","main_expt",""
"","bandit","129","325622","0.0-90.0-0.0","72887333","wem/bandit_either_3","A1727A5VJOZAMR","either","8","63","","","","","","","1","0","0","0.5151345658","","0.2","0.8","0.4","0.6","","","","","0.6873234502","0.5151345658","0.2615271711","0.8562769227","","","","","","","","74","J","1","","","50","main_expt",""
"","bandit","130","327156","0.0-91.0-0.0","72887333","wem/bandit_either_3","A1727A5VJOZAMR","either","8","13","","","","","","","0","1","0","","0.7776044395","0.2","0.8","0.4","0.6","0.7776044395","0.5134524181","0.2764427577","0.8705114925","","","","","","","","","","","","72","H","0","img/none_selected.jpg","","51","main_expt",""
"","bandit","131","328679","0.0-92.0-0.0","72887333","wem/bandit_either_3","A1727A5VJOZAMR","either","8","4","","","","","","","1","0","0","0.9310361031","","0.2","0.8","0.4","0.6","","","","","0.8403410939","0.4842684999","0.3833776697","0.9310361031","","","","","","","","76","L","3","","","52","main_expt",""
"","bandit","132","330207","0.0-93.0-0.0","72887333","wem/bandit_either_3","A1727A5VJOZAMR","either","8","1","","","","","","","0","1","0","","0.4356502318","0.2","0.8","0.4","0.6","0.8151983534","0.4412850773","0.4356502318","0.905794742","","","","","","","","","","","","75","K","2","","","53","main_expt",""
"","bandit","133","331744","0.0-94.0-0.0","72887333","wem/bandit_either_3","A1727A5VJOZAMR","either","8","0","","","","","","","1","0","0","0.4397693946","","0.2","0.8","0.4","0.6","","","","","0.8081222638","0.4397693946","0.4120588364","0.9391541593","","","","","","","","74","J","1","","","54","main_expt",""
"","bandit","134","333319","0.0-95.0-0.0","72887333","wem/bandit_either_3","A1727A5VJOZAMR","either","8","53","","","","","","","0","0","1","0.3928202278","","0.2","0.8","0.4","0.6","","","","","0.742009976","0.3928202278","0.2714296105","0.9596285882","","","","","","","","74","J","1","","","55","main_expt",""
"","bandit","135","334900","0.0-96.0-0.0","72887333","wem/bandit_either_3","A1727A5VJOZAMR","either","8","61","","","","","","","0","0","1","0.4593665993","","0.2","0.8","0.4","0.6","","","","","0.7065076074","0.4593665993","0.2122311877","0.9565658233","","","","","","","","74","J","1","","","56","main_expt",""
"","bandit","136","336426","0.0-97.0-0.0","72887333","wem/bandit_either_3","A1727A5VJOZAMR","either","8","1","","","","","","","0","1","0","","0.6860695476","0.2","0.8","0.4","0.6","0.6860695476","0.4006145211","0.2282278588","0.9681540372","","","","","","","","","","","","72","H","0","img/none_selected.jpg","","57","main_expt",""
"","bandit","137","338018","0.0-98.0-0.0","72887333","wem/bandit_either_3","A1727A5VJOZAMR","either","8","73","","","","","","","0","0","1","","0.742301155","0.2","0.8","0.4","0.6","0.742301155","0.4597890412","0.1392076118","0.9207083952","","","","","","","","","","","","72","H","0","img/none_selected.jpg","","58","main_expt",""
"","bandit","138","339620","0.0-99.0-0.0","72887333","wem/bandit_either_3","A1727A5VJOZAMR","either","8","73","","","","","","","0","0","1","","0.5291004622","0.2","0.8","0.4","0.6","0.5291004622","0.4232266093","0.1706239206","0.9178227258","","","","","","","","","","","","72","H","0","img/none_selected.jpg","","59","main_expt",""
"","bandit","139","341170","0.0-100.0-0.0","72887333","wem/bandit_either_3","A1727A5VJOZAMR","either","8","32","","","","","","","0","1","0","","0.6348838793","0.2","0.8","0.4","0.6","0.6348838793","0.3565880291","0.1674269281","0.8951285427","","","","","","","","","","","","72","H","0","img/none_selected.jpg","","60","main_expt",""
"","bandit","140","342712","0.0-101.0-0.0","72887333","wem/bandit_either_3","A1727A5VJOZAMR","either","8","30","","","","","","","1","0","0","0.8506814954","","0.2","0.8","0.4","0.6","","","","","0.6796423313","0.3663276413","0.2182313474","0.8506814954","","","","","","","","76","L","3","","","61","main_expt",""
"","bandit","141","344257","0.0-102.0-0.0","72887333","wem/bandit_either_3","A1727A5VJOZAMR","either","8","30","","","","","","","0","0","1","","0.2949218256","0.2","0.8","0.4","0.6","0.6928172916","0.3193005293","0.2949218256","0.8513854559","","","","","","","","","","","","75","K","2","","","62","main_expt",""
"","bandit","142","345802","0.0-103.0-0.0","72887333","wem/bandit_either_3","A1727A5VJOZAMR","either","8","21","","","","","","","0","0","1","0.1562068481","","0.2","0.8","0.4","0.6","","","","","0.6996506825","0.1562068481","0.3170222383","0.8927579502","","","","","","","","74","J","1","","","63","main_expt",""
"","bandit","143","347344","0.0-104.0-0.0","72887333","wem/bandit_either_3","A1727A5VJOZAMR","either","8","1","","","","","","","0","0","1","","0.7294442249","0.2","0.8","0.4","0.6","0.7294442249","0.2300477965","0.3033511374","0.9217936765","","","","","","","","","","","","72","H","0","img/none_selected.jpg","","64","main_expt",""
"","bandit","144","348871","0.0-105.0-0.0","72887333","wem/bandit_either_3","A1727A5VJOZAMR","either","8","0","","","","","","","1","0","0","0.9357047413","","0.2","0.8","0.4","0.6","","","","","0.6605354899","0.2869838185","0.3973690147","0.9357047413","","","","","","","","76","L","3","","","65","main_expt",""
"","bandit","145","350403","0.0-106.0-0.0","72887333","wem/bandit_either_3","A1727A5VJOZAMR","either","8","0","","","","","","","0","1","0","","0.4320294497","0.2","0.8","0.4","0.6","0.6959621059","0.3287476356","0.4320294497","0.910343843","","","","","","","","","","","","75","K","2","","","66","main_expt",""
"","bandit","146","351946","0.0-107.0-0.0","72887333","wem/bandit_either_3","A1727A5VJOZAMR","either","8","13","","","","","","","0","0","1","","0.3208465419","0.2","0.8","0.4","0.6","0.653899752","0.3018365728","0.3208465419","0.9022080512","","","","","","","","","","","","75","K","2","","","67","main_expt",""
"","bandit","147","353489","0.0-108.0-0.0","72887333","wem/bandit_either_3","A1727A5VJOZAMR","either","8","21","","","","","","","0","0","1","0.3208616414","","0.2","0.8","0.4","0.6","","","","","0.6517851336","0.3208616414","0.3570730799","0.8492414063","","","","","","","","74","J","1","","","68","main_expt",""
"","bandit","148","355076","0.0-109.0-0.0","72887333","wem/bandit_either_3","A1727A5VJOZAMR","either","8","64","","","","","","","1","0","0","0.386863802","","0.2","0.8","0.4","0.6","","","","","0.7011615004","0.386863802","0.3451514791","0.768219052","","","","","","","","74","J","1","","","69","main_expt",""
"","bandit","149","356665","0.0-110.0-0.0","72887333","wem/bandit_either_3","A1727A5VJOZAMR","either","8","61","","","","","","","1","0","0","0.3628244161","","0.2","0.8","0.4","0.6","","","","","0.6278947594","0.3628244161","0.3127714871","0.7996218848","","","","","","","","74","J","1","","","70","main_expt",""
"","bandit","150","358203","0.0-111.0-0.0","72887333","wem/bandit_either_3","A1727A5VJOZAMR","either","8","0","","","","","","","0","1","0","","0.688517509","0.2","0.8","0.4","0.6","0.688517509","0.2969295023","0.3855297895","0.9130189757","","","","","","","","","","","","72","H","0","img/none_selected.jpg","","71","main_expt",""
"","bandit","151","359795","0.0-112.0-0.0","72887333","wem/bandit_either_3","A1727A5VJOZAMR","either","8","64","","","","","","","0","0","1","","0.6125440106","0.2","0.8","0.4","0.6","0.6125440106","0.3512325323","0.3555010044","0.9016843832","","","","","","","","","","","","72","H","0","img/none_selected.jpg","","72","main_expt",""
"","bandit","152","361331","0.0-113.0-0.0","72887333","wem/bandit_either_3","A1727A5VJOZAMR","either","8","2","","","","","","","0","0","1","0.9166584401","","0.2","0.8","0.4","0.6","","","","","0.4884410468","0.3845321254","0.3278360739","0.9166584401","","","","","","","","76","L","3","","","73","main_expt",""
"","bandit","153","362865","0.0-114.0-0.0","72887333","wem/bandit_either_3","A1727A5VJOZAMR","either","8","12","","","","","","","0","0","1","","0.3275161349","0.2","0.8","0.4","0.6","0.5800760741","0.3760614253","0.3275161349","0.8699410266","","","","","","","","","","","","75","K","2","","","74","main_expt",""
"","bandit","154","364388","0.0-115.0-0.0","72887333","wem/bandit_either_3","A1727A5VJOZAMR","either","8","0","","","","","","","0","1","0","","0.6614390465","0.2","0.8","0.4","0.6","0.6614390465","0.370831352","0.3454333807","0.8192171788","","","","","","","","","","","","72","H","0","img/none_selected.jpg","","75","main_expt",""
"","bandit","155","365913","0.0-116.0-0.0","72887333","wem/bandit_either_3","A1727A5VJOZAMR","either","8","2","","","","","","","0","0","1","","0.4213924804","0.2","0.8","0.4","0.6","0.6861570843","0.4008199491","0.4213924804","0.8990587115","","","","","","","","","","","","75","K","2","","","76","main_expt",""
"","bandit","156","367451","0.0-117.0-0.0","72887333","wem/bandit_either_3","A1727A5VJOZAMR","either","8","2","","","","","","","0","0","1","","0.5980737028","0.2","0.8","0.4","0.6","0.5980737028","0.3928984844","0.439510692","0.9062137116","","","","","","","","","","","","72","H","0","img/none_selected.jpg","","77","main_expt",""
"","bandit","157","369027","0.0-118.0-0.0","72887333","wem/bandit_either_3","A1727A5VJOZAMR","either","8","49","","","","","","","1","0","0","0.6754083514","","0.2","0.8","0.4","0.6","","","","","0.6754083514","0.4709058574","0.4419424199","0.9215914722","","","","","","","","72","H","0","img/none_selected.jpg","","78","main_expt",""
"","bandit","158","370625","0.0-119.0-0.0","72887333","wem/bandit_either_3","A1727A5VJOZAMR","either","8","74","","","","","","","0","0","1","","0.7012934339","0.2","0.8","0.4","0.6","0.7012934339","0.4971614577","0.5056762283","0.895443078","","","","","","","","","","","","72","H","0","img/none_selected.jpg","","79","main_expt",""
"","bandit","159","372212","0.0-120.0-0.0","72887333","wem/bandit_either_3","A1727A5VJOZAMR","either","8","70","","","","","","","0","0","1","0.7067798052","","0.2","0.8","0.4","0.6","","","","","0.7067798052","0.4828267768","0.4558190996","0.7789772955","","","","","","","","72","H","0","img/none_selected.jpg","","80","main_expt",""
"","bandit","160","373805","0.0-121.0-0.0","72887333","wem/bandit_either_3","A1727A5VJOZAMR","either","8","66","","","","","","","0","1","0","","0.7259433061","0.2","0.8","0.4","0.6","0.7259433061","0.4280570329","0.4774921548","0.755426824","","","","","","","","","","","","72","H","0","img/none_selected.jpg","","81","main_expt",""
"","bandit","161","375378","0.0-122.0-0.0","72887333","wem/bandit_either_3","A1727A5VJOZAMR","either","8","36","","","","","","","0","1","0","","0.7022130872","0.2","0.8","0.4","0.6","0.7022130872","0.486136241","0.3611036613","0.8356426425","","","","","","","","","","","","72","H","0","img/none_selected.jpg","","82","main_expt",""
"","bandit","162","376965","0.0-123.0-0.0","72887333","wem/bandit_either_3","A1727A5VJOZAMR","either","8","53","","","","","","","0","0","1","","0.75927227","0.2","0.8","0.4","0.6","0.75927227","0.3539143083","0.3341354767","0.8783145762","","","","","","","","","","","","72","H","0","img/none_selected.jpg","","83","main_expt",""
"","bandit","163","378488","0.0-124.0-0.0","72887333","wem/bandit_either_3","A1727A5VJOZAMR","either","8","1","","","","","","","1","0","0","0.9087743635","","0.2","0.8","0.4","0.6","","","","","0.8556046088","0.374811954","0.288479151","0.9087743635","","","","","","","","76","L","3","","","84","main_expt",""
"","bandit","164","380077","0.0-125.0-0.0","72887333","wem/bandit_either_3","A1727A5VJOZAMR","either","8","54","","","","","","","0","0","1","0.8632011641","","0.2","0.8","0.4","0.6","","","","","0.7835234447","0.4518264681","0.3061923995","0.8632011641","","","","","","","","76","L","3","","","85","main_expt",""
"","bandit","165","381599","0.0-126.0-0.0","72887333","wem/bandit_either_3","A1727A5VJOZAMR","either","8","1","","","","","","","1","0","0","0.3370204437","","0.2","0.8","0.4","0.6","","","","","0.7037548709","0.461936863","0.3370204437","0.8341253046","","","","","","","","75","K","2","","","86","main_expt",""
"","bandit","166","383154","0.0-127.0-0.0","72887333","wem/bandit_either_3","A1727A5VJOZAMR","either","8","35","","","","","","","0","0","1","0.3900809043","","0.2","0.8","0.4","0.6","","","","","0.6903674631","0.3681660755","0.3900809043","0.8728746981","","","","","","","","75","K","2","","","87","main_expt",""
"","bandit","167","384758","0.0-128.0-0.0","72887333","wem/bandit_either_3","A1727A5VJOZAMR","either","8","70","","","","","","","0","0","1","","0.3788462328","0.2","0.8","0.4","0.6","0.5883284312","0.3788462328","0.4296615172","0.8408980459","","","","","","","","","","","","74","J","1","","","88","main_expt",""
"","bandit","168","386288","0.0-129.0-0.0","72887333","wem/bandit_either_3","A1727A5VJOZAMR","either","8","0","","","","","","","1","0","0","0.5258490985","","0.2","0.8","0.4","0.6","","","","","0.5258490985","0.3316952272","0.4636560077","0.8585781628","","","","","","","","72","H","0","img/none_selected.jpg","","89","main_expt",""
"","bandit","169","387811","0.0-130.0-0.0","72887333","wem/bandit_either_3","A1727A5VJOZAMR","either","8","1","","","","","","","1","0","0","0.925840658","","0.2","0.8","0.4","0.6","","","","","0.6395041767","0.438068917","0.4463585346","0.925840658","","","","","","","","76","L","3","","","90","main_expt",""
"","bandit","170","389349","0.0-131.0-0.0","72887333","wem/bandit_either_3","A1727A5VJOZAMR","either","8","13","","","","","","","0","1","0","","0.4734463503","0.2","0.8","0.4","0.6","0.6931091445","0.5158843935","0.4734463503","0.9201841885","","","","","","","","","","","","75","K","2","","","91","main_expt",""
"","bandit","171","390946","0.0-132.0-0.0","72887333","wem/bandit_either_3","A1727A5VJOZAMR","either","8","70","","","","","","","0","1","0","","0.5182757575","0.2","0.8","0.4","0.6","0.6725373887","0.5182757575","0.5248255385","0.8508076908","","","","","","","","","","","","74","J","1","","","92","main_expt",""
"","bandit","172","392531","0.0-133.0-0.0","72887333","wem/bandit_either_3","A1727A5VJOZAMR","either","8","62","","","","","","","0","0","1","0.5498130742","","0.2","0.8","0.4","0.6","","","","","0.7388835399","0.5498130742","0.3386726181","0.8106711147","","","","","","","","74","J","1","","","93","main_expt",""
"","bandit","173","394083","0.0-134.0-0.0","72887333","wem/bandit_either_3","A1727A5VJOZAMR","either","8","32","","","","","","","0","0","1","","0.697373586","0.2","0.8","0.4","0.6","0.697373586","0.6049407638","0.3718894848","0.8543263914","","","","","","","","","","","","72","H","0","img/none_selected.jpg","","94","main_expt",""
"","bandit","174","395607","0.0-135.0-0.0","72887333","wem/bandit_either_3","A1727A5VJOZAMR","either","8","3","","","","","","","0","1","0","","0.8387782901","0.2","0.8","0.4","0.6","0.7550322224","0.6604115927","0.4005278521","0.8387782901","","","","","","","","","","","","76","L","3","","","95","main_expt",""
"","bandit","175","397145","0.0-136.0-0.0","72887333","wem/bandit_either_3","A1727A5VJOZAMR","either","8","2","","","","","","","0","1","0","","0.3694595514","0.2","0.8","0.4","0.6","0.6576962358","0.7003847986","0.3694595514","0.8208071174","","","","","","","","","","","","75","K","2","","","96","main_expt",""
"","bandit","176","398700","0.0-137.0-0.0","72887333","wem/bandit_either_3","A1727A5VJOZAMR","either","8","25","","","","","","","1","0","0","0.6793148949","","0.2","0.8","0.4","0.6","","","","","0.6802484638","0.6793148949","0.3186037095","0.765358829","","","","","","","","74","J","1","","","97","main_expt",""
"","bandit","177","400239","0.0-138.0-0.0","72887333","wem/bandit_either_3","A1727A5VJOZAMR","either","8","0","","","","","","","0","1","0","","0.7042077447","0.2","0.8","0.4","0.6","0.7042077447","0.6204607354","0.2786717818","0.7823463211","","","","","","","","","","","","72","H","0","img/none_selected.jpg","","98","main_expt",""
"","bandit","178","401779","0.0-139.0-0.0","72887333","wem/bandit_either_3","A1727A5VJOZAMR","either","8","23","","","","","","","0","0","1","","0.7355617892","0.2","0.8","0.4","0.6","0.7355617892","0.6166262367","0.32929866","0.7523003034","","","","","","","","","","","","72","H","0","img/none_selected.jpg","","99","main_expt",""
"","bandit","179","403375","0.0-140.0-0.0","72887333","wem/bandit_either_3","A1727A5VJOZAMR","either","8","72","","","","","","","0","0","1","","0.7117411671","0.2","0.8","0.4","0.6","0.7117411671","0.5347115766","0.3115323478","0.7174790615","","","","","","","","","","","","72","H","0","img/none_selected.jpg","","100","main_expt",""
"","bandit","180","404958","0.0-141.0-0.0","72887333","wem/bandit_either_3","A1727A5VJOZAMR","either","8","57","","","","","","","1","0","0","0.7263903312","","0.2","0.8","0.4","0.6","","","","","0.7263903312","0.3418016043","0.4221749579","0.7660578318","","","","","","","","72","H","0","img/none_selected.jpg","","101","main_expt",""
"","bandit","181","406562","0.0-142.0-0.0","72887333","wem/bandit_either_3","A1727A5VJOZAMR","either","8","73","","","","","","","1","0","0","0.7357346189","","0.2","0.8","0.4","0.6","","","","","0.7357346189","0.2550922237","0.2718078598","0.7201180075","","","","","","","","72","H","0","img/none_selected.jpg","","102","main_expt",""
"","bandit","182","408143","0.0-143.0-0.0","72887333","wem/bandit_either_3","A1727A5VJOZAMR","either","8","52","","","","","","","0","1","0","","0.7026134783","0.2","0.8","0.4","0.6","0.7026134783","0.3181696353","0.3011307106","0.8452780714","","","","","","","","","","","","72","H","0","img/none_selected.jpg","","103","main_expt",""
"","bandit","183","409687","0.0-144.0-0.0","72887333","wem/bandit_either_3","A1727A5VJOZAMR","either","8","21","","","","","","","1","0","0","0.7236924273","","0.2","0.8","0.4","0.6","","","","","0.8073666152","0.3383579412","0.3659291838","0.7236924273","","","","","","","","76","L","3","","","104","main_expt",""
"","bandit","184","411241","0.0-145.0-0.0","72887333","wem/bandit_either_3","A1727A5VJOZAMR","either","8","32","","","","","","","0","0","1","0.3499435223","","0.2","0.8","0.4","0.6","","","","","0.824483439","0.2354673658","0.3499435223","0.743719778","","","","","","","","75","K","2","","","105","main_expt",""
"","bandit","185","412783","0.0-146.0-0.0","72887333","wem/bandit_either_3","A1727A5VJOZAMR","either","8","2","","","","","","","0","0","1","0.159398249","","0.2","0.8","0.4","0.6","","","","","0.9208810438","0.159398249","0.3602262465","0.7985687284","","","","","","","","74","J","1","","","106","main_expt",""
"","bandit","186","414373","0.0-147.0-0.0","72887333","wem/bandit_either_3","A1727A5VJOZAMR","either","8","47","","","","","","","0","0","1","","0.1295169146","0.2","0.8","0.4","0.6","0.8911910097","0.1295169146","0.3252215163","0.799345197","","","","","","","","","","","","74","J","1","","","107","main_expt",""
"","bandit","187","415936","0.0-148.0-0.0","72887333","wem/bandit_either_3","A1727A5VJOZAMR","either","8","46","","","","","","","0","0","1","0.07754053308","","0.2","0.8","0.4","0.6","","","","","0.8450149587","0.07754053308","0.2812406992","0.8681690713","","","","","","","","74","J","1","","","108","main_expt",""
"","bandit","188","417466","0.0-149.0-0.0","72887333","wem/bandit_either_3","A1727A5VJOZAMR","either","8","11","","","","","","","0","1","0","","0.868327257","0.2","0.8","0.4","0.6","0.868327257","0.06591215473","0.2559497519","0.8556732204","","","","","","","","","","","","72","H","0","img/none_selected.jpg","","109","main_expt",""
"","bandit","189","418989","0.0-150.0-0.0","72887333","wem/bandit_either_3","A1727A5VJOZAMR","either","8","1","","","","","","","1","0","0","0.2817400418","","0.2","0.8","0.4","0.6","","","","","0.8868335222","0.1189546392","0.2817400418","0.8669893864","","","","","","","","75","K","2","","","110","main_expt",""
"","bandit","190","420525","0.0-151.0-0.0","72887333","wem/bandit_either_3","A1727A5VJOZAMR","either","8","1","","","","","","","0","0","1","0.09523351692","","0.2","0.8","0.4","0.6","","","","","0.8770728171","0.09523351692","0.2773620367","0.799383849","","","","","","","","74","J","1","","","111","main_expt",""
"","bandit","191","422039","0.0-152.0-0.0","72887333","wem/bandit_either_3","A1727A5VJOZAMR","either","8","0","","","","","","","1","0","0","0.8481710002","","0.2","0.8","0.4","0.6","","","","","0.8481710002","0.107489667","0.2833316415","0.859799476","","","","","","","","72","H","0","img/none_selected.jpg","","112","main_expt",""
"","bandit","192","423579","0.0-153.0-0.0","72887333","wem/bandit_either_3","A1727A5VJOZAMR","either","8","20","","","","","","","0","0","1","0.7932436089","","0.2","0.8","0.4","0.6","","","","","0.8573528835","0.1026187258","0.3433702059","0.7932436089","","","","","","","","76","L","3","","","113","main_expt",""
"","bandit","193","425106","0.0-154.0-0.0","72887333","wem/bandit_either_3","A1727A5VJOZAMR","either","8","12","","","","","","","0","1","0","","0.4828882278","0.2","0.8","0.4","0.6","0.8291807482","0.1044839951","0.4828882278","0.849407262","","","","","","","","","","","","75","K","2","","","114","main_expt",""
"","bandit","194","426637","0.0-155.0-0.0","72887333","wem/bandit_either_3","A1727A5VJOZAMR","either","8","2","","","","","","","0","0","1","0.1213931844","","0.2","0.8","0.4","0.6","","","","","0.761972944","0.1213931844","0.54932579","0.8882716547","","","","","","","","74","J","1","","","115","main_expt",""
"","bandit","195","428162","0.0-156.0-0.0","72887333","wem/bandit_either_3","A1727A5VJOZAMR","either","8","1","","","","","","","0","0","1","","0.786197192","0.2","0.8","0.4","0.6","0.786197192","0.1184144227","0.6971345968","0.8741354715","","","","","","","","","","","","72","H","0","img/none_selected.jpg","","116","main_expt",""
"","bandit","196","429730","0.0-157.0-0.0","72887333","wem/bandit_either_3","A1727A5VJOZAMR","either","8","43","","","","","","","0","1","0","","0.7834453561","0.2","0.8","0.4","0.6","0.7834453561","0.1983931569","0.5396272374","0.8083823922","","","","","","","","","","","","72","H","0","img/none_selected.jpg","","117","main_expt",""
"","bandit","197","431298","0.0-158.0-0.0","72887333","wem/bandit_either_3","A1727A5VJOZAMR","either","8","48","","","","","","","0","0","1","","0.6742380839","0.2","0.8","0.4","0.6","0.6742380839","0.2840039584","0.5544567993","0.868525306","","","","","","","","","","","","72","H","0","img/none_selected.jpg","","118","main_expt",""
"","bandit","198","432823","0.0-159.0-0.0","72887333","wem/bandit_either_3","A1727A5VJOZAMR","either","8","10","","","","","","","0","1","0","","0.8386471998","0.2","0.8","0.4","0.6","0.7350700153","0.3563325119","0.5504896642","0.8386471998","","","","","","","","","","","","76","L","3","","","119","main_expt",""
"","bandit","199","434353","0.0-160.0-0.0","72887333","wem/bandit_either_3","A1727A5VJOZAMR","either","8","14","","","","","","","1","0","0","0.5812137135","","0.2","0.8","0.4","0.6","","","","","0.70601835","0.5682387565","0.5812137135","0.8103559508","","","","","","","","75","K","2","","","120","main_expt",""
"","bandit","200","435932","0.0-161.0-0.0","72887333","wem/bandit_either_3","A1727A5VJOZAMR","either","8","51","","","","","","","0","0","1","0.5189107771","","0.2","0.8","0.4","0.6","","","","","0.7347719752","0.5189107771","0.6033058466","0.8193015173","","","","","","","","74","J","1","","","121","main_expt",""
"","bandit","201","437459","0.0-162.0-0.0","72887333","wem/bandit_either_3","A1727A5VJOZAMR","either","8","0","","","","","","","0","1","0","","0.8270923978","0.2","0.8","0.4","0.6","0.8270923978","0.4428493372","0.6102220397","0.8025146027","","","","","","","","","","","","72","H","0","img/none_selected.jpg","","122","main_expt",""
"","bandit","202","439039","0.0-163.0-0.0","72887333","wem/bandit_either_3","A1727A5VJOZAMR","either","8","36","","","","","","","0","1","0","","0.7980631313","0.2","0.8","0.4","0.6","0.7980631313","0.472724465","0.6108151959","0.8121847492","","","","","","","","","","","","72","H","0","img/none_selected.jpg","","123","main_expt",""
"","bandit","203","440595","0.0-164.0-0.0","72887333","wem/bandit_either_3","A1727A5VJOZAMR","either","8","36","","","","","","","0","1","0","","0.7369852887","0.2","0.8","0.4","0.6","0.7369852887","0.4799585558","0.7117385939","0.8299418439","","","","","","","","","","","","72","H","0","img/none_selected.jpg","","124","main_expt",""
"","bandit","204","442155","0.0-165.0-0.0","72887333","wem/bandit_either_3","A1727A5VJOZAMR","either","8","40","","","","","","","0","1","0","","0.825688343","0.2","0.8","0.4","0.6","0.7465944313","0.5080184993","0.7554186078","0.825688343","","","","","","","","","","","","76","L","3","","","125","main_expt",""
"","bandit","205","443729","0.0-166.0-0.0","72887333","wem/bandit_either_3","A1727A5VJOZAMR","either","8","45","","","","","","","1","0","0","0.4555098289","","0.2","0.8","0.4","0.6","","","","","0.7596834852","0.4555098289","0.8855751833","0.8372054396","","","","","","","","74","J","1","","","126","main_expt",""
"","bandit","206","445256","0.0-167.0-0.0","72887333","wem/bandit_either_3","A1727A5VJOZAMR","either","8","2","","","","","","","1","0","0","0.7398299979","","0.2","0.8","0.4","0.6","","","","","0.7398299979","0.5475411796","0.8003015049","0.7906689898","","","","","","","","72","H","0","img/none_selected.jpg","","127","main_expt",""
"","bandit","207","446809","0.0-168.0-0.0","72887333","wem/bandit_either_3","A1727A5VJOZAMR","either","8","35","","","","","","","0","1","0","","0.7764866849","0.2","0.8","0.4","0.6","0.7764866849","0.612647382","0.8403113951","0.8008571507","","","","","","","","","","","","72","H","0","img/none_selected.jpg","","128","main_expt",""
"","bandit","208","448409","0.0-169.0-0.0","72887333","wem/bandit_either_3","A1727A5VJOZAMR","either","8","70","","","","","","","0","0","1","0.6435675963","","0.2","0.8","0.4","0.6","","","","","0.6435675963","0.7128970287","0.8826872071","0.7829297973","","","","","","","","72","H","0","img/none_selected.jpg","","129","main_expt",""
"","bandit","209","450008","0.0-170.0-0.0","72887333","wem/bandit_either_3","A1727A5VJOZAMR","either","8","72","","","","","","","0","1","0","","0.7030252038","0.2","0.8","0.4","0.6","0.7030252038","0.7309911721","0.8641000085","0.6898445721","","","","","","","","","","","","72","H","0","img/none_selected.jpg","","130","main_expt",""
"","bandit","210","451564","0.0-171.0-0.0","72887333","wem/bandit_either_3","A1727A5VJOZAMR","either","8","34","","","","","","","1","0","0","0.6829232191","","0.2","0.8","0.4","0.6","","","","","0.6829232191","0.73180147","0.8752037592","0.5864867529","","","","","","","","72","H","0","img/none_selected.jpg","","131","main_expt",""
"","bandit","211","453085","0.0-172.0-0.0","72887333","wem/bandit_either_3","A1727A5VJOZAMR","either","8","2","","","","","","","0","0","1","0.560122833","","0.2","0.8","0.4","0.6","","","","","0.7406452387","0.8467134838","0.8279556795","0.560122833","","","","","","","","76","L","3","","","132","main_expt",""
"","bandit","212","454658","0.0-173.0-0.0","72887333","wem/bandit_either_3","A1727A5VJOZAMR","either","8","44","","","","","","","0","1","0","","0.48439517","0.2","0.8","0.4","0.6","0.6666234363","0.8481264083","0.8194722428","0.48439517","","","","","","","","","","","","76","L","3","","","133","main_expt",""
"","bandit","213","456188","0.0-174.0-0.0","72887333","wem/bandit_either_3","A1727A5VJOZAMR","either","8","2","","","","","","","0","1","0","","0.8037084922","0.2","0.8","0.4","0.6","0.680542061","0.8771050955","0.8037084922","0.3919863126","","","","","","","","","","","","75","K","2","","","134","main_expt",""
"","bandit","214","457728","0.0-175.0-0.0","72887333","wem/bandit_either_3","A1727A5VJOZAMR","either","8","23","","","","","","","1","0","0","0.9103241533","","0.2","0.8","0.4","0.6","","","","","0.7006187635","0.9103241533","0.8155916457","0.5174750093","","","","","","","","74","J","1","","","135","main_expt",""
"","bandit","215","459268","0.0-176.0-0.0","72887333","wem/bandit_either_3","A1727A5VJOZAMR","either","8","0","","","","","","","0","1","0","","0.6936815578","0.2","0.8","0.4","0.6","0.6936815578","0.9126032517","0.8281957705","0.4264762493","","","","","","","","","","","","72","H","0","img/none_selected.jpg","","136","main_expt",""
"","bandit","216","460809","0.0-177.0-0.0","72887333","wem/bandit_either_3","A1727A5VJOZAMR","either","8","26","","","","","","","0","1","0","","0.6531428085","0.2","0.8","0.4","0.6","0.6531428085","0.8983360858","0.7055403129","0.5351999402","","","","","","","","","","","","72","H","0","img/none_selected.jpg","","137","main_expt",""
"","bandit","217","462375","0.0-178.0-0.0","72887333","wem/bandit_either_3","A1727A5VJOZAMR","either","8","46","","","","","","","1","0","0","0.4758748922","","0.2","0.8","0.4","0.6","","","","","0.6769758131","0.8851370462","0.6884351598","0.4758748922","","","","","","","","76","L","3","","","138","main_expt",""
"","bandit","218","463912","0.0-179.0-0.0","72887333","wem/bandit_either_3","A1727A5VJOZAMR","either","8","14","","","","","","","0","0","1","","0.6090423031","0.2","0.8","0.4","0.6","0.7649589049","0.8662270416","0.6090423031","0.4039793023","","","","","","","","","","","","75","K","2","","","139","main_expt",""
"","bandit","219","465440","0.0-180.0-0.0","72887333","wem/bandit_either_3","A1727A5VJOZAMR","either","8","9","","","","","","","0","0","1","0.8345767194","","0.2","0.8","0.4","0.6","","","","","0.7674202191","0.8345767194","0.7000077187","0.384774136","","","","","","","","74","J","1","","","140","main_expt",""
"","bandit","220","467031","0.0-181.0-0.0","72887333","wem/bandit_either_3","A1727A5VJOZAMR","either","8","69","","","","","","","1","0","0","0.8783670964","","0.2","0.8","0.4","0.6","","","","","0.8575114448","0.8783670964","0.6643185619","0.327254859","","","","","","","","74","J","1","","","141","main_expt",""
"","bandit","221","468568","0.0-182.0-0.0","72887333","wem/bandit_either_3","A1727A5VJOZAMR","either","8","9","","","","","","","0","1","0","","0.8134430427","0.2","0.8","0.4","0.6","0.8134430427","0.8895828315","0.7079845674","0.4536641492","","","","","","","","","","","","72","H","0","img/none_selected.jpg","","142","main_expt",""
"","bandit","222","470144","0.0-183.0-0.0","72887333","wem/bandit_either_3","A1727A5VJOZAMR","either","8","50","","","","","","","0","1","0","","0.8345505038","0.2","0.8","0.4","0.6","0.8345505038","0.9053928798","0.6624187643","0.4348486293","","","","","","","","","","","","72","H","0","img/none_selected.jpg","","143","main_expt",""
"","bandit","223","471684","0.0-184.0-0.0","72887333","wem/bandit_either_3","A1727A5VJOZAMR","either","8","0","","","","","","","0","0","1","0.4086594597","","0.2","0.8","0.4","0.6","","","","","0.7482817554","0.9033088386","0.6779247185","0.4086594597","","","","","","","","76","L","3","","","144","main_expt",""
"","bandit","224","473200","0.0-185.0-0.0","72887333","wem/bandit_either_3","A1727A5VJOZAMR","either","8","1","","","","","","","0","1","0","","0.7216102374","0.2","0.8","0.4","0.6","0.7400387939","0.8572864227","0.7216102374","0.4420772456","","","","","","","","","","","","75","K","2","","","145","main_expt",""
"","bandit","225","474783","0.0-186.0-0.0","72887333","wem/bandit_either_3","A1727A5VJOZAMR","either","8","49","","","","","","","1","0","0","0.7837267619","","0.2","0.8","0.4","0.6","","","","","0.795971973","0.8687508917","0.7837267619","0.508741462","","","","","","","","75","K","2","","","146","main_expt",""
"","bandit","226","476342","0.0-187.0-0.0","72887333","wem/bandit_either_3","A1727A5VJOZAMR","either","8","31","","","","","","","0","0","1","0.8657621525","","0.2","0.8","0.4","0.6","","","","","0.7503502301","0.8657621525","0.7652264833","0.4624398998","","","","","","","","74","J","1","","","147","main_expt",""
"","bandit","227","477874","0.0-188.0-0.0","72887333","wem/bandit_either_3","A1727A5VJOZAMR","either","8","1","","","","","","","0","1","0","","0.8200474043","0.2","0.8","0.4","0.6","0.8200474043","0.8362891365","0.7358716413","0.4062589849","","","","","","","","","","","","72","H","0","img/none_selected.jpg","","148","main_expt",""
"","bandit","228","479410","0.0-189.0-0.0","72887333","wem/bandit_either_3","A1727A5VJOZAMR","either","8","0","","","","","","","0","0","1","","0.4895331913","0.2","0.8","0.4","0.6","0.8509010271","0.8144386017","0.7129200786","0.4895331913","","","","","","","","","","","","76","L","3","","","149","main_expt",""
"","bandit","229","480957","0.0-190.0-0.0","72887333","wem/bandit_either_3","A1727A5VJOZAMR","either","8","5","","","","","","","0","1","0","","0.705531668","0.2","0.8","0.4","0.6","0.8298908313","0.6948055455","0.705531668","0.4704746919","","","","","","","","","","","","75","K","2","","","150","main_expt",""
"","bandit","230","482494","0.0-191.0-0.0","72887333","wem/bandit_either_3","A1727A5VJOZAMR","either","8","0","","","","","","","1","0","0","0.6231991314","","0.2","0.8","0.4","0.6","","","","","0.7362749002","0.6231991314","0.5744604188","0.4725745774","","","","","","","","74","J","1","","","151","main_expt",""
"","bandit","231","484040","0.0-192.0-0.0","72887333","wem/bandit_either_3","A1727A5VJOZAMR","either","8","29","","","","","","","0","1","0","","0.7045057733","0.2","0.8","0.4","0.6","0.7601791643","0.7045057733","0.5372669321","0.4943906398","","","","","","","","","","","","74","J","1","","","152","main_expt",""
"","bandit","232","485659","0.0-193.0-0.0","72887333","wem/bandit_either_3","A1727A5VJOZAMR","either","8","86","","","","","","","1","0","0","0.5331338622","","0.2","0.8","0.4","0.6","","","","","0.7590648118","0.5331338622","0.5447545218","0.4639524782","","","","","","","","74","J","1","","","153","main_expt",""
"","bandit","233","487189","0.0-194.0-0.0","72887333","wem/bandit_either_3","A1727A5VJOZAMR","either","8","0","","","","","","","1","0","0","0.7805387907","","0.2","0.8","0.4","0.6","","","","","0.7805387907","0.5096720896","0.4191749193","0.3935792086","","","","","","","","72","H","0","img/none_selected.jpg","","154","main_expt",""
"","bandit","234","488808","0.0-195.0-0.0","72887333","wem/bandit_either_3","A1727A5VJOZAMR","either","8","89","","","","","","","0","1","0","","0.8450805748","0.2","0.8","0.4","0.6","0.8450805748","0.4719011365","0.4269770229","0.4127348605","","","","","","","","","","","","72","H","0","img/none_selected.jpg","","155","main_expt",""
"","bandit","235","490374","0.0-196.0-0.0","72887333","wem/bandit_either_3","A1727A5VJOZAMR","either","8","33","","","","","","","0","0","1","","0.8513110265","0.2","0.8","0.4","0.6","0.8513110265","0.5818713095","0.4589862704","0.3697675558","","","","","","","","","","","","72","H","0","img/none_selected.jpg","","156","main_expt",""
"","bandit","236","491955","0.0-197.0-0.0","72887333","wem/bandit_either_3","A1727A5VJOZAMR","either","8","46","","","","","","","1","0","0","0.8226236001","","0.2","0.8","0.4","0.6","","","","","0.8226236001","0.5804022203","0.5370818316","0.3604398023","","","","","","","","72","H","0","img/none_selected.jpg","","157","main_expt",""
"","bandit","237","493494","0.0-198.0-0.0","72887333","wem/bandit_either_3","A1727A5VJOZAMR","either","8","5","","","","","","","1","0","0","0.4061750625","","0.2","0.8","0.4","0.6","","","","","0.8843141367","0.4773166223","0.4757376888","0.4061750625","","","","","","","","76","L","3","","","158","main_expt",""
"","bandit","238","495019","0.0-199.0-0.0","72887333","wem/bandit_either_3","A1727A5VJOZAMR","either","8","1","","","","","","","1","0","0","0.4887287223","","0.2","0.8","0.4","0.6","","","","","0.8078798749","0.419048585","0.4887287223","0.4696417586","","","","","","","","75","K","2","","","159","main_expt",""
"","bandit","239","496595","0.0-200.0-0.0","72887333","wem/bandit_either_3","A1727A5VJOZAMR","either","8","37","","","","","","","1","0","0","0.4672574386","","0.2","0.8","0.4","0.6","","","","","0.7689164465","0.4672574386","0.4588489809","0.4659569923","","","","","","","","74","J","1","","","160","main_expt",""
"","bandit","240","498208","0.0-201.0-0.0","72887333","wem/bandit_either_3","A1727A5VJOZAMR","either","8","75","","","","","","","1","0","0","0.5612985374","","0.2","0.8","0.4","0.6","","","","","0.7863156869","0.5612985374","0.4920004413","0.3947207546","","","","","","","","74","J","1","","","161","main_expt",""
"","bandit","241","499803","0.0-202.0-0.0","72887333","wem/bandit_either_3","A1727A5VJOZAMR","either","8","64","","","","","","","1","0","0","0.5288680036","","0.2","0.8","0.4","0.6","","","","","0.8098475403","0.5288680036","0.5389881207","0.2460097942","","","","","","","","74","J","1","","","162","main_expt",""
"","bandit","242","501340","0.0-203.0-0.0","72887333","wem/bandit_either_3","A1727A5VJOZAMR","either","8","0","","","","","","","0","1","0","","0.8222712862","0.2","0.8","0.4","0.6","0.8222712862","0.6096883849","0.6040136001","0.3603606056","","","","","","","","","","","","72","H","0","img/none_selected.jpg","","163","main_expt",""
"","bandit","243","502946","0.0-204.0-0.0","72887333","wem/bandit_either_3","A1727A5VJOZAMR","either","8","63","","","","","","","0","1","0","","0.7876031225","0.2","0.8","0.4","0.6","0.7876031225","0.4868922288","0.623756827","0.2507209727","","","","","","","","","","","","72","H","0","img/none_selected.jpg","","164","main_expt",""
"","bandit","244","504475","0.0-205.0-0.0","72887333","wem/bandit_either_3","A1727A5VJOZAMR","either","8","14","","","","","","","0","1","0","","0.2162043423","0.2","0.8","0.4","0.6","0.7435052823","0.4055552053","0.6164515281","0.2162043423","","","","","","","","","","","","76","L","3","","","165","main_expt",""
"","bandit","245","506000","0.0-206.0-0.0","72887333","wem/bandit_either_3","A1727A5VJOZAMR","either","8","6","","","","","","","0","0","1","","0.4660222187","0.2","0.8","0.4","0.6","0.6545739251","0.4748236382","0.4660222187","0.2573409732","","","","","","","","","","","","75","K","2","","","166","main_expt",""
"","bandit","246","507558","0.0-207.0-0.0","72887333","wem/bandit_either_3","A1727A5VJOZAMR","either","8","42","","","","","","","0","0","1","0.4725242185","","0.2","0.8","0.4","0.6","","","","","0.6645907447","0.4725242185","0.3336058786","0.4016088623","","","","","","","","74","J","1","","","167","main_expt",""
"","bandit","247","509143","0.0-208.0-0.0","72887333","wem/bandit_either_3","A1727A5VJOZAMR","either","8","61","","","","","","","1","0","0","0.4775208721","","0.2","0.8","0.4","0.6","","","","","0.7243751722","0.4775208721","0.2887723434","0.5522858252","","","","","","","","74","J","1","","","168","main_expt",""
"","bandit","248","510668","0.0-209.0-0.0","72887333","wem/bandit_either_3","A1727A5VJOZAMR","either","8","0","","","","","","","0","1","0","","0.6453105543","0.2","0.8","0.4","0.6","0.6453105543","0.4682732781","0.3357056981","0.5461138513","","","","","","","","","","","","72","H","0","img/none_selected.jpg","","169","main_expt",""
"","bandit","249","512200","0.0-210.0-0.0","72887333","wem/bandit_either_3","A1727A5VJOZAMR","either","8","0","","","","","","","1","0","0","0.4402798015","","0.2","0.8","0.4","0.6","","","","","0.5334010147","0.4246621539","0.4179693295","0.4402798015","","","","","","","","76","L","3","","","170","main_expt",""
"","bandit","250","513737","0.0-211.0-0.0","72887333","wem/bandit_either_3","A1727A5VJOZAMR","either","8","1","","","","","","","0","0","1","","0.3050406521","0.2","0.8","0.4","0.6","0.498122785","0.2843380906","0.3050406521","0.450294849","","","","","","","","","","","","75","K","2","","","171","main_expt",""
"","bandit","251","515315","0.0-212.0-0.0","72887333","wem/bandit_either_3","A1727A5VJOZAMR","either","8","40","","","","","","","0","0","1","0.3364500029","","0.2","0.8","0.4","0.6","","","","","0.4356988635","0.2668952485","0.3364500029","0.6475755847","","","","","","","","75","K","2","","","172","main_expt",""
"","bandit","252","516888","0.0-213.0-0.0","72887333","wem/bandit_either_3","A1727A5VJOZAMR","either","8","38","","","","","","","0","0","1","0.421339117","","0.2","0.8","0.4","0.6","","","","","0.3964199688","0.3802819164","0.421339117","0.6095255177","","","","","","","","75","K","2","","","173","main_expt",""
"","bandit","253","518428","0.0-214.0-0.0","72887333","wem/bandit_either_3","A1727A5VJOZAMR","either","8","1","","","","","","","1","0","0","0.4042455133","","0.2","0.8","0.4","0.6","","","","","0.3194345802","0.4042455133","0.4913704717","0.5003628493","","","","","","","","74","J","1","","","174","main_expt",""
"","bandit","254","520022","0.0-215.0-0.0","72887333","wem/bandit_either_3","A1727A5VJOZAMR","either","8","70","","","","","","","0","0","1","","0.4393989914","0.2","0.8","0.4","0.6","0.2865230234","0.4393989914","0.5882611891","0.5576212716","","","","","","","","","","","","74","J","1","","","175","main_expt",""
"","bandit","255","521595","0.0-216.0-0.0","72887333","wem/bandit_either_3","A1727A5VJOZAMR","either","8","36","","","","","","","0","0","1","0.4705173801","","0.2","0.8","0.4","0.6","","","","","0.3352692614","0.4705173801","0.6313830356","0.6230679906","","","","","","","","74","J","1","","","176","main_expt",""
"","bandit","256","523191","0.0-217.0-0.0","72887333","wem/bandit_either_3","A1727A5VJOZAMR","either","8","65","","","","","","","1","0","0","0.4698597734","","0.2","0.8","0.4","0.6","","","","","0.3389264817","0.4698597734","0.5531265137","0.6501784685","","","","","","","","74","J","1","","","177","main_expt",""
"","bandit","257","524709","0.0-218.0-0.0","72887333","wem/bandit_either_3","A1727A5VJOZAMR","either","8","1","","","","","","","0","0","1","0.3709673039","","0.2","0.8","0.4","0.6","","","","","0.3709673039","0.3570804947","0.4621004187","0.6334155083","","","","","","","","72","H","0","img/none_selected.jpg","","178","main_expt",""
"","bandit","258","526290","0.0-219.0-0.0","72887333","wem/bandit_either_3","A1727A5VJOZAMR","either","8","50","","","","","","","0","0","1","","0.2940579202","0.2","0.8","0.4","0.6","0.2940579202","0.3441184995","0.512884041","0.7548338289","","","","","","","","","","","","72","H","0","img/none_selected.jpg","","179","main_expt",""
"","bandit","259","527868","0.0-220.0-0.0","72887333","wem/bandit_either_3","A1727A5VJOZAMR","either","8","44","","","","","","","0","0","1","0.3218724025","","0.2","0.8","0.4","0.6","","","","","0.3218724025","0.3646136501","0.506744284","0.8074073351","","","","","","","","72","H","0","img/none_selected.jpg","","180","main_expt",""
"","bandit","260","529471","0.0-221.0-0.0","72887333","wem/bandit_either_3","A1727A5VJOZAMR","either","8","70","","","","","","","0","1","0","","0.3633286182","0.2","0.8","0.4","0.6","0.3633286182","0.3777688814","0.4556494723","0.780721516","","","","","","","","","","","","72","H","0","img/none_selected.jpg","","181","main_expt",""
"","bandit","261","531020","0.0-222.0-0.0","72887333","wem/bandit_either_3","A1727A5VJOZAMR","either","8","0","","","","","","","0","0","1","","0.7647415088","0.2","0.8","0.4","0.6","0.3324048704","0.4578236703","0.4494525508","0.7647415088","","","","","","","","","","","","76","L","3","","","182","main_expt",""
"","bandit","262","532555","0.0-223.0-0.0","72887333","wem/bandit_either_3","A1727A5VJOZAMR","either","8","9","","","","","","","0","1","0","","0.7349307529","0.2","0.8","0.4","0.6","0.3092830871","0.4244895098","0.5189143621","0.7349307529","","","","","","","","","","","","76","L","3","","","183","main_expt",""
"","bandit","263","534105","0.0-224.0-0.0","72887333","wem/bandit_either_3","A1727A5VJOZAMR","either","8","17","","","","","","","0","1","0","","0.5167606333","0.2","0.8","0.4","0.6","0.3905692936","0.3566779322","0.5167606333","0.8298088288","","","","","","","","","","","","75","K","2","","","184","main_expt",""
"","bandit","264","535638","0.0-225.0-0.0","72887333","wem/bandit_either_3","A1727A5VJOZAMR","either","8","2","","","","","","","0","1","0","","0.3737416658","0.2","0.8","0.4","0.6","0.4626192444","0.3737416658","0.5270237034","0.7894193193","","","","","","","","","","","","74","J","1","","","185","main_expt",""
"","bandit","265","537225","0.0-226.0-0.0","72887333","wem/bandit_either_3","A1727A5VJOZAMR","either","8","67","","","","","","","1","0","0","0.3120176694","","0.2","0.8","0.4","0.6","","","","","0.6061762586","0.3120176694","0.5556036571","0.7665022487","","","","","","","","74","J","1","","","186","main_expt",""
"","bandit","266","538758","0.0-227.0-0.0","72887333","wem/bandit_either_3","A1727A5VJOZAMR","either","8","13","","","","","","","0","0","1","","0.530958695","0.2","0.8","0.4","0.6","0.530958695","0.4134691065","0.5865134094","0.7394266891","","","","","","","","","","","","72","H","0","img/none_selected.jpg","","187","main_expt",""
"","bandit","267","540366","0.0-228.0-0.0","72887333","wem/bandit_either_3","A1727A5VJOZAMR","either","8","79","","","","","","","0","1","0","","0.380024655","0.2","0.8","0.4","0.6","0.380024655","0.4637770407","0.5034866795","0.6567361442","","","","","","","","","","","","72","H","0","img/none_selected.jpg","","188","main_expt",""
"","bandit","268","541904","0.0-229.0-0.0","72887333","wem/bandit_either_3","A1727A5VJOZAMR","either","8","2","","","","","","","0","1","0","","0.6572443956","0.2","0.8","0.4","0.6","0.4563575644","0.5739034088","0.5761715841","0.6572443956","","","","","","","","","","","","76","L","3","","","189","main_expt",""
"","bandit","269","543437","0.0-230.0-0.0","72887333","wem/bandit_either_3","A1727A5VJOZAMR","either","8","1","","","","","","","0","1","0","","0.5325489933","0.2","0.8","0.4","0.6","0.4540853102","0.5859504021","0.5325489933","0.6735764162","","","","","","","","","","","","75","K","2","","","190","main_expt",""
"","bandit","270","544978","0.0-231.0-0.0","72887333","wem/bandit_either_3","A1727A5VJOZAMR","either","8","21","","","","","","","0","1","0","","0.5614919892","0.2","0.8","0.4","0.6","0.4328006462","0.5325822721","0.5614919892","0.5997518312","","","","","","","","","","","","75","K","2","","","191","main_expt",""
"","bandit","271","546518","0.0-232.0-0.0","72887333","wem/bandit_either_3","A1727A5VJOZAMR","either","8","0","","","","","","","1","0","0","0.4622441745","","0.2","0.8","0.4","0.6","","","","","0.4979354652","0.4622441745","0.5972832049","0.6582178794","","","","","","","","74","J","1","","","192","main_expt",""
"","bandit","272","548041","0.0-233.0-0.0","72887333","wem/bandit_either_3","A1727A5VJOZAMR","either","8","1","","","","","","","0","0","1","","0.4887187701","0.2","0.8","0.4","0.6","0.4887187701","0.4765036663","0.6997951875","0.7246172867","","","","","","","","","","","","72","H","0","img/none_selected.jpg","","193","main_expt",""
"","bandit","273","549613","0.0-234.0-0.0","72887333","wem/bandit_either_3","A1727A5VJOZAMR","either","8","40","","","","","","","0","0","1","","0.4993882896","0.2","0.8","0.4","0.6","0.4993882896","0.4504155567","0.7511051992","0.7721250451","","","","","","","","","","","","72","H","0","img/none_selected.jpg","","194","main_expt",""
"","bandit","274","551214","0.0-235.0-0.0","72887333","wem/bandit_either_3","A1727A5VJOZAMR","either","8","67","","","","","","","0","0","1","","0.5011331455","0.2","0.8","0.4","0.6","0.5011331455","0.4354252764","0.8281457055","0.8366496483","","","","","","","","","","","","72","H","0","img/none_selected.jpg","","195","main_expt",""
"","bandit","275","552752","0.0-236.0-0.0","72887333","wem/bandit_either_3","A1727A5VJOZAMR","either","8","0","","","","","","","1","0","0","0.8484646997","","0.2","0.8","0.4","0.6","","","","","0.4487960683","0.4170899215","0.8248544968","0.8484646997","","","","","","","","76","L","3","","","196","main_expt",""
"","bandit","276","554294","0.0-237.0-0.0","72887333","wem/bandit_either_3","A1727A5VJOZAMR","either","8","16","","","","","","","1","0","0","0.8734060335","","0.2","0.8","0.4","0.6","","","","","0.3975590019","0.4149059055","0.8532714289","0.8734060335","","","","","","","","76","L","3","","","197","main_expt",""
"","bandit","277","555814","0.0-238.0-0.0","72887333","wem/bandit_either_3","A1727A5VJOZAMR","either","8","0","","","","","","","0","0","1","","0.7587337752","0.2","0.8","0.4","0.6","0.4161601929","0.4737306044","0.7587337752","0.8515360685","","","","","","","","","","","","75","K","2","","","198","main_expt",""
"","bandit","278","557350","0.0-239.0-0.0","72887333","wem/bandit_either_3","A1727A5VJOZAMR","either","8","2","","","","","","","0","0","1","0.4541760911","","0.2","0.8","0.4","0.6","","","","","0.4483979408","0.4541760911","0.8124408481","0.8805923715","","","","","","","","74","J","1","","","199","main_expt",""
"","bandit","279","558865","0.0-240.0-0.0","72887333","wem/bandit_either_3","A1727A5VJOZAMR","either","8","6","","","","","","","0","1","0","","0.5303380975","0.2","0.8","0.4","0.6","0.5303380975","0.3964714959","0.7935778268","0.9645818821","","","","","","","","","","","","72","H","0","img/none_selected.jpg","","200","main_expt",""
"","bandit","280","560394","0.0-241.0-0.0","72887333","wem/bandit_either_3","A1727A5VJOZAMR","either","8","0","","","","","","","0","1","0","","0.9689478708","0.2","0.8","0.4","0.6","0.4014045657","0.3815447649","0.736942723","0.9689478708","","","","","","","","","","","","76","L","3","","","201","main_expt",""
"","bandit","281","561925","0.0-242.0-0.0","72887333","wem/bandit_either_3","A1727A5VJOZAMR","either","8","0","","","","","","","0","1","0","","0.7001951276","0.2","0.8","0.4","0.6","0.5115169607","0.3726367513","0.7001951276","0.9678291885","","","","","","","","","","","","75","K","2","","","202","main_expt",""
"","bandit","282","563451","0.0-243.0-0.0","72887333","wem/bandit_either_3","A1727A5VJOZAMR","either","8","14","","","","","","","0","0","1","0.3062653216","","0.2","0.8","0.4","0.6","","","","","0.5026191452","0.3062653216","0.7209300446","0.9633244117","","","","","","","","74","J","1","","","203","main_expt",""
"","bandit","283","564975","0.0-244.0-0.0","72887333","wem/bandit_either_3","A1727A5VJOZAMR","either","8","0","","","","","","","0","0","1","","0.4736298566","0.2","0.8","0.4","0.6","0.4736298566","0.2848501254","0.8574132932","0.9730812582","","","","","","","","","","","","72","H","0","img/none_selected.jpg","","204","main_expt",""
"","bandit","284","566574","0.0-245.0-0.0","72887333","wem/bandit_either_3","A1727A5VJOZAMR","either","8","63","","","","","","","0","0","1","","0.6121858428","0.2","0.8","0.4","0.6","0.6121858428","0.3457586416","0.9038760074","0.9521206422","","","","","","","","","","","","72","H","0","img/none_selected.jpg","","205","main_expt",""
"","bandit","285","568116","0.0-246.0-0.0","72887333","wem/bandit_either_3","A1727A5VJOZAMR","either","8","22","","","","","","","0","0","1","0.6377028942","","0.2","0.8","0.4","0.6","","","","","0.6377028942","0.4609097875","0.9273356803","0.9614764056","","","","","","","","72","H","0","img/none_selected.jpg","","206","main_expt",""
"","bandit","286","569714","0.0-247.0-0.0","72887333","wem/bandit_either_3","A1727A5VJOZAMR","either","8","58","","","","","","","0","0","1","","0.5700483165","0.2","0.8","0.4","0.6","0.5700483165","0.4980316736","0.9502037039","0.9625830716","","","","","","","","","","","","72","H","0","img/none_selected.jpg","","207","main_expt",""
"","bandit","287","571283","0.0-248.0-0.0","72887333","wem/bandit_either_3","A1727A5VJOZAMR","either","8","40","","","","","","","0","0","1","","0.624428721","0.2","0.8","0.4","0.6","0.624428721","0.4537691537","0.944094639","0.9359306517","","","","","","","","","","","","72","H","0","img/none_selected.jpg","","208","main_expt",""
"","bandit","288","572811","0.0-249.0-0.0","72887333","wem/bandit_either_3","A1727A5VJOZAMR","either","8","1","","","","","","","0","1","0","","0.9632917203","0.2","0.8","0.4","0.6","0.4861871301","0.4475842875","0.9070839441","0.9632917203","","","","","","","","","","","","76","L","3","","","209","main_expt",""
"","bandit","289","574332","0.0-250.0-0.0","72887333","wem/bandit_either_3","A1727A5VJOZAMR","either","8","1","","","","","","","1","0","0","0.8960653589","","0.2","0.8","0.4","0.6","","","","","0.3956361612","0.4803454055","0.8960653589","0.9633226214","","","","","","","","75","K","2","","","210","main_expt",""
"","bandit","290","575884","0.0-251.0-0.0","72887333","wem/bandit_either_3","A1727A5VJOZAMR","either","8","24","","","","","","","1","0","0","0.4126443349","","0.2","0.8","0.4","0.6","","","","","0.3599204452","0.4126443349","0.9155455821","0.9719781217","","","","","","","","74","J","1","","","211","main_expt",""
"","bandit","291","577469","0.0-252.0-0.0","72887333","wem/bandit_either_3","A1727A5VJOZAMR","either","8","56","","","","","","","0","0","1","0.3384802849","","0.2","0.8","0.4","0.6","","","","","0.3349000901","0.3384802849","0.9087954588","0.9700781686","","","","","","","","74","J","1","","","212","main_expt",""
"","bandit","292","579069","0.0-253.0-0.0","72887333","wem/bandit_either_3","A1727A5VJOZAMR","either","8","68","","","","","","","1","0","0","0.3039242722","","0.2","0.8","0.4","0.6","","","","","0.3183344176","0.3039242722","0.8528540962","0.971165811","","","","","","","","74","J","1","","","213","main_expt",""
"","bandit","293","580607","0.0-254.0-0.0","72887333","wem/bandit_either_3","A1727A5VJOZAMR","either","8","0","","","","","","","0","0","1","","0.2390758011","0.2","0.8","0.4","0.6","0.2390758011","0.4541530846","0.8506041988","0.9627117","","","","","","","","","","","","72","H","0","img/none_selected.jpg","","214","main_expt",""
"","bandit","294","582180","0.0-255.0-0.0","72887333","wem/bandit_either_3","A1727A5VJOZAMR","either","8","42","","","","","","","0","0","1","","0.1997060473","0.2","0.8","0.4","0.6","0.1997060473","0.5101749692","0.8001829978","0.9552130497","","","","","","","","","","","","72","H","0","img/none_selected.jpg","","215","main_expt",""
"","bandit","295","583750","0.0-256.0-0.0","72887333","wem/bandit_either_3","A1727A5VJOZAMR","either","8","34","","","","","","","0","1","0","","0.2326539104","0.2","0.8","0.4","0.6","0.2326539104","0.5580520347","0.733614842","0.9220350188","","","","","","","","","","","","72","H","0","img/none_selected.jpg","","216","main_expt",""
"","bandit","296","585336","0.0-257.0-0.0","72887333","wem/bandit_either_3","A1727A5VJOZAMR","either","8","50","","","","","","","0","1","0","","0.2319826337","0.2","0.8","0.4","0.6","0.2319826337","0.4368451062","0.7479737912","0.8736667029","","","","","","","","","","","","72","H","0","img/none_selected.jpg","","217","main_expt",""
"","bandit","297","586922","0.0-258.0-0.0","72887333","wem/bandit_either_3","A1727A5VJOZAMR","either","8","64","","","","","","","0","1","0","","0.3143382807","0.2","0.8","0.4","0.6","0.3143382807","0.3963441813","0.7713398237","0.7602784417","","","","","","","","","","","","72","H","0","img/none_selected.jpg","","218","main_expt",""
"","bandit","298","588515","0.0-259.0-0.0","72887333","wem/bandit_either_3","A1727A5VJOZAMR","either","8","59","","","","","","","0","0","1","","0.3304972923","0.2","0.8","0.4","0.6","0.3304972923","0.4809426617","0.8077055691","0.7643050859","","","","","","","","","","","","72","H","0","img/none_selected.jpg","","219","main_expt",""
"","bandit","299","590099","0.0-260.0-0.0","72887333","wem/bandit_either_3","A1727A5VJOZAMR","either","8","51","","","","","","","0","0","1","","0.2866104843","0.2","0.8","0.4","0.6","0.2866104843","0.397759556","0.7778114837","0.7793587236","","","","","","","","","","","","72","H","0","img/none_selected.jpg","","220","main_expt",""
"","bandit","300","591686","0.0-261.0-0.0","72887333","wem/bandit_either_3","A1727A5VJOZAMR","either","8","47","","","","","","","0","0","1","0.3602561646","","0.2","0.8","0.4","0.6","","","","","0.3602561646","0.4087677593","0.7214198583","0.82086311","","","","","","","","72","H","0","img/none_selected.jpg","","221","main_expt",""
"","bandit","301","593226","0.0-262.0-0.0","72887333","wem/bandit_either_3","A1727A5VJOZAMR","either","8","0","","","","","","","0","0","1","","0.8543662658","0.2","0.8","0.4","0.6","0.3228749062","0.4561280915","0.8091526303","0.8543662658","","","","","","","","","","","","76","L","3","","","222","main_expt",""
"","bandit","302","594764","0.0-263.0-0.0","72887333","wem/bandit_either_3","A1727A5VJOZAMR","either","8","15","","","","","","","1","0","0","0.8599459829","","0.2","0.8","0.4","0.6","","","","","0.2549485676","0.4419858618","0.8240838469","0.8599459829","","","","","","","","76","L","3","","","223","main_expt",""
"","bandit","303","596295","0.0-264.0-0.0","72887333","wem/bandit_either_3","A1727A5VJOZAMR","either","8","1","","","","","","","1","0","0","0.7670685714","","0.2","0.8","0.4","0.6","","","","","0.2389333491","0.494409337","0.7670685714","0.8747991669","","","","","","","","75","K","2","","","224","main_expt",""
"","bandit","304","597846","0.0-265.0-0.0","72887333","wem/bandit_either_3","A1727A5VJOZAMR","either","8","29","","","","","","","0","1","0","","0.8775689376","0.2","0.8","0.4","0.6","0.1517307125","0.3713348049","0.8775689376","0.7910409491","","","","","","","","","","","","75","K","2","","","225","main_expt",""
"","bandit","305","599438","0.0-266.0-0.0","72887333","wem/bandit_either_3","A1727A5VJOZAMR","either","8","64","","","","","","","0","1","0","","0.4013452417","0.2","0.8","0.4","0.6","0.1002450003","0.4013452417","0.8846504348","0.7212928749","","","","","","","","","","","","74","J","1","","","226","main_expt",""
"","bandit","306","600995","0.0-267.0-0.0","72887333","wem/bandit_either_3","A1727A5VJOZAMR","either","8","23","","","","","","","0","0","1","","0.1049945928","0.2","0.8","0.4","0.6","0.1049945928","0.393451628","0.851087938","0.7090989562","","","","","","","","","","","","72","H","0","img/none_selected.jpg","","227","main_expt",""
"","bandit","307","602582","0.0-268.0-0.0","72887333","wem/bandit_either_3","A1727A5VJOZAMR","either","8","45","","","","","","","0","0","1","","0.03915988122","0.2","0.8","0.4","0.6","0.03915988122","0.4175844788","0.9074720337","0.6606736223","","","","","","","","","","","","72","H","0","img/none_selected.jpg","","228","main_expt",""
"","bandit","308","604120","0.0-269.0-0.0","72887333","wem/bandit_either_3","A1727A5VJOZAMR","either","8","16","","","","","","","0","0","1","","0.03767516843","0.2","0.8","0.4","0.6","0.03767516843","0.408368909","0.872332114","0.6893924153","","","","","","","","","","","","72","H","0","img/none_selected.jpg","","229","main_expt",""
"","bandit","309","605657","0.0-270.0-0.0","72887333","wem/bandit_either_3","A1727A5VJOZAMR","either","8","1","","","","","","","0","0","1","0.6067604319","","0.2","0.8","0.4","0.6","","","","","0.05804790214","0.4777699032","0.7967167456","0.6067604319","","","","","","","","76","L","3","","","230","main_expt",""
"","bandit","310","607221","0.0-271.0-0.0","72887333","wem/bandit_either_3","A1727A5VJOZAMR","either","8","33","","","","","","","0","0","1","","0.5037419277","0.2","0.8","0.4","0.6","0.04963095007","0.4935442242","0.7760618079","0.5037419277","","","","","","","","","","","","76","L","3","","","231","main_expt",""
"","bandit","311","608777","0.0-272.0-0.0","72887333","wem/bandit_either_3","A1727A5VJOZAMR","either","8","19","","","","","","","0","1","0","","0.7765467853","0.2","0.8","0.4","0.6","0.03759782928","0.4889590317","0.7765467853","0.4339479185","","","","","","","","","","","","75","K","2","","","232","main_expt",""
"","bandit","312","610307","0.0-273.0-0.0","72887333","wem/bandit_either_3","A1727A5VJOZAMR","either","8","1","","","","","","","0","0","1","0.5212294662","","0.2","0.8","0.4","0.6","","","","","0.03147013274","0.5212294662","0.7895219362","0.4525546635","","","","","","","","74","J","1","","","233","main_expt",""
"","bandit","313","611913","0.0-274.0-0.0","72887333","wem/bandit_either_3","A1727A5VJOZAMR","either","8","64","","","","","","","1","0","0","0.4420617392","","0.2","0.8","0.4","0.6","","","","","0.03547440544","0.4420617392","0.7491899586","0.3680080929","","","","","","","","74","J","1","","","234","main_expt",""
"","bandit","314","613474","0.0-275.0-0.0","72887333","wem/bandit_either_3","A1727A5VJOZAMR","either","8","29","","","","","","","1","0","0","0.4816955248","","0.2","0.8","0.4","0.6","","","","","0.04486782706","0.4816955248","0.7397351474","0.3416373547","","","","","","","","74","J","1","","","235","main_expt",""
"","bandit","315","615049","0.0-276.0-0.0","72887333","wem/bandit_either_3","A1727A5VJOZAMR","either","8","46","","","","","","","0","0","1","","0.03122339122","0.2","0.8","0.4","0.6","0.03122339122","0.3028121716","0.6587673302","0.3722877153","","","","","","","","","","","","72","H","0","img/none_selected.jpg","","236","main_expt",""
"","bandit","316","616628","0.0-277.0-0.0","72887333","wem/bandit_either_3","A1727A5VJOZAMR","either","8","41","","","","","","","0","1","0","","0.3081002542","0.2","0.8","0.4","0.6","0.04191117605","0.3802502189","0.7534934878","0.3081002542","","","","","","","","","","","","76","L","3","","","237","main_expt",""
"","bandit","317","618170","0.0-278.0-0.0","72887333","wem/bandit_either_3","A1727A5VJOZAMR","either","8","20","","","","","","","1","0","0","0.2546656634","","0.2","0.8","0.4","0.6","","","","","0.06367740527","0.4160754302","0.8023031038","0.2546656634","","","","","","","","76","L","3","","","238","main_expt",""
"","bandit","318","619698","0.0-279.0-0.0","72887333","wem/bandit_either_3","A1727A5VJOZAMR","either","8","0","","","","","","","1","0","0","0.8333986962","","0.2","0.8","0.4","0.6","","","","","0.06315957527","0.3510440385","0.8333986962","0.3038323055","","","","","","","","75","K","2","","","239","main_expt",""
"","bandit","319","621227","0.0-280.0-0.0","72887333","wem/bandit_either_3","A1727A5VJOZAMR","either","8","8","","","","","","","0","0","1","","0.4182550587","0.2","0.8","0.4","0.6","0.05324295338","0.4182550587","0.840768508","0.291884511","","","","","","","","","","","","74","J","1","","","240","main_expt",""
"","bandit","320","622785","0.0-281.0-0.0","72887333","wem/bandit_either_3","A1727A5VJOZAMR","either","8","35","","","","","","","0","0","1","","0.04641095239","0.2","0.8","0.4","0.6","0.04641095239","0.5037088371","0.823006268","0.3124975621","","","","","","","","","","","","72","H","0","img/none_selected.jpg","","241","main_expt",""
"","bandit","321","624333","0.0-282.0-0.0","72887333","wem/bandit_either_3","A1727A5VJOZAMR","either","8","19","","","","","","","0","1","0","","0.3637146884","0.2","0.8","0.4","0.6","0.04954190216","0.4877747003","0.8152254121","0.3637146884","","","","","","","","","","","","76","L","3","","","242","main_expt",""
"","bandit","322","625887","0.0-283.0-0.0","72887333","wem/bandit_either_3","A1727A5VJOZAMR","either","8","17","","","","","","","0","1","0","","0.8377493118","0.2","0.8","0.4","0.6","0.05592390002","0.5007011316","0.8377493118","0.3304840913","","","","","","","","","","","","75","K","2","","","243","main_expt",""
"","bandit","323","627409","0.0-284.0-0.0","72887333","wem/bandit_either_3","A1727A5VJOZAMR","either","8","1","","","","","","","1","0","0","0.5730304632","","0.2","0.8","0.4","0.6","","","","","0.03808637997","0.5730304632","0.8258586067","0.4067767971","","","","","","","","74","J","1","","","244","main_expt",""
