"consent","trial_type","trial_index","time_elapsed","internal_node_id","subjID","study","MID","cond","drift","rt","responses","key_press","expt_phase","like","value","connected","gems","bombs","no_reward","GemPrChosen","BombPrChosen","GainOverPainPr_0","GainOverPainPr_1","GainOverPainPr_2","GainOverPainPr_3","LosePr_0","LosePr_1","LosePr_2","LosePr_3","WinPr_0","WinPr_1","WinPr_2","WinPr_3","Q0","Q1","Q2","gender","age","ethnicity","target","respCharCode","respKey","respChoiceNum","respChoice","practice","trial_counter","trial_label","button_pressed"
"INL_behavioral_consent_30min_online.html","consent","0","18312","0.0-0.0","74777776","wem/bandit_either_3","A3S1TLYMH9WWUG","either","4","","","","","","","","","","","","","","","","","","","","","","","","","","","","","","","","","","","","","","",""
"","survey-text","1","25182","0.0-1.0","74777776","wem/bandit_either_3","A3S1TLYMH9WWUG","either","4","5853","{""Q0"":""A3S1TLYMH9WWUG""}","","","","","","","","","","","","","","","","","","","","","","","","","","","","","","","","","","","","",""
"","text","2","38261","0.0-2.0","74777776","wem/bandit_either_3","A3S1TLYMH9WWUG","either","4","12068","","32","","","","","","","","","","","","","","","","","","","","","","","","","","","","","","","","","","","",""
"","text","3","42741","0.0-3.0","74777776","wem/bandit_either_3","A3S1TLYMH9WWUG","either","4","4480","","32","","","","","","","","","","","","","","","","","","","","","","","","","","","","","","","","","","","",""
"","text","4","56566","0.0-4.0","74777776","wem/bandit_either_3","A3S1TLYMH9WWUG","either","4","13825","","32","","","","","","","","","","","","","","","","","","","","","","","","","","","","","","","","","","","",""
"","text","5","64485","0.0-5.0","74777776","wem/bandit_either_3","A3S1TLYMH9WWUG","either","4","7919","","32","","","","","","","","","","","","","","","","","","","","","","","","","","","","","","","","","","","",""
"","text","6","80165","0.0-6.0","74777776","wem/bandit_either_3","A3S1TLYMH9WWUG","either","4","15680","","32","","","","","","","","","","","","","","","","","","","","","","","","","","","","","","","","","","","",""
"","text","7","84191","0.0-7.0","74777776","wem/bandit_either_3","A3S1TLYMH9WWUG","either","4","4026","","32","","","","","","","","","","","","","","","","","","","","","","","","","","","","","","","","","","","",""
"","text","8","87061","0.0-8.0","74777776","wem/bandit_either_3","A3S1TLYMH9WWUG","either","4","2870","","32","","","","","","","","","","","","","","","","","","","","","","","","","","","","","","","","","","","",""
"","identification","9","94433","0.0-9.0-0.0","74777776","wem/bandit_either_3","A3S1TLYMH9WWUG","either","4","7371","","","","3","3","3","","","","","","","","","","","","","","","","","","","","","","","","the village of Zur","","","","","","","",""
"","identification","10","101827","0.0-9.0-1.0","74777776","wem/bandit_either_3","A3S1TLYMH9WWUG","either","4","6389","","","","2","2","2","","","","","","","","","","","","","","","","","","","","","","","","the village of Nyx","","","","","","","",""
"","text","11","107624","0.0-10.0","74777776","wem/bandit_either_3","A3S1TLYMH9WWUG","either","4","4782","","32","","","","","","","","","","","","","","","","","","","","","","","","","","","","","","","","","","","",""
"","text","12","110690","0.0-11.0","74777776","wem/bandit_either_3","A3S1TLYMH9WWUG","either","4","3066","","32","","","","","","","","","","","","","","","","","","","","","","","","","","","","","","","","","","","",""
"","text","13","113090","0.0-12.0","74777776","wem/bandit_either_3","A3S1TLYMH9WWUG","either","4","2400","","32","","","","","","","","","","","","","","","","","","","","","","","","","","","","","","","","","","","",""
"","text","14","120760","0.0-13.0","74777776","wem/bandit_either_3","A3S1TLYMH9WWUG","either","4","7660","","32","","","","","","","","","","","","","","","","","","","","","","","","","","","","","","","","","","","",""
"","bandit","15","124706","0.0-14.0-0.0","74777776","wem/bandit_either_3","A3S1TLYMH9WWUG","either","4","2427","","","","","","","0","0","1","0","0","","","","","0","","","","0","","","","","","","","","","","74","J","0","img/none_selected_demo.jpg","true","0","",""
"","bandit","16","128060","0.0-15.0-0.0","74777776","wem/bandit_either_3","A3S1TLYMH9WWUG","either","4","1844","","","","","","","0","0","1","0","0","","","","","0","","","","0","","","","","","","","","","","75","K","0","img/none_selected_demo.jpg","true","0","",""
"","text","17","133440","0.0-16.0","74777776","wem/bandit_either_3","A3S1TLYMH9WWUG","either","4","5380","","32","","","","","","","","","","","","","","","","","","","","","","","","","","","","","","","","","","","",""
"","text","18","143063","0.0-17.0","74777776","wem/bandit_either_3","A3S1TLYMH9WWUG","either","4","9623","","32","","","","","","","","","","","","","","","","","","","","","","","","","","","","","","","","","","","",""
"","text","19","147992","0.0-18.0","74777776","wem/bandit_either_3","A3S1TLYMH9WWUG","either","4","4928","","32","","","","","","","","","","","","","","","","","","","","","","","","","","","","","","","","","","","",""
"","text","20","151572","0.0-19.0","74777776","wem/bandit_either_3","A3S1TLYMH9WWUG","either","4","3580","","32","","","","","","","","","","","","","","","","","","","","","","","","","","","","","","","","","","","",""
"","bandit","21","154509","0.0-20.0-0.0","74777776","wem/bandit_either_3","A3S1TLYMH9WWUG","either","4","1427","","","","","","","0","1","0","","0.8","0.5","0.5","","","0.8","0.2","","","","","","","","","","","","","","74","J","0","img/none_selected_demo.jpg","true","0","80_20_practice",""
"","bandit","22","156869","0.0-20.0-1.0","74777776","wem/bandit_either_3","A3S1TLYMH9WWUG","either","4","836","","","","","","","0","1","0","","0.8","0.5","0.5","","","0.8","0.2","","","","","","","","","","","","","","74","J","0","img/none_selected_demo.jpg","true","0","80_20_practice",""
"","bandit","23","159012","0.0-20.0-2.0","74777776","wem/bandit_either_3","A3S1TLYMH9WWUG","either","4","621","","","","","","","0","1","0","","0.8","0.5","0.5","","","0.8","0.2","","","","","","","","","","","","","","74","J","0","img/none_selected_demo.jpg","true","0","80_20_practice",""
"","bandit","24","161059","0.0-20.0-3.0","74777776","wem/bandit_either_3","A3S1TLYMH9WWUG","either","4","524","","","","","","","0","0","1","","0.2","0.5","0.5","","","0.8","0.2","","","","","","","","","","","","","","75","K","1","","true","0","80_20_practice",""
"","bandit","25","163045","0.0-20.0-4.0","74777776","wem/bandit_either_3","A3S1TLYMH9WWUG","either","4","463","","","","","","","0","0","1","0.8","","0.5","0.5","","","","","","","0.8","0.2","","","","","","","","","","74","J","0","img/none_selected_demo.jpg","true","0","80_20_practice",""
"","bandit","26","165021","0.0-20.0-5.0","74777776","wem/bandit_either_3","A3S1TLYMH9WWUG","either","4","464","","","","","","","1","0","0","0.8","","0.5","0.5","","","","","","","0.8","0.2","","","","","","","","","","74","J","0","img/none_selected_demo.jpg","true","0","80_20_practice",""
"","bandit","27","166942","0.0-20.0-6.0","74777776","wem/bandit_either_3","A3S1TLYMH9WWUG","either","4","401","","","","","","","1","0","0","0.8","","0.5","0.5","","","","","","","0.8","0.2","","","","","","","","","","74","J","0","img/none_selected_demo.jpg","true","0","80_20_practice",""
"","bandit","28","168838","0.0-20.0-7.0","74777776","wem/bandit_either_3","A3S1TLYMH9WWUG","either","4","376","","","","","","","1","0","0","0.8","","0.5","0.5","","","","","","","0.8","0.2","","","","","","","","","","74","J","0","img/none_selected_demo.jpg","true","0","80_20_practice",""
"","bandit","29","170752","0.0-20.0-8.0","74777776","wem/bandit_either_3","A3S1TLYMH9WWUG","either","4","394","","","","","","","0","1","0","","0.8","0.5","0.5","","","0.8","0.2","","","","","","","","","","","","","","74","J","0","img/none_selected_demo.jpg","true","0","80_20_practice",""
"","bandit","30","172628","0.0-20.0-9.0","74777776","wem/bandit_either_3","A3S1TLYMH9WWUG","either","4","359","","","","","","","1","0","0","0.8","","0.5","0.5","","","","","","","0.8","0.2","","","","","","","","","","74","J","0","img/none_selected_demo.jpg","true","0","80_20_practice",""
"","bandit","31","174448","0.0-20.0-10.0","74777776","wem/bandit_either_3","A3S1TLYMH9WWUG","either","4","304","","","","","","","1","0","0","0.8","","0.5","0.5","","","","","","","0.8","0.2","","","","","","","","","","74","J","0","img/none_selected_demo.jpg","true","0","80_20_practice",""
"","bandit","32","176271","0.0-20.0-11.0","74777776","wem/bandit_either_3","A3S1TLYMH9WWUG","either","4","303","","","","","","","1","0","0","0.8","","0.5","0.5","","","","","","","0.8","0.2","","","","","","","","","","74","J","0","img/none_selected_demo.jpg","true","0","80_20_practice",""
"","bandit","33","178028","0.0-20.0-12.0","74777776","wem/bandit_either_3","A3S1TLYMH9WWUG","either","4","244","","","","","","","0","1","0","","0.8","0.5","0.5","","","0.8","0.2","","","","","","","","","","","","","","74","J","0","img/none_selected_demo.jpg","true","0","80_20_practice",""
"","bandit","34","179787","0.0-20.0-13.0","74777776","wem/bandit_either_3","A3S1TLYMH9WWUG","either","4","243","","","","","","","1","0","0","0.8","","0.5","0.5","","","","","","","0.8","0.2","","","","","","","","","","74","J","0","img/none_selected_demo.jpg","true","0","80_20_practice",""
"","bandit","35","181615","0.0-20.0-14.0","74777776","wem/bandit_either_3","A3S1TLYMH9WWUG","either","4","308","","","","","","","0","0","1","0.8","","0.5","0.5","","","","","","","0.8","0.2","","","","","","","","","","74","J","0","img/none_selected_demo.jpg","true","0","80_20_practice",""
"","bandit","36","183394","0.0-20.0-15.0","74777776","wem/bandit_either_3","A3S1TLYMH9WWUG","either","4","263","","","","","","","0","1","0","","0.8","0.5","0.5","","","0.8","0.2","","","","","","","","","","","","","","74","J","0","img/none_selected_demo.jpg","true","0","80_20_practice",""
"","bandit","37","185171","0.0-20.0-16.0","74777776","wem/bandit_either_3","A3S1TLYMH9WWUG","either","4","254","","","","","","","0","1","0","","0.8","0.5","0.5","","","0.8","0.2","","","","","","","","","","","","","","74","J","0","img/none_selected_demo.jpg","true","0","80_20_practice",""
"","bandit","38","187014","0.0-20.0-17.0","74777776","wem/bandit_either_3","A3S1TLYMH9WWUG","either","4","323","","","","","","","0","1","0","","0.8","0.5","0.5","","","0.8","0.2","","","","","","","","","","","","","","74","J","0","img/none_selected_demo.jpg","true","0","80_20_practice",""
"","bandit","39","188831","0.0-20.0-18.0","74777776","wem/bandit_either_3","A3S1TLYMH9WWUG","either","4","304","","","","","","","0","1","0","","0.8","0.5","0.5","","","0.8","0.2","","","","","","","","","","","","","","74","J","0","img/none_selected_demo.jpg","true","0","80_20_practice",""
"","bandit","40","190621","0.0-20.0-19.0","74777776","wem/bandit_either_3","A3S1TLYMH9WWUG","either","4","273","","","","","","","1","0","0","0.8","","0.5","0.5","","","","","","","0.8","0.2","","","","","","","","","","74","J","0","img/none_selected_demo.jpg","true","0","80_20_practice",""
"","text","41","193778","0.0-21.0","74777776","wem/bandit_either_3","A3S1TLYMH9WWUG","either","4","3157","","32","","","","","","","","","","","","","","","","","","","","","","","","","","","","","","","","","","","",""
"","bandit","42","196201","0.0-22.0-0.0","74777776","wem/bandit_either_3","A3S1TLYMH9WWUG","either","4","918","","","","","","","1","0","0","1","0","","","","","0","1","","","1","0","","","","","","","","","","74","J","0","img/none_selected_demo.jpg","true","0","",""
"","text","43","202241","0.0-23.0","74777776","wem/bandit_either_3","A3S1TLYMH9WWUG","either","4","6040","","32","","","","","","","","","","","","","","","","","","","","","","","","","","","","","","","","","","","",""
"","text","44","204820","0.0-24.0","74777776","wem/bandit_either_3","A3S1TLYMH9WWUG","either","4","2579","","32","","","","","","","","","","","","","","","","","","","","","","","","","","","","","","","","","","","",""
"","text","45","207460","0.0-25.0","74777776","wem/bandit_either_3","A3S1TLYMH9WWUG","either","4","2640","","32","","","","","","","","","","","","","","","","","","","","","","","","","","","","","","","","","","","",""
"","text","46","209685","0.0-26.0","74777776","wem/bandit_either_3","A3S1TLYMH9WWUG","either","4","2225","","32","","","","","","","","","","","","","","","","","","","","","","","","","","","","","","","","","","","",""
"","text","47","215380","0.0-27.0","74777776","wem/bandit_either_3","A3S1TLYMH9WWUG","either","4","5695","","32","","","","","","","","","","","","","","","","","","","","","","","","","","","","","","","","","","","",""
"","text","48","217873","0.0-28.0","74777776","wem/bandit_either_3","A3S1TLYMH9WWUG","either","4","2493","","32","","","","","","","","","","","","","","","","","","","","","","","","","","","","","","","","","","","",""
"","text","49","225280","0.0-29.0","74777776","wem/bandit_either_3","A3S1TLYMH9WWUG","either","4","7407","","32","","","","","","","","","","","","","","","","","","","","","","","","","","","","","","","","","","","",""
"","text","50","227730","0.0-30.0","74777776","wem/bandit_either_3","A3S1TLYMH9WWUG","either","4","2450","","32","","","","","","","","","","","","","","","","","","","","","","","","","","","","","","","","","","","",""
"","text","51","230310","0.0-31.0","74777776","wem/bandit_either_3","A3S1TLYMH9WWUG","either","4","2580","","32","","","","","","","","","","","","","","","","","","","","","","","","","","","","","","","","","","","",""
"","text","52","232656","0.0-32.0","74777776","wem/bandit_either_3","A3S1TLYMH9WWUG","either","4","2346","","32","","","","","","","","","","","","","","","","","","","","","","","","","","","","","","","","","","","",""
"","text","53","235439","0.0-33.0","74777776","wem/bandit_either_3","A3S1TLYMH9WWUG","either","4","2783","","32","","","","","","","","","","","","","","","","","","","","","","","","","","","","","","","","","","","",""
"","bandit","54","237550","0.0-34.0-0.0","74777776","wem/bandit_either_3","A3S1TLYMH9WWUG","either","4","584","","","","","","","0","1","0","","0.8","0.5","0.5","0.5","0.5","0.8","0.2","0.6","0.2","","","","","","","","","","","","72","H","0","img/none_selected.jpg","true","0","full_practice",""
"","bandit","55","239429","0.0-34.0-1.0","74777776","wem/bandit_either_3","A3S1TLYMH9WWUG","either","4","358","","","","","","","1","0","0","0.8","","0.5","0.5","0.5","0.5","","","","","0.8","0.2","0.6","0.2","","","","","","","","72","H","0","img/none_selected.jpg","true","0","full_practice",""
"","bandit","56","241169","0.0-34.0-2.0","74777776","wem/bandit_either_3","A3S1TLYMH9WWUG","either","4","223","","","","","","","0","1","0","","0.8","0.5","0.5","0.5","0.5","0.8","0.2","0.6","0.2","","","","","","","","","","","","72","H","0","img/none_selected.jpg","true","0","full_practice",""
"","bandit","57","242942","0.0-34.0-3.0","74777776","wem/bandit_either_3","A3S1TLYMH9WWUG","either","4","253","","","","","","","0","0","1","","0.8","0.5","0.5","0.5","0.5","0.8","0.2","0.6","0.2","","","","","","","","","","","","72","H","0","img/none_selected.jpg","true","0","full_practice",""
"","bandit","58","244719","0.0-34.0-4.0","74777776","wem/bandit_either_3","A3S1TLYMH9WWUG","either","4","258","","","","","","","0","1","0","","0.8","0.5","0.5","0.5","0.5","0.8","0.2","0.6","0.2","","","","","","","","","","","","72","H","0","img/none_selected.jpg","true","0","full_practice",""
"","bandit","59","246510","0.0-34.0-5.0","74777776","wem/bandit_either_3","A3S1TLYMH9WWUG","either","4","273","","","","","","","1","0","0","0.8","","0.5","0.5","0.5","0.5","","","","","0.8","0.2","0.6","0.2","","","","","","","","72","H","0","img/none_selected.jpg","true","0","full_practice",""
"","bandit","60","248255","0.0-34.0-6.0","74777776","wem/bandit_either_3","A3S1TLYMH9WWUG","either","4","231","","","","","","","1","0","0","0.8","","0.5","0.5","0.5","0.5","","","","","0.8","0.2","0.6","0.2","","","","","","","","72","H","0","img/none_selected.jpg","true","0","full_practice",""
"","bandit","61","250016","0.0-34.0-7.0","74777776","wem/bandit_either_3","A3S1TLYMH9WWUG","either","4","241","","","","","","","0","1","0","","0.8","0.5","0.5","0.5","0.5","0.8","0.2","0.6","0.2","","","","","","","","","","","","72","H","0","img/none_selected.jpg","true","0","full_practice",""
"","bandit","62","251759","0.0-34.0-8.0","74777776","wem/bandit_either_3","A3S1TLYMH9WWUG","either","4","226","","","","","","","0","1","0","","0.8","0.5","0.5","0.5","0.5","0.8","0.2","0.6","0.2","","","","","","","","","","","","72","H","0","img/none_selected.jpg","true","0","full_practice",""
"","bandit","63","253535","0.0-34.0-9.0","74777776","wem/bandit_either_3","A3S1TLYMH9WWUG","either","4","263","","","","","","","0","1","0","","0.8","0.5","0.5","0.5","0.5","0.8","0.2","0.6","0.2","","","","","","","","","","","","72","H","0","img/none_selected.jpg","true","0","full_practice",""
"","bandit","64","255290","0.0-34.0-10.0","74777776","wem/bandit_either_3","A3S1TLYMH9WWUG","either","4","244","","","","","","","1","0","0","0.8","","0.5","0.5","0.5","0.5","","","","","0.8","0.2","0.6","0.2","","","","","","","","72","H","0","img/none_selected.jpg","true","0","full_practice",""
"","bandit","65","257054","0.0-34.0-11.0","74777776","wem/bandit_either_3","A3S1TLYMH9WWUG","either","4","249","","","","","","","0","1","0","","0.8","0.5","0.5","0.5","0.5","0.8","0.2","0.6","0.2","","","","","","","","","","","","72","H","0","img/none_selected.jpg","true","0","full_practice",""
"","bandit","66","258815","0.0-34.0-12.0","74777776","wem/bandit_either_3","A3S1TLYMH9WWUG","either","4","248","","","","","","","1","0","0","0.8","","0.5","0.5","0.5","0.5","","","","","0.8","0.2","0.6","0.2","","","","","","","","72","H","0","img/none_selected.jpg","true","0","full_practice",""
"","bandit","67","260579","0.0-34.0-13.0","74777776","wem/bandit_either_3","A3S1TLYMH9WWUG","either","4","240","","","","","","","1","0","0","0.8","","0.5","0.5","0.5","0.5","","","","","0.8","0.2","0.6","0.2","","","","","","","","72","H","0","img/none_selected.jpg","true","0","full_practice",""
"","bandit","68","262338","0.0-34.0-14.0","74777776","wem/bandit_either_3","A3S1TLYMH9WWUG","either","4","243","","","","","","","0","1","0","","0.8","0.5","0.5","0.5","0.5","0.8","0.2","0.6","0.2","","","","","","","","","","","","72","H","0","img/none_selected.jpg","true","0","full_practice",""
"","bandit","69","264075","0.0-34.0-15.0","74777776","wem/bandit_either_3","A3S1TLYMH9WWUG","either","4","224","","","","","","","0","1","0","","0.8","0.5","0.5","0.5","0.5","0.8","0.2","0.6","0.2","","","","","","","","","","","","72","H","0","img/none_selected.jpg","true","0","full_practice",""
"","bandit","70","265758","0.0-34.0-16.0","74777776","wem/bandit_either_3","A3S1TLYMH9WWUG","either","4","168","","","","","","","0","0","1","0.8","","0.5","0.5","0.5","0.5","","","","","0.8","0.2","0.6","0.2","","","","","","","","72","H","0","img/none_selected.jpg","true","0","full_practice",""
"","bandit","71","267468","0.0-34.0-17.0","74777776","wem/bandit_either_3","A3S1TLYMH9WWUG","either","4","197","","","","","","","1","0","0","0.8","","0.5","0.5","0.5","0.5","","","","","0.8","0.2","0.6","0.2","","","","","","","","72","H","0","img/none_selected.jpg","true","0","full_practice",""
"","bandit","72","269193","0.0-34.0-18.0","74777776","wem/bandit_either_3","A3S1TLYMH9WWUG","either","4","213","","","","","","","1","0","0","0.8","","0.5","0.5","0.5","0.5","","","","","0.8","0.2","0.6","0.2","","","","","","","","72","H","0","img/none_selected.jpg","true","0","full_practice",""
"","bandit","73","270892","0.0-34.0-19.0","74777776","wem/bandit_either_3","A3S1TLYMH9WWUG","either","4","182","","","","","","","1","0","0","0.8","","0.5","0.5","0.5","0.5","","","","","0.8","0.2","0.6","0.2","","","","","","","","72","H","0","img/none_selected.jpg","true","0","full_practice",""
"","text","74","273172","0.0-35.0","74777776","wem/bandit_either_3","A3S1TLYMH9WWUG","either","4","2280","","32","","","","","","","","","","","","","","","","","","","","","","","","","","","","","","","","","","","",""
"","text","75","282851","0.0-36.0","74777776","wem/bandit_either_3","A3S1TLYMH9WWUG","either","4","8670","","32","","","","","","","","","","","","","","","","","","","","","","","","","","","","","","","","","","","",""
"","text","76","290031","0.0-37.0","74777776","wem/bandit_either_3","A3S1TLYMH9WWUG","either","4","7180","","32","","","","","","","","","","","","","","","","","","","","","","","","","","","","","","","","","","","",""
"","text","77","293364","0.0-38.0","74777776","wem/bandit_either_3","A3S1TLYMH9WWUG","either","4","3323","","32","","","","","","","","","","","","","","","","","","","","","","","","","","","","","","","","","","","",""
"","text","78","297503","0.0-39.0","74777776","wem/bandit_either_3","A3S1TLYMH9WWUG","either","4","4139","","32","","","","","","","","","","","","","","","","","","","","","","","","","","","","","","","","","","","",""
"","text","79","301544","0.0-40.0","74777776","wem/bandit_either_3","A3S1TLYMH9WWUG","either","4","4031","","32","","","","","","","","","","","","","","","","","","","","","","","","","","","","","","","","","","","",""
"","bandit","80","303787","0.0-41.0-0.0","74777776","wem/bandit_either_3","A3S1TLYMH9WWUG","either","4","746","","","","","","","1","0","0","0.9858900825","","0.8","0.2","0.6","0.4","","","","","0.9858900825","0.2887693562","0.7267404998","0.8209843215","","","","","","","","72","H","0","img/none_selected.jpg","","1","main_expt",""
"","bandit","81","305615","0.0-42.0-0.0","74777776","wem/bandit_either_3","A3S1TLYMH9WWUG","either","4","306","","","","","","","1","0","0","0.9854924354","","0.8","0.2","0.6","0.4","","","","","0.9854924354","0.2986217167","0.7034907646","0.8179122382","","","","","","","","72","H","0","img/none_selected.jpg","","2","main_expt",""
"","bandit","82","307372","0.0-43.0-0.0","74777776","wem/bandit_either_3","A3S1TLYMH9WWUG","either","4","244","","","","","","","1","0","0","0.9789624529","","0.8","0.2","0.6","0.4","","","","","0.9789624529","0.261346942","0.6574847675","0.8301291561","","","","","","","","72","H","0","img/none_selected.jpg","","3","main_expt",""
"","bandit","83","309135","0.0-44.0-0.0","74777776","wem/bandit_either_3","A3S1TLYMH9WWUG","either","4","240","","","","","","","1","0","0","0.9565345184","","0.8","0.2","0.6","0.4","","","","","0.9565345184","0.2757740293","0.5092805277","0.8219157537","","","","","","","","72","H","0","img/none_selected.jpg","","4","main_expt",""
"","bandit","84","310896","0.0-45.0-0.0","74777776","wem/bandit_either_3","A3S1TLYMH9WWUG","either","4","240","","","","","","","1","0","0","0.941194936","","0.8","0.2","0.6","0.4","","","","","0.941194936","0.3329857669","0.5952926025","0.7759220463","","","","","","","","72","H","0","img/none_selected.jpg","","5","main_expt",""
"","bandit","85","312689","0.0-46.0-0.0","74777776","wem/bandit_either_3","A3S1TLYMH9WWUG","either","4","276","","","","","","","1","0","0","0.9305219143","","0.8","0.2","0.6","0.4","","","","","0.9305219143","0.331878758","0.6160758637","0.7495930044","","","","","","","","72","H","0","img/none_selected.jpg","","6","main_expt",""
"","bandit","86","314465","0.0-47.0-0.0","74777776","wem/bandit_either_3","A3S1TLYMH9WWUG","either","4","253","","","","","","","1","0","0","0.937738562","","0.8","0.2","0.6","0.4","","","","","0.937738562","0.3863389794","0.6381806331","0.7078030286","","","","","","","","72","H","0","img/none_selected.jpg","","7","main_expt",""
"","bandit","87","316225","0.0-48.0-0.0","74777776","wem/bandit_either_3","A3S1TLYMH9WWUG","either","4","244","","","","","","","1","0","0","0.8269671957","","0.8","0.2","0.6","0.4","","","","","0.8269671957","0.4242016385","0.7047831713","0.689407674","","","","","","","","72","H","0","img/none_selected.jpg","","8","main_expt",""
"","bandit","88","317969","0.0-49.0-0.0","74777776","wem/bandit_either_3","A3S1TLYMH9WWUG","either","4","223","","","","","","","1","0","0","0.7696709776","","0.8","0.2","0.6","0.4","","","","","0.7696709776","0.379169242","0.6222923336","0.7848236408","","","","","","","","72","H","0","img/none_selected.jpg","","9","main_expt",""
"","bandit","89","319725","0.0-50.0-0.0","74777776","wem/bandit_either_3","A3S1TLYMH9WWUG","either","4","243","","","","","","","1","0","0","0.7313552403","","0.8","0.2","0.6","0.4","","","","","0.7313552403","0.40569916","0.5629201009","0.791363481","","","","","","","","72","H","0","img/none_selected.jpg","","10","main_expt",""
"","bandit","90","321505","0.0-51.0-0.0","74777776","wem/bandit_either_3","A3S1TLYMH9WWUG","either","4","263","","","","","","","0","0","1","","0.8129169819","0.8","0.2","0.6","0.4","0.8129169819","0.4188021694","0.644159789","0.7800632456","","","","","","","","","","","","72","H","0","img/none_selected.jpg","","11","main_expt",""
"","bandit","91","323259","0.0-52.0-0.0","74777776","wem/bandit_either_3","A3S1TLYMH9WWUG","either","4","237","","","","","","","1","0","0","0.7611571711","","0.8","0.2","0.6","0.4","","","","","0.7611571711","0.3689559917","0.6840372722","0.7559884596","","","","","","","","72","H","0","img/none_selected.jpg","","12","main_expt",""
"","bandit","92","324997","0.0-53.0-0.0","74777776","wem/bandit_either_3","A3S1TLYMH9WWUG","either","4","233","","","","","","","0","0","1","0.7628417147","","0.8","0.2","0.6","0.4","","","","","0.7628417147","0.4584943612","0.6236151953","0.7695577991","","","","","","","","72","H","0","img/none_selected.jpg","","13","main_expt",""
"","bandit","93","326745","0.0-54.0-0.0","74777776","wem/bandit_either_3","A3S1TLYMH9WWUG","either","4","234","","","","","","","1","0","0","0.455083938","","0.8","0.2","0.6","0.4","","","","","0.7436451733","0.455083938","0.5388331182","0.8509931145","","","","","","","","74","J","1","","","14","main_expt",""
"","bandit","94","328468","0.0-55.0-0.0","74777776","wem/bandit_either_3","A3S1TLYMH9WWUG","either","4","197","","","","","","","0","0","1","","0.5360112786","0.8","0.2","0.6","0.4","0.8256008488","0.5360112786","0.4802769188","0.7745856811","","","","","","","","","","","","74","J","1","","","15","main_expt",""
"","bandit","95","330228","0.0-56.0-0.0","74777776","wem/bandit_either_3","A3S1TLYMH9WWUG","either","4","234","","","","","","","0","0","1","0.4688000192","","0.8","0.2","0.6","0.4","","","","","0.7683027423","0.4791571541","0.4688000192","0.7576521113","","","","","","","","75","K","2","","","16","main_expt",""
"","bandit","96","332005","0.0-57.0-0.0","74777776","wem/bandit_either_3","A3S1TLYMH9WWUG","either","4","257","","","","","","","0","1","0","","0.8099558365","0.8","0.2","0.6","0.4","0.7857675768","0.5263630166","0.6000602573","0.8099558365","","","","","","","","","","","","76","L","3","","","17","main_expt",""
"","bandit","97","333778","0.0-58.0-0.0","74777776","wem/bandit_either_3","A3S1TLYMH9WWUG","either","4","247","","","","","","","0","1","0","","0.7535280451","0.8","0.2","0.6","0.4","0.7303419725","0.543945959","0.6046592687","0.7535280451","","","","","","","","","","","","76","L","3","","","18","main_expt",""
"","bandit","98","335684","0.0-59.0-0.0","74777776","wem/bandit_either_3","A3S1TLYMH9WWUG","either","4","384","","","","","","","1","0","0","0.7206444799","","0.8","0.2","0.6","0.4","","","","","0.7243255268","0.4579801682","0.6177236116","0.7206444799","","","","","","","","76","L","3","","","19","main_expt",""
"","bandit","99","337495","0.0-60.0-0.0","74777776","wem/bandit_either_3","A3S1TLYMH9WWUG","either","4","300","","","","","","","0","0","1","0.6388551968","","0.8","0.2","0.6","0.4","","","","","0.7691283854","0.5439896582","0.5484637992","0.6388551968","","","","","","","","76","L","3","","","20","main_expt",""
"","bandit","100","339259","0.0-61.0-0.0","74777776","wem/bandit_either_3","A3S1TLYMH9WWUG","either","4","253","","","","","","","0","1","0","","0.4956822649","0.8","0.2","0.6","0.4","0.7068464658","0.5796019833","0.6646151354","0.4956822649","","","","","","","","","","","","76","L","3","","","21","main_expt",""
"","bandit","101","341025","0.0-62.0-0.0","74777776","wem/bandit_either_3","A3S1TLYMH9WWUG","either","4","242","","","","","","","1","0","0","0.4316307404","","0.8","0.2","0.6","0.4","","","","","0.7407239748","0.5885929095","0.7223938077","0.4316307404","","","","","","","","76","L","3","","","22","main_expt",""
"","bandit","102","342804","0.0-63.0-0.0","74777776","wem/bandit_either_3","A3S1TLYMH9WWUG","either","4","253","","","","","","","1","0","0","0.4158022912","","0.8","0.2","0.6","0.4","","","","","0.7300920021","0.4899642796","0.7548690184","0.4158022912","","","","","","","","76","L","3","","","23","main_expt",""
"","bandit","103","344641","0.0-64.0-0.0","74777776","wem/bandit_either_3","A3S1TLYMH9WWUG","either","4","314","","","","","","","0","0","1","0.4099928258","","0.8","0.2","0.6","0.4","","","","","0.7074307303","0.4984159311","0.7794954679","0.4099928258","","","","","","","","76","L","3","","","24","main_expt",""
"","bandit","104","346434","0.0-65.0-0.0","74777776","wem/bandit_either_3","A3S1TLYMH9WWUG","either","4","273","","","","","","","0","0","1","","0.4303724308","0.8","0.2","0.6","0.4","0.6228099684","0.5885503773","0.8029664172","0.4303724308","","","","","","","","","","","","76","L","3","","","25","main_expt",""
"","bandit","105","348175","0.0-66.0-0.0","74777776","wem/bandit_either_3","A3S1TLYMH9WWUG","either","4","220","","","","","","","1","0","0","0.5588879168","","0.8","0.2","0.6","0.4","","","","","0.5588879168","0.6978100054","0.6980766755","0.3291624114","","","","","","","","72","H","0","img/none_selected.jpg","","26","main_expt",""
"","bandit","106","349921","0.0-67.0-0.0","74777776","wem/bandit_either_3","A3S1TLYMH9WWUG","either","4","223","","","","","","","0","0","1","0.5033257713","","0.8","0.2","0.6","0.4","","","","","0.5033257713","0.6442468271","0.7021498626","0.3795789415","","","","","","","","72","H","0","img/none_selected.jpg","","27","main_expt",""
"","bandit","107","351644","0.0-68.0-0.0","74777776","wem/bandit_either_3","A3S1TLYMH9WWUG","either","4","206","","","","","","","1","0","0","0.4915102133","","0.8","0.2","0.6","0.4","","","","","0.4915102133","0.7399213538","0.7802436781","0.3208573938","","","","","","","","72","H","0","img/none_selected.jpg","","28","main_expt",""
"","bandit","108","353374","0.0-69.0-0.0","74777776","wem/bandit_either_3","A3S1TLYMH9WWUG","either","4","210","","","","","","","0","0","1","0.4291187576","","0.8","0.2","0.6","0.4","","","","","0.4291187576","0.7520253205","0.6907923131","0.3352919619","","","","","","","","72","H","0","img/none_selected.jpg","","29","main_expt",""
"","bandit","109","355087","0.0-70.0-0.0","74777776","wem/bandit_either_3","A3S1TLYMH9WWUG","either","4","193","","","","","","","0","1","0","","0.7528469829","0.8","0.2","0.6","0.4","0.5379907803","0.7528469829","0.6771306444","0.3452717309","","","","","","","","","","","","74","J","1","","","30","main_expt",""
"","bandit","110","356834","0.0-71.0-0.0","74777776","wem/bandit_either_3","A3S1TLYMH9WWUG","either","4","224","","","","","","","0","0","1","","0.7571908429","0.8","0.2","0.6","0.4","0.646046857","0.7571908429","0.7130915948","0.2967094522","","","","","","","","","","","","74","J","1","","","31","main_expt",""
"","bandit","111","358604","0.0-72.0-0.0","74777776","wem/bandit_either_3","A3S1TLYMH9WWUG","either","4","250","","","","","","","0","1","0","","0.7530934884","0.8","0.2","0.6","0.4","0.5608885347","0.7530934884","0.6849190202","0.255781972","","","","","","","","","","","","74","J","1","","","32","main_expt",""
"","bandit","112","360358","0.0-73.0-0.0","74777776","wem/bandit_either_3","A3S1TLYMH9WWUG","either","4","246","","","","","","","0","1","0","","0.7163673585","0.8","0.2","0.6","0.4","0.5952322697","0.7163673585","0.7392612035","0.2703771925","","","","","","","","","","","","74","J","1","","","33","main_expt",""
"","bandit","113","362094","0.0-74.0-0.0","74777776","wem/bandit_either_3","A3S1TLYMH9WWUG","either","4","223","","","","","","","0","0","1","","0.6817248107","0.8","0.2","0.6","0.4","0.6206609301","0.6817248107","0.7026009082","0.3572673824","","","","","","","","","","","","74","J","1","","","34","main_expt",""
"","bandit","114","363812","0.0-75.0-0.0","74777776","wem/bandit_either_3","A3S1TLYMH9WWUG","either","4","176","","","","","","","0","1","0","","0.6903641832","0.8","0.2","0.6","0.4","0.6223058769","0.6903641832","0.632003728","0.3237575066","","","","","","","","","","","","74","J","1","","","35","main_expt",""
"","bandit","115","365527","0.0-76.0-0.0","74777776","wem/bandit_either_3","A3S1TLYMH9WWUG","either","4","206","","","","","","","0","1","0","","0.6953747248","0.8","0.2","0.6","0.4","0.7304722347","0.6953747248","0.7266912659","0.3724209237","","","","","","","","","","","","74","J","1","","","36","main_expt",""
"","bandit","116","367266","0.0-77.0-0.0","74777776","wem/bandit_either_3","A3S1TLYMH9WWUG","either","4","221","","","","","","","0","1","0","","0.7552078918","0.8","0.2","0.6","0.4","0.6789706255","0.7552078918","0.5512211225","0.3848591071","","","","","","","","","","","","74","J","1","","","37","main_expt",""
"","bandit","117","369012","0.0-78.0-0.0","74777776","wem/bandit_either_3","A3S1TLYMH9WWUG","either","4","222","","","","","","","0","0","1","","0.7095976639","0.8","0.2","0.6","0.4","0.6758320082","0.7095976639","0.5888446875","0.4026628424","","","","","","","","","","","","74","J","1","","","38","main_expt",""
"","bandit","118","370785","0.0-79.0-0.0","74777776","wem/bandit_either_3","A3S1TLYMH9WWUG","either","4","260","","","","","","","0","1","0","","0.7813817897","0.8","0.2","0.6","0.4","0.753286291","0.7813817897","0.7349010221","0.460229008","","","","","","","","","","","","74","J","1","","","39","main_expt",""
"","bandit","119","372515","0.0-80.0-0.0","74777776","wem/bandit_either_3","A3S1TLYMH9WWUG","either","4","210","","","","","","","0","1","0","","0.7604460558","0.8","0.2","0.6","0.4","0.7527041006","0.7604460558","0.6715391024","0.3392787789","","","","","","","","","","","","74","J","1","","","40","main_expt",""
"","bandit","120","374218","0.0-81.0-0.0","74777776","wem/bandit_either_3","A3S1TLYMH9WWUG","either","4","196","","","","","","","0","0","1","","0.7588214983","0.8","0.2","0.6","0.4","0.7900808451","0.7588214983","0.688235262","0.2983701942","","","","","","","","","","","","74","J","1","","","41","main_expt",""
"","bandit","121","375974","0.0-82.0-0.0","74777776","wem/bandit_either_3","A3S1TLYMH9WWUG","either","4","233","","","","","","","1","0","0","0.750516412","","0.8","0.2","0.6","0.4","","","","","0.7261157662","0.8204813903","0.750516412","0.2390858253","","","","","","","","75","K","2","","","42","main_expt",""
"","bandit","122","377695","0.0-83.0-0.0","74777776","wem/bandit_either_3","A3S1TLYMH9WWUG","either","4","204","","","","","","","0","0","1","0.775378891","","0.8","0.2","0.6","0.4","","","","","0.772887471","0.8310219988","0.775378891","0.1877526289","","","","","","","","75","K","2","","","43","main_expt",""
"","bandit","123","379428","0.0-84.0-0.0","74777776","wem/bandit_either_3","A3S1TLYMH9WWUG","either","4","216","","","","","","","1","0","0","0.5983035632","","0.8","0.2","0.6","0.4","","","","","0.7359848823","0.8165903167","0.5983035632","0.2713877418","","","","","","","","75","K","2","","","44","main_expt",""
"","bandit","124","381168","0.0-85.0-0.0","74777776","wem/bandit_either_3","A3S1TLYMH9WWUG","either","4","223","","","","","","","0","0","1","0.6453890447","","0.8","0.2","0.6","0.4","","","","","0.6223954065","0.6765015189","0.6453890447","0.2600408605","","","","","","","","75","K","2","","","45","main_expt",""
"","bandit","125","382914","0.0-86.0-0.0","74777776","wem/bandit_either_3","A3S1TLYMH9WWUG","either","4","230","","","","","","","0","0","1","","0.5963379238","0.8","0.2","0.6","0.4","0.5963379238","0.6613510417","0.4979639723","0.2435580982","","","","","","","","","","","","72","H","0","img/none_selected.jpg","","46","main_expt",""
"","bandit","126","384658","0.0-87.0-0.0","74777776","wem/bandit_either_3","A3S1TLYMH9WWUG","either","4","224","","","","","","","1","0","0","0.6161308884","","0.8","0.2","0.6","0.4","","","","","0.6161308884","0.7373034573","0.4475739324","0.3258971046","","","","","","","","72","H","0","img/none_selected.jpg","","47","main_expt",""
"","bandit","127","386402","0.0-88.0-0.0","74777776","wem/bandit_either_3","A3S1TLYMH9WWUG","either","4","223","","","","","","","0","0","1","0.6354722558","","0.8","0.2","0.6","0.4","","","","","0.6354722558","0.6580913366","0.570942939","0.2934977076","","","","","","","","72","H","0","img/none_selected.jpg","","48","main_expt",""
"","bandit","128","388164","0.0-89.0-0.0","74777776","wem/bandit_either_3","A3S1TLYMH9WWUG","either","4","239","","","","","","","0","0","1","","0.3381222087","0.8","0.2","0.6","0.4","0.5941747261","0.6518545324","0.5943858444","0.3381222087","","","","","","","","","","","","76","L","3","","","49","main_expt",""
"","bandit","129","389858","0.0-90.0-0.0","74777776","wem/bandit_either_3","A3S1TLYMH9WWUG","either","4","173","","","","","","","0","0","1","","0.4149653651","0.8","0.2","0.6","0.4","0.5510631732","0.6362385309","0.72156704","0.4149653651","","","","","","","","","","","","76","L","3","","","50","main_expt",""
"","bandit","130","391592","0.0-91.0-0.0","74777776","wem/bandit_either_3","A3S1TLYMH9WWUG","either","4","223","","","","","","","0","1","0","","0.6673370403","0.8","0.2","0.6","0.4","0.5580995271","0.6673370403","0.6453884322","0.315936401","","","","","","","","","","","","74","J","1","","","51","main_expt",""
"","bandit","131","393311","0.0-92.0-0.0","74777776","wem/bandit_either_3","A3S1TLYMH9WWUG","either","4","202","","","","","","","0","1","0","","0.6614759556","0.8","0.2","0.6","0.4","0.4492126091","0.6614759556","0.635653338","0.34776451","","","","","","","","","","","","74","J","1","","","52","main_expt",""
"","bandit","132","395007","0.0-93.0-0.0","74777776","wem/bandit_either_3","A3S1TLYMH9WWUG","either","4","183","","","","","","","0","0","1","","0.5099009019","0.8","0.2","0.6","0.4","0.4600129001","0.5099009019","0.5700640027","0.2946288454","","","","","","","","","","","","74","J","1","","","53","main_expt",""
"","bandit","133","396750","0.0-94.0-0.0","74777776","wem/bandit_either_3","A3S1TLYMH9WWUG","either","4","224","","","","","","","0","0","1","0.4535518587","","0.8","0.2","0.6","0.4","","","","","0.4005354829","0.5323874036","0.4535518587","0.3757560715","","","","","","","","75","K","2","","","54","main_expt",""
"","bandit","134","398460","0.0-95.0-0.0","74777776","wem/bandit_either_3","A3S1TLYMH9WWUG","either","4","200","","","","","","","1","0","0","0.3305694417","","0.8","0.2","0.6","0.4","","","","","0.3305694417","0.5410243768","0.4271895083","0.3258455482","","","","","","","","72","H","0","img/none_selected.jpg","","55","main_expt",""
"","bandit","135","400214","0.0-96.0-0.0","74777776","wem/bandit_either_3","A3S1TLYMH9WWUG","either","4","244","","","","","","","0","0","1","","0.3443449075","0.8","0.2","0.6","0.4","0.3443449075","0.5594159285","0.3506641683","0.4350401219","","","","","","","","","","","","72","H","0","img/none_selected.jpg","","56","main_expt",""
"","bandit","136","401950","0.0-97.0-0.0","74777776","wem/bandit_either_3","A3S1TLYMH9WWUG","either","4","224","","","","","","","0","1","0","","0.5057935102","0.8","0.2","0.6","0.4","0.3719720486","0.5057935102","0.3266461122","0.3707313189","","","","","","","","","","","","74","J","1","","","57","main_expt",""
"","bandit","137","403690","0.0-98.0-0.0","74777776","wem/bandit_either_3","A3S1TLYMH9WWUG","either","4","230","","","","","","","0","0","1","","0.4921421838","0.8","0.2","0.6","0.4","0.2230753252","0.4921421838","0.3024401834","0.5588799977","","","","","","","","","","","","74","J","1","","","58","main_expt",""
"","bandit","138","405424","0.0-99.0-0.0","74777776","wem/bandit_either_3","A3S1TLYMH9WWUG","either","4","214","","","","","","","0","0","1","0.4740341295","","0.8","0.2","0.6","0.4","","","","","0.2255195526","0.4740341295","0.4306619987","0.6863198467","","","","","","","","74","J","1","","","59","main_expt",""
"","bandit","139","407114","0.0-100.0-0.0","74777776","wem/bandit_either_3","A3S1TLYMH9WWUG","either","4","183","","","","","","","0","0","1","0.2150487889","","0.8","0.2","0.6","0.4","","","","","0.2150487889","0.4853159436","0.4710521126","0.6998437478","","","","","","","","72","H","0","img/none_selected.jpg","","60","main_expt",""
"","bandit","140","408900","0.0-101.0-0.0","74777776","wem/bandit_either_3","A3S1TLYMH9WWUG","either","4","263","","","","","","","1","0","0","0.2670703017","","0.8","0.2","0.6","0.4","","","","","0.2670703017","0.4843563089","0.4797168847","0.7027468204","","","","","","","","72","H","0","img/none_selected.jpg","","61","main_expt",""
"","bandit","141","410623","0.0-102.0-0.0","74777776","wem/bandit_either_3","A3S1TLYMH9WWUG","either","4","210","","","","","","","0","0","1","0.1622034337","","0.8","0.2","0.6","0.4","","","","","0.1622034337","0.4970562682","0.441351191","0.7461433662","","","","","","","","72","H","0","img/none_selected.jpg","","62","main_expt",""
"","bandit","142","412283","0.0-103.0-0.0","74777776","wem/bandit_either_3","A3S1TLYMH9WWUG","either","4","144","","","","","","","1","0","0","0.6405696824","","0.8","0.2","0.6","0.4","","","","","0.1872430185","0.4870743105","0.6405696824","0.7956877632","","","","","","","","75","K","2","","","63","main_expt",""
"","bandit","143","413993","0.0-104.0-0.0","74777776","wem/bandit_either_3","A3S1TLYMH9WWUG","either","4","204","","","","","","","0","0","1","","0.5093225209","0.8","0.2","0.6","0.4","0.1921602407","0.5297884171","0.5093225209","0.7533911137","","","","","","","","","","","","75","K","2","","","64","main_expt",""
"","bandit","144","415683","0.0-105.0-0.0","74777776","wem/bandit_either_3","A3S1TLYMH9WWUG","either","4","167","","","","","","","0","1","0","","0.5190422554","0.8","0.2","0.6","0.4","0.1747679693","0.5510281753","0.5190422554","0.8407665504","","","","","","","","","","","","75","K","2","","","65","main_expt",""
"","bandit","145","417393","0.0-106.0-0.0","74777776","wem/bandit_either_3","A3S1TLYMH9WWUG","either","4","190","","","","","","","0","0","1","","0.4367989657","0.8","0.2","0.6","0.4","0.149475979","0.6548378986","0.4367989657","0.8392190168","","","","","","","","","","","","75","K","2","","","66","main_expt",""
"","bandit","146","419123","0.0-107.0-0.0","74777776","wem/bandit_either_3","A3S1TLYMH9WWUG","either","4","207","","","","","","","0","1","0","","0.7998105719","0.8","0.2","0.6","0.4","0.1340316754","0.7873643744","0.4515976155","0.7998105719","","","","","","","","","","","","76","L","3","","","67","main_expt",""
"","bandit","147","420797","0.0-108.0-0.0","74777776","wem/bandit_either_3","A3S1TLYMH9WWUG","either","4","163","","","","","","","0","0","1","","0.8055175736","0.8","0.2","0.6","0.4","0.1635100664","0.8374830125","0.4605235732","0.8055175736","","","","","","","","","","","","76","L","3","","","68","main_expt",""
"","bandit","148","422543","0.0-109.0-0.0","74777776","wem/bandit_either_3","A3S1TLYMH9WWUG","either","4","233","","","","","","","1","0","0","0.9157616325","","0.8","0.2","0.6","0.4","","","","","0.1227365859","0.7948054761","0.3799115548","0.9157616325","","","","","","","","76","L","3","","","69","main_expt",""
"","bandit","149","424327","0.0-110.0-0.0","74777776","wem/bandit_either_3","A3S1TLYMH9WWUG","either","4","257","","","","","","","0","0","1","","0.9575411193","0.8","0.2","0.6","0.4","0.1248437045","0.8257183208","0.4215965018","0.9575411193","","","","","","","","","","","","76","L","3","","","70","main_expt",""
"","bandit","150","426050","0.0-111.0-0.0","74777776","wem/bandit_either_3","A3S1TLYMH9WWUG","either","4","206","","","","","","","0","0","1","","0.1153860856","0.8","0.2","0.6","0.4","0.1153860856","0.7378076352","0.4069040491","0.9604429572","","","","","","","","","","","","72","H","0","img/none_selected.jpg","","71","main_expt",""
"","bandit","151","427710","0.0-112.0-0.0","74777776","wem/bandit_either_3","A3S1TLYMH9WWUG","either","4","141","","","","","","","0","1","0","","0.1355011504","0.8","0.2","0.6","0.4","0.1355011504","0.7402058239","0.4396577013","0.9598545795","","","","","","","","","","","","72","H","0","img/none_selected.jpg","","72","main_expt",""
"","bandit","152","429476","0.0-113.0-0.0","74777776","wem/bandit_either_3","A3S1TLYMH9WWUG","either","4","243","","","","","","","1","0","0","0.05996807606","","0.8","0.2","0.6","0.4","","","","","0.05996807606","0.6976791507","0.6562772762","0.944667289","","","","","","","","72","H","0","img/none_selected.jpg","","73","main_expt",""
"","bandit","153","431197","0.0-114.0-0.0","74777776","wem/bandit_either_3","A3S1TLYMH9WWUG","either","4","207","","","","","","","0","0","1","0.05405538329","","0.8","0.2","0.6","0.4","","","","","0.05405538329","0.7918365236","0.6973429816","0.9226304804","","","","","","","","72","H","0","img/none_selected.jpg","","74","main_expt",""
"","bandit","154","432929","0.0-115.0-0.0","74777776","wem/bandit_either_3","A3S1TLYMH9WWUG","either","4","212","","","","","","","0","0","1","0.02989929625","","0.8","0.2","0.6","0.4","","","","","0.02989929625","0.7822783488","0.7736122178","0.9398646798","","","","","","","","72","H","0","img/none_selected.jpg","","75","main_expt",""
"","bandit","155","434502","0.0-116.0-0.0","74777776","wem/bandit_either_3","A3S1TLYMH9WWUG","either","4","54","","","","","","","0","1","0","","0.7290889389","0.8","0.2","0.6","0.4","0.0563551135","0.7290889389","0.8130420724","0.9344412274","","","","","","","","","","","","74","J","1","","","76","main_expt",""
"","bandit","156","436255","0.0-117.0-0.0","74777776","wem/bandit_either_3","A3S1TLYMH9WWUG","either","4","234","","","","","","","0","1","0","","0.7903383215","0.8","0.2","0.6","0.4","0.0510075381","0.7903383215","0.8182773084","0.9512527415","","","","","","","","","","","","74","J","1","","","77","main_expt",""
"","bandit","157","437996","0.0-118.0-0.0","74777776","wem/bandit_either_3","A3S1TLYMH9WWUG","either","4","228","","","","","","","0","1","0","","0.8093770606","0.8","0.2","0.6","0.4","0.07280641377","0.8093770606","0.910984946","0.945324638","","","","","","","","","","","","74","J","1","","","78","main_expt",""
"","bandit","158","439712","0.0-119.0-0.0","74777776","wem/bandit_either_3","A3S1TLYMH9WWUG","either","4","194","","","","","","","1","0","0","0.7310189459","","0.8","0.2","0.6","0.4","","","","","0.06591604593","0.7310189459","0.9303795674","0.9313693401","","","","","","","","74","J","1","","","79","main_expt",""
"","bandit","159","441453","0.0-120.0-0.0","74777776","wem/bandit_either_3","A3S1TLYMH9WWUG","either","4","224","","","","","","","0","1","0","","0.7915113188","0.8","0.2","0.6","0.4","0.02790121052","0.7915113188","0.9581515868","0.9272018461","","","","","","","","","","","","74","J","1","","","80","main_expt",""
"","bandit","160","443182","0.0-121.0-0.0","74777776","wem/bandit_either_3","A3S1TLYMH9WWUG","either","4","213","","","","","","","0","0","1","","0.8463201033","0.8","0.2","0.6","0.4","0.03997429631","0.8463201033","0.9107397581","0.9340165544","","","","","","","","","","","","74","J","1","","","81","main_expt",""
"","bandit","161","444882","0.0-122.0-0.0","74777776","wem/bandit_either_3","A3S1TLYMH9WWUG","either","4","180","","","","","","","0","1","0","","0.9531247327","0.8","0.2","0.6","0.4","0.03692483048","0.9043915002","0.9531247327","0.9778602254","","","","","","","","","","","","75","K","2","","","82","main_expt",""
"","bandit","162","446642","0.0-123.0-0.0","74777776","wem/bandit_either_3","A3S1TLYMH9WWUG","either","4","240","","","","","","","1","0","0","0.91574064","","0.8","0.2","0.6","0.4","","","","","0.04167024954","0.922294541","0.91574064","0.9593015187","","","","","","","","75","K","2","","","83","main_expt",""
"","bandit","163","448306","0.0-124.0-0.0","74777776","wem/bandit_either_3","A3S1TLYMH9WWUG","either","4","147","","","","","","","0","1","0","","0.9287460716","0.8","0.2","0.6","0.4","0.03449326924","0.9079954767","0.9287460716","0.9398758864","","","","","","","","","","","","75","K","2","","","84","main_expt",""
"","bandit","164","450112","0.0-125.0-0.0","74777776","wem/bandit_either_3","A3S1TLYMH9WWUG","either","4","293","","","","","","","1","0","0","0.9817994773","","0.8","0.2","0.6","0.4","","","","","0.07382848834","0.92293493","0.9817994773","0.9256746213","","","","","","","","75","K","2","","","85","main_expt",""
"","bandit","165","451872","0.0-126.0-0.0","74777776","wem/bandit_either_3","A3S1TLYMH9WWUG","either","4","244","","","","","","","1","0","0","0.9651028603","","0.8","0.2","0.6","0.4","","","","","0.08839198485","0.8831043051","0.9651028603","0.8910640916","","","","","","","","75","K","2","","","86","main_expt",""
"","bandit","166","453632","0.0-127.0-0.0","74777776","wem/bandit_either_3","A3S1TLYMH9WWUG","either","4","243","","","","","","","1","0","0","0.9364705545","","0.8","0.2","0.6","0.4","","","","","0.08767612821","0.876749115","0.9364705545","0.8729480744","","","","","","","","75","K","2","","","87","main_expt",""
"","bandit","167","455408","0.0-128.0-0.0","74777776","wem/bandit_either_3","A3S1TLYMH9WWUG","either","4","256","","","","","","","1","0","0","0.9235767634","","0.8","0.2","0.6","0.4","","","","","0.1606359608","0.9189432589","0.9235767634","0.8780151739","","","","","","","","75","K","2","","","88","main_expt",""
"","bandit","168","457172","0.0-129.0-0.0","74777776","wem/bandit_either_3","A3S1TLYMH9WWUG","either","4","247","","","","","","","0","1","0","","0.9375107972","0.8","0.2","0.6","0.4","0.2051996915","0.8770582065","0.9375107972","0.8856980863","","","","","","","","","","","","75","K","2","","","89","main_expt",""
"","bandit","169","458932","0.0-130.0-0.0","74777776","wem/bandit_either_3","A3S1TLYMH9WWUG","either","4","243","","","","","","","0","1","0","","0.9201099193","0.8","0.2","0.6","0.4","0.1757431166","0.9303780437","0.9201099193","0.8828292745","","","","","","","","","","","","75","K","2","","","90","main_expt",""
"","bandit","170","460665","0.0-131.0-0.0","74777776","wem/bandit_either_3","A3S1TLYMH9WWUG","either","4","227","","","","","","","1","0","0","0.9416722714","","0.8","0.2","0.6","0.4","","","","","0.3470073597","0.8870296602","0.9416722714","0.9016480115","","","","","","","","75","K","2","","","91","main_expt",""
"","bandit","171","462401","0.0-132.0-0.0","74777776","wem/bandit_either_3","A3S1TLYMH9WWUG","either","4","220","","","","","","","1","0","0","0.943817784","","0.8","0.2","0.6","0.4","","","","","0.4969118024","0.8466670433","0.943817784","0.9077272713","","","","","","","","75","K","2","","","92","main_expt",""
"","bandit","172","464095","0.0-133.0-0.0","74777776","wem/bandit_either_3","A3S1TLYMH9WWUG","either","4","177","","","","","","","1","0","0","0.9078517942","","0.8","0.2","0.6","0.4","","","","","0.5773598144","0.850017275","0.9078517942","0.875936713","","","","","","","","75","K","2","","","93","main_expt",""
"","bandit","173","465795","0.0-134.0-0.0","74777776","wem/bandit_either_3","A3S1TLYMH9WWUG","either","4","184","","","","","","","1","0","0","0.8983200186","","0.8","0.2","0.6","0.4","","","","","0.5513550223","0.6893652978","0.8983200186","0.8089346838","","","","","","","","75","K","2","","","94","main_expt",""
"","bandit","174","467548","0.0-135.0-0.0","74777776","wem/bandit_either_3","A3S1TLYMH9WWUG","either","4","243","","","","","","","0","1","0","","0.8744309931","0.8","0.2","0.6","0.4","0.5461825447","0.6025630118","0.8744309931","0.7472177953","","","","","","","","","","","","75","K","2","","","95","main_expt",""
"","bandit","175","469278","0.0-136.0-0.0","74777776","wem/bandit_either_3","A3S1TLYMH9WWUG","either","4","220","","","","","","","0","1","0","","0.8894212924","0.8","0.2","0.6","0.4","0.5564841108","0.5565182624","0.8894212924","0.631257407","","","","","","","","","","","","75","K","2","","","96","main_expt",""
"","bandit","176","470995","0.0-137.0-0.0","74777776","wem/bandit_either_3","A3S1TLYMH9WWUG","either","4","193","","","","","","","0","1","0","","0.891162681","0.8","0.2","0.6","0.4","0.6513715187","0.4820287155","0.891162681","0.7474787878","","","","","","","","","","","","75","K","2","","","97","main_expt",""
"","bandit","177","472656","0.0-138.0-0.0","74777776","wem/bandit_either_3","A3S1TLYMH9WWUG","either","4","143","","","","","","","1","0","0","0.8495400438","","0.8","0.2","0.6","0.4","","","","","0.7004254565","0.4599621431","0.8495400438","0.7753317291","","","","","","","","75","K","2","","","98","main_expt",""
"","bandit","178","474361","0.0-139.0-0.0","74777776","wem/bandit_either_3","A3S1TLYMH9WWUG","either","4","192","","","","","","","0","0","1","","0.8671572546","0.8","0.2","0.6","0.4","0.6473310623","0.4109144258","0.8671572546","0.7088399779","","","","","","","","","","","","75","K","2","","","99","main_expt",""
"","bandit","179","476095","0.0-140.0-0.0","74777776","wem/bandit_either_3","A3S1TLYMH9WWUG","either","4","220","","","","","","","1","0","0","0.8312294914","","0.8","0.2","0.6","0.4","","","","","0.6160818326","0.3466085394","0.8312294914","0.7328055719","","","","","","","","75","K","2","","","100","main_expt",""
"","bandit","180","477878","0.0-141.0-0.0","74777776","wem/bandit_either_3","A3S1TLYMH9WWUG","either","4","263","","","","","","","1","0","0","0.8135240708","","0.8","0.2","0.6","0.4","","","","","0.6963675268","0.3712289037","0.8135240708","0.8183789849","","","","","","","","75","K","2","","","101","main_expt",""
"","bandit","181","479601","0.0-142.0-0.0","74777776","wem/bandit_either_3","A3S1TLYMH9WWUG","either","4","203","","","","","","","0","1","0","","0.8556055773","0.8","0.2","0.6","0.4","0.6339579424","0.3626324234","0.8556055773","0.7854635714","","","","","","","","","","","","75","K","2","","","102","main_expt",""
"","bandit","182","481341","0.0-143.0-0.0","74777776","wem/bandit_either_3","A3S1TLYMH9WWUG","either","4","224","","","","","","","1","0","0","0.7632006143","","0.8","0.2","0.6","0.4","","","","","0.6908430899","0.2748825764","0.7632006143","0.8481411385","","","","","","","","75","K","2","","","103","main_expt",""
"","bandit","183","483088","0.0-144.0-0.0","74777776","wem/bandit_either_3","A3S1TLYMH9WWUG","either","4","227","","","","","","","0","1","0","","0.8273213265","0.8","0.2","0.6","0.4","0.6866318891","0.2381725209","0.8273213265","0.8129446485","","","","","","","","","","","","75","K","2","","","104","main_expt",""
"","bandit","184","484848","0.0-145.0-0.0","74777776","wem/bandit_either_3","A3S1TLYMH9WWUG","either","4","244","","","","","","","0","1","0","","0.7930501456","0.8","0.2","0.6","0.4","0.6749941214","0.1939551764","0.7930501456","0.7898688037","","","","","","","","","","","","75","K","2","","","105","main_expt",""
"","bandit","185","486583","0.0-146.0-0.0","74777776","wem/bandit_either_3","A3S1TLYMH9WWUG","either","4","226","","","","","","","1","0","0","0.7186603115","","0.8","0.2","0.6","0.4","","","","","0.7300347885","0.1884153881","0.7186603115","0.7810744832","","","","","","","","75","K","2","","","106","main_expt",""
"","bandit","186","488338","0.0-147.0-0.0","74777776","wem/bandit_either_3","A3S1TLYMH9WWUG","either","4","228","","","","","","","0","0","1","0.7155595947","","0.8","0.2","0.6","0.4","","","","","0.8133516847","0.1011451677","0.7155595947","0.7837395221","","","","","","","","75","K","2","","","107","main_expt",""
"","bandit","187","490081","0.0-148.0-0.0","74777776","wem/bandit_either_3","A3S1TLYMH9WWUG","either","4","223","","","","","","","1","0","0","0.7654707556","","0.8","0.2","0.6","0.4","","","","","0.8009432675","0.1500242655","0.7654707556","0.787971135","","","","","","","","75","K","2","","","108","main_expt",""
"","bandit","188","491821","0.0-149.0-0.0","74777776","wem/bandit_either_3","A3S1TLYMH9WWUG","either","4","221","","","","","","","0","0","1","0.6288612937","","0.8","0.2","0.6","0.4","","","","","0.7379370491","0.1285750889","0.6288612937","0.6866525704","","","","","","","","75","K","2","","","109","main_expt",""
"","bandit","189","493567","0.0-150.0-0.0","74777776","wem/bandit_either_3","A3S1TLYMH9WWUG","either","4","233","","","","","","","1","0","0","0.7379992527","","0.8","0.2","0.6","0.4","","","","","0.7379992527","0.06279291231","0.6309058105","0.5824748378","","","","","","","","72","H","0","img/none_selected.jpg","","110","main_expt",""
"","bandit","190","495250","0.0-151.0-0.0","74777776","wem/bandit_either_3","A3S1TLYMH9WWUG","either","4","167","","","","","","","1","0","0","0.7464430213","","0.8","0.2","0.6","0.4","","","","","0.7464430213","0.07144278273","0.6218965746","0.659702805","","","","","","","","72","H","0","img/none_selected.jpg","","111","main_expt",""
"","bandit","191","496985","0.0-152.0-0.0","74777776","wem/bandit_either_3","A3S1TLYMH9WWUG","either","4","220","","","","","","","1","0","0","0.7736339118","","0.8","0.2","0.6","0.4","","","","","0.7736339118","0.06013221683","0.6741482942","0.5111205641","","","","","","","","72","H","0","img/none_selected.jpg","","112","main_expt",""
"","bandit","192","498810","0.0-153.0-0.0","74777776","wem/bandit_either_3","A3S1TLYMH9WWUG","either","4","309","","","","","","","1","0","0","0.8480767854","","0.8","0.2","0.6","0.4","","","","","0.8480767854","0.1442356489","0.7405202534","0.4852392648","","","","","","","","72","H","0","img/none_selected.jpg","","113","main_expt",""
"","bandit","193","500560","0.0-154.0-0.0","74777776","wem/bandit_either_3","A3S1TLYMH9WWUG","either","4","236","","","","","","","0","1","0","","0.8016933152","0.8","0.2","0.6","0.4","0.8016933152","0.1733870882","0.743157628","0.3531287621","","","","","","","","","","","","72","H","0","img/none_selected.jpg","","114","main_expt",""
"","bandit","194","502290","0.0-155.0-0.0","74777776","wem/bandit_either_3","A3S1TLYMH9WWUG","either","4","214","","","","","","","0","0","1","0.8200260584","","0.8","0.2","0.6","0.4","","","","","0.8200260584","0.2198725907","0.7732583829","0.4090792957","","","","","","","","72","H","0","img/none_selected.jpg","","115","main_expt",""
"","bandit","195","504044","0.0-156.0-0.0","74777776","wem/bandit_either_3","A3S1TLYMH9WWUG","either","4","237","","","","","","","0","1","0","","0.7761954976","0.8","0.2","0.6","0.4","0.7761954976","0.2116870815","0.6224016225","0.4927933112","","","","","","","","","","","","72","H","0","img/none_selected.jpg","","116","main_expt",""
"","bandit","196","505777","0.0-157.0-0.0","74777776","wem/bandit_either_3","A3S1TLYMH9WWUG","either","4","213","","","","","","","1","0","0","0.7722233998","","0.8","0.2","0.6","0.4","","","","","0.7722233998","0.1293815938","0.6784399158","0.4255499736","","","","","","","","72","H","0","img/none_selected.jpg","","117","main_expt",""
"","bandit","197","507520","0.0-158.0-0.0","74777776","wem/bandit_either_3","A3S1TLYMH9WWUG","either","4","223","","","","","","","0","0","1","","0.8049831996","0.8","0.2","0.6","0.4","0.8049831996","0.1442073762","0.7499631032","0.4073726931","","","","","","","","","","","","72","H","0","img/none_selected.jpg","","118","main_expt",""
"","bandit","198","509343","0.0-159.0-0.0","74777776","wem/bandit_either_3","A3S1TLYMH9WWUG","either","4","303","","","","","","","0","0","1","0.2098334931","","0.8","0.2","0.6","0.4","","","","","0.8469405197","0.2098334931","0.6258432538","0.5447318884","","","","","","","","74","J","1","","","119","main_expt",""
"","bandit","199","511086","0.0-160.0-0.0","74777776","wem/bandit_either_3","A3S1TLYMH9WWUG","either","4","224","","","","","","","0","0","1","","0.243218138","0.8","0.2","0.6","0.4","0.783925966","0.243218138","0.5602994123","0.5336717705","","","","","","","","","","","","74","J","1","","","120","main_expt",""
"","bandit","200","512690","0.0-161.0-0.0","74777776","wem/bandit_either_3","A3S1TLYMH9WWUG","either","4","84","","","","","","","0","0","1","0.5621279662","","0.8","0.2","0.6","0.4","","","","","0.8031476983","0.1595445902","0.5850644561","0.5621279662","","","","","","","","76","L","3","","","121","main_expt",""
"","bandit","201","514383","0.0-162.0-0.0","74777776","wem/bandit_either_3","A3S1TLYMH9WWUG","either","4","177","","","","","","","1","0","0","0.5664238538","","0.8","0.2","0.6","0.4","","","","","0.776878313","0.1939767007","0.6205732407","0.5664238538","","","","","","","","76","L","3","","","122","main_expt",""
"","bandit","202","516133","0.0-163.0-0.0","74777776","wem/bandit_either_3","A3S1TLYMH9WWUG","either","4","227","","","","","","","0","0","1","0.6501842916","","0.8","0.2","0.6","0.4","","","","","0.7695343448","0.2265728871","0.7954206102","0.6501842916","","","","","","","","76","L","3","","","123","main_expt",""
"","bandit","203","517803","0.0-164.0-0.0","74777776","wem/bandit_either_3","A3S1TLYMH9WWUG","either","4","157","","","","","","","0","1","0","","0.881213352","0.8","0.2","0.6","0.4","0.6154230174","0.2027469411","0.881213352","0.5413703051","","","","","","","","","","","","75","K","2","","","124","main_expt",""
"","bandit","204","519553","0.0-165.0-0.0","74777776","wem/bandit_either_3","A3S1TLYMH9WWUG","either","4","227","","","","","","","1","0","0","0.8598562332","","0.8","0.2","0.6","0.4","","","","","0.4710930195","0.1506135949","0.8598562332","0.5191338098","","","","","","","","75","K","2","","","125","main_expt",""
"","bandit","205","521313","0.0-166.0-0.0","74777776","wem/bandit_either_3","A3S1TLYMH9WWUG","either","4","243","","","","","","","0","0","1","","0.867144728","0.8","0.2","0.6","0.4","0.5258886302","0.1875851228","0.867144728","0.6232591378","","","","","","","","","","","","75","K","2","","","126","main_expt",""
"","bandit","206","523126","0.0-167.0-0.0","74777776","wem/bandit_either_3","A3S1TLYMH9WWUG","either","4","290","","","","","","","0","0","1","0.3996486754","","0.8","0.2","0.6","0.4","","","","","0.3996486754","0.2106184636","0.8677917819","0.601333273","","","","","","","","72","H","0","img/none_selected.jpg","","127","main_expt",""
"","bandit","207","524844","0.0-168.0-0.0","74777776","wem/bandit_either_3","A3S1TLYMH9WWUG","either","4","204","","","","","","","0","1","0","","0.3557241191","0.8","0.2","0.6","0.4","0.3557241191","0.1276240755","0.8194058857","0.6312294041","","","","","","","","","","","","72","H","0","img/none_selected.jpg","","128","main_expt",""
"","bandit","208","526603","0.0-169.0-0.0","74777776","wem/bandit_either_3","A3S1TLYMH9WWUG","either","4","239","","","","","","","0","0","1","0.2432070908","","0.8","0.2","0.6","0.4","","","","","0.2432070908","0.2163335705","0.813940224","0.6655034733","","","","","","","","72","H","0","img/none_selected.jpg","","129","main_expt",""
"","bandit","209","528550","0.0-170.0-0.0","74777776","wem/bandit_either_3","A3S1TLYMH9WWUG","either","4","423","","","","","","","0","1","0","","0.7296764962","0.8","0.2","0.6","0.4","0.1722843937","0.2448863899","0.7296764962","0.6882303755","","","","","","","","","","","","75","K","2","","","130","main_expt",""
"","bandit","210","530290","0.0-171.0-0.0","74777776","wem/bandit_either_3","A3S1TLYMH9WWUG","either","4","216","","","","","","","1","0","0","0.614258276","","0.8","0.2","0.6","0.4","","","","","0.1336027919","0.3447645787","0.614258276","0.6772884453","","","","","","","","75","K","2","","","131","main_expt",""
"","bandit","211","532043","0.0-172.0-0.0","74777776","wem/bandit_either_3","A3S1TLYMH9WWUG","either","4","236","","","","","","","0","0","1","","0.5349540706","0.8","0.2","0.6","0.4","0.1351629047","0.3622527956","0.5349540706","0.6773684555","","","","","","","","","","","","75","K","2","","","132","main_expt",""
"","bandit","212","533839","0.0-173.0-0.0","74777776","wem/bandit_either_3","A3S1TLYMH9WWUG","either","4","283","","","","","","","0","0","1","","0.5449090787","0.8","0.2","0.6","0.4","0.2495029","0.2961885878","0.5449090787","0.7437755928","","","","","","","","","","","","75","K","2","","","133","main_expt",""
"","bandit","213","535713","0.0-174.0-0.0","74777776","wem/bandit_either_3","A3S1TLYMH9WWUG","either","4","351","","","","","","","0","1","0","","0.5037108559","0.8","0.2","0.6","0.4","0.2118512663","0.2932126781","0.5037108559","0.7423545867","","","","","","","","","","","","75","K","2","","","134","main_expt",""
"","bandit","214","537483","0.0-175.0-0.0","74777776","wem/bandit_either_3","A3S1TLYMH9WWUG","either","4","260","","","","","","","0","0","1","0.5131336393","","0.8","0.2","0.6","0.4","","","","","0.2474577379","0.2836439675","0.5131336393","0.7462440124","","","","","","","","75","K","2","","","135","main_expt",""
"","bandit","215","539229","0.0-176.0-0.0","74777776","wem/bandit_either_3","A3S1TLYMH9WWUG","either","4","233","","","","","","","0","0","1","","0.1985775905","0.8","0.2","0.6","0.4","0.1496333288","0.1985775905","0.5847952324","0.6372772774","","","","","","","","","","","","74","J","1","","","136","main_expt",""
"","bandit","216","540902","0.0-177.0-0.0","74777776","wem/bandit_either_3","A3S1TLYMH9WWUG","either","4","150","","","","","","","0","1","0","","0.2655975","0.8","0.2","0.6","0.4","0.164835495","0.2655975","0.5191620222","0.6587707878","","","","","","","","","","","","74","J","1","","","137","main_expt",""
"","bandit","217","542642","0.0-178.0-0.0","74777776","wem/bandit_either_3","A3S1TLYMH9WWUG","either","4","224","","","","","","","0","0","1","0.4066298912","","0.8","0.2","0.6","0.4","","","","","0.1629561883","0.4066298912","0.3830682141","0.6545472314","","","","","","","","74","J","1","","","138","main_expt",""
"","bandit","218","544499","0.0-179.0-0.0","74777776","wem/bandit_either_3","A3S1TLYMH9WWUG","either","4","334","","","","","","","0","0","1","0.5773899651","","0.8","0.2","0.6","0.4","","","","","0.1162724323","0.4537429859","0.3036015776","0.5773899651","","","","","","","","76","L","3","","","139","main_expt",""
"","bandit","219","546212","0.0-180.0-0.0","74777776","wem/bandit_either_3","A3S1TLYMH9WWUG","either","4","196","","","","","","","1","0","0","0.5786924042","","0.8","0.2","0.6","0.4","","","","","0.1262651596","0.410026376","0.2541790234","0.5786924042","","","","","","","","76","L","3","","","140","main_expt",""
"","bandit","220","547953","0.0-181.0-0.0","74777776","wem/bandit_either_3","A3S1TLYMH9WWUG","either","4","220","","","","","","","0","0","1","0.4589731036","","0.8","0.2","0.6","0.4","","","","","0.1258799353","0.3978668086","0.1899663758","0.4589731036","","","","","","","","76","L","3","","","141","main_expt",""
"","bandit","221","549696","0.0-182.0-0.0","74777776","wem/bandit_either_3","A3S1TLYMH9WWUG","either","4","220","","","","","","","0","0","1","0.1220135665","","0.8","0.2","0.6","0.4","","","","","0.1220135665","0.4096738096","0.214868544","0.3667804619","","","","","","","","72","H","0","img/none_selected.jpg","","142","main_expt",""
"","bandit","222","551392","0.0-183.0-0.0","74777776","wem/bandit_either_3","A3S1TLYMH9WWUG","either","4","179","","","","","","","0","0","1","0.1600355681","","0.8","0.2","0.6","0.4","","","","","0.1600355681","0.5422751762","0.1549416237","0.3563831379","","","","","","","","72","H","0","img/none_selected.jpg","","143","main_expt",""
"","bandit","223","553162","0.0-184.0-0.0","74777776","wem/bandit_either_3","A3S1TLYMH9WWUG","either","4","263","","","","","","","0","1","0","","0.6045197677","0.8","0.2","0.6","0.4","0.103653669","0.6045197677","0.2142728447","0.3675361202","","","","","","","","","","","","74","J","1","","","144","main_expt",""
"","bandit","224","554862","0.0-185.0-0.0","74777776","wem/bandit_either_3","A3S1TLYMH9WWUG","either","4","180","","","","","","","0","1","0","","0.6140727406","0.8","0.2","0.6","0.4","0.1417267119","0.6140727406","0.2166472609","0.3266856562","","","","","","","","","","","","74","J","1","","","145","main_expt",""
"","bandit","225","556585","0.0-186.0-0.0","74777776","wem/bandit_either_3","A3S1TLYMH9WWUG","either","4","217","","","","","","","0","1","0","","0.5553742365","0.8","0.2","0.6","0.4","0.1508894681","0.5553742365","0.2446047688","0.2815179259","","","","","","","","","","","","74","J","1","","","146","main_expt",""
"","bandit","226","558312","0.0-187.0-0.0","74777776","wem/bandit_either_3","A3S1TLYMH9WWUG","either","4","213","","","","","","","0","1","0","","0.52787167","0.8","0.2","0.6","0.4","0.1207147728","0.52787167","0.3011136322","0.3560244833","","","","","","","","","","","","74","J","1","","","147","main_expt",""
"","bandit","227","560076","0.0-188.0-0.0","74777776","wem/bandit_either_3","A3S1TLYMH9WWUG","either","4","250","","","","","","","0","1","0","","0.5053851794","0.8","0.2","0.6","0.4","0.1362234148","0.5053851794","0.2519777133","0.3585854149","","","","","","","","","","","","74","J","1","","","148","main_expt",""
"","bandit","228","561835","0.0-189.0-0.0","74777776","wem/bandit_either_3","A3S1TLYMH9WWUG","either","4","251","","","","","","","0","1","0","","0.5431256022","0.8","0.2","0.6","0.4","0.1244444975","0.5431256022","0.2996109941","0.284478414","","","","","","","","","","","","74","J","1","","","149","main_expt",""
"","bandit","229","563572","0.0-190.0-0.0","74777776","wem/bandit_either_3","A3S1TLYMH9WWUG","either","4","213","","","","","","","0","0","1","","0.422574086","0.8","0.2","0.6","0.4","0.1109305632","0.422574086","0.2963563975","0.2617238314","","","","","","","","","","","","74","J","1","","","150","main_expt",""
"","bandit","230","565335","0.0-191.0-0.0","74777776","wem/bandit_either_3","A3S1TLYMH9WWUG","either","4","236","","","","","","","0","0","1","","0.3907227364","0.8","0.2","0.6","0.4","0.11412436","0.3907227364","0.4327396174","0.2709462114","","","","","","","","","","","","74","J","1","","","151","main_expt",""
"","bandit","231","567066","0.0-192.0-0.0","74777776","wem/bandit_either_3","A3S1TLYMH9WWUG","either","4","223","","","","","","","0","1","0","","0.5580814469","0.8","0.2","0.6","0.4","0.1469045903","0.5580814469","0.4303068123","0.2993716907","","","","","","","","","","","","74","J","1","","","152","main_expt",""
"","bandit","232","568807","0.0-193.0-0.0","74777776","wem/bandit_either_3","A3S1TLYMH9WWUG","either","4","230","","","","","","","0","0","1","","0.51223936","0.8","0.2","0.6","0.4","0.1633028487","0.51223936","0.455197397","0.2733354782","","","","","","","","","","","","74","J","1","","","153","main_expt",""
"","bandit","233","570561","0.0-194.0-0.0","74777776","wem/bandit_either_3","A3S1TLYMH9WWUG","either","4","232","","","","","","","0","1","0","","0.6184454144","0.8","0.2","0.6","0.4","0.1340882311","0.4811601507","0.6184454144","0.3264007987","","","","","","","","","","","","75","K","2","","","154","main_expt",""
"","bandit","234","572234","0.0-195.0-0.0","74777776","wem/bandit_either_3","A3S1TLYMH9WWUG","either","4","165","","","","","","","0","0","1","0.5833601464","","0.8","0.2","0.6","0.4","","","","","0.1041462846","0.575425417","0.5833601464","0.204433578","","","","","","","","75","K","2","","","155","main_expt",""
"","bandit","235","573998","0.0-196.0-0.0","74777776","wem/bandit_either_3","A3S1TLYMH9WWUG","either","4","244","","","","","","","0","0","1","0.646897734","","0.8","0.2","0.6","0.4","","","","","0.08564190031","0.6109018817","0.646897734","0.07451572188","","","","","","","","75","K","2","","","156","main_expt",""
"","bandit","236","575689","0.0-197.0-0.0","74777776","wem/bandit_either_3","A3S1TLYMH9WWUG","either","4","183","","","","","","","0","0","1","","0.1251686374","0.8","0.2","0.6","0.4","0.06977116317","0.6812883852","0.6912470103","0.1251686374","","","","","","","","","","","","76","L","3","","","157","main_expt",""
"","bandit","237","577395","0.0-198.0-0.0","74777776","wem/bandit_either_3","A3S1TLYMH9WWUG","either","4","182","","","","","","","0","0","1","0.1292052795","","0.8","0.2","0.6","0.4","","","","","0.1504927074","0.73777041","0.7865398282","0.1292052795","","","","","","","","76","L","3","","","158","main_expt",""
"","bandit","238","579118","0.0-199.0-0.0","74777776","wem/bandit_either_3","A3S1TLYMH9WWUG","either","4","209","","","","","","","0","0","1","0.1429264201","","0.8","0.2","0.6","0.4","","","","","0.1429264201","0.8388849062","0.7220910122","0.1200050714","","","","","","","","72","H","0","img/none_selected.jpg","","159","main_expt",""
"","bandit","239","580848","0.0-200.0-0.0","74777776","wem/bandit_either_3","A3S1TLYMH9WWUG","either","4","210","","","","","","","0","0","1","0.1832893837","","0.8","0.2","0.6","0.4","","","","","0.1832893837","0.8006667519","0.710563805","0.1156014834","","","","","","","","72","H","0","img/none_selected.jpg","","160","main_expt",""
"","bandit","240","582571","0.0-201.0-0.0","74777776","wem/bandit_either_3","A3S1TLYMH9WWUG","either","4","213","","","","","","","0","1","0","","0.7406956812","0.8","0.2","0.6","0.4","0.2337310763","0.7406956812","0.6205281072","0.1425751263","","","","","","","","","","","","74","J","1","","","161","main_expt",""
"","bandit","241","584318","0.0-202.0-0.0","74777776","wem/bandit_either_3","A3S1TLYMH9WWUG","either","4","230","","","","","","","0","0","1","","0.775259894","0.8","0.2","0.6","0.4","0.2326198937","0.775259894","0.5246840185","0.2108345254","","","","","","","","","","","","74","J","1","","","162","main_expt",""
"","bandit","242","586067","0.0-203.0-0.0","74777776","wem/bandit_either_3","A3S1TLYMH9WWUG","either","4","233","","","","","","","0","1","0","","0.6539471222","0.8","0.2","0.6","0.4","0.1584290897","0.6539471222","0.569340372","0.1664621688","","","","","","","","","","","","74","J","1","","","163","main_expt",""
"","bandit","243","587781","0.0-204.0-0.0","74777776","wem/bandit_either_3","A3S1TLYMH9WWUG","either","4","194","","","","","","","0","1","0","","0.7914062868","0.8","0.2","0.6","0.4","0.1417900361","0.7914062868","0.5688323765","0.1741279052","","","","","","","","","","","","74","J","1","","","164","main_expt",""
"","bandit","244","589527","0.0-205.0-0.0","74777776","wem/bandit_either_3","A3S1TLYMH9WWUG","either","4","223","","","","","","","0","1","0","","0.8415061218","0.8","0.2","0.6","0.4","0.08849486786","0.8415061218","0.5195648955","0.1891196979","","","","","","","","","","","","74","J","1","","","165","main_expt",""
"","bandit","245","591268","0.0-206.0-0.0","74777776","wem/bandit_either_3","A3S1TLYMH9WWUG","either","4","220","","","","","","","0","1","0","","0.9084068317","0.8","0.2","0.6","0.4","0.1010416226","0.9084068317","0.536500984","0.3016440744","","","","","","","","","","","","74","J","1","","","166","main_expt",""
"","bandit","246","593030","0.0-207.0-0.0","74777776","wem/bandit_either_3","A3S1TLYMH9WWUG","either","4","243","","","","","","","0","1","0","","0.8857506799","0.8","0.2","0.6","0.4","0.1506776516","0.8857506799","0.4243381616","0.3427468607","","","","","","","","","","","","74","J","1","","","167","main_expt",""
"","bandit","247","594760","0.0-208.0-0.0","74777776","wem/bandit_either_3","A3S1TLYMH9WWUG","either","4","224","","","","","","","0","1","0","","0.9247721234","0.8","0.2","0.6","0.4","0.2532220847","0.9247721234","0.4877327119","0.3759001064","","","","","","","","","","","","74","J","1","","","168","main_expt",""
"","bandit","248","596497","0.0-209.0-0.0","74777776","wem/bandit_either_3","A3S1TLYMH9WWUG","either","4","220","","","","","","","0","1","0","","0.8870410368","0.8","0.2","0.6","0.4","0.2223654062","0.8870410368","0.5096331713","0.3824832387","","","","","","","","","","","","74","J","1","","","169","main_expt",""
"","bandit","249","598261","0.0-210.0-0.0","74777776","wem/bandit_either_3","A3S1TLYMH9WWUG","either","4","237","","","","","","","0","1","0","","0.8782412079","0.8","0.2","0.6","0.4","0.2161840498","0.8782412079","0.6111595203","0.3257043992","","","","","","","","","","","","74","J","1","","","170","main_expt",""
"","bandit","250","599984","0.0-211.0-0.0","74777776","wem/bandit_either_3","A3S1TLYMH9WWUG","either","4","209","","","","","","","0","0","1","","0.7978982074","0.8","0.2","0.6","0.4","0.1996440145","0.7978982074","0.5888321224","0.2943589708","","","","","","","","","","","","74","J","1","","","171","main_expt",""
"","bandit","251","601614","0.0-212.0-0.0","74777776","wem/bandit_either_3","A3S1TLYMH9WWUG","either","4","113","","","","","","","0","1","0","","0.7896885826","0.8","0.2","0.6","0.4","0.275753823","0.7896885826","0.6295404033","0.4298537702","","","","","","","","","","","","74","J","1","","","172","main_expt",""
"","bandit","252","603360","0.0-213.0-0.0","74777776","wem/bandit_either_3","A3S1TLYMH9WWUG","either","4","233","","","","","","","0","1","0","","0.7771385218","0.8","0.2","0.6","0.4","0.2850946521","0.7771385218","0.5976712981","0.4196262671","","","","","","","","","","","","74","J","1","","","173","main_expt",""
"","bandit","253","605122","0.0-214.0-0.0","74777776","wem/bandit_either_3","A3S1TLYMH9WWUG","either","4","243","","","","","","","0","1","0","","0.8412209493","0.8","0.2","0.6","0.4","0.2836726952","0.8412209493","0.5936331925","0.4056978145","","","","","","","","","","","","74","J","1","","","174","main_expt",""
"","bandit","254","606894","0.0-215.0-0.0","74777776","wem/bandit_either_3","A3S1TLYMH9WWUG","either","4","255","","","","","","","0","1","0","","0.8433491626","0.8","0.2","0.6","0.4","0.27413619","0.8433491626","0.544145328","0.3323311207","","","","","","","","","","","","74","J","1","","","175","main_expt",""
"","bandit","255","608660","0.0-216.0-0.0","74777776","wem/bandit_either_3","A3S1TLYMH9WWUG","either","4","243","","","","","","","0","1","0","","0.778586436","0.8","0.2","0.6","0.4","0.2369491767","0.778586436","0.3584947592","0.3087900888","","","","","","","","","","","","74","J","1","","","176","main_expt",""
"","bandit","256","610394","0.0-217.0-0.0","74777776","wem/bandit_either_3","A3S1TLYMH9WWUG","either","4","220","","","","","","","0","0","1","","0.7488794252","0.8","0.2","0.6","0.4","0.3440943848","0.7488794252","0.436171931","0.3898613412","","","","","","","","","","","","74","J","1","","","177","main_expt",""
"","bandit","257","612223","0.0-218.0-0.0","74777776","wem/bandit_either_3","A3S1TLYMH9WWUG","either","4","309","","","","","","","0","1","0","","0.7738581751","0.8","0.2","0.6","0.4","0.3529135521","0.7738581751","0.5193680035","0.5236321052","","","","","","","","","","","","74","J","1","","","178","main_expt",""
"","bandit","258","613970","0.0-219.0-0.0","74777776","wem/bandit_either_3","A3S1TLYMH9WWUG","either","4","224","","","","","","","1","0","0","0.7527820287","","0.8","0.2","0.6","0.4","","","","","0.3787243664","0.7527820287","0.3957798075","0.2955080601","","","","","","","","74","J","1","","","179","main_expt",""
"","bandit","259","615743","0.0-220.0-0.0","74777776","wem/bandit_either_3","A3S1TLYMH9WWUG","either","4","257","","","","","","","0","1","0","","0.8022950929","0.8","0.2","0.6","0.4","0.3092677326","0.8022950929","0.4249873197","0.3174151272","","","","","","","","","","","","74","J","1","","","180","main_expt",""
"","bandit","260","617493","0.0-221.0-0.0","74777776","wem/bandit_either_3","A3S1TLYMH9WWUG","either","4","233","","","","","","","0","0","1","","0.7505347306","0.8","0.2","0.6","0.4","0.3701559146","0.7505347306","0.4260342439","0.3560995969","","","","","","","","","","","","74","J","1","","","181","main_expt",""
"","bandit","261","619310","0.0-222.0-0.0","74777776","wem/bandit_either_3","A3S1TLYMH9WWUG","either","4","303","","","","","","","0","1","0","","0.603349844","0.8","0.2","0.6","0.4","0.2672844749","0.603349844","0.4305619521","0.4649908644","","","","","","","","","","","","74","J","1","","","182","main_expt",""
"","bandit","262","621064","0.0-223.0-0.0","74777776","wem/bandit_either_3","A3S1TLYMH9WWUG","either","4","230","","","","","","","1","0","0","0.6464544124","","0.8","0.2","0.6","0.4","","","","","0.3046315644","0.6464544124","0.4638513582","0.4588174784","","","","","","","","74","J","1","","","183","main_expt",""
"","bandit","263","622823","0.0-224.0-0.0","74777776","wem/bandit_either_3","A3S1TLYMH9WWUG","either","4","248","","","","","","","0","1","0","","0.6606024443","0.8","0.2","0.6","0.4","0.3507685813","0.6606024443","0.5084330557","0.509799977","","","","","","","","","","","","74","J","1","","","184","main_expt",""
"","bandit","264","624560","0.0-225.0-0.0","74777776","wem/bandit_either_3","A3S1TLYMH9WWUG","either","4","223","","","","","","","0","1","0","","0.7034535028","0.8","0.2","0.6","0.4","0.3250269766","0.7034535028","0.5853778332","0.4557178443","","","","","","","","","","","","74","J","1","","","185","main_expt",""
"","bandit","265","626344","0.0-226.0-0.0","74777776","wem/bandit_either_3","A3S1TLYMH9WWUG","either","4","270","","","","","","","0","0","1","","0.7672503758","0.8","0.2","0.6","0.4","0.3636669497","0.7672503758","0.5009207633","0.3250172706","","","","","","","","","","","","74","J","1","","","186","main_expt",""
"","bandit","266","628143","0.0-227.0-0.0","74777776","wem/bandit_either_3","A3S1TLYMH9WWUG","either","4","282","","","","","","","0","1","0","","0.7505037824","0.8","0.2","0.6","0.4","0.4095027401","0.7505037824","0.4376492532","0.2982192525","","","","","","","","","","","","74","J","1","","","187","main_expt",""
"","bandit","267","629909","0.0-228.0-0.0","74777776","wem/bandit_either_3","A3S1TLYMH9WWUG","either","4","240","","","","","","","0","1","0","","0.7458261356","0.8","0.2","0.6","0.4","0.3356624093","0.7458261356","0.317868257","0.2647713636","","","","","","","","","","","","74","J","1","","","188","main_expt",""
"","bandit","268","631702","0.0-229.0-0.0","74777776","wem/bandit_either_3","A3S1TLYMH9WWUG","either","4","270","","","","","","","0","0","1","","0.747965221","0.8","0.2","0.6","0.4","0.3717951419","0.747965221","0.3700786551","0.2798663258","","","","","","","","","","","","74","J","1","","","189","main_expt",""
"","bandit","269","633486","0.0-230.0-0.0","74777776","wem/bandit_either_3","A3S1TLYMH9WWUG","either","4","264","","","","","","","0","1","0","","0.7459095382","0.8","0.2","0.6","0.4","0.3266606931","0.7459095382","0.3423477616","0.2146362806","","","","","","","","","","","","74","J","1","","","190","main_expt",""
"","bandit","270","635230","0.0-231.0-0.0","74777776","wem/bandit_either_3","A3S1TLYMH9WWUG","either","4","226","","","","","","","0","1","0","","0.6299055833","0.8","0.2","0.6","0.4","0.4206899072","0.6299055833","0.2488230813","0.3132783624","","","","","","","","","","","","74","J","1","","","191","main_expt",""
"","bandit","271","637013","0.0-232.0-0.0","74777776","wem/bandit_either_3","A3S1TLYMH9WWUG","either","4","272","","","","","","","0","0","1","0.688533977","","0.8","0.2","0.6","0.4","","","","","0.4982817076","0.688533977","0.2193108308","0.2488083766","","","","","","","","74","J","1","","","192","main_expt",""
"","bandit","272","638846","0.0-233.0-0.0","74777776","wem/bandit_either_3","A3S1TLYMH9WWUG","either","4","313","","","","","","","0","1","0","","0.7176496952","0.8","0.2","0.6","0.4","0.4820211017","0.7176496952","0.4057276106","0.225611763","","","","","","","","","","","","74","J","1","","","193","main_expt",""
"","bandit","273","640659","0.0-234.0-0.0","74777776","wem/bandit_either_3","A3S1TLYMH9WWUG","either","4","296","","","","","","","0","0","1","","0.746212457","0.8","0.2","0.6","0.4","0.5373891537","0.746212457","0.3826056333","0.2159393038","","","","","","","","","","","","74","J","1","","","194","main_expt",""
"","bandit","274","642419","0.0-235.0-0.0","74777776","wem/bandit_either_3","A3S1TLYMH9WWUG","either","4","243","","","","","","","1","0","0","0.4922935908","","0.8","0.2","0.6","0.4","","","","","0.3890275207","0.6800784202","0.4922935908","0.3112228701","","","","","","","","75","K","2","","","195","main_expt",""
"","bandit","275","644175","0.0-236.0-0.0","74777776","wem/bandit_either_3","A3S1TLYMH9WWUG","either","4","236","","","","","","","0","0","1","0.5475793877","","0.8","0.2","0.6","0.4","","","","","0.4329462643","0.5986295964","0.5475793877","0.3249051539","","","","","","","","75","K","2","","","196","main_expt",""
"","bandit","276","646034","0.0-237.0-0.0","74777776","wem/bandit_either_3","A3S1TLYMH9WWUG","either","4","340","","","","","","","0","1","0","","0.6069385875","0.8","0.2","0.6","0.4","0.416825946","0.5323622673","0.6069385875","0.2985018541","","","","","","","","","","","","75","K","2","","","197","main_expt",""
"","bandit","277","647826","0.0-238.0-0.0","74777776","wem/bandit_either_3","A3S1TLYMH9WWUG","either","4","268","","","","","","","1","0","0","0.4946816555","","0.8","0.2","0.6","0.4","","","","","0.4063336836","0.5348043844","0.4946816555","0.3109366799","","","","","","","","75","K","2","","","198","main_expt",""
"","bandit","278","649577","0.0-239.0-0.0","74777776","wem/bandit_either_3","A3S1TLYMH9WWUG","either","4","239","","","","","","","0","0","1","","0.479635203","0.8","0.2","0.6","0.4","0.361264989","0.4534403339","0.479635203","0.3143364341","","","","","","","","","","","","75","K","2","","","199","main_expt",""
"","bandit","279","651390","0.0-240.0-0.0","74777776","wem/bandit_either_3","A3S1TLYMH9WWUG","either","4","295","","","","","","","0","1","0","","0.4969837249","0.8","0.2","0.6","0.4","0.4700223374","0.4185876589","0.4969837249","0.3176919365","","","","","","","","","","","","75","K","2","","","200","main_expt",""
"","bandit","280","652959","0.0-241.0-0.0","74777776","wem/bandit_either_3","A3S1TLYMH9WWUG","either","4","55","","","","","","","1","0","0","0.4548125401","","0.8","0.2","0.6","0.4","","","","","0.4751543938","0.3812211227","0.4548125401","0.2848283651","","","","","","","","75","K","2","","","201","main_expt",""
"","bandit","281","654715","0.0-242.0-0.0","74777776","wem/bandit_either_3","A3S1TLYMH9WWUG","either","4","247","","","","","","","0","0","1","","0.5767771981","0.8","0.2","0.6","0.4","0.4044794657","0.4414728031","0.5767771981","0.2439676923","","","","","","","","","","","","75","K","2","","","202","main_expt",""
"","bandit","282","656469","0.0-243.0-0.0","74777776","wem/bandit_either_3","A3S1TLYMH9WWUG","either","4","244","","","","","","","0","0","1","","0.2582922662","0.8","0.2","0.6","0.4","0.3321077444","0.3698030662","0.6118171827","0.2582922662","","","","","","","","","","","","76","L","3","","","203","main_expt",""
"","bandit","283","658129","0.0-244.0-0.0","74777776","wem/bandit_either_3","A3S1TLYMH9WWUG","either","4","146","","","","","","","0","0","1","0.3799793739","","0.8","0.2","0.6","0.4","","","","","0.3697340749","0.4899087748","0.5373194108","0.3799793739","","","","","","","","76","L","3","","","204","main_expt",""
"","bandit","284","659872","0.0-245.0-0.0","74777776","wem/bandit_either_3","A3S1TLYMH9WWUG","either","4","222","","","","","","","1","0","0","0.3998168993","","0.8","0.2","0.6","0.4","","","","","0.3998168993","0.4310108402","0.5501461309","0.4441528059","","","","","","","","72","H","0","img/none_selected.jpg","","205","main_expt",""
"","bandit","285","661618","0.0-246.0-0.0","74777776","wem/bandit_either_3","A3S1TLYMH9WWUG","either","4","223","","","","","","","1","0","0","0.4929909192","","0.8","0.2","0.6","0.4","","","","","0.4929909192","0.3912115078","0.5094027242","0.4468516792","","","","","","","","72","H","0","img/none_selected.jpg","","206","main_expt",""
"","bandit","286","663360","0.0-247.0-0.0","74777776","wem/bandit_either_3","A3S1TLYMH9WWUG","either","4","227","","","","","","","1","0","0","0.4960693894","","0.8","0.2","0.6","0.4","","","","","0.4960693894","0.3195818707","0.6449696869","0.399366085","","","","","","","","72","H","0","img/none_selected.jpg","","207","main_expt",""
"","bandit","287","665132","0.0-248.0-0.0","74777776","wem/bandit_either_3","A3S1TLYMH9WWUG","either","4","258","","","","","","","0","0","1","","0.3912862986","0.8","0.2","0.6","0.4","0.3912862986","0.2378171997","0.549996868","0.4206610772","","","","","","","","","","","","72","H","0","img/none_selected.jpg","","208","main_expt",""
"","bandit","288","666928","0.0-249.0-0.0","74777776","wem/bandit_either_3","A3S1TLYMH9WWUG","either","4","283","","","","","","","0","0","1","","0.4218938049","0.8","0.2","0.6","0.4","0.4218938049","0.2339104391","0.5258833792","0.5145499259","","","","","","","","","","","","72","H","0","img/none_selected.jpg","","209","main_expt",""
"","bandit","289","668498","0.0-250.0-0.0","74777776","wem/bandit_either_3","A3S1TLYMH9WWUG","either","4","47","","","","","","","1","0","0","0.6003160005","","0.8","0.2","0.6","0.4","","","","","0.6003160005","0.2506558306","0.5453980868","0.3497539355","","","","","","","","72","H","0","img/none_selected.jpg","","210","main_expt",""
"","bandit","290","670202","0.0-251.0-0.0","74777776","wem/bandit_either_3","A3S1TLYMH9WWUG","either","4","193","","","","","","","0","0","1","0.5481562991","","0.8","0.2","0.6","0.4","","","","","0.5481562991","0.3466578502","0.5370950561","0.3335821388","","","","","","","","72","H","0","img/none_selected.jpg","","211","main_expt",""
"","bandit","291","671895","0.0-252.0-0.0","74777776","wem/bandit_either_3","A3S1TLYMH9WWUG","either","4","166","","","","","","","1","0","0","0.6210595125","","0.8","0.2","0.6","0.4","","","","","0.6210595125","0.4162959965","0.5774996514","0.2778022227","","","","","","","","72","H","0","img/none_selected.jpg","","212","main_expt",""
"","bandit","292","673615","0.0-253.0-0.0","74777776","wem/bandit_either_3","A3S1TLYMH9WWUG","either","4","206","","","","","","","0","0","1","","0.7732161257","0.8","0.2","0.6","0.4","0.7732161257","0.545788555","0.4826056363","0.2949104287","","","","","","","","","","","","72","H","0","img/none_selected.jpg","","213","main_expt",""
"","bandit","293","675371","0.0-254.0-0.0","74777776","wem/bandit_either_3","A3S1TLYMH9WWUG","either","4","243","","","","","","","0","1","0","","0.6077749924","0.8","0.2","0.6","0.4","0.7689771773","0.6077749924","0.4913277851","0.2443343027","","","","","","","","","","","","74","J","1","","","214","main_expt",""
"","bandit","294","677045","0.0-255.0-0.0","74777776","wem/bandit_either_3","A3S1TLYMH9WWUG","either","4","163","","","","","","","0","0","1","","0.4883429648","0.8","0.2","0.6","0.4","0.6841712945","0.4883429648","0.5415006571","0.2232989174","","","","","","","","","","","","74","J","1","","","215","main_expt",""
"","bandit","295","678764","0.0-256.0-0.0","74777776","wem/bandit_either_3","A3S1TLYMH9WWUG","either","4","207","","","","","","","0","0","1","","0.3309854328","0.8","0.2","0.6","0.4","0.7019934296","0.3309854328","0.5198015267","0.2918619336","","","","","","","","","","","","74","J","1","","","216","main_expt",""
"","bandit","296","680414","0.0-257.0-0.0","74777776","wem/bandit_either_3","A3S1TLYMH9WWUG","either","4","134","","","","","","","0","1","0","","0.545097872","0.8","0.2","0.6","0.4","0.7537099884","0.3310528633","0.545097872","0.3571058798","","","","","","","","","","","","75","K","2","","","217","main_expt",""
"","bandit","297","682107","0.0-258.0-0.0","74777776","wem/bandit_either_3","A3S1TLYMH9WWUG","either","4","183","","","","","","","0","0","1","","0.5776025334","0.8","0.2","0.6","0.4","0.8428980993","0.4147218791","0.5776025334","0.3738303097","","","","","","","","","","","","75","K","2","","","218","main_expt",""
"","bandit","298","683854","0.0-259.0-0.0","74777776","wem/bandit_either_3","A3S1TLYMH9WWUG","either","4","227","","","","","","","0","1","0","","0.5616346574","0.8","0.2","0.6","0.4","0.8007326434","0.3402104323","0.5616346574","0.4832874948","","","","","","","","","","","","75","K","2","","","219","main_expt",""
"","bandit","299","685598","0.0-260.0-0.0","74777776","wem/bandit_either_3","A3S1TLYMH9WWUG","either","4","233","","","","","","","0","0","1","0.6261942659","","0.8","0.2","0.6","0.4","","","","","0.8518850648","0.3448871422","0.6261942659","0.475455537","","","","","","","","75","K","2","","","220","main_expt",""
"","bandit","300","687458","0.0-261.0-0.0","74777776","wem/bandit_either_3","A3S1TLYMH9WWUG","either","4","343","","","","","","","0","0","1","","0.6533416475","0.8","0.2","0.6","0.4","0.8488451861","0.4438284365","0.6533416475","0.3849790123","","","","","","","","","","","","75","K","2","","","221","main_expt",""
"","bandit","301","689118","0.0-262.0-0.0","74777776","wem/bandit_either_3","A3S1TLYMH9WWUG","either","4","146","","","","","","","0","0","1","0.2708628555","","0.8","0.2","0.6","0.4","","","","","0.8202185963","0.3768672835","0.6780524799","0.2708628555","","","","","","","","76","L","3","","","222","main_expt",""
"","bandit","302","690884","0.0-263.0-0.0","74777776","wem/bandit_either_3","A3S1TLYMH9WWUG","either","4","241","","","","","","","1","0","0","0.3886191555","","0.8","0.2","0.6","0.4","","","","","0.839196386","0.4599748191","0.638470603","0.3886191555","","","","","","","","76","L","3","","","223","main_expt",""
"","bandit","303","692607","0.0-264.0-0.0","74777776","wem/bandit_either_3","A3S1TLYMH9WWUG","either","4","207","","","","","","","0","0","1","","0.3352763987","0.8","0.2","0.6","0.4","0.8340435664","0.5868274652","0.560582988","0.3352763987","","","","","","","","","","","","76","L","3","","","224","main_expt",""
"","bandit","304","694320","0.0-265.0-0.0","74777776","wem/bandit_either_3","A3S1TLYMH9WWUG","either","4","200","","","","","","","0","0","1","","0.3948846532","0.8","0.2","0.6","0.4","0.8229669419","0.510759767","0.5004803289","0.3948846532","","","","","","","","","","","","76","L","3","","","225","main_expt",""
"","bandit","305","695934","0.0-266.0-0.0","74777776","wem/bandit_either_3","A3S1TLYMH9WWUG","either","4","103","","","","","","","0","0","1","0.8326575293","","0.8","0.2","0.6","0.4","","","","","0.8326575293","0.6026028704","0.5109709899","0.385279681","","","","","","","","72","H","0","img/none_selected.jpg","","226","main_expt",""
"","bandit","306","697677","0.0-267.0-0.0","74777776","wem/bandit_either_3","A3S1TLYMH9WWUG","either","4","233","","","","","","","1","0","0","0.8904476858","","0.8","0.2","0.6","0.4","","","","","0.8904476858","0.588132951","0.4271661703","0.3296530349","","","","","","","","72","H","0","img/none_selected.jpg","","227","main_expt",""
"","bandit","307","699390","0.0-268.0-0.0","74777776","wem/bandit_either_3","A3S1TLYMH9WWUG","either","4","197","","","","","","","1","0","0","0.8877596604","","0.8","0.2","0.6","0.4","","","","","0.8877596604","0.5754590721","0.374673526","0.4227788413","","","","","","","","72","H","0","img/none_selected.jpg","","228","main_expt",""
"","bandit","308","701114","0.0-269.0-0.0","74777776","wem/bandit_either_3","A3S1TLYMH9WWUG","either","4","210","","","","","","","1","0","0","0.8647697669","","0.8","0.2","0.6","0.4","","","","","0.8647697669","0.6311951266","0.393435759","0.4470353227","","","","","","","","72","H","0","img/none_selected.jpg","","229","main_expt",""
"","bandit","309","702845","0.0-270.0-0.0","74777776","wem/bandit_either_3","A3S1TLYMH9WWUG","either","4","213","","","","","","","1","0","0","0.8704214291","","0.8","0.2","0.6","0.4","","","","","0.8704214291","0.6164228117","0.3299431778","0.2986819632","","","","","","","","72","H","0","img/none_selected.jpg","","230","main_expt",""
"","bandit","310","704590","0.0-271.0-0.0","74777776","wem/bandit_either_3","A3S1TLYMH9WWUG","either","4","228","","","","","","","1","0","0","0.8598686354","","0.8","0.2","0.6","0.4","","","","","0.8598686354","0.5943568022","0.3477061432","0.4508866759","","","","","","","","72","H","0","img/none_selected.jpg","","231","main_expt",""
"","bandit","311","706333","0.0-272.0-0.0","74777776","wem/bandit_either_3","A3S1TLYMH9WWUG","either","4","230","","","","","","","1","0","0","0.7939027672","","0.8","0.2","0.6","0.4","","","","","0.7939027672","0.6032910051","0.3430234075","0.5125968159","","","","","","","","72","H","0","img/none_selected.jpg","","232","main_expt",""
"","bandit","312","708083","0.0-273.0-0.0","74777776","wem/bandit_either_3","A3S1TLYMH9WWUG","either","4","227","","","","","","","1","0","0","0.7930400566","","0.8","0.2","0.6","0.4","","","","","0.7930400566","0.7225660168","0.2812772396","0.6020802482","","","","","","","","72","H","0","img/none_selected.jpg","","233","main_expt",""
"","bandit","313","709870","0.0-274.0-0.0","74777776","wem/bandit_either_3","A3S1TLYMH9WWUG","either","4","274","","","","","","","0","0","1","0.7549101179","","0.8","0.2","0.6","0.4","","","","","0.7549101179","0.6718439238","0.2049555934","0.5927943616","","","","","","","","72","H","0","img/none_selected.jpg","","234","main_expt",""
"","bandit","314","711623","0.0-275.0-0.0","74777776","wem/bandit_either_3","A3S1TLYMH9WWUG","either","4","233","","","","","","","1","0","0","0.7654291135","","0.8","0.2","0.6","0.4","","","","","0.7654291135","0.6025803433","0.144612338","0.5814417759","","","","","","","","72","H","0","img/none_selected.jpg","","235","main_expt",""
"","bandit","315","713426","0.0-276.0-0.0","74777776","wem/bandit_either_3","A3S1TLYMH9WWUG","either","4","288","","","","","","","1","0","0","0.6965918162","","0.8","0.2","0.6","0.4","","","","","0.6965918162","0.6170166349","0.1509581517","0.6530024001","","","","","","","","72","H","0","img/none_selected.jpg","","236","main_expt",""
"","bandit","316","715182","0.0-277.0-0.0","74777776","wem/bandit_either_3","A3S1TLYMH9WWUG","either","4","236","","","","","","","1","0","0","0.8151927982","","0.8","0.2","0.6","0.4","","","","","0.8151927982","0.6426153702","0.2267465707","0.5861490443","","","","","","","","72","H","0","img/none_selected.jpg","","237","main_expt",""
"","bandit","317","716923","0.0-278.0-0.0","74777776","wem/bandit_either_3","A3S1TLYMH9WWUG","either","4","228","","","","","","","1","0","0","0.7696745118","","0.8","0.2","0.6","0.4","","","","","0.7696745118","0.5421138037","0.1651127221","0.6086881899","","","","","","","","72","H","0","img/none_selected.jpg","","238","main_expt",""
"","bandit","318","718723","0.0-279.0-0.0","74777776","wem/bandit_either_3","A3S1TLYMH9WWUG","either","4","284","","","","","","","1","0","0","0.7368178416","","0.8","0.2","0.6","0.4","","","","","0.7368178416","0.5534077834","0.1587945469","0.6323362843","","","","","","","","72","H","0","img/none_selected.jpg","","239","main_expt",""
"","bandit","319","720470","0.0-280.0-0.0","74777776","wem/bandit_either_3","A3S1TLYMH9WWUG","either","4","223","","","","","","","0","0","1","0.6443792527","","0.8","0.2","0.6","0.4","","","","","0.6443792527","0.7267030345","0.08644000702","0.5620837446","","","","","","","","72","H","0","img/none_selected.jpg","","240","main_expt",""
"","bandit","320","722212","0.0-281.0-0.0","74777776","wem/bandit_either_3","A3S1TLYMH9WWUG","either","4","223","","","","","","","0","0","1","0.6467572307","","0.8","0.2","0.6","0.4","","","","","0.6467572307","0.7211407476","0.06677296221","0.5571148452","","","","","","","","72","H","0","img/none_selected.jpg","","241","main_expt",""
"","bandit","321","723933","0.0-282.0-0.0","74777776","wem/bandit_either_3","A3S1TLYMH9WWUG","either","4","204","","","","","","","0","0","1","","0.6764936995","0.8","0.2","0.6","0.4","0.6131120494","0.6764936995","0.08066643837","0.4016720442","","","","","","","","","","","","74","J","1","","","242","main_expt",""
"","bandit","322","725583","0.0-283.0-0.0","74777776","wem/bandit_either_3","A3S1TLYMH9WWUG","either","4","137","","","","","","","0","0","1","","0.6677952341","0.8","0.2","0.6","0.4","0.7409975133","0.6677952341","0.08086195374","0.5389796081","","","","","","","","","","","","74","J","1","","","243","main_expt",""
