"consent","trial_type","trial_index","time_elapsed","internal_node_id","subjID","study","MID","cond","drift","rt","responses","key_press","expt_phase","like","value","connected","gems","bombs","no_reward","GemPrChosen","BombPrChosen","GainOverPainPr_0","GainOverPainPr_1","GainOverPainPr_2","GainOverPainPr_3","LosePr_0","LosePr_1","LosePr_2","LosePr_3","WinPr_0","WinPr_1","WinPr_2","WinPr_3","Q0","Q1","Q2","gender","age","ethnicity","target","respCharCode","respKey","respChoiceNum","respChoice","practice","trial_counter","trial_label","button_pressed"
"INL_behavioral_consent_30min_online.html","consent","0","24649","0.0-0.0","76096516","wem/bandit_either_3","A1TGV7LT6LTIQU","either","6","","","","","","","","","","","","","","","","","","","","","","","","","","","","","","","","","","","","","","",""
"","survey-text","1","36268","0.0-1.0","76096516","wem/bandit_either_3","A1TGV7LT6LTIQU","either","6","10606","{""Q0"":""A1TGV7LT6LTIQU""}","","","","","","","","","","","","","","","","","","","","","","","","","","","","","","","","","","","","",""
"","text","2","51951","0.0-2.0","76096516","wem/bandit_either_3","A1TGV7LT6LTIQU","either","6","14677","","32","","","","","","","","","","","","","","","","","","","","","","","","","","","","","","","","","","","",""
"","text","3","60514","0.0-3.0","76096516","wem/bandit_either_3","A1TGV7LT6LTIQU","either","6","8561","","32","","","","","","","","","","","","","","","","","","","","","","","","","","","","","","","","","","","",""
"","text","4","91884","0.0-4.0","76096516","wem/bandit_either_3","A1TGV7LT6LTIQU","either","6","31368","","32","","","","","","","","","","","","","","","","","","","","","","","","","","","","","","","","","","","",""
"","text","5","126436","0.0-5.0","76096516","wem/bandit_either_3","A1TGV7LT6LTIQU","either","6","34550","","32","","","","","","","","","","","","","","","","","","","","","","","","","","","","","","","","","","","",""
"","text","6","144587","0.0-6.0","76096516","wem/bandit_either_3","A1TGV7LT6LTIQU","either","6","18151","","32","","","","","","","","","","","","","","","","","","","","","","","","","","","","","","","","","","","",""
"","text","7","154129","0.0-7.0","76096516","wem/bandit_either_3","A1TGV7LT6LTIQU","either","6","9540","","32","","","","","","","","","","","","","","","","","","","","","","","","","","","","","","","","","","","",""
"","text","8","160547","0.0-8.0","76096516","wem/bandit_either_3","A1TGV7LT6LTIQU","either","6","6416","","32","","","","","","","","","","","","","","","","","","","","","","","","","","","","","","","","","","","",""
"","identification","9","170242","0.0-9.0-0.0","76096516","wem/bandit_either_3","A1TGV7LT6LTIQU","either","6","9673","","","","5","5","4","","","","","","","","","","","","","","","","","","","","","","","","the village of Zur","","","","","","","",""
"","identification","10","177656","0.0-9.0-1.0","76096516","wem/bandit_either_3","A1TGV7LT6LTIQU","either","6","6392","","","","1","1","2","","","","","","","","","","","","","","","","","","","","","","","","the village of Nyx","","","","","","","",""
"","text","11","184323","0.0-10.0","76096516","wem/bandit_either_3","A1TGV7LT6LTIQU","either","6","5663","","32","","","","","","","","","","","","","","","","","","","","","","","","","","","","","","","","","","","",""
"","text","12","187617","0.0-11.0","76096516","wem/bandit_either_3","A1TGV7LT6LTIQU","either","6","3292","","32","","","","","","","","","","","","","","","","","","","","","","","","","","","","","","","","","","","",""
"","text","13","190200","0.0-12.0","76096516","wem/bandit_either_3","A1TGV7LT6LTIQU","either","6","2582","","32","","","","","","","","","","","","","","","","","","","","","","","","","","","","","","","","","","","",""
"","text","14","195571","0.0-13.0","76096516","wem/bandit_either_3","A1TGV7LT6LTIQU","either","6","5369","","32","","","","","","","","","","","","","","","","","","","","","","","","","","","","","","","","","","","",""
"","bandit","15","200418","0.0-14.0-0.0","76096516","wem/bandit_either_3","A1TGV7LT6LTIQU","either","6","3319","","","","","","","0","0","1","0","0","","","","","0","","","","0","","","","","","","","","","","74","J","0","img/none_selected_demo.jpg","true","0","",""
"","bandit","16","207412","0.0-15.0-0.0","76096516","wem/bandit_either_3","A1TGV7LT6LTIQU","either","6","5460","","","","","","","0","0","1","0","0","","","","","0","","","","0","","","","","","","","","","","75","K","0","img/none_selected_demo.jpg","true","0","",""
"","text","17","216235","0.0-16.0","76096516","wem/bandit_either_3","A1TGV7LT6LTIQU","either","6","8821","","32","","","","","","","","","","","","","","","","","","","","","","","","","","","","","","","","","","","",""
"","text","18","227091","0.0-17.0","76096516","wem/bandit_either_3","A1TGV7LT6LTIQU","either","6","10854","","32","","","","","","","","","","","","","","","","","","","","","","","","","","","","","","","","","","","",""
"","text","19","234663","0.0-18.0","76096516","wem/bandit_either_3","A1TGV7LT6LTIQU","either","6","7570","","32","","","","","","","","","","","","","","","","","","","","","","","","","","","","","","","","","","","",""
"","text","20","241668","0.0-19.0","76096516","wem/bandit_either_3","A1TGV7LT6LTIQU","either","6","7004","","32","","","","","","","","","","","","","","","","","","","","","","","","","","","","","","","","","","","",""
"","bandit","21","245213","0.0-20.0-0.0","76096516","wem/bandit_either_3","A1TGV7LT6LTIQU","either","6","2030","","","","","","","0","1","0","","0.8","0.5","0.5","","","0.8","0.2","","","","","","","","","","","","","","74","J","0","img/none_selected_demo.jpg","true","0","80_20_practice",""
"","bandit","22","247951","0.0-20.0-1.0","76096516","wem/bandit_either_3","A1TGV7LT6LTIQU","either","6","1216","","","","","","","1","0","0","0.8","","0.5","0.5","","","","","","","0.8","0.2","","","","","","","","","","74","J","0","img/none_selected_demo.jpg","true","0","80_20_practice",""
"","bandit","23","250951","0.0-20.0-2.0","76096516","wem/bandit_either_3","A1TGV7LT6LTIQU","either","6","1486","","","","","","","0","0","1","","0.2","0.5","0.5","","","0.8","0.2","","","","","","","","","","","","","","75","K","1","","true","0","80_20_practice",""
"","bandit","24","253185","0.0-20.0-3.0","76096516","wem/bandit_either_3","A1TGV7LT6LTIQU","either","6","709","","","","","","","1","0","0","0.2","","0.5","0.5","","","","","","","0.8","0.2","","","","","","","","","","75","K","1","","true","0","80_20_practice",""
"","bandit","25","255464","0.0-20.0-4.0","76096516","wem/bandit_either_3","A1TGV7LT6LTIQU","either","6","757","","","","","","","0","0","1","","0.2","0.5","0.5","","","0.8","0.2","","","","","","","","","","","","","","75","K","1","","true","0","80_20_practice",""
"","bandit","26","257458","0.0-20.0-5.0","76096516","wem/bandit_either_3","A1TGV7LT6LTIQU","either","6","467","","","","","","","0","0","1","0.2","","0.5","0.5","","","","","","","0.8","0.2","","","","","","","","","","75","K","1","","true","0","80_20_practice",""
"","bandit","27","259307","0.0-20.0-6.0","76096516","wem/bandit_either_3","A1TGV7LT6LTIQU","either","6","330","","","","","","","0","0","1","","0.8","0.5","0.5","","","0.8","0.2","","","","","","","","","","","","","","74","J","0","img/none_selected_demo.jpg","true","0","80_20_practice",""
"","bandit","28","261121","0.0-20.0-7.0","76096516","wem/bandit_either_3","A1TGV7LT6LTIQU","either","6","290","","","","","","","1","0","0","0.8","","0.5","0.5","","","","","","","0.8","0.2","","","","","","","","","","74","J","0","img/none_selected_demo.jpg","true","0","80_20_practice",""
"","bandit","29","262923","0.0-20.0-8.0","76096516","wem/bandit_either_3","A1TGV7LT6LTIQU","either","6","282","","","","","","","0","1","0","","0.8","0.5","0.5","","","0.8","0.2","","","","","","","","","","","","","","74","J","0","img/none_selected_demo.jpg","true","0","80_20_practice",""
"","bandit","30","264858","0.0-20.0-9.0","76096516","wem/bandit_either_3","A1TGV7LT6LTIQU","either","6","423","","","","","","","0","0","1","","0.2","0.5","0.5","","","0.8","0.2","","","","","","","","","","","","","","75","K","1","","true","0","80_20_practice",""
"","bandit","31","266639","0.0-20.0-10.0","76096516","wem/bandit_either_3","A1TGV7LT6LTIQU","either","6","269","","","","","","","0","0","1","0.2","","0.5","0.5","","","","","","","0.8","0.2","","","","","","","","","","75","K","1","","true","0","80_20_practice",""
"","bandit","32","268223","0.0-20.0-11.0","76096516","wem/bandit_either_3","A1TGV7LT6LTIQU","either","6","70","","","","","","","0","0","1","","0.2","0.5","0.5","","","0.8","0.2","","","","","","","","","","","","","","75","K","1","","true","0","80_20_practice",""
"","bandit","33","270847","0.0-20.0-12.0","76096516","wem/bandit_either_3","A1TGV7LT6LTIQU","either","6","1108","","","","","","","0","0","1","","0.2","0.5","0.5","","","0.8","0.2","","","","","","","","","","","","","","75","K","1","","true","0","80_20_practice",""
"","bandit","34","272741","0.0-20.0-13.0","76096516","wem/bandit_either_3","A1TGV7LT6LTIQU","either","6","388","","","","","","","0","1","0","","0.8","0.5","0.5","","","0.8","0.2","","","","","","","","","","","","","","74","J","0","img/none_selected_demo.jpg","true","0","80_20_practice",""
"","bandit","35","274521","0.0-20.0-14.0","76096516","wem/bandit_either_3","A1TGV7LT6LTIQU","either","6","262","","","","","","","1","0","0","0.8","","0.5","0.5","","","","","","","0.8","0.2","","","","","","","","","","74","J","0","img/none_selected_demo.jpg","true","0","80_20_practice",""
"","bandit","36","276446","0.0-20.0-15.0","76096516","wem/bandit_either_3","A1TGV7LT6LTIQU","either","6","411","","","","","","","1","0","0","0.8","","0.5","0.5","","","","","","","0.8","0.2","","","","","","","","","","74","J","0","img/none_selected_demo.jpg","true","0","80_20_practice",""
"","bandit","37","278432","0.0-20.0-16.0","76096516","wem/bandit_either_3","A1TGV7LT6LTIQU","either","6","453","","","","","","","0","1","0","","0.8","0.5","0.5","","","0.8","0.2","","","","","","","","","","","","","","74","J","0","img/none_selected_demo.jpg","true","0","80_20_practice",""
"","bandit","38","280462","0.0-20.0-17.0","76096516","wem/bandit_either_3","A1TGV7LT6LTIQU","either","6","499","","","","","","","0","1","0","","0.8","0.5","0.5","","","0.8","0.2","","","","","","","","","","","","","","74","J","0","img/none_selected_demo.jpg","true","0","80_20_practice",""
"","bandit","39","282246","0.0-20.0-18.0","76096516","wem/bandit_either_3","A1TGV7LT6LTIQU","either","6","278","","","","","","","0","1","0","","0.8","0.5","0.5","","","0.8","0.2","","","","","","","","","","","","","","74","J","0","img/none_selected_demo.jpg","true","0","80_20_practice",""
"","bandit","40","284045","0.0-20.0-19.0","76096516","wem/bandit_either_3","A1TGV7LT6LTIQU","either","6","278","","","","","","","1","0","0","0.8","","0.5","0.5","","","","","","","0.8","0.2","","","","","","","","","","74","J","0","img/none_selected_demo.jpg","true","0","80_20_practice",""
"","text","41","288762","0.0-21.0","76096516","wem/bandit_either_3","A1TGV7LT6LTIQU","either","6","4714","","32","","","","","","","","","","","","","","","","","","","","","","","","","","","","","","","","","","","",""
"","bandit","42","294816","0.0-22.0-0.0","76096516","wem/bandit_either_3","A1TGV7LT6LTIQU","either","6","4520","","","","","","","1","0","0","1","0","","","","","0","1","","","1","0","","","","","","","","","","74","J","0","img/none_selected_demo.jpg","true","0","",""
"","text","43","306034","0.0-23.0","76096516","wem/bandit_either_3","A1TGV7LT6LTIQU","either","6","11216","","32","","","","","","","","","","","","","","","","","","","","","","","","","","","","","","","","","","","",""
"","text","44","310078","0.0-24.0","76096516","wem/bandit_either_3","A1TGV7LT6LTIQU","either","6","4043","","32","","","","","","","","","","","","","","","","","","","","","","","","","","","","","","","","","","","",""
"","text","45","313895","0.0-25.0","76096516","wem/bandit_either_3","A1TGV7LT6LTIQU","either","6","3815","","32","","","","","","","","","","","","","","","","","","","","","","","","","","","","","","","","","","","",""
"","text","46","317834","0.0-26.0","76096516","wem/bandit_either_3","A1TGV7LT6LTIQU","either","6","3937","","32","","","","","","","","","","","","","","","","","","","","","","","","","","","","","","","","","","","",""
"","text","47","325927","0.0-27.0","76096516","wem/bandit_either_3","A1TGV7LT6LTIQU","either","6","8091","","32","","","","","","","","","","","","","","","","","","","","","","","","","","","","","","","","","","","",""
"","text","48","329217","0.0-28.0","76096516","wem/bandit_either_3","A1TGV7LT6LTIQU","either","6","3288","","32","","","","","","","","","","","","","","","","","","","","","","","","","","","","","","","","","","","",""
"","text","49","334599","0.0-29.0","76096516","wem/bandit_either_3","A1TGV7LT6LTIQU","either","6","5379","","32","","","","","","","","","","","","","","","","","","","","","","","","","","","","","","","","","","","",""
"","text","50","339657","0.0-30.0","76096516","wem/bandit_either_3","A1TGV7LT6LTIQU","either","6","5056","","32","","","","","","","","","","","","","","","","","","","","","","","","","","","","","","","","","","","",""
"","text","51","344758","0.0-31.0","76096516","wem/bandit_either_3","A1TGV7LT6LTIQU","either","6","5097","","32","","","","","","","","","","","","","","","","","","","","","","","","","","","","","","","","","","","",""
"","text","52","348958","0.0-32.0","76096516","wem/bandit_either_3","A1TGV7LT6LTIQU","either","6","4199","","32","","","","","","","","","","","","","","","","","","","","","","","","","","","","","","","","","","","",""
"","text","53","353110","0.0-33.0","76096516","wem/bandit_either_3","A1TGV7LT6LTIQU","either","6","4149","","32","","","","","","","","","","","","","","","","","","","","","","","","","","","","","","","","","","","",""
"","bandit","54","355504","0.0-34.0-0.0","76096516","wem/bandit_either_3","A1TGV7LT6LTIQU","either","6","884","","","","","","","1","0","0","0.8","","0.5","0.5","0.5","0.5","","","","","0.8","0.2","0.6","0.2","","","","","","","","72","H","0","img/none_selected.jpg","true","0","full_practice",""
"","bandit","55","358369","0.0-34.0-1.0","76096516","wem/bandit_either_3","A1TGV7LT6LTIQU","either","6","1338","","","","","","","1","0","0","0.8","","0.5","0.5","0.5","0.5","","","","","0.8","0.2","0.6","0.2","","","","","","","","72","H","0","img/none_selected.jpg","true","0","full_practice",""
"","bandit","56","360181","0.0-34.0-2.0","76096516","wem/bandit_either_3","A1TGV7LT6LTIQU","either","6","305","","","","","","","1","0","0","0.8","","0.5","0.5","0.5","0.5","","","","","0.8","0.2","0.6","0.2","","","","","","","","72","H","0","img/none_selected.jpg","true","0","full_practice",""
"","bandit","57","361994","0.0-34.0-3.0","76096516","wem/bandit_either_3","A1TGV7LT6LTIQU","either","6","285","","","","","","","0","1","0","","0.8","0.5","0.5","0.5","0.5","0.8","0.2","0.6","0.2","","","","","","","","","","","","72","H","0","img/none_selected.jpg","true","0","full_practice",""
"","bandit","58","363877","0.0-34.0-4.0","76096516","wem/bandit_either_3","A1TGV7LT6LTIQU","either","6","371","","","","","","","1","0","0","0.8","","0.5","0.5","0.5","0.5","","","","","0.8","0.2","0.6","0.2","","","","","","","","72","H","0","img/none_selected.jpg","true","0","full_practice",""
"","bandit","59","365584","0.0-34.0-5.0","76096516","wem/bandit_either_3","A1TGV7LT6LTIQU","either","6","189","","","","","","","0","1","0","","0.8","0.5","0.5","0.5","0.5","0.8","0.2","0.6","0.2","","","","","","","","","","","","72","H","0","img/none_selected.jpg","true","0","full_practice",""
"","bandit","60","367387","0.0-34.0-6.0","76096516","wem/bandit_either_3","A1TGV7LT6LTIQU","either","6","282","","","","","","","0","1","0","","0.8","0.5","0.5","0.5","0.5","0.8","0.2","0.6","0.2","","","","","","","","","","","","72","H","0","img/none_selected.jpg","true","0","full_practice",""
"","bandit","61","368971","0.0-34.0-7.0","76096516","wem/bandit_either_3","A1TGV7LT6LTIQU","either","6","63","","","","","","","1","0","0","0.8","","0.5","0.5","0.5","0.5","","","","","0.8","0.2","0.6","0.2","","","","","","","","72","H","0","img/none_selected.jpg","true","0","full_practice",""
"","bandit","62","370787","0.0-34.0-8.0","76096516","wem/bandit_either_3","A1TGV7LT6LTIQU","either","6","295","","","","","","","1","0","0","0.8","","0.5","0.5","0.5","0.5","","","","","0.8","0.2","0.6","0.2","","","","","","","","72","H","0","img/none_selected.jpg","true","0","full_practice",""
"","bandit","63","372542","0.0-34.0-9.0","76096516","wem/bandit_either_3","A1TGV7LT6LTIQU","either","6","238","","","","","","","1","0","0","0.8","","0.5","0.5","0.5","0.5","","","","","0.8","0.2","0.6","0.2","","","","","","","","72","H","0","img/none_selected.jpg","true","0","full_practice",""
"","bandit","64","374158","0.0-34.0-10.0","76096516","wem/bandit_either_3","A1TGV7LT6LTIQU","either","6","96","","","","","","","0","1","0","","0.8","0.5","0.5","0.5","0.5","0.8","0.2","0.6","0.2","","","","","","","","","","","","72","H","0","img/none_selected.jpg","true","0","full_practice",""
"","bandit","65","377310","0.0-34.0-11.0","76096516","wem/bandit_either_3","A1TGV7LT6LTIQU","either","6","1628","","","","","","","0","1","0","","0.8","0.5","0.5","0.5","0.5","0.8","0.2","0.6","0.2","","","","","","","","","","","","72","H","0","img/none_selected.jpg","true","0","full_practice",""
"","bandit","66","379060","0.0-34.0-12.0","76096516","wem/bandit_either_3","A1TGV7LT6LTIQU","either","6","228","","","","","","","0","0","1","0.8","","0.5","0.5","0.5","0.5","","","","","0.8","0.2","0.6","0.2","","","","","","","","72","H","0","img/none_selected.jpg","true","0","full_practice",""
"","bandit","67","381612","0.0-34.0-13.0","76096516","wem/bandit_either_3","A1TGV7LT6LTIQU","either","6","1037","","","","","","","0","0","1","0.6","","0.5","0.5","0.5","0.5","","","","","0.8","0.2","0.6","0.2","","","","","","","","75","K","2","","true","0","full_practice",""
"","bandit","68","383471","0.0-34.0-14.0","76096516","wem/bandit_either_3","A1TGV7LT6LTIQU","either","6","350","","","","","","","0","0","1","","0.2","0.5","0.5","0.5","0.5","0.8","0.2","0.6","0.2","","","","","","","","","","","","74","J","1","","true","0","full_practice",""
"","bandit","69","385346","0.0-34.0-15.0","76096516","wem/bandit_either_3","A1TGV7LT6LTIQU","either","6","349","","","","","","","0","0","1","0.2","","0.5","0.5","0.5","0.5","","","","","0.8","0.2","0.6","0.2","","","","","","","","76","L","3","","true","0","full_practice",""
"","bandit","70","387167","0.0-34.0-16.0","76096516","wem/bandit_either_3","A1TGV7LT6LTIQU","either","6","286","","","","","","","0","1","0","","0.8","0.5","0.5","0.5","0.5","0.8","0.2","0.6","0.2","","","","","","","","","","","","72","H","0","img/none_selected.jpg","true","0","full_practice",""
"","bandit","71","388991","0.0-34.0-17.0","76096516","wem/bandit_either_3","A1TGV7LT6LTIQU","either","6","316","","","","","","","0","1","0","","0.8","0.5","0.5","0.5","0.5","0.8","0.2","0.6","0.2","","","","","","","","","","","","72","H","0","img/none_selected.jpg","true","0","full_practice",""
"","bandit","72","390780","0.0-34.0-18.0","76096516","wem/bandit_either_3","A1TGV7LT6LTIQU","either","6","259","","","","","","","0","1","0","","0.8","0.5","0.5","0.5","0.5","0.8","0.2","0.6","0.2","","","","","","","","","","","","72","H","0","img/none_selected.jpg","true","0","full_practice",""
"","bandit","73","392486","0.0-34.0-19.0","76096516","wem/bandit_either_3","A1TGV7LT6LTIQU","either","6","174","","","","","","","1","0","0","0.8","","0.5","0.5","0.5","0.5","","","","","0.8","0.2","0.6","0.2","","","","","","","","72","H","0","img/none_selected.jpg","true","0","full_practice",""
"","text","74","395625","0.0-35.0","76096516","wem/bandit_either_3","A1TGV7LT6LTIQU","either","6","3132","","32","","","","","","","","","","","","","","","","","","","","","","","","","","","","","","","","","","","",""
"","text","75","409025","0.0-36.0","76096516","wem/bandit_either_3","A1TGV7LT6LTIQU","either","6","12386","","32","","","","","","","","","","","","","","","","","","","","","","","","","","","","","","","","","","","",""
"","text","76","421537","0.0-37.0","76096516","wem/bandit_either_3","A1TGV7LT6LTIQU","either","6","12507","","32","","","","","","","","","","","","","","","","","","","","","","","","","","","","","","","","","","","",""
"","text","77","427549","0.0-38.0","76096516","wem/bandit_either_3","A1TGV7LT6LTIQU","either","6","6010","","32","","","","","","","","","","","","","","","","","","","","","","","","","","","","","","","","","","","",""
"","text","78","435825","0.0-39.0","76096516","wem/bandit_either_3","A1TGV7LT6LTIQU","either","6","8273","","32","","","","","","","","","","","","","","","","","","","","","","","","","","","","","","","","","","","",""
"","text","79","442718","0.0-40.0","76096516","wem/bandit_either_3","A1TGV7LT6LTIQU","either","6","6890","","32","","","","","","","","","","","","","","","","","","","","","","","","","","","","","","","","","","","",""
"","bandit","80","445266","0.0-41.0-0.0","76096516","wem/bandit_either_3","A1TGV7LT6LTIQU","either","6","1019","","","","","","","0","0","1","0.1947351938","","0.6","0.8","0.4","0.2","","","","","0.1947351938","0.2309914537","0.3049938501","0.7197236342","","","","","","","","72","H","0","img/none_selected.jpg","","1","main_expt",""
"","bandit","81","447364","0.0-42.0-0.0","76096516","wem/bandit_either_3","A1TGV7LT6LTIQU","either","6","578","","","","","","","0","0","1","","0.3105507028","0.6","0.8","0.4","0.2","0.1865171684","0.2351366282","0.3105507028","0.7453792406","","","","","","","","","","","","75","K","2","","","2","main_expt",""
"","bandit","82","449244","0.0-43.0-0.0","76096516","wem/bandit_either_3","A1TGV7LT6LTIQU","either","6","350","","","","","","","0","0","1","0.3338792953","","0.6","0.8","0.4","0.2","","","","","0.1578482069","0.3338792953","0.347932066","0.7422746785","","","","","","","","74","J","1","","","3","main_expt",""
"","bandit","83","451125","0.0-44.0-0.0","76096516","wem/bandit_either_3","A1TGV7LT6LTIQU","either","6","357","","","","","","","0","1","0","","0.8152876082","0.6","0.8","0.4","0.2","0.1733557992","0.2578124611","0.294099503","0.8152876082","","","","","","","","","","","","76","L","3","","","4","main_expt",""
"","bandit","84","452971","0.0-45.0-0.0","76096516","wem/bandit_either_3","A1TGV7LT6LTIQU","either","6","324","","","","","","","0","1","0","","0.8494846052","0.6","0.8","0.4","0.2","0.1275681293","0.152782507","0.256228135","0.8494846052","","","","","","","","","","","","76","L","3","","","5","main_expt",""
"","bandit","85","454817","0.0-46.0-0.0","76096516","wem/bandit_either_3","A1TGV7LT6LTIQU","either","6","325","","","","","","","0","0","1","","0.8036792828","0.6","0.8","0.4","0.2","0.1776351543","0.200224935","0.3142053347","0.8036792828","","","","","","","","","","","","76","L","3","","","6","main_expt",""
"","bandit","86","456720","0.0-47.0-0.0","76096516","wem/bandit_either_3","A1TGV7LT6LTIQU","either","6","392","","","","","","","0","0","1","","0.8659664865","0.6","0.8","0.4","0.2","0.1412615145","0.2200442108","0.2382568898","0.8659664865","","","","","","","","","","","","76","L","3","","","7","main_expt",""
"","bandit","87","458509","0.0-48.0-0.0","76096516","wem/bandit_either_3","A1TGV7LT6LTIQU","either","6","261","","","","","","","0","0","1","","0.1508054742","0.6","0.8","0.4","0.2","0.1508054742","0.1516915951","0.220471749","0.8475436228","","","","","","","","","","","","72","H","0","img/none_selected.jpg","","8","main_expt",""
"","bandit","88","460332","0.0-49.0-0.0","76096516","wem/bandit_either_3","A1TGV7LT6LTIQU","either","6","307","","","","","","","1","0","0","0.1468829212","","0.6","0.8","0.4","0.2","","","","","0.1882404854","0.1468829212","0.2842820234","0.8034999265","","","","","","","","74","J","1","","","9","main_expt",""
"","bandit","89","462091","0.0-50.0-0.0","76096516","wem/bandit_either_3","A1TGV7LT6LTIQU","either","6","245","","","","","","","0","0","1","0.1507643719","","0.6","0.8","0.4","0.2","","","","","0.1731305678","0.1507643719","0.3392415315","0.7148412232","","","","","","","","74","J","1","","","10","main_expt",""
"","bandit","90","463917","0.0-51.0-0.0","76096516","wem/bandit_either_3","A1TGV7LT6LTIQU","either","6","302","","","","","","","0","0","1","","0.4470346709","0.6","0.8","0.4","0.2","0.2475279461","0.18301","0.4470346709","0.7213030285","","","","","","","","","","","","75","K","2","","","11","main_expt",""
"","bandit","91","465719","0.0-52.0-0.0","76096516","wem/bandit_either_3","A1TGV7LT6LTIQU","either","6","282","","","","","","","0","1","0","","0.7396148754","0.6","0.8","0.4","0.2","0.2068792089","0.209562337","0.5143820195","0.7396148754","","","","","","","","","","","","76","L","3","","","12","main_expt",""
"","bandit","92","467527","0.0-53.0-0.0","76096516","wem/bandit_either_3","A1TGV7LT6LTIQU","either","6","290","","","","","","","0","1","0","","0.6870781676","0.6","0.8","0.4","0.2","0.1594062408","0.2133897639","0.4934308908","0.6870781676","","","","","","","","","","","","76","L","3","","","13","main_expt",""
"","bandit","93","469326","0.0-54.0-0.0","76096516","wem/bandit_either_3","A1TGV7LT6LTIQU","either","6","277","","","","","","","0","1","0","","0.6561171826","0.6","0.8","0.4","0.2","0.1808320347","0.1865122749","0.5884397519","0.6561171826","","","","","","","","","","","","76","L","3","","","14","main_expt",""
"","bandit","94","471119","0.0-55.0-0.0","76096516","wem/bandit_either_3","A1TGV7LT6LTIQU","either","6","282","","","","","","","0","1","0","","0.6255101569","0.6","0.8","0.4","0.2","0.2401125286","0.3169691733","0.425765204","0.6255101569","","","","","","","","","","","","76","L","3","","","15","main_expt",""
"","bandit","95","473291","0.0-56.0-0.0","76096516","wem/bandit_either_3","A1TGV7LT6LTIQU","either","6","649","","","","","","","0","1","0","","0.6101220295","0.6","0.8","0.4","0.2","0.1823220599","0.3927767979","0.4458974369","0.6101220295","","","","","","","","","","","","76","L","3","","","16","main_expt",""
"","bandit","96","475067","0.0-57.0-0.0","76096516","wem/bandit_either_3","A1TGV7LT6LTIQU","either","6","254","","","","","","","0","1","0","","0.6233337625","0.6","0.8","0.4","0.2","0.2076179308","0.2882183284","0.4907358526","0.6233337625","","","","","","","","","","","","76","L","3","","","17","main_expt",""
"","bandit","97","476874","0.0-58.0-0.0","76096516","wem/bandit_either_3","A1TGV7LT6LTIQU","either","6","285","","","","","","","0","1","0","","0.598865074","0.6","0.8","0.4","0.2","0.2310064443","0.3212622409","0.4895096529","0.598865074","","","","","","","","","","","","76","L","3","","","18","main_expt",""
"","bandit","98","478668","0.0-59.0-0.0","76096516","wem/bandit_either_3","A1TGV7LT6LTIQU","either","6","271","","","","","","","0","0","1","","0.6318918302","0.6","0.8","0.4","0.2","0.1919199612","0.3678238944","0.5437378015","0.6318918302","","","","","","","","","","","","76","L","3","","","19","main_expt",""
"","bandit","99","480262","0.0-60.0-0.0","76096516","wem/bandit_either_3","A1TGV7LT6LTIQU","either","6","59","","","","","","","0","0","1","0.4357360734","","0.6","0.8","0.4","0.2","","","","","0.2150176637","0.4357360734","0.543071052","0.5667690756","","","","","","","","74","J","1","","","20","main_expt",""
"","bandit","100","482149","0.0-61.0-0.0","76096516","wem/bandit_either_3","A1TGV7LT6LTIQU","either","6","370","","","","","","","0","1","0","","0.5457928974","0.6","0.8","0.4","0.2","0.2980309021","0.4486518506","0.5457928974","0.6364396753","","","","","","","","","","","","75","K","2","","","21","main_expt",""
"","bandit","101","483952","0.0-62.0-0.0","76096516","wem/bandit_either_3","A1TGV7LT6LTIQU","either","6","284","","","","","","","0","0","1","","0.4531799458","0.6","0.8","0.4","0.2","0.3238742104","0.5145372488","0.4531799458","0.5563436533","","","","","","","","","","","","75","K","2","","","22","main_expt",""
"","bandit","102","485816","0.0-63.0-0.0","76096516","wem/bandit_either_3","A1TGV7LT6LTIQU","either","6","343","","","","","","","1","0","0","0.4158928209","","0.6","0.8","0.4","0.2","","","","","0.4158928209","0.6324996067","0.4321579995","0.4555064456","","","","","","","","72","H","0","img/none_selected.jpg","","23","main_expt",""
"","bandit","103","487572","0.0-64.0-0.0","76096516","wem/bandit_either_3","A1TGV7LT6LTIQU","either","6","235","","","","","","","0","0","1","","0.2798670784","0.6","0.8","0.4","0.2","0.2798670784","0.6665025749","0.3892872195","0.4398961724","","","","","","","","","","","","72","H","0","img/none_selected.jpg","","24","main_expt",""
"","bandit","104","489438","0.0-65.0-0.0","76096516","wem/bandit_either_3","A1TGV7LT6LTIQU","either","6","348","","","","","","","0","0","1","0.4322880781","","0.6","0.8","0.4","0.2","","","","","0.3932164435","0.5316582614","0.4322880781","0.3810464824","","","","","","","","75","K","2","","","25","main_expt",""
"","bandit","105","491199","0.0-66.0-0.0","76096516","wem/bandit_either_3","A1TGV7LT6LTIQU","either","6","245","","","","","","","0","0","1","","0.451695138","0.6","0.8","0.4","0.2","0.3243459504","0.4282094451","0.4560392573","0.451695138","","","","","","","","","","","","76","L","3","","","26","main_expt",""
"","bandit","106","492847","0.0-67.0-0.0","76096516","wem/bandit_either_3","A1TGV7LT6LTIQU","either","6","136","","","","","","","1","0","0","0.4711380508","","0.6","0.8","0.4","0.2","","","","","0.4266302179","0.4711380508","0.5372901799","0.4423729324","","","","","","","","74","J","1","","","27","main_expt",""
"","bandit","107","494614","0.0-68.0-0.0","76096516","wem/bandit_either_3","A1TGV7LT6LTIQU","either","6","247","","","","","","","0","0","1","0.4539290932","","0.6","0.8","0.4","0.2","","","","","0.4206607535","0.4539290932","0.6619872032","0.4221124674","","","","","","","","74","J","1","","","28","main_expt",""
"","bandit","108","496392","0.0-69.0-0.0","76096516","wem/bandit_either_3","A1TGV7LT6LTIQU","either","6","259","","","","","","","0","0","1","0.4378511583","","0.6","0.8","0.4","0.2","","","","","0.440099583","0.4378511583","0.5939885142","0.489207998","","","","","","","","74","J","1","","","29","main_expt",""
"","bandit","109","497996","0.0-70.0-0.0","76096516","wem/bandit_either_3","A1TGV7LT6LTIQU","either","6","79","","","","","","","0","0","1","","0.5602145404","0.6","0.8","0.4","0.2","0.3982168329","0.3425428874","0.5602145404","0.4406356357","","","","","","","","","","","","75","K","2","","","30","main_expt",""
"","bandit","110","499772","0.0-71.0-0.0","76096516","wem/bandit_either_3","A1TGV7LT6LTIQU","either","6","259","","","","","","","0","1","0","","0.5376870091","0.6","0.8","0.4","0.2","0.3573437221","0.2354865125","0.5376870091","0.484130952","","","","","","","","","","","","75","K","2","","","31","main_expt",""
"","bandit","111","501574","0.0-72.0-0.0","76096516","wem/bandit_either_3","A1TGV7LT6LTIQU","either","6","273","","","","","","","1","0","0","0.6346195819","","0.6","0.8","0.4","0.2","","","","","0.3712986889","0.2552437171","0.6346195819","0.432294219","","","","","","","","75","K","2","","","32","main_expt",""
"","bandit","112","503386","0.0-73.0-0.0","76096516","wem/bandit_either_3","A1TGV7LT6LTIQU","either","6","281","","","","","","","0","0","1","","0.7540961955","0.6","0.8","0.4","0.2","0.45096985","0.2470382599","0.7540961955","0.4821309474","","","","","","","","","","","","75","K","2","","","33","main_expt",""
"","bandit","113","505196","0.0-74.0-0.0","76096516","wem/bandit_either_3","A1TGV7LT6LTIQU","either","6","286","","","","","","","0","1","0","","0.4702474349","0.6","0.8","0.4","0.2","0.5559331637","0.2951894024","0.699797925","0.4702474349","","","","","","","","","","","","76","L","3","","","34","main_expt",""
"","bandit","114","506985","0.0-75.0-0.0","76096516","wem/bandit_either_3","A1TGV7LT6LTIQU","either","6","266","","","","","","","1","0","0","0.5363697359","","0.6","0.8","0.4","0.2","","","","","0.7354386419","0.2596626779","0.7410295452","0.5363697359","","","","","","","","76","L","3","","","35","main_expt",""
"","bandit","115","508734","0.0-76.0-0.0","76096516","wem/bandit_either_3","A1TGV7LT6LTIQU","either","6","230","","","","","","","0","0","1","","0.602250539","0.6","0.8","0.4","0.2","0.6934166837","0.3164764808","0.7332281969","0.602250539","","","","","","","","","","","","76","L","3","","","36","main_expt",""
"","bandit","116","511214","0.0-77.0-0.0","76096516","wem/bandit_either_3","A1TGV7LT6LTIQU","either","6","953","","","","","","","0","1","0","","0.736713329","0.6","0.8","0.4","0.2","0.6311869688","0.3672962009","0.736713329","0.5337433964","","","","","","","","","","","","75","K","2","","","37","main_expt",""
"","bandit","117","513087","0.0-78.0-0.0","76096516","wem/bandit_either_3","A1TGV7LT6LTIQU","either","6","340","","","","","","","0","0","1","0.6860808007","","0.6","0.8","0.4","0.2","","","","","0.6583504975","0.4056598401","0.6860808007","0.5970413872","","","","","","","","75","K","2","","","38","main_expt",""
"","bandit","118","515241","0.0-79.0-0.0","76096516","wem/bandit_either_3","A1TGV7LT6LTIQU","either","6","627","","","","","","","0","0","1","0.4236995386","","0.6","0.8","0.4","0.2","","","","","0.5861321806","0.4236995386","0.7498761973","0.6529448079","","","","","","","","74","J","1","","","39","main_expt",""
"","bandit","119","517213","0.0-80.0-0.0","76096516","wem/bandit_either_3","A1TGV7LT6LTIQU","either","6","454","","","","","","","0","0","1","0.4892836735","","0.6","0.8","0.4","0.2","","","","","0.4892836735","0.4365163158","0.7043283504","0.6612991154","","","","","","","","72","H","0","img/none_selected.jpg","","40","main_expt",""
"","bandit","120","519039","0.0-81.0-0.0","76096516","wem/bandit_either_3","A1TGV7LT6LTIQU","either","6","306","","","","","","","0","0","1","0.7390431107","","0.6","0.8","0.4","0.2","","","","","0.3479900608","0.4854269132","0.6469690382","0.7390431107","","","","","","","","76","L","3","","","41","main_expt",""
"","bandit","121","520971","0.0-82.0-0.0","76096516","wem/bandit_either_3","A1TGV7LT6LTIQU","either","6","416","","","","","","","0","0","1","","0.6388905256","0.6","0.8","0.4","0.2","0.376709287","0.4753587859","0.6388905256","0.7609423287","","","","","","","","","","","","75","K","2","","","42","main_expt",""
"","bandit","122","522831","0.0-83.0-0.0","76096516","wem/bandit_either_3","A1TGV7LT6LTIQU","either","6","331","","","","","","","1","0","0","0.452202747","","0.6","0.8","0.4","0.2","","","","","0.4319300722","0.452202747","0.6383372244","0.8039673949","","","","","","","","74","J","1","","","43","main_expt",""
"","bandit","123","524625","0.0-84.0-0.0","76096516","wem/bandit_either_3","A1TGV7LT6LTIQU","either","6","283","","","","","","","1","0","0","0.5522191005","","0.6","0.8","0.4","0.2","","","","","0.4458636389","0.5522191005","0.6247854939","0.8216753652","","","","","","","","74","J","1","","","44","main_expt",""
"","bandit","124","526414","0.0-85.0-0.0","76096516","wem/bandit_either_3","A1TGV7LT6LTIQU","either","6","254","","","","","","","0","1","0","","0.4878962787","0.6","0.8","0.4","0.2","0.4323480181","0.4878962787","0.6341880498","0.7636866317","","","","","","","","","","","","74","J","1","","","45","main_expt",""
"","bandit","125","528197","0.0-86.0-0.0","76096516","wem/bandit_either_3","A1TGV7LT6LTIQU","either","6","265","","","","","","","1","0","0","0.487595293","","0.6","0.8","0.4","0.2","","","","","0.4348202433","0.487595293","0.5081310512","0.8203755575","","","","","","","","74","J","1","","","46","main_expt",""
"","bandit","126","529988","0.0-87.0-0.0","76096516","wem/bandit_either_3","A1TGV7LT6LTIQU","either","6","281","","","","","","","1","0","0","0.444754188","","0.6","0.8","0.4","0.2","","","","","0.3430847618","0.444754188","0.4202927251","0.8706375764","","","","","","","","74","J","1","","","47","main_expt",""
"","bandit","127","531766","0.0-88.0-0.0","76096516","wem/bandit_either_3","A1TGV7LT6LTIQU","either","6","264","","","","","","","1","0","0","0.5044276746","","0.6","0.8","0.4","0.2","","","","","0.2601977795","0.5044276746","0.4767868938","0.8019506245","","","","","","","","74","J","1","","","48","main_expt",""
"","bandit","128","533526","0.0-89.0-0.0","76096516","wem/bandit_either_3","A1TGV7LT6LTIQU","either","6","239","","","","","","","0","1","0","","0.3766714482","0.6","0.8","0.4","0.2","0.2368144698","0.3766714482","0.3749468019","0.7331224435","","","","","","","","","","","","74","J","1","","","49","main_expt",""
"","bandit","129","535154","0.0-90.0-0.0","76096516","wem/bandit_either_3","A1TGV7LT6LTIQU","either","6","107","","","","","","","1","0","0","0.406992786","","0.6","0.8","0.4","0.2","","","","","0.2484527115","0.406992786","0.3532902347","0.7908344101","","","","","","","","74","J","1","","","50","main_expt",""
"","bandit","130","536800","0.0-91.0-0.0","76096516","wem/bandit_either_3","A1TGV7LT6LTIQU","either","6","124","","","","","","","0","0","1","0.3854505747","","0.6","0.8","0.4","0.2","","","","","0.230268934","0.3854505747","0.2413466802","0.7922828235","","","","","","","","74","J","1","","","51","main_expt",""
"","bandit","131","538698","0.0-92.0-0.0","76096516","wem/bandit_either_3","A1TGV7LT6LTIQU","either","6","383","","","","","","","1","0","0","0.3956915145","","0.6","0.8","0.4","0.2","","","","","0.3429002399","0.3956915145","0.2673723166","0.7485378942","","","","","","","","74","J","1","","","52","main_expt",""
"","bandit","132","540506","0.0-93.0-0.0","76096516","wem/bandit_either_3","A1TGV7LT6LTIQU","either","6","285","","","","","","","0","0","1","","0.3062348001","0.6","0.8","0.4","0.2","0.2871029552","0.3062348001","0.2806035608","0.6603794952","","","","","","","","","","","","74","J","1","","","53","main_expt",""
"","bandit","133","542370","0.0-94.0-0.0","76096516","wem/bandit_either_3","A1TGV7LT6LTIQU","either","6","343","","","","","","","0","0","1","0.2594444468","","0.6","0.8","0.4","0.2","","","","","0.2594444468","0.2996500993","0.2544312064","0.6931449795","","","","","","","","72","H","0","img/none_selected.jpg","","54","main_expt",""
"","bandit","134","544262","0.0-95.0-0.0","76096516","wem/bandit_either_3","A1TGV7LT6LTIQU","either","6","372","","","","","","","0","1","0","","0.7553272845","0.6","0.8","0.4","0.2","0.3333749245","0.2518247787","0.3362815808","0.7553272845","","","","","","","","","","","","76","L","3","","","55","main_expt",""
"","bandit","135","546051","0.0-96.0-0.0","76096516","wem/bandit_either_3","A1TGV7LT6LTIQU","either","6","277","","","","","","","0","1","0","","0.7231548626","0.6","0.8","0.4","0.2","0.3049104067","0.3014763065","0.3798256012","0.7231548626","","","","","","","","","","","","76","L","3","","","56","main_expt",""
"","bandit","136","547871","0.0-97.0-0.0","76096516","wem/bandit_either_3","A1TGV7LT6LTIQU","either","6","292","","","","","","","0","0","1","","0.7485901337","0.6","0.8","0.4","0.2","0.3623273811","0.2730843718","0.3989549393","0.7485901337","","","","","","","","","","","","76","L","3","","","57","main_expt",""
"","bandit","137","549785","0.0-98.0-0.0","76096516","wem/bandit_either_3","A1TGV7LT6LTIQU","either","6","375","","","","","","","0","1","0","","0.797082508","0.6","0.8","0.4","0.2","0.3621169042","0.367239041","0.3373398956","0.797082508","","","","","","","","","","","","76","L","3","","","58","main_expt",""
"","bandit","138","551554","0.0-99.0-0.0","76096516","wem/bandit_either_3","A1TGV7LT6LTIQU","either","6","246","","","","","","","1","0","0","0.7466963627","","0.6","0.8","0.4","0.2","","","","","0.3672848169","0.4005220403","0.3381045731","0.7466963627","","","","","","","","76","L","3","","","59","main_expt",""
"","bandit","139","553337","0.0-100.0-0.0","76096516","wem/bandit_either_3","A1TGV7LT6LTIQU","either","6","260","","","","","","","0","0","1","","0.6359615323","0.6","0.8","0.4","0.2","0.5123874715","0.4863912708","0.4838111383","0.6359615323","","","","","","","","","","","","76","L","3","","","60","main_expt",""
"","bandit","140","555175","0.0-101.0-0.0","76096516","wem/bandit_either_3","A1TGV7LT6LTIQU","either","6","307","","","","","","","0","1","0","","0.7125939799","0.6","0.8","0.4","0.2","0.5218319631","0.5220595343","0.4290776342","0.7125939799","","","","","","","","","","","","76","L","3","","","61","main_expt",""
"","bandit","141","557085","0.0-102.0-0.0","76096516","wem/bandit_either_3","A1TGV7LT6LTIQU","either","6","394","","","","","","","0","0","1","","0.5978650666","0.6","0.8","0.4","0.2","0.6482151027","0.5447889898","0.4387439774","0.5978650666","","","","","","","","","","","","76","L","3","","","62","main_expt",""
"","bandit","142","558921","0.0-103.0-0.0","76096516","wem/bandit_either_3","A1TGV7LT6LTIQU","either","6","313","","","","","","","0","0","1","","0.5166338879","0.6","0.8","0.4","0.2","0.6966290852","0.5517390004","0.3670418014","0.5166338879","","","","","","","","","","","","76","L","3","","","63","main_expt",""
"","bandit","143","560637","0.0-104.0-0.0","76096516","wem/bandit_either_3","A1TGV7LT6LTIQU","either","6","189","","","","","","","0","0","1","0.3470393933","","0.6","0.8","0.4","0.2","","","","","0.6497033777","0.6576188384","0.3470393933","0.4901650138","","","","","","","","75","K","2","","","64","main_expt",""
"","bandit","144","562535","0.0-105.0-0.0","76096516","wem/bandit_either_3","A1TGV7LT6LTIQU","either","6","377","","","","","","","0","1","0","","0.3361574661","0.6","0.8","0.4","0.2","0.6925184903","0.5156176703","0.3361574661","0.459365688","","","","","","","","","","","","75","K","2","","","65","main_expt",""
"","bandit","145","564377","0.0-106.0-0.0","76096516","wem/bandit_either_3","A1TGV7LT6LTIQU","either","6","328","","","","","","","0","0","1","","0.34308242","0.6","0.8","0.4","0.2","0.8298767513","0.3851410914","0.34308242","0.4666104807","","","","","","","","","","","","75","K","2","","","66","main_expt",""
"","bandit","146","566212","0.0-107.0-0.0","76096516","wem/bandit_either_3","A1TGV7LT6LTIQU","either","6","309","","","","","","","0","0","1","0.3730603492","","0.6","0.8","0.4","0.2","","","","","0.8506596021","0.3925250542","0.3730603492","0.5547259005","","","","","","","","75","K","2","","","67","main_expt",""
"","bandit","147","567943","0.0-108.0-0.0","76096516","wem/bandit_either_3","A1TGV7LT6LTIQU","either","6","207","","","","","","","0","0","1","0.3884113518","","0.6","0.8","0.4","0.2","","","","","0.8536910832","0.3884113518","0.4089949532","0.6038719492","","","","","","","","74","J","1","","","68","main_expt",""
"","bandit","148","569738","0.0-109.0-0.0","76096516","wem/bandit_either_3","A1TGV7LT6LTIQU","either","6","287","","","","","","","1","0","0","0.3434478979","","0.6","0.8","0.4","0.2","","","","","0.8642538991","0.3434478979","0.3749002533","0.6148283845","","","","","","","","74","J","1","","","69","main_expt",""
"","bandit","149","571531","0.0-110.0-0.0","76096516","wem/bandit_either_3","A1TGV7LT6LTIQU","either","6","277","","","","","","","0","0","1","0.4426642051","","0.6","0.8","0.4","0.2","","","","","0.8073802352","0.4426642051","0.4133869845","0.6683283761","","","","","","","","74","J","1","","","70","main_expt",""
"","bandit","150","573433","0.0-111.0-0.0","76096516","wem/bandit_either_3","A1TGV7LT6LTIQU","either","6","372","","","","","","","1","0","0","0.4518046004","","0.6","0.8","0.4","0.2","","","","","0.8059201048","0.4518046004","0.3302164541","0.738459761","","","","","","","","74","J","1","","","71","main_expt",""
"","bandit","151","575213","0.0-112.0-0.0","76096516","wem/bandit_either_3","A1TGV7LT6LTIQU","either","6","253","","","","","","","0","0","1","","0.4903223245","0.6","0.8","0.4","0.2","0.8262275011","0.4903223245","0.2570952275","0.6525166508","","","","","","","","","","","","74","J","1","","","72","main_expt",""
"","bandit","152","577001","0.0-113.0-0.0","76096516","wem/bandit_either_3","A1TGV7LT6LTIQU","either","6","272","","","","","","","1","0","0","0.5296083002","","0.6","0.8","0.4","0.2","","","","","0.7334390718","0.5296083002","0.2042885023","0.5715134512","","","","","","","","74","J","1","","","73","main_expt",""
"","bandit","153","578816","0.0-114.0-0.0","76096516","wem/bandit_either_3","A1TGV7LT6LTIQU","either","6","280","","","","","","","0","1","0","","0.4883026933","0.6","0.8","0.4","0.2","0.7490977197","0.4883026933","0.2152837516","0.6228045854","","","","","","","","","","","","74","J","1","","","74","main_expt",""
"","bandit","154","580622","0.0-115.0-0.0","76096516","wem/bandit_either_3","A1TGV7LT6LTIQU","either","6","286","","","","","","","0","0","1","0.4914171484","","0.6","0.8","0.4","0.2","","","","","0.7554087461","0.4914171484","0.2044775694","0.613630376","","","","","","","","74","J","1","","","75","main_expt",""
"","bandit","155","582454","0.0-116.0-0.0","76096516","wem/bandit_either_3","A1TGV7LT6LTIQU","either","6","313","","","","","","","1","0","0","0.6059218973","","0.6","0.8","0.4","0.2","","","","","0.804443878","0.6059218973","0.2247613499","0.7047266053","","","","","","","","74","J","1","","","76","main_expt",""
"","bandit","156","584145","0.0-117.0-0.0","76096516","wem/bandit_either_3","A1TGV7LT6LTIQU","either","6","167","","","","","","","1","0","0","0.553792366","","0.6","0.8","0.4","0.2","","","","","0.6656620098","0.553792366","0.2266335256","0.6910360943","","","","","","","","74","J","1","","","77","main_expt",""
"","bandit","157","585940","0.0-118.0-0.0","76096516","wem/bandit_either_3","A1TGV7LT6LTIQU","either","6","276","","","","","","","1","0","0","0.6884193839","","0.6","0.8","0.4","0.2","","","","","0.5898140708","0.6884193839","0.1659731505","0.5515992215","","","","","","","","74","J","1","","","78","main_expt",""
"","bandit","158","587735","0.0-119.0-0.0","76096516","wem/bandit_either_3","A1TGV7LT6LTIQU","either","6","279","","","","","","","1","0","0","0.7214277645","","0.6","0.8","0.4","0.2","","","","","0.613215191","0.7214277645","0.2343921172","0.6448399581","","","","","","","","74","J","1","","","79","main_expt",""
"","bandit","159","589464","0.0-120.0-0.0","76096516","wem/bandit_either_3","A1TGV7LT6LTIQU","either","6","209","","","","","","","0","1","0","","0.7328142644","0.6","0.8","0.4","0.2","0.4605925783","0.7328142644","0.2164054515","0.739479497","","","","","","","","","","","","74","J","1","","","80","main_expt",""
"","bandit","160","591140","0.0-121.0-0.0","76096516","wem/bandit_either_3","A1TGV7LT6LTIQU","either","6","158","","","","","","","1","0","0","0.7101675561","","0.6","0.8","0.4","0.2","","","","","0.5390789087","0.7101675561","0.1361232007","0.6956071838","","","","","","","","74","J","1","","","81","main_expt",""
"","bandit","161","592771","0.0-122.0-0.0","76096516","wem/bandit_either_3","A1TGV7LT6LTIQU","either","6","121","","","","","","","1","0","0","0.6984384541","","0.6","0.8","0.4","0.2","","","","","0.621290364","0.6984384541","0.2275447725","0.5886517937","","","","","","","","74","J","1","","","82","main_expt",""
"","bandit","162","594567","0.0-123.0-0.0","76096516","wem/bandit_either_3","A1TGV7LT6LTIQU","either","6","266","","","","","","","0","1","0","","0.7447883659","0.6","0.8","0.4","0.2","0.6359424421","0.7447883659","0.1900607051","0.4764182235","","","","","","","","","","","","74","J","1","","","83","main_expt",""
"","bandit","163","596180","0.0-124.0-0.0","76096516","wem/bandit_either_3","A1TGV7LT6LTIQU","either","6","87","","","","","","","1","0","0","0.6900592863","","0.6","0.8","0.4","0.2","","","","","0.6133664729","0.6900592863","0.1306868958","0.5149027494","","","","","","","","74","J","1","","","84","main_expt",""
"","bandit","164","597965","0.0-125.0-0.0","76096516","wem/bandit_either_3","A1TGV7LT6LTIQU","either","6","256","","","","","","","1","0","0","0.7010597455","","0.6","0.8","0.4","0.2","","","","","0.7815463305","0.7010597455","0.1683201849","0.4908067213","","","","","","","","74","J","1","","","85","main_expt",""
"","bandit","165","599743","0.0-126.0-0.0","76096516","wem/bandit_either_3","A1TGV7LT6LTIQU","either","6","266","","","","","","","0","1","0","","0.6171062652","0.6","0.8","0.4","0.2","0.7355789231","0.6171062652","0.1290314955","0.4139472458","","","","","","","","","","","","74","J","1","","","86","main_expt",""
"","bandit","166","601566","0.0-127.0-0.0","76096516","wem/bandit_either_3","A1TGV7LT6LTIQU","either","6","293","","","","","","","1","0","0","0.5629375242","","0.6","0.8","0.4","0.2","","","","","0.7267399876","0.5629375242","0.2297537383","0.4253818619","","","","","","","","74","J","1","","","87","main_expt",""
"","bandit","167","603352","0.0-128.0-0.0","76096516","wem/bandit_either_3","A1TGV7LT6LTIQU","either","6","253","","","","","","","1","0","0","0.6434443074","","0.6","0.8","0.4","0.2","","","","","0.7703195612","0.6434443074","0.1878263516","0.4448862761","","","","","","","","74","J","1","","","88","main_expt",""
"","bandit","168","605017","0.0-129.0-0.0","76096516","wem/bandit_either_3","A1TGV7LT6LTIQU","either","6","149","","","","","","","0","0","1","0.7296698787","","0.6","0.8","0.4","0.2","","","","","0.81872988","0.7296698787","0.1896964823","0.4295642349","","","","","","","","74","J","1","","","89","main_expt",""
"","bandit","169","606908","0.0-130.0-0.0","76096516","wem/bandit_either_3","A1TGV7LT6LTIQU","either","6","357","","","","","","","1","0","0","0.7042864347","","0.6","0.8","0.4","0.2","","","","","0.8032570632","0.7042864347","0.1614970172","0.3655203192","","","","","","","","74","J","1","","","90","main_expt",""
"","bandit","170","608698","0.0-131.0-0.0","76096516","wem/bandit_either_3","A1TGV7LT6LTIQU","either","6","280","","","","","","","0","0","1","0.7606559624","","0.6","0.8","0.4","0.2","","","","","0.8257352781","0.7606559624","0.2107705911","0.402428746","","","","","","","","74","J","1","","","91","main_expt",""
"","bandit","171","610494","0.0-132.0-0.0","76096516","wem/bandit_either_3","A1TGV7LT6LTIQU","either","6","262","","","","","","","1","0","0","0.8466818248","","0.6","0.8","0.4","0.2","","","","","0.7762210657","0.8466818248","0.1317951273","0.452733603","","","","","","","","74","J","1","","","92","main_expt",""
"","bandit","172","612212","0.0-133.0-0.0","76096516","wem/bandit_either_3","A1TGV7LT6LTIQU","either","6","200","","","","","","","1","0","0","0.8181600593","","0.6","0.8","0.4","0.2","","","","","0.8293629201","0.8181600593","0.09268613222","0.5416456901","","","","","","","","74","J","1","","","93","main_expt",""
"","bandit","173","613998","0.0-134.0-0.0","76096516","wem/bandit_either_3","A1TGV7LT6LTIQU","either","6","266","","","","","","","1","0","0","0.7259749053","","0.6","0.8","0.4","0.2","","","","","0.7849393417","0.7259749053","0.06418168538","0.5246039132","","","","","","","","74","J","1","","","94","main_expt",""
"","bandit","174","615752","0.0-135.0-0.0","76096516","wem/bandit_either_3","A1TGV7LT6LTIQU","either","6","238","","","","","","","0","1","0","","0.6538641892","0.6","0.8","0.4","0.2","0.7850226125","0.6538641892","0.100072779","0.606801291","","","","","","","","","","","","74","J","1","","","95","main_expt",""
"","bandit","175","617586","0.0-136.0-0.0","76096516","wem/bandit_either_3","A1TGV7LT6LTIQU","either","6","316","","","","","","","1","0","0","0.6384360591","","0.6","0.8","0.4","0.2","","","","","0.8013150942","0.6384360591","0.09628221604","0.7175242067","","","","","","","","74","J","1","","","96","main_expt",""
"","bandit","176","619409","0.0-137.0-0.0","76096516","wem/bandit_either_3","A1TGV7LT6LTIQU","either","6","290","","","","","","","1","0","0","0.6836118029","","0.6","0.8","0.4","0.2","","","","","0.70340399","0.6836118029","0.1335622201","0.7706560561","","","","","","","","74","J","1","","","97","main_expt",""
"","bandit","177","621201","0.0-138.0-0.0","76096516","wem/bandit_either_3","A1TGV7LT6LTIQU","either","6","260","","","","","","","1","0","0","0.659457158","","0.6","0.8","0.4","0.2","","","","","0.7562517051","0.659457158","0.167202632","0.7234704616","","","","","","","","74","J","1","","","98","main_expt",""
"","bandit","178","622874","0.0-139.0-0.0","76096516","wem/bandit_either_3","A1TGV7LT6LTIQU","either","6","140","","","","","","","1","0","0","0.7726162223","","0.6","0.8","0.4","0.2","","","","","0.6514659141","0.7726162223","0.1216125457","0.6582042781","","","","","","","","74","J","1","","","99","main_expt",""
"","bandit","179","624663","0.0-140.0-0.0","76096516","wem/bandit_either_3","A1TGV7LT6LTIQU","either","6","267","","","","","","","1","0","0","0.8446518706","","0.6","0.8","0.4","0.2","","","","","0.7112237606","0.8446518706","0.1163239148","0.6530973887","","","","","","","","74","J","1","","","100","main_expt",""
"","bandit","180","626386","0.0-141.0-0.0","76096516","wem/bandit_either_3","A1TGV7LT6LTIQU","either","6","184","","","","","","","1","0","0","0.8784151442","","0.6","0.8","0.4","0.2","","","","","0.6865981462","0.8784151442","0.1037928869","0.6690961394","","","","","","","","74","J","1","","","101","main_expt",""
"","bandit","181","628105","0.0-142.0-0.0","76096516","wem/bandit_either_3","A1TGV7LT6LTIQU","either","6","187","","","","","","","0","1","0","","0.8781202538","0.6","0.8","0.4","0.2","0.6663704066","0.8781202538","0.0991068806","0.6268844929","","","","","","","","","","","","74","J","1","","","102","main_expt",""
"","bandit","182","629905","0.0-143.0-0.0","76096516","wem/bandit_either_3","A1TGV7LT6LTIQU","either","6","260","","","","","","","1","0","0","0.8123732176","","0.6","0.8","0.4","0.2","","","","","0.6006744832","0.8123732176","0.1226752409","0.6657789595","","","","","","","","74","J","1","","","103","main_expt",""
"","bandit","183","631685","0.0-144.0-0.0","76096516","wem/bandit_either_3","A1TGV7LT6LTIQU","either","6","269","","","","","","","1","0","0","0.8461937008","","0.6","0.8","0.4","0.2","","","","","0.518723913","0.8461937008","0.1552466415","0.6951589836","","","","","","","","74","J","1","","","104","main_expt",""
"","bandit","184","633479","0.0-145.0-0.0","76096516","wem/bandit_either_3","A1TGV7LT6LTIQU","either","6","279","","","","","","","0","0","1","","0.8664825842","0.6","0.8","0.4","0.2","0.5343999165","0.8664825842","0.1702138509","0.6382729445","","","","","","","","","","","","74","J","1","","","105","main_expt",""
"","bandit","185","635273","0.0-146.0-0.0","76096516","wem/bandit_either_3","A1TGV7LT6LTIQU","either","6","269","","","","","","","0","0","1","0.8703997655","","0.6","0.8","0.4","0.2","","","","","0.4959998489","0.8703997655","0.2021425125","0.7139624249","","","","","","","","74","J","1","","","106","main_expt",""
"","bandit","186","637121","0.0-147.0-0.0","76096516","wem/bandit_either_3","A1TGV7LT6LTIQU","either","6","315","","","","","","","0","1","0","","0.5052663648","0.6","0.8","0.4","0.2","0.5052663648","0.8964314806","0.2196373816","0.7718136471","","","","","","","","","","","","72","H","0","img/none_selected.jpg","","107","main_expt",""
"","bandit","187","638918","0.0-148.0-0.0","76096516","wem/bandit_either_3","A1TGV7LT6LTIQU","either","6","268","","","","","","","0","0","1","","0.4859582203","0.6","0.8","0.4","0.2","0.4859582203","0.9080126319","0.2393661099","0.8818715302","","","","","","","","","","","","72","H","0","img/none_selected.jpg","","108","main_expt",""
"","bandit","188","640746","0.0-149.0-0.0","76096516","wem/bandit_either_3","A1TGV7LT6LTIQU","either","6","319","","","","","","","0","1","0","","0.523617738","0.6","0.8","0.4","0.2","0.523617738","0.8880845243","0.2516352594","0.8757741924","","","","","","","","","","","","72","H","0","img/none_selected.jpg","","109","main_expt",""
"","bandit","189","642595","0.0-150.0-0.0","76096516","wem/bandit_either_3","A1TGV7LT6LTIQU","either","6","323","","","","","","","0","1","0","","0.5492010791","0.6","0.8","0.4","0.2","0.5492010791","0.899251136","0.2424291788","0.8657151097","","","","","","","","","","","","72","H","0","img/none_selected.jpg","","110","main_expt",""
"","bandit","190","644383","0.0-151.0-0.0","76096516","wem/bandit_either_3","A1TGV7LT6LTIQU","either","6","265","","","","","","","0","0","1","0.5467154696","","0.6","0.8","0.4","0.2","","","","","0.5467154696","0.9019514556","0.2033086481","0.8457624762","","","","","","","","72","H","0","img/none_selected.jpg","","111","main_expt",""
"","bandit","191","646230","0.0-152.0-0.0","76096516","wem/bandit_either_3","A1TGV7LT6LTIQU","either","6","326","","","","","","","0","0","1","0.5396215981","","0.6","0.8","0.4","0.2","","","","","0.5396215981","0.9315537639","0.208613213","0.8756116827","","","","","","","","72","H","0","img/none_selected.jpg","","112","main_expt",""
"","bandit","192","648073","0.0-153.0-0.0","76096516","wem/bandit_either_3","A1TGV7LT6LTIQU","either","6","322","","","","","","","0","0","1","","0.2743958833","0.6","0.8","0.4","0.2","0.5542875214","0.9254394702","0.2743958833","0.8773181328","","","","","","","","","","","","75","K","2","","","113","main_expt",""
"","bandit","193","649859","0.0-154.0-0.0","76096516","wem/bandit_either_3","A1TGV7LT6LTIQU","either","6","251","","","","","","","0","0","1","","0.2657329006","0.6","0.8","0.4","0.2","0.6411428718","0.9394904604","0.2657329006","0.8842236373","","","","","","","","","","","","75","K","2","","","114","main_expt",""
"","bandit","194","651611","0.0-155.0-0.0","76096516","wem/bandit_either_3","A1TGV7LT6LTIQU","either","6","217","","","","","","","0","1","0","","0.8499121835","0.6","0.8","0.4","0.2","0.7261400339","0.9533355239","0.3234316928","0.8499121835","","","","","","","","","","","","76","L","3","","","115","main_expt",""
"","bandit","195","653443","0.0-156.0-0.0","76096516","wem/bandit_either_3","A1TGV7LT6LTIQU","either","6","307","","","","","","","0","0","1","","0.7890056153","0.6","0.8","0.4","0.2","0.7395407697","0.960842596","0.3625587123","0.7890056153","","","","","","","","","","","","76","L","3","","","116","main_expt",""
"","bandit","196","655247","0.0-157.0-0.0","76096516","wem/bandit_either_3","A1TGV7LT6LTIQU","either","6","273","","","","","","","1","0","0","0.7709890197","","0.6","0.8","0.4","0.2","","","","","0.8231731708","0.937733065","0.4946904956","0.7709890197","","","","","","","","76","L","3","","","117","main_expt",""
"","bandit","197","657060","0.0-158.0-0.0","76096516","wem/bandit_either_3","A1TGV7LT6LTIQU","either","6","285","","","","","","","0","1","0","","0.7459937787","0.6","0.8","0.4","0.2","0.8278750807","0.9561499645","0.6246330079","0.7459937787","","","","","","","","","","","","76","L","3","","","118","main_expt",""
"","bandit","198","658842","0.0-159.0-0.0","76096516","wem/bandit_either_3","A1TGV7LT6LTIQU","either","6","271","","","","","","","0","1","0","","0.716881491","0.6","0.8","0.4","0.2","0.8715827524","0.9595118281","0.5818097722","0.716881491","","","","","","","","","","","","76","L","3","","","119","main_expt",""
"","bandit","199","660627","0.0-160.0-0.0","76096516","wem/bandit_either_3","A1TGV7LT6LTIQU","either","6","275","","","","","","","0","1","0","","0.6595649419","0.6","0.8","0.4","0.2","0.8522670476","0.9548463758","0.5990025551","0.6595649419","","","","","","","","","","","","76","L","3","","","120","main_expt",""
"","bandit","200","662336","0.0-161.0-0.0","76096516","wem/bandit_either_3","A1TGV7LT6LTIQU","either","6","191","","","","","","","1","0","0","0.6576447048","","0.6","0.8","0.4","0.2","","","","","0.8266542562","0.958085665","0.6534424477","0.6576447048","","","","","","","","76","L","3","","","121","main_expt",""
"","bandit","201","664099","0.0-162.0-0.0","76096516","wem/bandit_either_3","A1TGV7LT6LTIQU","either","6","246","","","","","","","0","0","1","","0.6391957719","0.6","0.8","0.4","0.2","0.81688531","0.9630601427","0.5952731017","0.6391957719","","","","","","","","","","","","76","L","3","","","122","main_expt",""
"","bandit","202","665905","0.0-163.0-0.0","76096516","wem/bandit_either_3","A1TGV7LT6LTIQU","either","6","292","","","","","","","1","0","0","0.5873908865","","0.6","0.8","0.4","0.2","","","","","0.8307363081","0.9790283764","0.6469086187","0.5873908865","","","","","","","","76","L","3","","","123","main_expt",""
"","bandit","203","667519","0.0-164.0-0.0","76096516","wem/bandit_either_3","A1TGV7LT6LTIQU","either","6","90","","","","","","","1","0","0","0.6592760984","","0.6","0.8","0.4","0.2","","","","","0.6943824695","0.9718765302","0.6911454426","0.6592760984","","","","","","","","76","L","3","","","124","main_expt",""
"","bandit","204","669079","0.0-165.0-0.0","76096516","wem/bandit_either_3","A1TGV7LT6LTIQU","either","6","37","","","","","","","0","1","0","","0.6012083746","0.6","0.8","0.4","0.2","0.7137568944","0.9845173964","0.750572215","0.6012083746","","","","","","","","","","","","76","L","3","","","125","main_expt",""
"","bandit","205","670712","0.0-166.0-0.0","76096516","wem/bandit_either_3","A1TGV7LT6LTIQU","either","6","117","","","","","","","1","0","0","0.6043440275","","0.6","0.8","0.4","0.2","","","","","0.6878742658","0.9804670004","0.8108432581","0.6043440275","","","","","","","","76","L","3","","","126","main_expt",""
"","bandit","206","672261","0.0-167.0-0.0","76096516","wem/bandit_either_3","A1TGV7LT6LTIQU","either","6","28","","","","","","","0","1","0","","0.5043142332","0.6","0.8","0.4","0.2","0.6175454059","0.9792667249","0.8338196277","0.5043142332","","","","","","","","","","","","76","L","3","","","127","main_expt",""
"","bandit","207","673911","0.0-168.0-0.0","76096516","wem/bandit_either_3","A1TGV7LT6LTIQU","either","6","136","","","","","","","0","0","1","","0.5778209799","0.6","0.8","0.4","0.2","0.5556505876","0.9853815399","0.8624128669","0.5778209799","","","","","","","","","","","","76","L","3","","","128","main_expt",""
"","bandit","208","675733","0.0-169.0-0.0","76096516","wem/bandit_either_3","A1TGV7LT6LTIQU","either","6","312","","","","","","","0","0","1","","0.5806273004","0.6","0.8","0.4","0.2","0.5948532478","0.9838319732","0.9026068167","0.5806273004","","","","","","","","","","","","76","L","3","","","129","main_expt",""
"","bandit","209","677342","0.0-170.0-0.0","76096516","wem/bandit_either_3","A1TGV7LT6LTIQU","either","6","87","","","","","","","0","1","0","","0.8983636673","0.6","0.8","0.4","0.2","0.6646968067","0.9798768453","0.8983636673","0.4152233618","","","","","","","","","","","","75","K","2","","","130","main_expt",""
"","bandit","210","679166","0.0-171.0-0.0","76096516","wem/bandit_either_3","A1TGV7LT6LTIQU","either","6","294","","","","","","","1","0","0","0.888478962","","0.6","0.8","0.4","0.2","","","","","0.6676177377","0.9628017066","0.888478962","0.4527057242","","","","","","","","75","K","2","","","131","main_expt",""
"","bandit","211","680995","0.0-172.0-0.0","76096516","wem/bandit_either_3","A1TGV7LT6LTIQU","either","6","313","","","","","","","1","0","0","0.8470567254","","0.6","0.8","0.4","0.2","","","","","0.7638630926","0.9723970119","0.8470567254","0.5185753891","","","","","","","","75","K","2","","","132","main_expt",""
"","bandit","212","682827","0.0-173.0-0.0","76096516","wem/bandit_either_3","A1TGV7LT6LTIQU","either","6","299","","","","","","","0","1","0","","0.8852081265","0.6","0.8","0.4","0.2","0.726350598","0.9754432393","0.8852081265","0.4567386081","","","","","","","","","","","","75","K","2","","","133","main_expt",""
"","bandit","213","684620","0.0-174.0-0.0","76096516","wem/bandit_either_3","A1TGV7LT6LTIQU","either","6","281","","","","","","","0","1","0","","0.8317422298","0.6","0.8","0.4","0.2","0.7638059904","0.9635376407","0.8317422298","0.4494056808","","","","","","","","","","","","75","K","2","","","134","main_expt",""
"","bandit","214","686343","0.0-175.0-0.0","76096516","wem/bandit_either_3","A1TGV7LT6LTIQU","either","6","202","","","","","","","0","1","0","","0.8121858422","0.6","0.8","0.4","0.2","0.7337835984","0.9304273523","0.8121858422","0.4608562393","","","","","","","","","","","","75","K","2","","","135","main_expt",""
"","bandit","215","688159","0.0-176.0-0.0","76096516","wem/bandit_either_3","A1TGV7LT6LTIQU","either","6","293","","","","","","","0","1","0","","0.8473276522","0.6","0.8","0.4","0.2","0.7869055623","0.9295592062","0.8473276522","0.6684020244","","","","","","","","","","","","75","K","2","","","136","main_expt",""
"","bandit","216","689974","0.0-177.0-0.0","76096516","wem/bandit_either_3","A1TGV7LT6LTIQU","either","6","292","","","","","","","0","1","0","","0.8251243182","0.6","0.8","0.4","0.2","0.8033651193","0.9343332129","0.8251243182","0.614137061","","","","","","","","","","","","75","K","2","","","137","main_expt",""
"","bandit","217","691782","0.0-178.0-0.0","76096516","wem/bandit_either_3","A1TGV7LT6LTIQU","either","6","277","","","","","","","1","0","0","0.7892590299","","0.6","0.8","0.4","0.2","","","","","0.7620089345","0.9325781127","0.7892590299","0.711021659","","","","","","","","75","K","2","","","138","main_expt",""
"","bandit","218","693630","0.0-179.0-0.0","76096516","wem/bandit_either_3","A1TGV7LT6LTIQU","either","6","318","","","","","","","0","0","1","0.753698647","","0.6","0.8","0.4","0.2","","","","","0.8098853196","0.9687763229","0.753698647","0.5731932267","","","","","","","","75","K","2","","","139","main_expt",""
"","bandit","219","695457","0.0-180.0-0.0","76096516","wem/bandit_either_3","A1TGV7LT6LTIQU","either","6","302","","","","","","","0","1","0","","0.7281837229","0.6","0.8","0.4","0.2","0.8737133651","0.9520204639","0.7281837229","0.6553783698","","","","","","","","","","","","75","K","2","","","140","main_expt",""
"","bandit","220","697332","0.0-181.0-0.0","76096516","wem/bandit_either_3","A1TGV7LT6LTIQU","either","6","346","","","","","","","0","1","0","","0.7913145473","0.6","0.8","0.4","0.2","0.8464817719","0.9615613541","0.7913145473","0.5665224918","","","","","","","","","","","","75","K","2","","","141","main_expt",""
"","bandit","221","699019","0.0-182.0-0.0","76096516","wem/bandit_either_3","A1TGV7LT6LTIQU","either","6","163","","","","","","","0","0","1","0.7498898283","","0.6","0.8","0.4","0.2","","","","","0.8457688645","0.9438722422","0.7498898283","0.5230460729","","","","","","","","75","K","2","","","142","main_expt",""
"","bandit","222","700811","0.0-183.0-0.0","76096516","wem/bandit_either_3","A1TGV7LT6LTIQU","either","6","265","","","","","","","1","0","0","0.723110339","","0.6","0.8","0.4","0.2","","","","","0.8801682128","0.9419241064","0.723110339","0.5401897842","","","","","","","","75","K","2","","","143","main_expt",""
"","bandit","223","702629","0.0-184.0-0.0","76096516","wem/bandit_either_3","A1TGV7LT6LTIQU","either","6","305","","","","","","","1","0","0","0.7697142539","","0.6","0.8","0.4","0.2","","","","","0.7806105972","0.9383966058","0.7697142539","0.5495292383","","","","","","","","75","K","2","","","144","main_expt",""
"","bandit","224","704453","0.0-185.0-0.0","76096516","wem/bandit_either_3","A1TGV7LT6LTIQU","either","6","310","","","","","","","0","1","0","","0.8279494337","0.6","0.8","0.4","0.2","0.7384744451","0.9442204223","0.8279494337","0.4718854897","","","","","","","","","","","","75","K","2","","","145","main_expt",""
"","bandit","225","706291","0.0-186.0-0.0","76096516","wem/bandit_either_3","A1TGV7LT6LTIQU","either","6","310","","","","","","","0","1","0","","0.747104877","0.6","0.8","0.4","0.2","0.7078417075","0.9461270134","0.747104877","0.3790577705","","","","","","","","","","","","75","K","2","","","146","main_expt",""
"","bandit","226","708168","0.0-187.0-0.0","76096516","wem/bandit_either_3","A1TGV7LT6LTIQU","either","6","338","","","","","","","0","1","0","","0.7635883185","0.6","0.8","0.4","0.2","0.7671729372","0.9677113618","0.7635883185","0.3671333747","","","","","","","","","","","","75","K","2","","","147","main_expt",""
"","bandit","227","709925","0.0-188.0-0.0","76096516","wem/bandit_either_3","A1TGV7LT6LTIQU","either","6","243","","","","","","","0","1","0","","0.6650729927","0.6","0.8","0.4","0.2","0.7515071201","0.9603287673","0.6650729927","0.4462771912","","","","","","","","","","","","75","K","2","","","148","main_expt",""
"","bandit","228","711728","0.0-189.0-0.0","76096516","wem/bandit_either_3","A1TGV7LT6LTIQU","either","6","286","","","","","","","0","0","1","0.594527628","","0.6","0.8","0.4","0.2","","","","","0.7582160768","0.9256305183","0.594527628","0.3929125452","","","","","","","","75","K","2","","","149","main_expt",""
"","bandit","229","713540","0.0-190.0-0.0","76096516","wem/bandit_either_3","A1TGV7LT6LTIQU","either","6","292","","","","","","","0","1","0","","0.5101412162","0.6","0.8","0.4","0.2","0.6843302658","0.9222609783","0.5101412162","0.3825194633","","","","","","","","","","","","75","K","2","","","150","main_expt",""
"","bandit","230","715384","0.0-191.0-0.0","76096516","wem/bandit_either_3","A1TGV7LT6LTIQU","either","6","318","","","","","","","0","1","0","","0.5755011036","0.6","0.8","0.4","0.2","0.4980827124","0.9522131909","0.5755011036","0.3889652011","","","","","","","","","","","","75","K","2","","","151","main_expt",""
"","bandit","231","717198","0.0-192.0-0.0","76096516","wem/bandit_either_3","A1TGV7LT6LTIQU","either","6","291","","","","","","","0","0","1","","0.5415628766","0.6","0.8","0.4","0.2","0.5418861514","0.9351777179","0.5415628766","0.372169082","","","","","","","","","","","","75","K","2","","","152","main_expt",""
"","bandit","232","719087","0.0-193.0-0.0","76096516","wem/bandit_either_3","A1TGV7LT6LTIQU","either","6","350","","","","","","","1","0","0","0.6392888902","","0.6","0.8","0.4","0.2","","","","","0.6424708626","0.9526549669","0.6392888902","0.4275919172","","","","","","","","75","K","2","","","153","main_expt",""
"","bandit","233","720998","0.0-194.0-0.0","76096516","wem/bandit_either_3","A1TGV7LT6LTIQU","either","6","388","","","","","","","0","1","0","","0.6798835142","0.6","0.8","0.4","0.2","0.6200403258","0.944677936","0.6798835142","0.3978897223","","","","","","","","","","","","75","K","2","","","154","main_expt",""
"","bandit","234","722844","0.0-195.0-0.0","76096516","wem/bandit_either_3","A1TGV7LT6LTIQU","either","6","324","","","","","","","0","0","1","0.7376683638","","0.6","0.8","0.4","0.2","","","","","0.5087788092","0.9443948233","0.7376683638","0.4922143253","","","","","","","","75","K","2","","","155","main_expt",""
"","bandit","235","724682","0.0-196.0-0.0","76096516","wem/bandit_either_3","A1TGV7LT6LTIQU","either","6","327","","","","","","","0","1","0","","0.7740838489","0.6","0.8","0.4","0.2","0.4397360723","0.9312029685","0.7740838489","0.5060601407","","","","","","","","","","","","75","K","2","","","156","main_expt",""
"","bandit","236","726586","0.0-197.0-0.0","76096516","wem/bandit_either_3","A1TGV7LT6LTIQU","either","6","375","","","","","","","1","0","0","0.7526352547","","0.6","0.8","0.4","0.2","","","","","0.4529934193","0.9009413449","0.7526352547","0.56460533","","","","","","","","75","K","2","","","157","main_expt",""
"","bandit","237","728451","0.0-198.0-0.0","76096516","wem/bandit_either_3","A1TGV7LT6LTIQU","either","6","337","","","","","","","1","0","0","0.807066173","","0.6","0.8","0.4","0.2","","","","","0.522014142","0.8799225656","0.807066173","0.5551408743","","","","","","","","75","K","2","","","158","main_expt",""
"","bandit","238","730374","0.0-199.0-0.0","76096516","wem/bandit_either_3","A1TGV7LT6LTIQU","either","6","409","","","","","","","1","0","0","0.8348587906","","0.6","0.8","0.4","0.2","","","","","0.447178695","0.9103166083","0.8348587906","0.6362487126","","","","","","","","75","K","2","","","159","main_expt",""
"","bandit","239","732169","0.0-200.0-0.0","76096516","wem/bandit_either_3","A1TGV7LT6LTIQU","either","6","276","","","","","","","0","1","0","","0.8054329593","0.6","0.8","0.4","0.2","0.4293784973","0.9575168601","0.8054329593","0.5818198138","","","","","","","","","","","","75","K","2","","","160","main_expt",""
"","bandit","240","733998","0.0-201.0-0.0","76096516","wem/bandit_either_3","A1TGV7LT6LTIQU","either","6","305","","","","","","","1","0","0","0.8263011938","","0.6","0.8","0.4","0.2","","","","","0.4263694152","0.9323430526","0.8263011938","0.5079421761","","","","","","","","75","K","2","","","161","main_expt",""
"","bandit","241","735785","0.0-202.0-0.0","76096516","wem/bandit_either_3","A1TGV7LT6LTIQU","either","6","261","","","","","","","0","1","0","","0.8468561623","0.6","0.8","0.4","0.2","0.4394756583","0.8731035433","0.8468561623","0.3944353318","","","","","","","","","","","","75","K","2","","","162","main_expt",""
"","bandit","242","737641","0.0-203.0-0.0","76096516","wem/bandit_either_3","A1TGV7LT6LTIQU","either","6","337","","","","","","","0","1","0","","0.866861138","0.6","0.8","0.4","0.2","0.4632532181","0.860239847","0.866861138","0.4560534757","","","","","","","","","","","","75","K","2","","","163","main_expt",""
"","bandit","243","739476","0.0-204.0-0.0","76096516","wem/bandit_either_3","A1TGV7LT6LTIQU","either","6","314","","","","","","","1","0","0","0.8621839131","","0.6","0.8","0.4","0.2","","","","","0.469091439","0.8327160304","0.8621839131","0.4338988853","","","","","","","","75","K","2","","","164","main_expt",""
"","bandit","244","741338","0.0-205.0-0.0","76096516","wem/bandit_either_3","A1TGV7LT6LTIQU","either","6","336","","","","","","","0","0","1","","0.8368369455","0.6","0.8","0.4","0.2","0.4691854483","0.8780399083","0.8368369455","0.3640020004","","","","","","","","","","","","75","K","2","","","165","main_expt",""
"","bandit","245","742889","0.0-206.0-0.0","76096516","wem/bandit_either_3","A1TGV7LT6LTIQU","either","6","34","","","","","","","0","1","0","","0.8543831227","0.6","0.8","0.4","0.2","0.424594696","0.8659509199","0.8543831227","0.4433911144","","","","","","","","","","","","75","K","2","","","166","main_expt",""
"","bandit","246","744724","0.0-207.0-0.0","76096516","wem/bandit_either_3","A1TGV7LT6LTIQU","either","6","313","","","","","","","0","1","0","","0.8444257961","0.6","0.8","0.4","0.2","0.4691217736","0.8458676595","0.8444257961","0.4852122499","","","","","","","","","","","","75","K","2","","","167","main_expt",""
"","bandit","247","746535","0.0-208.0-0.0","76096516","wem/bandit_either_3","A1TGV7LT6LTIQU","either","6","286","","","","","","","0","1","0","","0.8895061166","0.6","0.8","0.4","0.2","0.4605946041","0.7368025647","0.8895061166","0.4829488348","","","","","","","","","","","","75","K","2","","","168","main_expt",""
"","bandit","248","748358","0.0-209.0-0.0","76096516","wem/bandit_either_3","A1TGV7LT6LTIQU","either","6","311","","","","","","","0","1","0","","0.8980662015","0.6","0.8","0.4","0.2","0.4302520818","0.6811301937","0.8980662015","0.467087579","","","","","","","","","","","","75","K","2","","","169","main_expt",""
"","bandit","249","750190","0.0-210.0-0.0","76096516","wem/bandit_either_3","A1TGV7LT6LTIQU","either","6","301","","","","","","","1","0","0","0.9399190154","","0.6","0.8","0.4","0.2","","","","","0.3846086554","0.6781719117","0.9399190154","0.3575164989","","","","","","","","75","K","2","","","170","main_expt",""
"","bandit","250","752010","0.0-211.0-0.0","76096516","wem/bandit_either_3","A1TGV7LT6LTIQU","either","6","295","","","","","","","1","0","0","0.9199626721","","0.6","0.8","0.4","0.2","","","","","0.4938912128","0.5779776893","0.9199626721","0.3433755155","","","","","","","","75","K","2","","","171","main_expt",""
"","bandit","251","753848","0.0-212.0-0.0","76096516","wem/bandit_either_3","A1TGV7LT6LTIQU","either","6","325","","","","","","","0","1","0","","0.8885959212","0.6","0.8","0.4","0.2","0.5409242696","0.5461867433","0.8885959212","0.2921203137","","","","","","","","","","","","75","K","2","","","172","main_expt",""
"","bandit","252","755661","0.0-213.0-0.0","76096516","wem/bandit_either_3","A1TGV7LT6LTIQU","either","6","297","","","","","","","0","1","0","","0.8502068985","0.6","0.8","0.4","0.2","0.4899310385","0.5898781272","0.8502068985","0.3237382503","","","","","","","","","","","","75","K","2","","","173","main_expt",""
"","bandit","253","757507","0.0-214.0-0.0","76096516","wem/bandit_either_3","A1TGV7LT6LTIQU","either","6","312","","","","","","","1","0","0","0.9054067092","","0.6","0.8","0.4","0.2","","","","","0.4464532747","0.5990225055","0.9054067092","0.2935635685","","","","","","","","75","K","2","","","174","main_expt",""
"","bandit","254","759357","0.0-215.0-0.0","76096516","wem/bandit_either_3","A1TGV7LT6LTIQU","either","6","326","","","","","","","0","1","0","","0.9096893241","0.6","0.8","0.4","0.2","0.4363040476","0.6129624105","0.9096893241","0.2797951809","","","","","","","","","","","","75","K","2","","","175","main_expt",""
"","bandit","255","761156","0.0-216.0-0.0","76096516","wem/bandit_either_3","A1TGV7LT6LTIQU","either","6","269","","","","","","","0","1","0","","0.9081003197","0.6","0.8","0.4","0.2","0.4198776974","0.5434192492","0.9081003197","0.2067270565","","","","","","","","","","","","75","K","2","","","176","main_expt",""
"","bandit","256","762982","0.0-217.0-0.0","76096516","wem/bandit_either_3","A1TGV7LT6LTIQU","either","6","304","","","","","","","0","1","0","","0.8417535431","0.6","0.8","0.4","0.2","0.4001478854","0.5893108522","0.8417535431","0.19266164","","","","","","","","","","","","75","K","2","","","177","main_expt",""
"","bandit","257","764801","0.0-218.0-0.0","76096516","wem/bandit_either_3","A1TGV7LT6LTIQU","either","6","283","","","","","","","1","0","0","0.8045518304","","0.6","0.8","0.4","0.2","","","","","0.3015477047","0.4862463398","0.8045518304","0.1393448617","","","","","","","","75","K","2","","","178","main_expt",""
"","bandit","258","766597","0.0-219.0-0.0","76096516","wem/bandit_either_3","A1TGV7LT6LTIQU","either","6","280","","","","","","","0","1","0","","0.8250115846","0.6","0.8","0.4","0.2","0.2700131006","0.4227787996","0.8250115846","0.1149816072","","","","","","","","","","","","75","K","2","","","179","main_expt",""
"","bandit","259","768420","0.0-220.0-0.0","76096516","wem/bandit_either_3","A1TGV7LT6LTIQU","either","6","299","","","","","","","0","1","0","","0.7418096358","0.6","0.8","0.4","0.2","0.3473069","0.3583368423","0.7418096358","0.1231561222","","","","","","","","","","","","75","K","2","","","180","main_expt",""
"","bandit","260","770204","0.0-221.0-0.0","76096516","wem/bandit_either_3","A1TGV7LT6LTIQU","either","6","261","","","","","","","0","1","0","","0.7180260456","0.6","0.8","0.4","0.2","0.3478804011","0.3820052134","0.7180260456","0.1134989143","","","","","","","","","","","","75","K","2","","","181","main_expt",""
"","bandit","261","772030","0.0-222.0-0.0","76096516","wem/bandit_either_3","A1TGV7LT6LTIQU","either","6","300","","","","","","","0","1","0","","0.6777378447","0.6","0.8","0.4","0.2","0.3304981007","0.437769555","0.6777378447","0.07317944644","","","","","","","","","","","","75","K","2","","","182","main_expt",""
"","bandit","262","773908","0.0-223.0-0.0","76096516","wem/bandit_either_3","A1TGV7LT6LTIQU","either","6","342","","","","","","","0","0","1","0.6331465848","","0.6","0.8","0.4","0.2","","","","","0.2578466268","0.3951330089","0.6331465848","0.05085611098","","","","","","","","75","K","2","","","183","main_expt",""
"","bandit","263","775714","0.0-224.0-0.0","76096516","wem/bandit_either_3","A1TGV7LT6LTIQU","either","6","293","","","","","","","0","0","1","","0.6578519513","0.6","0.8","0.4","0.2","0.3550464129","0.4062376343","0.6578519513","0.07152820202","","","","","","","","","","","","75","K","2","","","184","main_expt",""
"","bandit","264","777556","0.0-225.0-0.0","76096516","wem/bandit_either_3","A1TGV7LT6LTIQU","either","6","323","","","","","","","0","0","1","0.4035727276","","0.6","0.8","0.4","0.2","","","","","0.2993299556","0.4035727276","0.7160298793","0.08814522307","","","","","","","","74","J","1","","","185","main_expt",""
"","bandit","265","779103","0.0-226.0-0.0","76096516","wem/bandit_either_3","A1TGV7LT6LTIQU","either","6","28","","","","","","","0","0","1","0.3985972224","","0.6","0.8","0.4","0.2","","","","","0.3985972224","0.4595565904","0.7081703269","0.0931487442","","","","","","","","72","H","0","img/none_selected.jpg","","186","main_expt",""
"","bandit","266","780786","0.0-227.0-0.0","76096516","wem/bandit_either_3","A1TGV7LT6LTIQU","either","6","144","","","","","","","1","0","0","0.4563810555","","0.6","0.8","0.4","0.2","","","","","0.4563810555","0.4956959756","0.7670757258","0.05847154344","","","","","","","","72","H","0","img/none_selected.jpg","","187","main_expt",""
"","bandit","267","782570","0.0-228.0-0.0","76096516","wem/bandit_either_3","A1TGV7LT6LTIQU","either","6","263","","","","","","","1","0","0","0.4621092719","","0.6","0.8","0.4","0.2","","","","","0.4621092719","0.4295585103","0.7986884496","0.05005107021","","","","","","","","72","H","0","img/none_selected.jpg","","188","main_expt",""
"","bandit","268","784307","0.0-229.0-0.0","76096516","wem/bandit_either_3","A1TGV7LT6LTIQU","either","6","200","","","","","","","1","0","0","0.4214675273","","0.6","0.8","0.4","0.2","","","","","0.4214675273","0.4121259827","0.8113194514","0.05158958255","","","","","","","","72","H","0","img/none_selected.jpg","","189","main_expt",""
"","bandit","269","786089","0.0-230.0-0.0","76096516","wem/bandit_either_3","A1TGV7LT6LTIQU","either","6","253","","","","","","","0","0","1","0.4445162903","","0.6","0.8","0.4","0.2","","","","","0.4445162903","0.40505342","0.8311477635","0.0530996007","","","","","","","","72","H","0","img/none_selected.jpg","","190","main_expt",""
"","bandit","270","787870","0.0-231.0-0.0","76096516","wem/bandit_either_3","A1TGV7LT6LTIQU","either","6","254","","","","","","","0","1","0","","0.4077799102","0.6","0.8","0.4","0.2","0.4077799102","0.3671493273","0.7941336253","0.05342003941","","","","","","","","","","","","72","H","0","img/none_selected.jpg","","191","main_expt",""
"","bandit","271","789617","0.0-232.0-0.0","76096516","wem/bandit_either_3","A1TGV7LT6LTIQU","either","6","219","","","","","","","0","1","0","","0.413117206","0.6","0.8","0.4","0.2","0.413117206","0.3367263454","0.841847859","0.05264216412","","","","","","","","","","","","72","H","0","img/none_selected.jpg","","192","main_expt",""
"","bandit","272","791290","0.0-233.0-0.0","76096516","wem/bandit_either_3","A1TGV7LT6LTIQU","either","6","143","","","","","","","0","0","1","","0.374663265","0.6","0.8","0.4","0.2","0.374663265","0.2587514209","0.865127625","0.07418965368","","","","","","","","","","","","72","H","0","img/none_selected.jpg","","193","main_expt",""
"","bandit","273","793088","0.0-234.0-0.0","76096516","wem/bandit_either_3","A1TGV7LT6LTIQU","either","6","263","","","","","","","0","1","0","","0.2792309937","0.6","0.8","0.4","0.2","0.2792309937","0.2123696513","0.8369883383","0.1148515542","","","","","","","","","","","","72","H","0","img/none_selected.jpg","","194","main_expt",""
"","bandit","274","794864","0.0-235.0-0.0","76096516","wem/bandit_either_3","A1TGV7LT6LTIQU","either","6","252","","","","","","","0","1","0","","0.3090424304","0.6","0.8","0.4","0.2","0.3090424304","0.2551117677","0.8226177272","0.1102075851","","","","","","","","","","","","72","H","0","img/none_selected.jpg","","195","main_expt",""
"","bandit","275","796620","0.0-236.0-0.0","76096516","wem/bandit_either_3","A1TGV7LT6LTIQU","either","6","225","","","","","","","0","0","1","0.2254203465","","0.6","0.8","0.4","0.2","","","","","0.2254203465","0.2948177706","0.8759919892","0.09307195637","","","","","","","","72","H","0","img/none_selected.jpg","","196","main_expt",""
"","bandit","276","798295","0.0-237.0-0.0","76096516","wem/bandit_either_3","A1TGV7LT6LTIQU","either","6","149","","","","","","","0","0","1","0.2104085952","","0.6","0.8","0.4","0.2","","","","","0.2104085952","0.2864074111","0.9413038234","0.08341332984","","","","","","","","72","H","0","img/none_selected.jpg","","197","main_expt",""
"","bandit","277","800135","0.0-238.0-0.0","76096516","wem/bandit_either_3","A1TGV7LT6LTIQU","either","6","314","","","","","","","0","0","1","0.3044962429","","0.6","0.8","0.4","0.2","","","","","0.1686499416","0.3044962429","0.9384937307","0.06206278739","","","","","","","","74","J","1","","","198","main_expt",""
"","bandit","278","801955","0.0-239.0-0.0","76096516","wem/bandit_either_3","A1TGV7LT6LTIQU","either","6","290","","","","","","","1","0","0","0.1696058054","","0.6","0.8","0.4","0.2","","","","","0.1696058054","0.2804127106","0.927250614","0.1015706687","","","","","","","","72","H","0","img/none_selected.jpg","","199","main_expt",""
"","bandit","279","803782","0.0-240.0-0.0","76096516","wem/bandit_either_3","A1TGV7LT6LTIQU","either","6","293","","","","","","","0","0","1","0.1940139532","","0.6","0.8","0.4","0.2","","","","","0.1940139532","0.3151112274","0.8840406778","0.07348353789","","","","","","","","72","H","0","img/none_selected.jpg","","200","main_expt",""
"","bandit","280","805748","0.0-241.0-0.0","76096516","wem/bandit_either_3","A1TGV7LT6LTIQU","either","6","453","","","","","","","0","0","1","","0.2384341862","0.6","0.8","0.4","0.2","0.2384341862","0.3124471347","0.8866639954","0.09218994405","","","","","","","","","","","","72","H","0","img/none_selected.jpg","","201","main_expt",""
"","bandit","281","807631","0.0-242.0-0.0","76096516","wem/bandit_either_3","A1TGV7LT6LTIQU","either","6","363","","","","","","","1","0","0","0.3418115628","","0.6","0.8","0.4","0.2","","","","","0.2069173963","0.3418115628","0.8188103646","0.1662378481","","","","","","","","74","J","1","","","202","main_expt",""
"","bandit","282","809393","0.0-243.0-0.0","76096516","wem/bandit_either_3","A1TGV7LT6LTIQU","either","6","224","","","","","","","0","0","1","0.2676578736","","0.6","0.8","0.4","0.2","","","","","0.2502389624","0.2676578736","0.8026106274","0.1808123801","","","","","","","","74","J","1","","","203","main_expt",""
"","bandit","283","811197","0.0-244.0-0.0","76096516","wem/bandit_either_3","A1TGV7LT6LTIQU","either","6","278","","","","","","","0","0","1","0.2513587973","","0.6","0.8","0.4","0.2","","","","","0.2226806","0.2513587973","0.6613987003","0.2011980288","","","","","","","","74","J","1","","","204","main_expt",""
"","bandit","284","813028","0.0-245.0-0.0","76096516","wem/bandit_either_3","A1TGV7LT6LTIQU","either","6","303","","","","","","","0","0","1","","0.1877492959","0.6","0.8","0.4","0.2","0.2327973494","0.2733703365","0.7402115251","0.1877492959","","","","","","","","","","","","76","L","3","","","205","main_expt",""
"","bandit","285","814620","0.0-246.0-0.0","76096516","wem/bandit_either_3","A1TGV7LT6LTIQU","either","6","76","","","","","","","0","0","1","","0.1891298069","0.6","0.8","0.4","0.2","0.3134624789","0.3212331514","0.6792505986","0.1891298069","","","","","","","","","","","","76","L","3","","","206","main_expt",""
"","bandit","286","816569","0.0-247.0-0.0","76096516","wem/bandit_either_3","A1TGV7LT6LTIQU","either","6","435","","","","","","","0","0","1","0.6510378203","","0.6","0.8","0.4","0.2","","","","","0.3808856429","0.3381772831","0.6510378203","0.2092890992","","","","","","","","75","K","2","","","207","main_expt",""
"","bandit","287","818395","0.0-248.0-0.0","76096516","wem/bandit_either_3","A1TGV7LT6LTIQU","either","6","311","","","","","","","0","0","1","","0.5971377862","0.6","0.8","0.4","0.2","0.318509643","0.2370260631","0.5971377862","0.2563161799","","","","","","","","","","","","75","K","2","","","208","main_expt",""
"","bandit","288","820067","0.0-249.0-0.0","76096516","wem/bandit_either_3","A1TGV7LT6LTIQU","either","6","141","","","","","","","0","0","1","0.2157004535","","0.6","0.8","0.4","0.2","","","","","0.2932847295","0.2157004535","0.6040603887","0.2643940457","","","","","","","","74","J","1","","","209","main_expt",""
"","bandit","289","821894","0.0-250.0-0.0","76096516","wem/bandit_either_3","A1TGV7LT6LTIQU","either","6","301","","","","","","","0","0","1","0.2655169153","","0.6","0.8","0.4","0.2","","","","","0.2230023122","0.2655169153","0.7794442159","0.2710870001","","","","","","","","74","J","1","","","210","main_expt",""
"","bandit","290","823712","0.0-251.0-0.0","76096516","wem/bandit_either_3","A1TGV7LT6LTIQU","either","6","290","","","","","","","0","1","0","","0.1899351836","0.6","0.8","0.4","0.2","0.1899351836","0.2359505063","0.8397026392","0.2056380183","","","","","","","","","","","","72","H","0","img/none_selected.jpg","","211","main_expt",""
"","bandit","291","825476","0.0-252.0-0.0","76096516","wem/bandit_either_3","A1TGV7LT6LTIQU","either","6","239","","","","","","","1","0","0","0.2593929449","","0.6","0.8","0.4","0.2","","","","","0.2593929449","0.2431981852","0.7883870126","0.2487045614","","","","","","","","72","H","0","img/none_selected.jpg","","212","main_expt",""
"","bandit","292","827304","0.0-253.0-0.0","76096516","wem/bandit_either_3","A1TGV7LT6LTIQU","either","6","294","","","","","","","0","0","1","","0.2304425673","0.6","0.8","0.4","0.2","0.2304425673","0.3385658967","0.7160446845","0.3520378668","","","","","","","","","","","","72","H","0","img/none_selected.jpg","","213","main_expt",""
"","bandit","293","829077","0.0-254.0-0.0","76096516","wem/bandit_either_3","A1TGV7LT6LTIQU","either","6","238","","","","","","","0","0","1","","0.2849244028","0.6","0.8","0.4","0.2","0.2849244028","0.445002088","0.7501162241","0.3455661114","","","","","","","","","","","","72","H","0","img/none_selected.jpg","","214","main_expt",""
"","bandit","294","830969","0.0-255.0-0.0","76096516","wem/bandit_either_3","A1TGV7LT6LTIQU","either","6","354","","","","","","","0","1","0","","0.3184819088","0.6","0.8","0.4","0.2","0.3184819088","0.4340580748","0.7574589115","0.3290646698","","","","","","","","","","","","72","H","0","img/none_selected.jpg","","215","main_expt",""
"","bandit","295","832736","0.0-256.0-0.0","76096516","wem/bandit_either_3","A1TGV7LT6LTIQU","either","6","239","","","","","","","1","0","0","0.2989728513","","0.6","0.8","0.4","0.2","","","","","0.2989728513","0.3996931216","0.7376674805","0.2737258078","","","","","","","","72","H","0","img/none_selected.jpg","","216","main_expt",""
"","bandit","296","834535","0.0-257.0-0.0","76096516","wem/bandit_either_3","A1TGV7LT6LTIQU","either","6","271","","","","","","","0","0","1","","0.5538830624","0.6","0.8","0.4","0.2","0.5538830624","0.453570069","0.67262171","0.2401291484","","","","","","","","","","","","72","H","0","img/none_selected.jpg","","217","main_expt",""
"","bandit","297","836193","0.0-258.0-0.0","76096516","wem/bandit_either_3","A1TGV7LT6LTIQU","either","6","120","","","","","","","0","0","1","0.5331458927","","0.6","0.8","0.4","0.2","","","","","0.5331458927","0.3566620654","0.6309662891","0.2395298113","","","","","","","","72","H","0","img/none_selected.jpg","","218","main_expt",""
"","bandit","298","837936","0.0-259.0-0.0","76096516","wem/bandit_either_3","A1TGV7LT6LTIQU","either","6","221","","","","","","","0","1","0","","0.610488243","0.6","0.8","0.4","0.2","0.409279481","0.3114207129","0.610488243","0.2333127667","","","","","","","","","","","","75","K","2","","","219","main_expt",""
"","bandit","299","839682","0.0-260.0-0.0","76096516","wem/bandit_either_3","A1TGV7LT6LTIQU","either","6","231","","","","","","","0","0","1","0.6741838821","","0.6","0.8","0.4","0.2","","","","","0.3910907299","0.348491043","0.6741838821","0.2097963002","","","","","","","","75","K","2","","","220","main_expt",""
"","bandit","300","841477","0.0-261.0-0.0","76096516","wem/bandit_either_3","A1TGV7LT6LTIQU","either","6","266","","","","","","","0","1","0","","0.6938787555","0.6","0.8","0.4","0.2","0.37386253","0.325682353","0.6938787555","0.1761429423","","","","","","","","","","","","75","K","2","","","221","main_expt",""
"","bandit","301","843281","0.0-262.0-0.0","76096516","wem/bandit_either_3","A1TGV7LT6LTIQU","either","6","282","","","","","","","1","0","0","0.622086605","","0.6","0.8","0.4","0.2","","","","","0.5460784034","0.3582518194","0.622086605","0.1770547834","","","","","","","","75","K","2","","","222","main_expt",""
"","bandit","302","845054","0.0-263.0-0.0","76096516","wem/bandit_either_3","A1TGV7LT6LTIQU","either","6","253","","","","","","","0","1","0","","0.6190419158","0.6","0.8","0.4","0.2","0.5484594206","0.3596631187","0.6190419158","0.1494166006","","","","","","","","","","","","75","K","2","","","223","main_expt",""
"","bandit","303","846751","0.0-264.0-0.0","76096516","wem/bandit_either_3","A1TGV7LT6LTIQU","either","6","177","","","","","","","1","0","0","0.6525227655","","0.6","0.8","0.4","0.2","","","","","0.5156266917","0.4757784632","0.6525227655","0.1444184755","","","","","","","","75","K","2","","","224","main_expt",""
"","bandit","304","848540","0.0-265.0-0.0","76096516","wem/bandit_either_3","A1TGV7LT6LTIQU","either","6","266","","","","","","","1","0","0","0.5739960468","","0.6","0.8","0.4","0.2","","","","","0.5120039273","0.5384710229","0.5739960468","0.2381889698","","","","","","","","75","K","2","","","225","main_expt",""
"","bandit","305","850394","0.0-266.0-0.0","76096516","wem/bandit_either_3","A1TGV7LT6LTIQU","either","6","323","","","","","","","0","0","1","0.6038380469","","0.6","0.8","0.4","0.2","","","","","0.5568413113","0.5308581489","0.6038380469","0.1429230379","","","","","","","","75","K","2","","","226","main_expt",""
"","bandit","306","853183","0.0-267.0-0.0","76096516","wem/bandit_either_3","A1TGV7LT6LTIQU","either","6","1260","","","","","","","0","0","1","0.5203417309","","0.6","0.8","0.4","0.2","","","","","0.5277183188","0.488482713","0.5203417309","0.124100867","","","","","","","","75","K","2","","","227","main_expt",""
"","bandit","307","854913","0.0-268.0-0.0","76096516","wem/bandit_either_3","A1TGV7LT6LTIQU","either","6","216","","","","","","","0","0","1","","0.4406219513","0.6","0.8","0.4","0.2","0.5041270258","0.4406219513","0.4263922038","0.1762219884","","","","","","","","","","","","74","J","1","","","228","main_expt",""
"","bandit","308","857634","0.0-269.0-0.0","76096516","wem/bandit_either_3","A1TGV7LT6LTIQU","either","6","1190","","","","","","","1","0","0","0.4892119921","","0.6","0.8","0.4","0.2","","","","","0.4541369304","0.4892119921","0.3475105047","0.1910325121","","","","","","","","74","J","1","","","229","main_expt",""
"","bandit","309","859460","0.0-270.0-0.0","76096516","wem/bandit_either_3","A1TGV7LT6LTIQU","either","6","295","","","","","","","0","0","1","0.5129573662","","0.6","0.8","0.4","0.2","","","","","0.4504381994","0.5129573662","0.3353007417","0.2571549068","","","","","","","","74","J","1","","","230","main_expt",""
"","bandit","310","861567","0.0-271.0-0.0","76096516","wem/bandit_either_3","A1TGV7LT6LTIQU","either","6","570","","","","","","","0","0","1","0.4382888871","","0.6","0.8","0.4","0.2","","","","","0.4698668598","0.4382888871","0.2870546929","0.1781345747","","","","","","","","74","J","1","","","231","main_expt",""
"","bandit","311","863516","0.0-272.0-0.0","76096516","wem/bandit_either_3","A1TGV7LT6LTIQU","either","6","416","","","","","","","1","0","0","0.5460008395","","0.6","0.8","0.4","0.2","","","","","0.5460008395","0.42174841","0.3092655517","0.1748933913","","","","","","","","72","H","0","img/none_selected.jpg","","232","main_expt",""
"","bandit","312","865338","0.0-273.0-0.0","76096516","wem/bandit_either_3","A1TGV7LT6LTIQU","either","6","306","","","","","","","0","0","1","0.5345299581","","0.6","0.8","0.4","0.2","","","","","0.5345299581","0.4297142637","0.4231157335","0.2196371411","","","","","","","","72","H","0","img/none_selected.jpg","","233","main_expt",""
"","bandit","313","867107","0.0-274.0-0.0","76096516","wem/bandit_either_3","A1TGV7LT6LTIQU","either","6","244","","","","","","","0","1","0","","0.508060833","0.6","0.8","0.4","0.2","0.508060833","0.3016140143","0.5525929145","0.2052749597","","","","","","","","","","","","72","H","0","img/none_selected.jpg","","234","main_expt",""
"","bandit","314","868937","0.0-275.0-0.0","76096516","wem/bandit_either_3","A1TGV7LT6LTIQU","either","6","308","","","","","","","1","0","0","0.4956589368","","0.6","0.8","0.4","0.2","","","","","0.4956589368","0.2735586703","0.7239072418","0.3158924645","","","","","","","","72","H","0","img/none_selected.jpg","","235","main_expt",""
"","bandit","315","870785","0.0-276.0-0.0","76096516","wem/bandit_either_3","A1TGV7LT6LTIQU","either","6","320","","","","","","","1","0","0","0.5514737959","","0.6","0.8","0.4","0.2","","","","","0.5514737959","0.2536827631","0.8076920848","0.3668106878","","","","","","","","72","H","0","img/none_selected.jpg","","236","main_expt",""
"","bandit","316","872581","0.0-277.0-0.0","76096516","wem/bandit_either_3","A1TGV7LT6LTIQU","either","6","277","","","","","","","1","0","0","0.5183580196","","0.6","0.8","0.4","0.2","","","","","0.5183580196","0.2478783488","0.7703095863","0.3866395083","","","","","","","","72","H","0","img/none_selected.jpg","","237","main_expt",""
"","bandit","317","874585","0.0-278.0-0.0","76096516","wem/bandit_either_3","A1TGV7LT6LTIQU","either","6","473","","","","","","","0","0","1","0.5320509842","","0.6","0.8","0.4","0.2","","","","","0.5320509842","0.1688186905","0.6485929649","0.4108821033","","","","","","","","72","H","0","img/none_selected.jpg","","238","main_expt",""
"","bandit","318","876470","0.0-279.0-0.0","76096516","wem/bandit_either_3","A1TGV7LT6LTIQU","either","6","365","","","","","","","1","0","0","0.46832295","","0.6","0.8","0.4","0.2","","","","","0.46832295","0.1232648298","0.7028133827","0.4384900471","","","","","","","","72","H","0","img/none_selected.jpg","","239","main_expt",""
"","bandit","319","878879","0.0-280.0-0.0","76096516","wem/bandit_either_3","A1TGV7LT6LTIQU","either","6","889","","","","","","","0","0","1","","0.5024711131","0.6","0.8","0.4","0.2","0.5024711131","0.1720424997","0.6620055833","0.4246438665","","","","","","","","","","","","72","H","0","img/none_selected.jpg","","240","main_expt",""
"","bandit","320","880666","0.0-281.0-0.0","76096516","wem/bandit_either_3","A1TGV7LT6LTIQU","either","6","272","","","","","","","0","0","1","","0.6925250702","0.6","0.8","0.4","0.2","0.6092933485","0.1045812876","0.6925250702","0.3783755671","","","","","","","","","","","","75","K","2","","","241","main_expt",""
"","bandit","321","882454","0.0-282.0-0.0","76096516","wem/bandit_either_3","A1TGV7LT6LTIQU","either","6","262","","","","","","","0","1","0","","0.7076428944","0.6","0.8","0.4","0.2","0.5812412386","0.08136382084","0.7076428944","0.3619864671","","","","","","","","","","","","75","K","2","","","242","main_expt",""
"","bandit","322","884309","0.0-283.0-0.0","76096516","wem/bandit_either_3","A1TGV7LT6LTIQU","either","6","320","","","","","","","0","0","1","","0.6671697692","0.6","0.8","0.4","0.2","0.5582769518","0.08711917736","0.6671697692","0.4143237557","","","","","","","","","","","","75","K","2","","","243","main_expt",""
"","bandit","323","886120","0.0-284.0-0.0","76096516","wem/bandit_either_3","A1TGV7LT6LTIQU","either","6","298","","","","","","","0","0","1","0.07033008343","","0.6","0.8","0.4","0.2","","","","","0.5728611736","0.07033008343","0.6829807443","0.3883911391","","","","","","","","74","J","1","","","244","main_expt",""
"","bandit","324","887977","0.0-285.0-0.0","76096516","wem/bandit_either_3","A1TGV7LT6LTIQU","either","6","326","","","","","","","0","1","0","","0.6068076256","0.6","0.8","0.4","0.2","0.4821733131","0.04273118291","0.6068076256","0.3724790504","","","","","","","","","","","","75","K","2","","","245","main_expt",""
