"consent","trial_type","trial_index","time_elapsed","internal_node_id","subjID","study","MID","cond","drift","rt","responses","key_press","expt_phase","like","value","connected","gems","bombs","no_reward","GemPrChosen","BombPrChosen","GainOverPainPr_0","GainOverPainPr_1","GainOverPainPr_2","GainOverPainPr_3","LosePr_0","LosePr_1","LosePr_2","LosePr_3","WinPr_0","WinPr_1","WinPr_2","WinPr_3","Q0","Q1","Q2","gender","age","ethnicity","target","respCharCode","respKey","respChoiceNum","respChoice","practice","trial_counter","trial_label","button_pressed"
"INL_behavioral_consent_30min_online.html","consent","0","10921","0.0-0.0","76934860","wem/bandit_either_3","AXT49VCFZDGW8","either","4","","","","","","","","","","","","","","","","","","","","","","","","","","","","","","","","","","","","","","",""
"","survey-text","1","14489","0.0-1.0","76934860","wem/bandit_either_3","AXT49VCFZDGW8","either","4","2551","{""Q0"":""AXT49VCFZDGW8""}","","","","","","","","","","","","","","","","","","","","","","","","","","","","","","","","","","","","",""
"","text","2","23530","0.0-2.0","76934860","wem/bandit_either_3","AXT49VCFZDGW8","either","4","8037","","32","","","","","","","","","","","","","","","","","","","","","","","","","","","","","","","","","","","",""
"","text","3","31338","0.0-3.0","76934860","wem/bandit_either_3","AXT49VCFZDGW8","either","4","7806","","32","","","","","","","","","","","","","","","","","","","","","","","","","","","","","","","","","","","",""
"","text","4","57528","0.0-4.0","76934860","wem/bandit_either_3","AXT49VCFZDGW8","either","4","26188","","32","","","","","","","","","","","","","","","","","","","","","","","","","","","","","","","","","","","",""
"","text","5","81425","0.0-5.0","76934860","wem/bandit_either_3","AXT49VCFZDGW8","either","4","23894","","32","","","","","","","","","","","","","","","","","","","","","","","","","","","","","","","","","","","",""
"","text","6","99511","0.0-6.0","76934860","wem/bandit_either_3","AXT49VCFZDGW8","either","4","18084","","32","","","","","","","","","","","","","","","","","","","","","","","","","","","","","","","","","","","",""
"","text","7","107575","0.0-7.0","76934860","wem/bandit_either_3","AXT49VCFZDGW8","either","4","8061","","32","","","","","","","","","","","","","","","","","","","","","","","","","","","","","","","","","","","",""
"","text","8","113012","0.0-8.0","76934860","wem/bandit_either_3","AXT49VCFZDGW8","either","4","5434","","32","","","","","","","","","","","","","","","","","","","","","","","","","","","","","","","","","","","",""
"","identification","9","126149","0.0-9.0-0.0","76934860","wem/bandit_either_3","AXT49VCFZDGW8","either","4","13110","","","","3","3","3","","","","","","","","","","","","","","","","","","","","","","","","the village of Zur","","","","","","","",""
"","identification","10","131484","0.0-9.0-1.0","76934860","wem/bandit_either_3","AXT49VCFZDGW8","either","4","4313","","","","3","3","3","","","","","","","","","","","","","","","","","","","","","","","","the village of Nyx","","","","","","","",""
"","text","11","139297","0.0-10.0","76934860","wem/bandit_either_3","AXT49VCFZDGW8","either","4","6810","","32","","","","","","","","","","","","","","","","","","","","","","","","","","","","","","","","","","","",""
"","text","12","142078","0.0-11.0","76934860","wem/bandit_either_3","AXT49VCFZDGW8","either","4","2779","","32","","","","","","","","","","","","","","","","","","","","","","","","","","","","","","","","","","","",""
"","text","13","145279","0.0-12.0","76934860","wem/bandit_either_3","AXT49VCFZDGW8","either","4","3199","","32","","","","","","","","","","","","","","","","","","","","","","","","","","","","","","","","","","","",""
"","text","14","149159","0.0-13.0","76934860","wem/bandit_either_3","AXT49VCFZDGW8","either","4","3878","","32","","","","","","","","","","","","","","","","","","","","","","","","","","","","","","","","","","","",""
"","bandit","15","155546","0.0-14.0-0.0","76934860","wem/bandit_either_3","AXT49VCFZDGW8","either","4","4876","","","","","","","0","0","1","0","0","","","","","0","","","","0","","","","","","","","","","","74","J","0","img/none_selected_demo.jpg","true","0","",""
"","bandit","16","158243","0.0-15.0-0.0","76934860","wem/bandit_either_3","AXT49VCFZDGW8","either","4","1190","","","","","","","0","0","1","0","0","","","","","0","","","","0","","","","","","","","","","","75","K","0","img/none_selected_demo.jpg","true","0","",""
"","text","17","167724","0.0-16.0","76934860","wem/bandit_either_3","AXT49VCFZDGW8","either","4","9478","","32","","","","","","","","","","","","","","","","","","","","","","","","","","","","","","","","","","","",""
"","text","18","186432","0.0-17.0","76934860","wem/bandit_either_3","AXT49VCFZDGW8","either","4","18706","","32","","","","","","","","","","","","","","","","","","","","","","","","","","","","","","","","","","","",""
"","text","19","194467","0.0-18.0","76934860","wem/bandit_either_3","AXT49VCFZDGW8","either","4","8031","","32","","","","","","","","","","","","","","","","","","","","","","","","","","","","","","","","","","","",""
"","text","20","201308","0.0-19.0","76934860","wem/bandit_either_3","AXT49VCFZDGW8","either","4","6838","","32","","","","","","","","","","","","","","","","","","","","","","","","","","","","","","","","","","","",""
"","bandit","21","204244","0.0-20.0-0.0","76934860","wem/bandit_either_3","AXT49VCFZDGW8","either","4","1429","","","","","","","0","0","1","0.2","","0.5","0.5","","","","","","","0.8","0.2","","","","","","","","","","75","K","1","","true","0","80_20_practice",""
"","bandit","22","207355","0.0-20.0-1.0","76934860","wem/bandit_either_3","AXT49VCFZDGW8","either","4","1601","","","","","","","0","1","0","","0.8","0.5","0.5","","","0.8","0.2","","","","","","","","","","","","","","74","J","0","img/none_selected_demo.jpg","true","0","80_20_practice",""
"","bandit","23","212935","0.0-20.0-2.0","76934860","wem/bandit_either_3","AXT49VCFZDGW8","either","4","4074","","","","","","","0","0","1","","0.8","0.5","0.5","","","0.8","0.2","","","","","","","","","","","","","","74","J","0","img/none_selected_demo.jpg","true","0","80_20_practice",""
"","bandit","24","215617","0.0-20.0-3.0","76934860","wem/bandit_either_3","AXT49VCFZDGW8","either","4","1175","","","","","","","0","0","1","","0.2","0.5","0.5","","","0.8","0.2","","","","","","","","","","","","","","75","K","1","","true","0","80_20_practice",""
"","bandit","25","218843","0.0-20.0-4.0","76934860","wem/bandit_either_3","AXT49VCFZDGW8","either","4","1717","","","","","","","0","0","1","0.2","","0.5","0.5","","","","","","","0.8","0.2","","","","","","","","","","75","K","1","","true","0","80_20_practice",""
"","bandit","26","221151","0.0-20.0-5.0","76934860","wem/bandit_either_3","AXT49VCFZDGW8","either","4","802","","","","","","","1","0","0","0.8","","0.5","0.5","","","","","","","0.8","0.2","","","","","","","","","","74","J","0","img/none_selected_demo.jpg","true","0","80_20_practice",""
"","bandit","27","223463","0.0-20.0-6.0","76934860","wem/bandit_either_3","AXT49VCFZDGW8","either","4","804","","","","","","","1","0","0","0.2","","0.5","0.5","","","","","","","0.8","0.2","","","","","","","","","","75","K","1","","true","0","80_20_practice",""
"","bandit","28","225252","0.0-20.0-7.0","76934860","wem/bandit_either_3","AXT49VCFZDGW8","either","4","282","","","","","","","1","0","0","0.8","","0.5","0.5","","","","","","","0.8","0.2","","","","","","","","","","74","J","0","img/none_selected_demo.jpg","true","0","80_20_practice",""
"","bandit","29","229181","0.0-20.0-8.0","76934860","wem/bandit_either_3","AXT49VCFZDGW8","either","4","2408","","","","","","","0","0","1","0.2","","0.5","0.5","","","","","","","0.8","0.2","","","","","","","","","","75","K","1","","true","0","80_20_practice",""
"","bandit","30","232681","0.0-20.0-9.0","76934860","wem/bandit_either_3","AXT49VCFZDGW8","either","4","1982","","","","","","","0","0","1","0.2","","0.5","0.5","","","","","","","0.8","0.2","","","","","","","","","","75","K","1","","true","0","80_20_practice",""
"","bandit","31","234204","0.0-20.0-10.0","76934860","wem/bandit_either_3","AXT49VCFZDGW8","either","4","14","","","","","","","0","1","0","","0.8","0.5","0.5","","","0.8","0.2","","","","","","","","","","","","","","74","J","0","img/none_selected_demo.jpg","true","0","80_20_practice",""
"","bandit","32","236324","0.0-20.0-11.0","76934860","wem/bandit_either_3","AXT49VCFZDGW8","either","4","609","","","","","","","1","0","0","0.2","","0.5","0.5","","","","","","","0.8","0.2","","","","","","","","","","75","K","1","","true","0","80_20_practice",""
"","bandit","33","238234","0.0-20.0-12.0","76934860","wem/bandit_either_3","AXT49VCFZDGW8","either","4","398","","","","","","","0","0","1","","0.2","0.5","0.5","","","0.8","0.2","","","","","","","","","","","","","","75","K","1","","true","0","80_20_practice",""
"","bandit","34","240084","0.0-20.0-13.0","76934860","wem/bandit_either_3","AXT49VCFZDGW8","either","4","329","","","","","","","1","0","0","0.8","","0.5","0.5","","","","","","","0.8","0.2","","","","","","","","","","74","J","0","img/none_selected_demo.jpg","true","0","80_20_practice",""
"","bandit","35","242009","0.0-20.0-14.0","76934860","wem/bandit_either_3","AXT49VCFZDGW8","either","4","418","","","","","","","1","0","0","0.2","","0.5","0.5","","","","","","","0.8","0.2","","","","","","","","","","75","K","1","","true","0","80_20_practice",""
"","bandit","36","243882","0.0-20.0-15.0","76934860","wem/bandit_either_3","AXT49VCFZDGW8","either","4","366","","","","","","","0","1","0","","0.8","0.5","0.5","","","0.8","0.2","","","","","","","","","","","","","","74","J","0","img/none_selected_demo.jpg","true","0","80_20_practice",""
"","bandit","37","245796","0.0-20.0-16.0","76934860","wem/bandit_either_3","AXT49VCFZDGW8","either","4","406","","","","","","","0","1","0","","0.2","0.5","0.5","","","0.8","0.2","","","","","","","","","","","","","","75","K","1","","true","0","80_20_practice",""
"","bandit","38","247586","0.0-20.0-17.0","76934860","wem/bandit_either_3","AXT49VCFZDGW8","either","4","274","","","","","","","0","0","1","0.2","","0.5","0.5","","","","","","","0.8","0.2","","","","","","","","","","75","K","1","","true","0","80_20_practice",""
"","bandit","39","249243","0.0-20.0-18.0","76934860","wem/bandit_either_3","AXT49VCFZDGW8","either","4","149","","","","","","","0","1","0","","0.2","0.5","0.5","","","0.8","0.2","","","","","","","","","","","","","","75","K","1","","true","0","80_20_practice",""
"","bandit","40","251424","0.0-20.0-19.0","76934860","wem/bandit_either_3","AXT49VCFZDGW8","either","4","667","","","","","","","1","0","0","0.8","","0.5","0.5","","","","","","","0.8","0.2","","","","","","","","","","74","J","0","img/none_selected_demo.jpg","true","0","80_20_practice",""
"","text","41","255299","0.0-21.0","76934860","wem/bandit_either_3","AXT49VCFZDGW8","either","4","3872","","32","","","","","","","","","","","","","","","","","","","","","","","","","","","","","","","","","","","",""
"","bandit","42","262838","0.0-22.0-0.0","76934860","wem/bandit_either_3","AXT49VCFZDGW8","either","4","6031","","","","","","","0","1","0","0","1","","","","","0","1","","","1","0","","","","","","","","","","75","K","1","","true","0","",""
"","text","43","269894","0.0-23.0","76934860","wem/bandit_either_3","AXT49VCFZDGW8","either","4","7053","","32","","","","","","","","","","","","","","","","","","","","","","","","","","","","","","","","","","","",""
"","text","44","276258","0.0-24.0","76934860","wem/bandit_either_3","AXT49VCFZDGW8","either","4","6360","","32","","","","","","","","","","","","","","","","","","","","","","","","","","","","","","","","","","","",""
"","text","45","280261","0.0-25.0","76934860","wem/bandit_either_3","AXT49VCFZDGW8","either","4","3999","","32","","","","","","","","","","","","","","","","","","","","","","","","","","","","","","","","","","","",""
"","text","46","283365","0.0-26.0","76934860","wem/bandit_either_3","AXT49VCFZDGW8","either","4","3100","","32","","","","","","","","","","","","","","","","","","","","","","","","","","","","","","","","","","","",""
"","text","47","293742","0.0-27.0","76934860","wem/bandit_either_3","AXT49VCFZDGW8","either","4","10374","","32","","","","","","","","","","","","","","","","","","","","","","","","","","","","","","","","","","","",""
"","text","48","297190","0.0-28.0","76934860","wem/bandit_either_3","AXT49VCFZDGW8","either","4","3445","","32","","","","","","","","","","","","","","","","","","","","","","","","","","","","","","","","","","","",""
"","text","49","302715","0.0-29.0","76934860","wem/bandit_either_3","AXT49VCFZDGW8","either","4","5522","","32","","","","","","","","","","","","","","","","","","","","","","","","","","","","","","","","","","","",""
"","text","50","308031","0.0-30.0","76934860","wem/bandit_either_3","AXT49VCFZDGW8","either","4","5312","","32","","","","","","","","","","","","","","","","","","","","","","","","","","","","","","","","","","","",""
"","text","51","314293","0.0-31.0","76934860","wem/bandit_either_3","AXT49VCFZDGW8","either","4","6258","","32","","","","","","","","","","","","","","","","","","","","","","","","","","","","","","","","","","","",""
"","text","52","316040","0.0-32.0","76934860","wem/bandit_either_3","AXT49VCFZDGW8","either","4","1743","","32","","","","","","","","","","","","","","","","","","","","","","","","","","","","","","","","","","","",""
"","text","53","323657","0.0-33.0","76934860","wem/bandit_either_3","AXT49VCFZDGW8","either","4","7613","","32","","","","","","","","","","","","","","","","","","","","","","","","","","","","","","","","","","","",""
"","bandit","54","326377","0.0-34.0-0.0","76934860","wem/bandit_either_3","AXT49VCFZDGW8","either","4","1200","","","","","","","1","0","0","0.8","","0.5","0.5","0.5","0.5","","","","","0.8","0.2","0.6","0.2","","","","","","","","72","H","0","img/none_selected.jpg","true","0","full_practice",""
"","bandit","55","328953","0.0-34.0-1.0","76934860","wem/bandit_either_3","AXT49VCFZDGW8","either","4","1067","","","","","","","0","1","0","","0.8","0.5","0.5","0.5","0.5","0.8","0.2","0.6","0.2","","","","","","","","","","","","72","H","0","img/none_selected.jpg","true","0","full_practice",""
"","bandit","56","330785","0.0-34.0-2.0","76934860","wem/bandit_either_3","AXT49VCFZDGW8","either","4","318","","","","","","","0","1","0","","0.8","0.5","0.5","0.5","0.5","0.8","0.2","0.6","0.2","","","","","","","","","","","","72","H","0","img/none_selected.jpg","true","0","full_practice",""
"","bandit","57","332633","0.0-34.0-3.0","76934860","wem/bandit_either_3","AXT49VCFZDGW8","either","4","336","","","","","","","0","1","0","","0.2","0.5","0.5","0.5","0.5","0.8","0.2","0.6","0.2","","","","","","","","","","","","74","J","1","","true","0","full_practice",""
"","bandit","58","334151","0.0-34.0-4.0","76934860","wem/bandit_either_3","AXT49VCFZDGW8","either","4","11","","","","","","","0","0","1","","0.2","0.5","0.5","0.5","0.5","0.8","0.2","0.6","0.2","","","","","","","","","","","","74","J","1","","true","0","full_practice",""
"","bandit","59","336214","0.0-34.0-5.0","76934860","wem/bandit_either_3","AXT49VCFZDGW8","either","4","553","","","","","","","0","0","1","","0.2","0.5","0.5","0.5","0.5","0.8","0.2","0.6","0.2","","","","","","","","","","","","74","J","1","","true","0","full_practice",""
"","bandit","60","338586","0.0-34.0-6.0","76934860","wem/bandit_either_3","AXT49VCFZDGW8","either","4","856","","","","","","","0","0","1","0.6","","0.5","0.5","0.5","0.5","","","","","0.8","0.2","0.6","0.2","","","","","","","","75","K","2","","true","0","full_practice",""
"","bandit","61","340356","0.0-34.0-7.0","76934860","wem/bandit_either_3","AXT49VCFZDGW8","either","4","264","","","","","","","0","1","0","","0.6","0.5","0.5","0.5","0.5","0.8","0.2","0.6","0.2","","","","","","","","","","","","75","K","2","","true","0","full_practice",""
"","bandit","62","342157","0.0-34.0-8.0","76934860","wem/bandit_either_3","AXT49VCFZDGW8","either","4","295","","","","","","","1","0","0","0.6","","0.5","0.5","0.5","0.5","","","","","0.8","0.2","0.6","0.2","","","","","","","","75","K","2","","true","0","full_practice",""
"","bandit","63","344086","0.0-34.0-9.0","76934860","wem/bandit_either_3","AXT49VCFZDGW8","either","4","410","","","","","","","1","0","0","0.6","","0.5","0.5","0.5","0.5","","","","","0.8","0.2","0.6","0.2","","","","","","","","75","K","2","","true","0","full_practice",""
"","bandit","64","347055","0.0-34.0-10.0","76934860","wem/bandit_either_3","AXT49VCFZDGW8","either","4","1461","","","","","","","1","0","0","0.6","","0.5","0.5","0.5","0.5","","","","","0.8","0.2","0.6","0.2","","","","","","","","75","K","2","","true","0","full_practice",""
"","bandit","65","348935","0.0-34.0-11.0","76934860","wem/bandit_either_3","AXT49VCFZDGW8","either","4","370","","","","","","","1","0","0","0.6","","0.5","0.5","0.5","0.5","","","","","0.8","0.2","0.6","0.2","","","","","","","","75","K","2","","true","0","full_practice",""
"","bandit","66","350792","0.0-34.0-12.0","76934860","wem/bandit_either_3","AXT49VCFZDGW8","either","4","349","","","","","","","1","0","0","0.6","","0.5","0.5","0.5","0.5","","","","","0.8","0.2","0.6","0.2","","","","","","","","75","K","2","","true","0","full_practice",""
"","bandit","67","352561","0.0-34.0-13.0","76934860","wem/bandit_either_3","AXT49VCFZDGW8","either","4","259","","","","","","","0","0","1","","0.6","0.5","0.5","0.5","0.5","0.8","0.2","0.6","0.2","","","","","","","","","","","","75","K","2","","true","0","full_practice",""
"","bandit","68","354680","0.0-34.0-14.0","76934860","wem/bandit_either_3","AXT49VCFZDGW8","either","4","609","","","","","","","1","0","0","0.6","","0.5","0.5","0.5","0.5","","","","","0.8","0.2","0.6","0.2","","","","","","","","75","K","2","","true","0","full_practice",""
"","bandit","69","356488","0.0-34.0-15.0","76934860","wem/bandit_either_3","AXT49VCFZDGW8","either","4","301","","","","","","","0","1","0","","0.6","0.5","0.5","0.5","0.5","0.8","0.2","0.6","0.2","","","","","","","","","","","","75","K","2","","true","0","full_practice",""
"","bandit","70","358235","0.0-34.0-16.0","76934860","wem/bandit_either_3","AXT49VCFZDGW8","either","4","214","","","","","","","0","0","1","","0.2","0.5","0.5","0.5","0.5","0.8","0.2","0.6","0.2","","","","","","","","","","","","76","L","3","","true","0","full_practice",""
"","bandit","71","360116","0.0-34.0-17.0","76934860","wem/bandit_either_3","AXT49VCFZDGW8","either","4","373","","","","","","","0","0","1","","0.2","0.5","0.5","0.5","0.5","0.8","0.2","0.6","0.2","","","","","","","","","","","","76","L","3","","true","0","full_practice",""
"","bandit","72","361657","0.0-34.0-18.0","76934860","wem/bandit_either_3","AXT49VCFZDGW8","either","4","32","","","","","","","0","0","1","","0.2","0.5","0.5","0.5","0.5","0.8","0.2","0.6","0.2","","","","","","","","","","","","76","L","3","","true","0","full_practice",""
"","bandit","73","363880","0.0-34.0-19.0","76934860","wem/bandit_either_3","AXT49VCFZDGW8","either","4","699","","","","","","","1","0","0","0.2","","0.5","0.5","0.5","0.5","","","","","0.8","0.2","0.6","0.2","","","","","","","","76","L","3","","true","0","full_practice",""
"","text","74","367407","0.0-35.0","76934860","wem/bandit_either_3","AXT49VCFZDGW8","either","4","3519","","32","","","","","","","","","","","","","","","","","","","","","","","","","","","","","","","","","","","",""
"","text","75","378705","0.0-36.0","76934860","wem/bandit_either_3","AXT49VCFZDGW8","either","4","10282","","32","","","","","","","","","","","","","","","","","","","","","","","","","","","","","","","","","","","",""
"","text","76","390415","0.0-37.0","76934860","wem/bandit_either_3","AXT49VCFZDGW8","either","4","11705","","32","","","","","","","","","","","","","","","","","","","","","","","","","","","","","","","","","","","",""
"","text","77","396665","0.0-38.0","76934860","wem/bandit_either_3","AXT49VCFZDGW8","either","4","6247","","32","","","","","","","","","","","","","","","","","","","","","","","","","","","","","","","","","","","",""
"","text","78","401568","0.0-39.0","76934860","wem/bandit_either_3","AXT49VCFZDGW8","either","4","4900","","32","","","","","","","","","","","","","","","","","","","","","","","","","","","","","","","","","","","",""
"","text","79","404190","0.0-40.0","76934860","wem/bandit_either_3","AXT49VCFZDGW8","either","4","2618","","32","","","","","","","","","","","","","","","","","","","","","","","","","","","","","","","","","","","",""
"","bandit","80","407302","0.0-41.0-0.0","76934860","wem/bandit_either_3","AXT49VCFZDGW8","either","4","1604","","","","","","","0","0","1","0.2887693562","","0.6","0.8","0.4","0.2","","","","","0.2887693562","0.9858900825","0.7267404998","0.8209843215","","","","","","","","72","H","0","img/none_selected.jpg","","1","main_expt",""
"","bandit","81","409305","0.0-42.0-0.0","76934860","wem/bandit_either_3","AXT49VCFZDGW8","either","4","495","","","","","","","0","0","1","0.2986217167","","0.6","0.8","0.4","0.2","","","","","0.2986217167","0.9854924354","0.7034907646","0.8179122382","","","","","","","","72","H","0","img/none_selected.jpg","","2","main_expt",""
"","bandit","82","411750","0.0-43.0-0.0","76934860","wem/bandit_either_3","AXT49VCFZDGW8","either","4","934","","","","","","","1","0","0","0.9789624529","","0.6","0.8","0.4","0.2","","","","","0.261346942","0.9789624529","0.6574847675","0.8301291561","","","","","","","","74","J","1","","","3","main_expt",""
"","bandit","83","413643","0.0-44.0-0.0","76934860","wem/bandit_either_3","AXT49VCFZDGW8","either","4","387","","","","","","","1","0","0","0.9565345184","","0.6","0.8","0.4","0.2","","","","","0.2757740293","0.9565345184","0.5092805277","0.8219157537","","","","","","","","74","J","1","","","4","main_expt",""
"","bandit","84","415543","0.0-45.0-0.0","76934860","wem/bandit_either_3","AXT49VCFZDGW8","either","4","390","","","","","","","0","1","0","","0.941194936","0.6","0.8","0.4","0.2","0.3329857669","0.941194936","0.5952926025","0.7759220463","","","","","","","","","","","","74","J","1","","","5","main_expt",""
"","bandit","85","417053","0.0-46.0-0.0","76934860","wem/bandit_either_3","AXT49VCFZDGW8","either","4","2","","","","","","","1","0","0","0.9305219143","","0.6","0.8","0.4","0.2","","","","","0.331878758","0.9305219143","0.6160758637","0.7495930044","","","","","","","","74","J","1","","","6","main_expt",""
"","bandit","86","418851","0.0-47.0-0.0","76934860","wem/bandit_either_3","AXT49VCFZDGW8","either","4","289","","","","","","","0","1","0","","0.937738562","0.6","0.8","0.4","0.2","0.3863389794","0.937738562","0.6381806331","0.7078030286","","","","","","","","","","","","74","J","1","","","7","main_expt",""
"","bandit","87","421277","0.0-48.0-0.0","76934860","wem/bandit_either_3","AXT49VCFZDGW8","either","4","906","","","","","","","0","1","0","","0.7047831713","0.6","0.8","0.4","0.2","0.4242016385","0.8269671957","0.7047831713","0.689407674","","","","","","","","","","","","75","K","2","","","8","main_expt",""
"","bandit","88","423199","0.0-49.0-0.0","76934860","wem/bandit_either_3","AXT49VCFZDGW8","either","4","414","","","","","","","0","0","1","0.6222923336","","0.6","0.8","0.4","0.2","","","","","0.379169242","0.7696709776","0.6222923336","0.7848236408","","","","","","","","75","K","2","","","9","main_expt",""
"","bandit","89","425040","0.0-50.0-0.0","76934860","wem/bandit_either_3","AXT49VCFZDGW8","either","4","319","","","","","","","1","0","0","0.5629201009","","0.6","0.8","0.4","0.2","","","","","0.40569916","0.7313552403","0.5629201009","0.791363481","","","","","","","","75","K","2","","","10","main_expt",""
"","bandit","90","426895","0.0-51.0-0.0","76934860","wem/bandit_either_3","AXT49VCFZDGW8","either","4","348","","","","","","","0","1","0","","0.644159789","0.6","0.8","0.4","0.2","0.4188021694","0.8129169819","0.644159789","0.7800632456","","","","","","","","","","","","75","K","2","","","11","main_expt",""
"","bandit","91","428886","0.0-52.0-0.0","76934860","wem/bandit_either_3","AXT49VCFZDGW8","either","4","483","","","","","","","0","1","0","","0.7559884596","0.6","0.8","0.4","0.2","0.3689559917","0.7611571711","0.6840372722","0.7559884596","","","","","","","","","","","","76","L","3","","","12","main_expt",""
"","bandit","92","430801","0.0-53.0-0.0","76934860","wem/bandit_either_3","AXT49VCFZDGW8","either","4","404","","","","","","","0","1","0","","0.7695577991","0.6","0.8","0.4","0.2","0.4584943612","0.7628417147","0.6236151953","0.7695577991","","","","","","","","","","","","76","L","3","","","13","main_expt",""
"","bandit","93","432651","0.0-54.0-0.0","76934860","wem/bandit_either_3","AXT49VCFZDGW8","either","4","342","","","","","","","0","1","0","","0.8509931145","0.6","0.8","0.4","0.2","0.455083938","0.7436451733","0.5388331182","0.8509931145","","","","","","","","","","","","76","L","3","","","14","main_expt",""
"","bandit","94","434544","0.0-55.0-0.0","76934860","wem/bandit_either_3","AXT49VCFZDGW8","either","4","384","","","","","","","1","0","0","0.8256008488","","0.6","0.8","0.4","0.2","","","","","0.5360112786","0.8256008488","0.4802769188","0.7745856811","","","","","","","","74","J","1","","","15","main_expt",""
"","bandit","95","436379","0.0-56.0-0.0","76934860","wem/bandit_either_3","AXT49VCFZDGW8","either","4","313","","","","","","","0","0","1","0.7683027423","","0.6","0.8","0.4","0.2","","","","","0.4791571541","0.7683027423","0.4688000192","0.7576521113","","","","","","","","74","J","1","","","16","main_expt",""
"","bandit","96","438332","0.0-57.0-0.0","76934860","wem/bandit_either_3","AXT49VCFZDGW8","either","4","437","","","","","","","1","0","0","0.7857675768","","0.6","0.8","0.4","0.2","","","","","0.5263630166","0.7857675768","0.6000602573","0.8099558365","","","","","","","","74","J","1","","","17","main_expt",""
"","bandit","97","440303","0.0-58.0-0.0","76934860","wem/bandit_either_3","AXT49VCFZDGW8","either","4","462","","","","","","","0","0","1","","0.7303419725","0.6","0.8","0.4","0.2","0.543945959","0.7303419725","0.6046592687","0.7535280451","","","","","","","","","","","","74","J","1","","","18","main_expt",""
"","bandit","98","442237","0.0-59.0-0.0","76934860","wem/bandit_either_3","AXT49VCFZDGW8","either","4","419","","","","","","","0","1","0","","0.7243255268","0.6","0.8","0.4","0.2","0.4579801682","0.7243255268","0.6177236116","0.7206444799","","","","","","","","","","","","74","J","1","","","19","main_expt",""
"","bandit","99","444238","0.0-60.0-0.0","76934860","wem/bandit_either_3","AXT49VCFZDGW8","either","4","477","","","","","","","1","0","0","0.7691283854","","0.6","0.8","0.4","0.2","","","","","0.5439896582","0.7691283854","0.5484637992","0.6388551968","","","","","","","","74","J","1","","","20","main_expt",""
"","bandit","100","446133","0.0-61.0-0.0","76934860","wem/bandit_either_3","AXT49VCFZDGW8","either","4","377","","","","","","","0","0","1","0.7068464658","","0.6","0.8","0.4","0.2","","","","","0.5796019833","0.7068464658","0.6646151354","0.4956822649","","","","","","","","74","J","1","","","21","main_expt",""
"","bandit","101","448107","0.0-62.0-0.0","76934860","wem/bandit_either_3","AXT49VCFZDGW8","either","4","466","","","","","","","0","1","0","","0.7407239748","0.6","0.8","0.4","0.2","0.5885929095","0.7407239748","0.7223938077","0.4316307404","","","","","","","","","","","","74","J","1","","","22","main_expt",""
"","bandit","102","450653","0.0-63.0-0.0","76934860","wem/bandit_either_3","AXT49VCFZDGW8","either","4","1038","","","","","","","0","0","1","","0.7548690184","0.6","0.8","0.4","0.2","0.4899642796","0.7300920021","0.7548690184","0.4158022912","","","","","","","","","","","","75","K","2","","","23","main_expt",""
"","bandit","103","452549","0.0-64.0-0.0","76934860","wem/bandit_either_3","AXT49VCFZDGW8","either","4","388","","","","","","","0","1","0","","0.7794954679","0.6","0.8","0.4","0.2","0.4984159311","0.7074307303","0.7794954679","0.4099928258","","","","","","","","","","","","75","K","2","","","24","main_expt",""
"","bandit","104","454431","0.0-65.0-0.0","76934860","wem/bandit_either_3","AXT49VCFZDGW8","either","4","364","","","","","","","1","0","0","0.8029664172","","0.6","0.8","0.4","0.2","","","","","0.5885503773","0.6228099684","0.8029664172","0.4303724308","","","","","","","","75","K","2","","","25","main_expt",""
"","bandit","105","456301","0.0-66.0-0.0","76934860","wem/bandit_either_3","AXT49VCFZDGW8","either","4","361","","","","","","","0","1","0","","0.6980766755","0.6","0.8","0.4","0.2","0.6978100054","0.5588879168","0.6980766755","0.3291624114","","","","","","","","","","","","75","K","2","","","26","main_expt",""
"","bandit","106","458537","0.0-67.0-0.0","76934860","wem/bandit_either_3","AXT49VCFZDGW8","either","4","714","","","","","","","1","0","0","0.6442468271","","0.6","0.8","0.4","0.2","","","","","0.6442468271","0.5033257713","0.7021498626","0.3795789415","","","","","","","","72","H","0","img/none_selected.jpg","","27","main_expt",""
"","bandit","107","460444","0.0-68.0-0.0","76934860","wem/bandit_either_3","AXT49VCFZDGW8","either","4","397","","","","","","","1","0","0","0.7399213538","","0.6","0.8","0.4","0.2","","","","","0.7399213538","0.4915102133","0.7802436781","0.3208573938","","","","","","","","72","H","0","img/none_selected.jpg","","28","main_expt",""
"","bandit","108","462366","0.0-69.0-0.0","76934860","wem/bandit_either_3","AXT49VCFZDGW8","either","4","409","","","","","","","0","1","0","","0.7520253205","0.6","0.8","0.4","0.2","0.7520253205","0.4291187576","0.6907923131","0.3352919619","","","","","","","","","","","","72","H","0","img/none_selected.jpg","","29","main_expt",""
"","bandit","109","464234","0.0-70.0-0.0","76934860","wem/bandit_either_3","AXT49VCFZDGW8","either","4","345","","","","","","","1","0","0","0.7528469829","","0.6","0.8","0.4","0.2","","","","","0.7528469829","0.5379907803","0.6771306444","0.3452717309","","","","","","","","72","H","0","img/none_selected.jpg","","30","main_expt",""
"","bandit","110","466143","0.0-71.0-0.0","76934860","wem/bandit_either_3","AXT49VCFZDGW8","either","4","401","","","","","","","1","0","0","0.7571908429","","0.6","0.8","0.4","0.2","","","","","0.7571908429","0.646046857","0.7130915948","0.2967094522","","","","","","","","72","H","0","img/none_selected.jpg","","31","main_expt",""
"","bandit","111","468188","0.0-72.0-0.0","76934860","wem/bandit_either_3","AXT49VCFZDGW8","either","4","524","","","","","","","0","1","0","","0.7530934884","0.6","0.8","0.4","0.2","0.7530934884","0.5608885347","0.6849190202","0.255781972","","","","","","","","","","","","72","H","0","img/none_selected.jpg","","32","main_expt",""
"","bandit","112","471187","0.0-73.0-0.0","76934860","wem/bandit_either_3","AXT49VCFZDGW8","either","4","1490","","","","","","","1","0","0","0.7163673585","","0.6","0.8","0.4","0.2","","","","","0.7163673585","0.5952322697","0.7392612035","0.2703771925","","","","","","","","72","H","0","img/none_selected.jpg","","33","main_expt",""
"","bandit","113","473132","0.0-74.0-0.0","76934860","wem/bandit_either_3","AXT49VCFZDGW8","either","4","420","","","","","","","0","0","1","0.6817248107","","0.6","0.8","0.4","0.2","","","","","0.6817248107","0.6206609301","0.7026009082","0.3572673824","","","","","","","","72","H","0","img/none_selected.jpg","","34","main_expt",""
"","bandit","114","475180","0.0-75.0-0.0","76934860","wem/bandit_either_3","AXT49VCFZDGW8","either","4","540","","","","","","","1","0","0","0.6903641832","","0.6","0.8","0.4","0.2","","","","","0.6903641832","0.6223058769","0.632003728","0.3237575066","","","","","","","","72","H","0","img/none_selected.jpg","","35","main_expt",""
"","bandit","115","477104","0.0-76.0-0.0","76934860","wem/bandit_either_3","AXT49VCFZDGW8","either","4","415","","","","","","","1","0","0","0.6953747248","","0.6","0.8","0.4","0.2","","","","","0.6953747248","0.7304722347","0.7266912659","0.3724209237","","","","","","","","72","H","0","img/none_selected.jpg","","36","main_expt",""
"","bandit","116","479066","0.0-77.0-0.0","76934860","wem/bandit_either_3","AXT49VCFZDGW8","either","4","454","","","","","","","0","0","1","0.7552078918","","0.6","0.8","0.4","0.2","","","","","0.7552078918","0.6789706255","0.5512211225","0.3848591071","","","","","","","","72","H","0","img/none_selected.jpg","","37","main_expt",""
"","bandit","117","480909","0.0-78.0-0.0","76934860","wem/bandit_either_3","AXT49VCFZDGW8","either","4","333","","","","","","","0","0","1","","0.7095976639","0.6","0.8","0.4","0.2","0.7095976639","0.6758320082","0.5888446875","0.4026628424","","","","","","","","","","","","72","H","0","img/none_selected.jpg","","38","main_expt",""
"","bandit","118","482795","0.0-79.0-0.0","76934860","wem/bandit_either_3","AXT49VCFZDGW8","either","4","377","","","","","","","0","0","1","0.7813817897","","0.6","0.8","0.4","0.2","","","","","0.7813817897","0.753286291","0.7349010221","0.460229008","","","","","","","","72","H","0","img/none_selected.jpg","","39","main_expt",""
"","bandit","119","484692","0.0-80.0-0.0","76934860","wem/bandit_either_3","AXT49VCFZDGW8","either","4","387","","","","","","","0","0","1","","0.7604460558","0.6","0.8","0.4","0.2","0.7604460558","0.7527041006","0.6715391024","0.3392787789","","","","","","","","","","","","72","H","0","img/none_selected.jpg","","40","main_expt",""
"","bandit","120","486600","0.0-81.0-0.0","76934860","wem/bandit_either_3","AXT49VCFZDGW8","either","4","399","","","","","","","0","0","1","","0.7588214983","0.6","0.8","0.4","0.2","0.7588214983","0.7900808451","0.688235262","0.2983701942","","","","","","","","","","","","72","H","0","img/none_selected.jpg","","41","main_expt",""
"","bandit","121","488340","0.0-82.0-0.0","76934860","wem/bandit_either_3","AXT49VCFZDGW8","either","4","208","","","","","","","1","0","0","0.8204813903","","0.6","0.8","0.4","0.2","","","","","0.8204813903","0.7261157662","0.750516412","0.2390858253","","","","","","","","72","H","0","img/none_selected.jpg","","42","main_expt",""
"","bandit","122","490234","0.0-83.0-0.0","76934860","wem/bandit_either_3","AXT49VCFZDGW8","either","4","388","","","","","","","1","0","0","0.8310219988","","0.6","0.8","0.4","0.2","","","","","0.8310219988","0.772887471","0.775378891","0.1877526289","","","","","","","","72","H","0","img/none_selected.jpg","","43","main_expt",""
"","bandit","123","492339","0.0-84.0-0.0","76934860","wem/bandit_either_3","AXT49VCFZDGW8","either","4","596","","","","","","","1","0","0","0.8165903167","","0.6","0.8","0.4","0.2","","","","","0.8165903167","0.7359848823","0.5983035632","0.2713877418","","","","","","","","72","H","0","img/none_selected.jpg","","44","main_expt",""
"","bandit","124","494250","0.0-85.0-0.0","76934860","wem/bandit_either_3","AXT49VCFZDGW8","either","4","403","","","","","","","0","1","0","","0.6765015189","0.6","0.8","0.4","0.2","0.6765015189","0.6223954065","0.6453890447","0.2600408605","","","","","","","","","","","","72","H","0","img/none_selected.jpg","","45","main_expt",""
"","bandit","125","496346","0.0-86.0-0.0","76934860","wem/bandit_either_3","AXT49VCFZDGW8","either","4","586","","","","","","","0","0","1","0.6613510417","","0.6","0.8","0.4","0.2","","","","","0.6613510417","0.5963379238","0.4979639723","0.2435580982","","","","","","","","72","H","0","img/none_selected.jpg","","46","main_expt",""
"","bandit","126","498149","0.0-87.0-0.0","76934860","wem/bandit_either_3","AXT49VCFZDGW8","either","4","293","","","","","","","0","0","1","","0.7373034573","0.6","0.8","0.4","0.2","0.7373034573","0.6161308884","0.4475739324","0.3258971046","","","","","","","","","","","","72","H","0","img/none_selected.jpg","","47","main_expt",""
"","bandit","127","500039","0.0-88.0-0.0","76934860","wem/bandit_either_3","AXT49VCFZDGW8","either","4","368","","","","","","","1","0","0","0.6580913366","","0.6","0.8","0.4","0.2","","","","","0.6580913366","0.6354722558","0.570942939","0.2934977076","","","","","","","","72","H","0","img/none_selected.jpg","","48","main_expt",""
"","bandit","128","501904","0.0-89.0-0.0","76934860","wem/bandit_either_3","AXT49VCFZDGW8","either","4","356","","","","","","","0","1","0","","0.6518545324","0.6","0.8","0.4","0.2","0.6518545324","0.5941747261","0.5943858444","0.3381222087","","","","","","","","","","","","72","H","0","img/none_selected.jpg","","49","main_expt",""
"","bandit","129","503633","0.0-90.0-0.0","76934860","wem/bandit_either_3","AXT49VCFZDGW8","either","4","214","","","","","","","0","0","1","0.5510631732","","0.6","0.8","0.4","0.2","","","","","0.6362385309","0.5510631732","0.72156704","0.4149653651","","","","","","","","74","J","1","","","50","main_expt",""
"","bandit","130","505587","0.0-91.0-0.0","76934860","wem/bandit_either_3","AXT49VCFZDGW8","either","4","443","","","","","","","1","0","0","0.5580995271","","0.6","0.8","0.4","0.2","","","","","0.6673370403","0.5580995271","0.6453884322","0.315936401","","","","","","","","74","J","1","","","51","main_expt",""
"","bandit","131","507306","0.0-92.0-0.0","76934860","wem/bandit_either_3","AXT49VCFZDGW8","either","4","209","","","","","","","0","0","1","0.4492126091","","0.6","0.8","0.4","0.2","","","","","0.6614759556","0.4492126091","0.635653338","0.34776451","","","","","","","","74","J","1","","","52","main_expt",""
"","bandit","132","509133","0.0-93.0-0.0","76934860","wem/bandit_either_3","AXT49VCFZDGW8","either","4","303","","","","","","","0","0","1","0.4600129001","","0.6","0.8","0.4","0.2","","","","","0.5099009019","0.4600129001","0.5700640027","0.2946288454","","","","","","","","74","J","1","","","53","main_expt",""
"","bandit","133","510832","0.0-94.0-0.0","76934860","wem/bandit_either_3","AXT49VCFZDGW8","either","4","167","","","","","","","1","0","0","0.4005354829","","0.6","0.8","0.4","0.2","","","","","0.5323874036","0.4005354829","0.4535518587","0.3757560715","","","","","","","","74","J","1","","","54","main_expt",""
"","bandit","134","512725","0.0-95.0-0.0","76934860","wem/bandit_either_3","AXT49VCFZDGW8","either","4","369","","","","","","","0","0","1","0.3305694417","","0.6","0.8","0.4","0.2","","","","","0.5410243768","0.3305694417","0.4271895083","0.3258455482","","","","","","","","74","J","1","","","55","main_expt",""
"","bandit","135","514796","0.0-96.0-0.0","76934860","wem/bandit_either_3","AXT49VCFZDGW8","either","4","560","","","","","","","0","0","1","0.3443449075","","0.6","0.8","0.4","0.2","","","","","0.5594159285","0.3443449075","0.3506641683","0.4350401219","","","","","","","","74","J","1","","","56","main_expt",""
"","bandit","136","516653","0.0-97.0-0.0","76934860","wem/bandit_either_3","AXT49VCFZDGW8","either","4","348","","","","","","","0","0","1","0.3719720486","","0.6","0.8","0.4","0.2","","","","","0.5057935102","0.3719720486","0.3266461122","0.3707313189","","","","","","","","74","J","1","","","57","main_expt",""
"","bandit","137","518544","0.0-98.0-0.0","76934860","wem/bandit_either_3","AXT49VCFZDGW8","either","4","382","","","","","","","0","0","1","","0.2230753252","0.6","0.8","0.4","0.2","0.4921421838","0.2230753252","0.3024401834","0.5588799977","","","","","","","","","","","","74","J","1","","","58","main_expt",""
"","bandit","138","520764","0.0-99.0-0.0","76934860","wem/bandit_either_3","AXT49VCFZDGW8","either","4","709","","","","","","","0","1","0","","0.4740341295","0.6","0.8","0.4","0.2","0.4740341295","0.2255195526","0.4306619987","0.6863198467","","","","","","","","","","","","72","H","0","img/none_selected.jpg","","59","main_expt",""
"","bandit","139","522338","0.0-100.0-0.0","76934860","wem/bandit_either_3","AXT49VCFZDGW8","either","4","61","","","","","","","0","0","1","0.4853159436","","0.6","0.8","0.4","0.2","","","","","0.4853159436","0.2150487889","0.4710521126","0.6998437478","","","","","","","","72","H","0","img/none_selected.jpg","","60","main_expt",""
"","bandit","140","523993","0.0-101.0-0.0","76934860","wem/bandit_either_3","AXT49VCFZDGW8","either","4","144","","","","","","","1","0","0","0.4843563089","","0.6","0.8","0.4","0.2","","","","","0.4843563089","0.2670703017","0.4797168847","0.7027468204","","","","","","","","72","H","0","img/none_selected.jpg","","61","main_expt",""
"","bandit","141","525933","0.0-102.0-0.0","76934860","wem/bandit_either_3","AXT49VCFZDGW8","either","4","418","","","","","","","0","0","1","","0.4970562682","0.6","0.8","0.4","0.2","0.4970562682","0.1622034337","0.441351191","0.7461433662","","","","","","","","","","","","72","H","0","img/none_selected.jpg","","62","main_expt",""
"","bandit","142","527445","0.0-103.0-0.0","76934860","wem/bandit_either_3","AXT49VCFZDGW8","either","4","4","","","","","","","0","0","1","0.4870743105","","0.6","0.8","0.4","0.2","","","","","0.4870743105","0.1872430185","0.6405696824","0.7956877632","","","","","","","","72","H","0","img/none_selected.jpg","","63","main_expt",""
"","bandit","143","530095","0.0-104.0-0.0","76934860","wem/bandit_either_3","AXT49VCFZDGW8","either","4","1140","","","","","","","0","0","1","0.5297884171","","0.6","0.8","0.4","0.2","","","","","0.5297884171","0.1921602407","0.5093225209","0.7533911137","","","","","","","","72","H","0","img/none_selected.jpg","","64","main_expt",""
"","bandit","144","532238","0.0-105.0-0.0","76934860","wem/bandit_either_3","AXT49VCFZDGW8","either","4","623","","","","","","","0","0","1","0.5190422554","","0.6","0.8","0.4","0.2","","","","","0.5510281753","0.1747679693","0.5190422554","0.8407665504","","","","","","","","75","K","2","","","65","main_expt",""
"","bandit","145","533952","0.0-106.0-0.0","76934860","wem/bandit_either_3","AXT49VCFZDGW8","either","4","203","","","","","","","1","0","0","0.4367989657","","0.6","0.8","0.4","0.2","","","","","0.6548378986","0.149475979","0.4367989657","0.8392190168","","","","","","","","75","K","2","","","66","main_expt",""
"","bandit","146","535849","0.0-107.0-0.0","76934860","wem/bandit_either_3","AXT49VCFZDGW8","either","4","388","","","","","","","0","0","1","","0.4515976155","0.6","0.8","0.4","0.2","0.7873643744","0.1340316754","0.4515976155","0.7998105719","","","","","","","","","","","","75","K","2","","","67","main_expt",""
"","bandit","147","538543","0.0-108.0-0.0","76934860","wem/bandit_either_3","AXT49VCFZDGW8","either","4","1183","","","","","","","0","1","0","","0.4605235732","0.6","0.8","0.4","0.2","0.8374830125","0.1635100664","0.4605235732","0.8055175736","","","","","","","","","","","","75","K","2","","","68","main_expt",""
"","bandit","148","540430","0.0-109.0-0.0","76934860","wem/bandit_either_3","AXT49VCFZDGW8","either","4","369","","","","","","","0","1","0","","0.3799115548","0.6","0.8","0.4","0.2","0.7948054761","0.1227365859","0.3799115548","0.9157616325","","","","","","","","","","","","75","K","2","","","69","main_expt",""
"","bandit","149","542593","0.0-110.0-0.0","76934860","wem/bandit_either_3","AXT49VCFZDGW8","either","4","652","","","","","","","0","1","0","","0.9575411193","0.6","0.8","0.4","0.2","0.8257183208","0.1248437045","0.4215965018","0.9575411193","","","","","","","","","","","","76","L","3","","","70","main_expt",""
"","bandit","150","545065","0.0-111.0-0.0","76934860","wem/bandit_either_3","AXT49VCFZDGW8","either","4","963","","","","","","","0","1","0","","0.9604429572","0.6","0.8","0.4","0.2","0.7378076352","0.1153860856","0.4069040491","0.9604429572","","","","","","","","","","","","76","L","3","","","71","main_expt",""
"","bandit","151","547298","0.0-112.0-0.0","76934860","wem/bandit_either_3","AXT49VCFZDGW8","either","4","720","","","","","","","0","0","1","0.7402058239","","0.6","0.8","0.4","0.2","","","","","0.7402058239","0.1355011504","0.4396577013","0.9598545795","","","","","","","","72","H","0","img/none_selected.jpg","","72","main_expt",""
"","bandit","152","549050","0.0-113.0-0.0","76934860","wem/bandit_either_3","AXT49VCFZDGW8","either","4","242","","","","","","","1","0","0","0.6976791507","","0.6","0.8","0.4","0.2","","","","","0.6976791507","0.05996807606","0.6562772762","0.944667289","","","","","","","","72","H","0","img/none_selected.jpg","","73","main_expt",""
"","bandit","153","550941","0.0-114.0-0.0","76934860","wem/bandit_either_3","AXT49VCFZDGW8","either","4","380","","","","","","","0","0","1","","0.7918365236","0.6","0.8","0.4","0.2","0.7918365236","0.05405538329","0.6973429816","0.9226304804","","","","","","","","","","","","72","H","0","img/none_selected.jpg","","74","main_expt",""
"","bandit","154","552933","0.0-115.0-0.0","76934860","wem/bandit_either_3","AXT49VCFZDGW8","either","4","483","","","","","","","0","0","1","0.7822783488","","0.6","0.8","0.4","0.2","","","","","0.7822783488","0.02989929625","0.7736122178","0.9398646798","","","","","","","","72","H","0","img/none_selected.jpg","","75","main_expt",""
"","bandit","155","554744","0.0-116.0-0.0","76934860","wem/bandit_either_3","AXT49VCFZDGW8","either","4","300","","","","","","","0","0","1","","0.7290889389","0.6","0.8","0.4","0.2","0.7290889389","0.0563551135","0.8130420724","0.9344412274","","","","","","","","","","","","72","H","0","img/none_selected.jpg","","76","main_expt",""
"","bandit","156","556951","0.0-117.0-0.0","76934860","wem/bandit_either_3","AXT49VCFZDGW8","either","4","696","","","","","","","0","0","1","0.0510075381","","0.6","0.8","0.4","0.2","","","","","0.7903383215","0.0510075381","0.8182773084","0.9512527415","","","","","","","","74","J","1","","","77","main_expt",""
"","bandit","157","558932","0.0-118.0-0.0","76934860","wem/bandit_either_3","AXT49VCFZDGW8","either","4","464","","","","","","","0","0","1","0.07280641377","","0.6","0.8","0.4","0.2","","","","","0.8093770606","0.07280641377","0.910984946","0.945324638","","","","","","","","74","J","1","","","78","main_expt",""
"","bandit","158","560836","0.0-119.0-0.0","76934860","wem/bandit_either_3","AXT49VCFZDGW8","either","4","368","","","","","","","0","0","1","0.06591604593","","0.6","0.8","0.4","0.2","","","","","0.7310189459","0.06591604593","0.9303795674","0.9313693401","","","","","","","","74","J","1","","","79","main_expt",""
"","bandit","159","562508","0.0-120.0-0.0","76934860","wem/bandit_either_3","AXT49VCFZDGW8","either","4","162","","","","","","","0","0","1","0.02790121052","","0.6","0.8","0.4","0.2","","","","","0.7915113188","0.02790121052","0.9581515868","0.9272018461","","","","","","","","74","J","1","","","80","main_expt",""
"","bandit","160","564368","0.0-121.0-0.0","76934860","wem/bandit_either_3","AXT49VCFZDGW8","either","4","349","","","","","","","0","0","1","0.03997429631","","0.6","0.8","0.4","0.2","","","","","0.8463201033","0.03997429631","0.9107397581","0.9340165544","","","","","","","","74","J","1","","","81","main_expt",""
"","bandit","161","565939","0.0-122.0-0.0","76934860","wem/bandit_either_3","AXT49VCFZDGW8","either","4","46","","","","","","","0","0","1","0.03692483048","","0.6","0.8","0.4","0.2","","","","","0.9043915002","0.03692483048","0.9531247327","0.9778602254","","","","","","","","74","J","1","","","82","main_expt",""
"","bandit","162","567661","0.0-123.0-0.0","76934860","wem/bandit_either_3","AXT49VCFZDGW8","either","4","212","","","","","","","1","0","0","0.91574064","","0.6","0.8","0.4","0.2","","","","","0.922294541","0.04167024954","0.91574064","0.9593015187","","","","","","","","75","K","2","","","83","main_expt",""
"","bandit","163","569437","0.0-124.0-0.0","76934860","wem/bandit_either_3","AXT49VCFZDGW8","either","4","266","","","","","","","1","0","0","0.9287460716","","0.6","0.8","0.4","0.2","","","","","0.9079954767","0.03449326924","0.9287460716","0.9398758864","","","","","","","","75","K","2","","","84","main_expt",""
"","bandit","164","571279","0.0-125.0-0.0","76934860","wem/bandit_either_3","AXT49VCFZDGW8","either","4","331","","","","","","","0","1","0","","0.9817994773","0.6","0.8","0.4","0.2","0.92293493","0.07382848834","0.9817994773","0.9256746213","","","","","","","","","","","","75","K","2","","","85","main_expt",""
"","bandit","165","573886","0.0-126.0-0.0","76934860","wem/bandit_either_3","AXT49VCFZDGW8","either","4","1079","","","","","","","0","1","0","","0.9651028603","0.6","0.8","0.4","0.2","0.8831043051","0.08839198485","0.9651028603","0.8910640916","","","","","","","","","","","","75","K","2","","","86","main_expt",""
"","bandit","166","575747","0.0-127.0-0.0","76934860","wem/bandit_either_3","AXT49VCFZDGW8","either","4","350","","","","","","","0","1","0","","0.9364705545","0.6","0.8","0.4","0.2","0.876749115","0.08767612821","0.9364705545","0.8729480744","","","","","","","","","","","","75","K","2","","","87","main_expt",""
"","bandit","167","577753","0.0-128.0-0.0","76934860","wem/bandit_either_3","AXT49VCFZDGW8","either","4","496","","","","","","","1","0","0","0.8780151739","","0.6","0.8","0.4","0.2","","","","","0.9189432589","0.1606359608","0.9235767634","0.8780151739","","","","","","","","76","L","3","","","88","main_expt",""
"","bandit","168","579596","0.0-129.0-0.0","76934860","wem/bandit_either_3","AXT49VCFZDGW8","either","4","331","","","","","","","0","1","0","","0.8856980863","0.6","0.8","0.4","0.2","0.8770582065","0.2051996915","0.9375107972","0.8856980863","","","","","","","","","","","","76","L","3","","","89","main_expt",""
"","bandit","169","581725","0.0-130.0-0.0","76934860","wem/bandit_either_3","AXT49VCFZDGW8","either","4","606","","","","","","","1","0","0","0.9303780437","","0.6","0.8","0.4","0.2","","","","","0.9303780437","0.1757431166","0.9201099193","0.8828292745","","","","","","","","72","H","0","img/none_selected.jpg","","90","main_expt",""
"","bandit","170","583587","0.0-131.0-0.0","76934860","wem/bandit_either_3","AXT49VCFZDGW8","either","4","337","","","","","","","0","0","1","0.8870296602","","0.6","0.8","0.4","0.2","","","","","0.8870296602","0.3470073597","0.9416722714","0.9016480115","","","","","","","","72","H","0","img/none_selected.jpg","","91","main_expt",""
"","bandit","171","585603","0.0-132.0-0.0","76934860","wem/bandit_either_3","AXT49VCFZDGW8","either","4","504","","","","","","","0","1","0","","0.8466670433","0.6","0.8","0.4","0.2","0.8466670433","0.4969118024","0.943817784","0.9077272713","","","","","","","","","","","","72","H","0","img/none_selected.jpg","","92","main_expt",""
"","bandit","172","587978","0.0-133.0-0.0","76934860","wem/bandit_either_3","AXT49VCFZDGW8","either","4","851","","","","","","","1","0","0","0.850017275","","0.6","0.8","0.4","0.2","","","","","0.850017275","0.5773598144","0.9078517942","0.875936713","","","","","","","","72","H","0","img/none_selected.jpg","","93","main_expt",""
"","bandit","173","589816","0.0-134.0-0.0","76934860","wem/bandit_either_3","AXT49VCFZDGW8","either","4","328","","","","","","","0","1","0","","0.6893652978","0.6","0.8","0.4","0.2","0.6893652978","0.5513550223","0.8983200186","0.8089346838","","","","","","","","","","","","72","H","0","img/none_selected.jpg","","94","main_expt",""
"","bandit","174","592816","0.0-135.0-0.0","76934860","wem/bandit_either_3","AXT49VCFZDGW8","either","4","1489","","","","","","","1","0","0","0.6025630118","","0.6","0.8","0.4","0.2","","","","","0.6025630118","0.5461825447","0.8744309931","0.7472177953","","","","","","","","72","H","0","img/none_selected.jpg","","95","main_expt",""
"","bandit","175","594698","0.0-136.0-0.0","76934860","wem/bandit_either_3","AXT49VCFZDGW8","either","4","366","","","","","","","0","0","1","0.5565182624","","0.6","0.8","0.4","0.2","","","","","0.5565182624","0.5564841108","0.8894212924","0.631257407","","","","","","","","72","H","0","img/none_selected.jpg","","96","main_expt",""
"","bandit","176","596429","0.0-137.0-0.0","76934860","wem/bandit_either_3","AXT49VCFZDGW8","either","4","212","","","","","","","0","0","1","0.4820287155","","0.6","0.8","0.4","0.2","","","","","0.4820287155","0.6513715187","0.891162681","0.7474787878","","","","","","","","72","H","0","img/none_selected.jpg","","97","main_expt",""
"","bandit","177","598262","0.0-138.0-0.0","76934860","wem/bandit_either_3","AXT49VCFZDGW8","either","4","322","","","","","","","0","1","0","","0.4599621431","0.6","0.8","0.4","0.2","0.4599621431","0.7004254565","0.8495400438","0.7753317291","","","","","","","","","","","","72","H","0","img/none_selected.jpg","","98","main_expt",""
"","bandit","178","600051","0.0-139.0-0.0","76934860","wem/bandit_either_3","AXT49VCFZDGW8","either","4","278","","","","","","","0","0","1","0.6473310623","","0.6","0.8","0.4","0.2","","","","","0.4109144258","0.6473310623","0.8671572546","0.7088399779","","","","","","","","74","J","1","","","99","main_expt",""
"","bandit","179","602024","0.0-140.0-0.0","76934860","wem/bandit_either_3","AXT49VCFZDGW8","either","4","447","","","","","","","1","0","0","0.6160818326","","0.6","0.8","0.4","0.2","","","","","0.3466085394","0.6160818326","0.8312294914","0.7328055719","","","","","","","","74","J","1","","","100","main_expt",""
"","bandit","180","603935","0.0-141.0-0.0","76934860","wem/bandit_either_3","AXT49VCFZDGW8","either","4","400","","","","","","","0","0","1","0.6963675268","","0.6","0.8","0.4","0.2","","","","","0.3712289037","0.6963675268","0.8135240708","0.8183789849","","","","","","","","74","J","1","","","101","main_expt",""
"","bandit","181","605498","0.0-142.0-0.0","76934860","wem/bandit_either_3","AXT49VCFZDGW8","either","4","50","","","","","","","1","0","0","0.6339579424","","0.6","0.8","0.4","0.2","","","","","0.3626324234","0.6339579424","0.8556055773","0.7854635714","","","","","","","","74","J","1","","","102","main_expt",""
"","bandit","182","607440","0.0-143.0-0.0","76934860","wem/bandit_either_3","AXT49VCFZDGW8","either","4","421","","","","","","","0","0","1","0.6908430899","","0.6","0.8","0.4","0.2","","","","","0.2748825764","0.6908430899","0.7632006143","0.8481411385","","","","","","","","74","J","1","","","103","main_expt",""
"","bandit","183","609599","0.0-144.0-0.0","76934860","wem/bandit_either_3","AXT49VCFZDGW8","either","4","646","","","","","","","0","0","1","0.6866318891","","0.6","0.8","0.4","0.2","","","","","0.2381725209","0.6866318891","0.8273213265","0.8129446485","","","","","","","","74","J","1","","","104","main_expt",""
"","bandit","184","611542","0.0-145.0-0.0","76934860","wem/bandit_either_3","AXT49VCFZDGW8","either","4","419","","","","","","","1","0","0","0.6749941214","","0.6","0.8","0.4","0.2","","","","","0.1939551764","0.6749941214","0.7930501456","0.7898688037","","","","","","","","74","J","1","","","105","main_expt",""
"","bandit","185","613349","0.0-146.0-0.0","76934860","wem/bandit_either_3","AXT49VCFZDGW8","either","4","296","","","","","","","1","0","0","0.7300347885","","0.6","0.8","0.4","0.2","","","","","0.1884153881","0.7300347885","0.7186603115","0.7810744832","","","","","","","","74","J","1","","","106","main_expt",""
"","bandit","186","615287","0.0-147.0-0.0","76934860","wem/bandit_either_3","AXT49VCFZDGW8","either","4","422","","","","","","","1","0","0","0.8133516847","","0.6","0.8","0.4","0.2","","","","","0.1011451677","0.8133516847","0.7155595947","0.7837395221","","","","","","","","74","J","1","","","107","main_expt",""
"","bandit","187","617193","0.0-148.0-0.0","76934860","wem/bandit_either_3","AXT49VCFZDGW8","either","4","395","","","","","","","0","1","0","","0.8009432675","0.6","0.8","0.4","0.2","0.1500242655","0.8009432675","0.7654707556","0.787971135","","","","","","","","","","","","74","J","1","","","108","main_expt",""
"","bandit","188","618834","0.0-149.0-0.0","76934860","wem/bandit_either_3","AXT49VCFZDGW8","either","4","131","","","","","","","0","0","1","0.7379370491","","0.6","0.8","0.4","0.2","","","","","0.1285750889","0.7379370491","0.6288612937","0.6866525704","","","","","","","","74","J","1","","","109","main_expt",""
"","bandit","189","620752","0.0-150.0-0.0","76934860","wem/bandit_either_3","AXT49VCFZDGW8","either","4","406","","","","","","","1","0","0","0.7379992527","","0.6","0.8","0.4","0.2","","","","","0.06279291231","0.7379992527","0.6309058105","0.5824748378","","","","","","","","74","J","1","","","110","main_expt",""
"","bandit","190","622658","0.0-151.0-0.0","76934860","wem/bandit_either_3","AXT49VCFZDGW8","either","4","396","","","","","","","0","0","1","","0.7464430213","0.6","0.8","0.4","0.2","0.07144278273","0.7464430213","0.6218965746","0.659702805","","","","","","","","","","","","74","J","1","","","111","main_expt",""
"","bandit","191","624890","0.0-152.0-0.0","76934860","wem/bandit_either_3","AXT49VCFZDGW8","either","4","706","","","","","","","1","0","0","0.7736339118","","0.6","0.8","0.4","0.2","","","","","0.06013221683","0.7736339118","0.6741482942","0.5111205641","","","","","","","","74","J","1","","","112","main_expt",""
"","bandit","192","627033","0.0-153.0-0.0","76934860","wem/bandit_either_3","AXT49VCFZDGW8","either","4","617","","","","","","","1","0","0","0.8480767854","","0.6","0.8","0.4","0.2","","","","","0.1442356489","0.8480767854","0.7405202534","0.4852392648","","","","","","","","74","J","1","","","113","main_expt",""
"","bandit","193","628900","0.0-154.0-0.0","76934860","wem/bandit_either_3","AXT49VCFZDGW8","either","4","358","","","","","","","0","1","0","","0.8016933152","0.6","0.8","0.4","0.2","0.1733870882","0.8016933152","0.743157628","0.3531287621","","","","","","","","","","","","74","J","1","","","114","main_expt",""
"","bandit","194","630796","0.0-155.0-0.0","76934860","wem/bandit_either_3","AXT49VCFZDGW8","either","4","385","","","","","","","1","0","0","0.8200260584","","0.6","0.8","0.4","0.2","","","","","0.2198725907","0.8200260584","0.7732583829","0.4090792957","","","","","","","","74","J","1","","","115","main_expt",""
"","bandit","195","632699","0.0-156.0-0.0","76934860","wem/bandit_either_3","AXT49VCFZDGW8","either","4","392","","","","","","","0","0","1","0.7761954976","","0.6","0.8","0.4","0.2","","","","","0.2116870815","0.7761954976","0.6224016225","0.4927933112","","","","","","","","74","J","1","","","116","main_expt",""
"","bandit","196","634637","0.0-157.0-0.0","76934860","wem/bandit_either_3","AXT49VCFZDGW8","either","4","428","","","","","","","1","0","0","0.7722233998","","0.6","0.8","0.4","0.2","","","","","0.1293815938","0.7722233998","0.6784399158","0.4255499736","","","","","","","","74","J","1","","","117","main_expt",""
"","bandit","197","636569","0.0-158.0-0.0","76934860","wem/bandit_either_3","AXT49VCFZDGW8","either","4","422","","","","","","","1","0","0","0.8049831996","","0.6","0.8","0.4","0.2","","","","","0.1442073762","0.8049831996","0.7499631032","0.4073726931","","","","","","","","74","J","1","","","118","main_expt",""
"","bandit","198","638455","0.0-159.0-0.0","76934860","wem/bandit_either_3","AXT49VCFZDGW8","either","4","370","","","","","","","1","0","0","0.8469405197","","0.6","0.8","0.4","0.2","","","","","0.2098334931","0.8469405197","0.6258432538","0.5447318884","","","","","","","","74","J","1","","","119","main_expt",""
"","bandit","199","640336","0.0-160.0-0.0","76934860","wem/bandit_either_3","AXT49VCFZDGW8","either","4","370","","","","","","","1","0","0","0.783925966","","0.6","0.8","0.4","0.2","","","","","0.243218138","0.783925966","0.5602994123","0.5336717705","","","","","","","","74","J","1","","","120","main_expt",""
"","bandit","200","642288","0.0-161.0-0.0","76934860","wem/bandit_either_3","AXT49VCFZDGW8","either","4","429","","","","","","","1","0","0","0.8031476983","","0.6","0.8","0.4","0.2","","","","","0.1595445902","0.8031476983","0.5850644561","0.5621279662","","","","","","","","74","J","1","","","121","main_expt",""
"","bandit","201","644226","0.0-162.0-0.0","76934860","wem/bandit_either_3","AXT49VCFZDGW8","either","4","414","","","","","","","0","0","1","0.776878313","","0.6","0.8","0.4","0.2","","","","","0.1939767007","0.776878313","0.6205732407","0.5664238538","","","","","","","","74","J","1","","","122","main_expt",""
"","bandit","202","646106","0.0-163.0-0.0","76934860","wem/bandit_either_3","AXT49VCFZDGW8","either","4","370","","","","","","","0","0","1","0.7695343448","","0.6","0.8","0.4","0.2","","","","","0.2265728871","0.7695343448","0.7954206102","0.6501842916","","","","","","","","74","J","1","","","123","main_expt",""
"","bandit","203","648111","0.0-164.0-0.0","76934860","wem/bandit_either_3","AXT49VCFZDGW8","either","4","494","","","","","","","0","0","1","0.6154230174","","0.6","0.8","0.4","0.2","","","","","0.2027469411","0.6154230174","0.881213352","0.5413703051","","","","","","","","74","J","1","","","124","main_expt",""
"","bandit","204","649938","0.0-165.0-0.0","76934860","wem/bandit_either_3","AXT49VCFZDGW8","either","4","318","","","","","","","0","0","1","0.4710930195","","0.6","0.8","0.4","0.2","","","","","0.1506135949","0.4710930195","0.8598562332","0.5191338098","","","","","","","","74","J","1","","","125","main_expt",""
"","bandit","205","651708","0.0-166.0-0.0","76934860","wem/bandit_either_3","AXT49VCFZDGW8","either","4","258","","","","","","","0","1","0","","0.5258886302","0.6","0.8","0.4","0.2","0.1875851228","0.5258886302","0.867144728","0.6232591378","","","","","","","","","","","","74","J","1","","","126","main_expt",""
"","bandit","206","653643","0.0-167.0-0.0","76934860","wem/bandit_either_3","AXT49VCFZDGW8","either","4","424","","","","","","","0","0","1","","0.3996486754","0.6","0.8","0.4","0.2","0.2106184636","0.3996486754","0.8677917819","0.601333273","","","","","","","","","","","","74","J","1","","","127","main_expt",""
"","bandit","207","655495","0.0-168.0-0.0","76934860","wem/bandit_either_3","AXT49VCFZDGW8","either","4","343","","","","","","","0","0","1","0.3557241191","","0.6","0.8","0.4","0.2","","","","","0.1276240755","0.3557241191","0.8194058857","0.6312294041","","","","","","","","74","J","1","","","128","main_expt",""
"","bandit","208","657409","0.0-169.0-0.0","76934860","wem/bandit_either_3","AXT49VCFZDGW8","either","4","401","","","","","","","0","0","1","0.2432070908","","0.6","0.8","0.4","0.2","","","","","0.2163335705","0.2432070908","0.813940224","0.6655034733","","","","","","","","74","J","1","","","129","main_expt",""
"","bandit","209","659134","0.0-170.0-0.0","76934860","wem/bandit_either_3","AXT49VCFZDGW8","either","4","202","","","","","","","0","0","1","","0.7296764962","0.6","0.8","0.4","0.2","0.2448863899","0.1722843937","0.7296764962","0.6882303755","","","","","","","","","","","","75","K","2","","","130","main_expt",""
"","bandit","210","661033","0.0-171.0-0.0","76934860","wem/bandit_either_3","AXT49VCFZDGW8","either","4","383","","","","","","","0","1","0","","0.614258276","0.6","0.8","0.4","0.2","0.3447645787","0.1336027919","0.614258276","0.6772884453","","","","","","","","","","","","75","K","2","","","131","main_expt",""
"","bandit","211","662895","0.0-172.0-0.0","76934860","wem/bandit_either_3","AXT49VCFZDGW8","either","4","352","","","","","","","0","0","1","0.5349540706","","0.6","0.8","0.4","0.2","","","","","0.3622527956","0.1351629047","0.5349540706","0.6773684555","","","","","","","","75","K","2","","","132","main_expt",""
"","bandit","212","664849","0.0-173.0-0.0","76934860","wem/bandit_either_3","AXT49VCFZDGW8","either","4","444","","","","","","","0","0","1","","0.5449090787","0.6","0.8","0.4","0.2","0.2961885878","0.2495029","0.5449090787","0.7437755928","","","","","","","","","","","","75","K","2","","","133","main_expt",""
"","bandit","213","666365","0.0-174.0-0.0","76934860","wem/bandit_either_3","AXT49VCFZDGW8","either","4","6","","","","","","","0","0","1","0.5037108559","","0.6","0.8","0.4","0.2","","","","","0.2932126781","0.2118512663","0.5037108559","0.7423545867","","","","","","","","75","K","2","","","134","main_expt",""
"","bandit","214","669033","0.0-175.0-0.0","76934860","wem/bandit_either_3","AXT49VCFZDGW8","either","4","1152","","","","","","","1","0","0","0.5131336393","","0.6","0.8","0.4","0.2","","","","","0.2836439675","0.2474577379","0.5131336393","0.7462440124","","","","","","","","75","K","2","","","135","main_expt",""
"","bandit","215","670941","0.0-176.0-0.0","76934860","wem/bandit_either_3","AXT49VCFZDGW8","either","4","388","","","","","","","0","1","0","","0.5847952324","0.6","0.8","0.4","0.2","0.1985775905","0.1496333288","0.5847952324","0.6372772774","","","","","","","","","","","","75","K","2","","","136","main_expt",""
"","bandit","216","672498","0.0-177.0-0.0","76934860","wem/bandit_either_3","AXT49VCFZDGW8","either","4","45","","","","","","","0","1","0","","0.6587707878","0.6","0.8","0.4","0.2","0.2655975","0.164835495","0.5191620222","0.6587707878","","","","","","","","","","","","76","L","3","","","137","main_expt",""
"","bandit","217","674532","0.0-178.0-0.0","76934860","wem/bandit_either_3","AXT49VCFZDGW8","either","4","508","","","","","","","0","0","1","0.6545472314","","0.6","0.8","0.4","0.2","","","","","0.4066298912","0.1629561883","0.3830682141","0.6545472314","","","","","","","","76","L","3","","","138","main_expt",""
"","bandit","218","676588","0.0-179.0-0.0","76934860","wem/bandit_either_3","AXT49VCFZDGW8","either","4","534","","","","","","","1","0","0","0.5773899651","","0.6","0.8","0.4","0.2","","","","","0.4537429859","0.1162724323","0.3036015776","0.5773899651","","","","","","","","76","L","3","","","139","main_expt",""
"","bandit","219","678456","0.0-180.0-0.0","76934860","wem/bandit_either_3","AXT49VCFZDGW8","either","4","355","","","","","","","0","0","1","","0.5786924042","0.6","0.8","0.4","0.2","0.410026376","0.1262651596","0.2541790234","0.5786924042","","","","","","","","","","","","76","L","3","","","140","main_expt",""
"","bandit","220","680505","0.0-181.0-0.0","76934860","wem/bandit_either_3","AXT49VCFZDGW8","either","4","539","","","","","","","1","0","0","0.4589731036","","0.6","0.8","0.4","0.2","","","","","0.3978668086","0.1258799353","0.1899663758","0.4589731036","","","","","","","","76","L","3","","","141","main_expt",""
"","bandit","221","682402","0.0-182.0-0.0","76934860","wem/bandit_either_3","AXT49VCFZDGW8","either","4","385","","","","","","","0","0","1","0.3667804619","","0.6","0.8","0.4","0.2","","","","","0.4096738096","0.1220135665","0.214868544","0.3667804619","","","","","","","","76","L","3","","","142","main_expt",""
"","bandit","222","684006","0.0-183.0-0.0","76934860","wem/bandit_either_3","AXT49VCFZDGW8","either","4","91","","","","","","","1","0","0","0.3563831379","","0.6","0.8","0.4","0.2","","","","","0.5422751762","0.1600355681","0.1549416237","0.3563831379","","","","","","","","76","L","3","","","143","main_expt",""
"","bandit","223","685564","0.0-184.0-0.0","76934860","wem/bandit_either_3","AXT49VCFZDGW8","either","4","48","","","","","","","0","1","0","","0.3675361202","0.6","0.8","0.4","0.2","0.6045197677","0.103653669","0.2142728447","0.3675361202","","","","","","","","","","","","76","L","3","","","144","main_expt",""
"","bandit","224","687359","0.0-185.0-0.0","76934860","wem/bandit_either_3","AXT49VCFZDGW8","either","4","283","","","","","","","0","0","1","","0.3266856562","0.6","0.8","0.4","0.2","0.6140727406","0.1417267119","0.2166472609","0.3266856562","","","","","","","","","","","","76","L","3","","","145","main_expt",""
"","bandit","225","690258","0.0-186.0-0.0","76934860","wem/bandit_either_3","AXT49VCFZDGW8","either","4","1387","","","","","","","0","0","1","","0.2815179259","0.6","0.8","0.4","0.2","0.5553742365","0.1508894681","0.2446047688","0.2815179259","","","","","","","","","","","","76","L","3","","","146","main_expt",""
"","bandit","226","692241","0.0-187.0-0.0","76934860","wem/bandit_either_3","AXT49VCFZDGW8","either","4","457","","","","","","","1","0","0","0.3560244833","","0.6","0.8","0.4","0.2","","","","","0.52787167","0.1207147728","0.3011136322","0.3560244833","","","","","","","","76","L","3","","","147","main_expt",""
"","bandit","227","694280","0.0-188.0-0.0","76934860","wem/bandit_either_3","AXT49VCFZDGW8","either","4","514","","","","","","","0","0","1","0.3585854149","","0.6","0.8","0.4","0.2","","","","","0.5053851794","0.1362234148","0.2519777133","0.3585854149","","","","","","","","76","L","3","","","148","main_expt",""
"","bandit","228","696586","0.0-189.0-0.0","76934860","wem/bandit_either_3","AXT49VCFZDGW8","either","4","793","","","","","","","0","0","1","","0.284478414","0.6","0.8","0.4","0.2","0.5431256022","0.1244444975","0.2996109941","0.284478414","","","","","","","","","","","","76","L","3","","","149","main_expt",""
"","bandit","229","698549","0.0-190.0-0.0","76934860","wem/bandit_either_3","AXT49VCFZDGW8","either","4","451","","","","","","","0","0","1","","0.2617238314","0.6","0.8","0.4","0.2","0.422574086","0.1109305632","0.2963563975","0.2617238314","","","","","","","","","","","","76","L","3","","","150","main_expt",""
"","bandit","230","700385","0.0-191.0-0.0","76934860","wem/bandit_either_3","AXT49VCFZDGW8","either","4","323","","","","","","","0","0","1","","0.2709462114","0.6","0.8","0.4","0.2","0.3907227364","0.11412436","0.4327396174","0.2709462114","","","","","","","","","","","","76","L","3","","","151","main_expt",""
"","bandit","231","702485","0.0-192.0-0.0","76934860","wem/bandit_either_3","AXT49VCFZDGW8","either","4","586","","","","","","","0","1","0","","0.2993716907","0.6","0.8","0.4","0.2","0.5580814469","0.1469045903","0.4303068123","0.2993716907","","","","","","","","","","","","76","L","3","","","152","main_expt",""
"","bandit","232","704587","0.0-193.0-0.0","76934860","wem/bandit_either_3","AXT49VCFZDGW8","either","4","586","","","","","","","0","0","1","","0.2733354782","0.6","0.8","0.4","0.2","0.51223936","0.1633028487","0.455197397","0.2733354782","","","","","","","","","","","","76","L","3","","","153","main_expt",""
"","bandit","233","707389","0.0-194.0-0.0","76934860","wem/bandit_either_3","AXT49VCFZDGW8","either","4","1290","","","","","","","0","0","1","0.1340882311","","0.6","0.8","0.4","0.2","","","","","0.4811601507","0.1340882311","0.6184454144","0.3264007987","","","","","","","","74","J","1","","","154","main_expt",""
"","bandit","234","710030","0.0-195.0-0.0","76934860","wem/bandit_either_3","AXT49VCFZDGW8","either","4","1126","","","","","","","0","0","1","0.1041462846","","0.6","0.8","0.4","0.2","","","","","0.575425417","0.1041462846","0.5833601464","0.204433578","","","","","","","","74","J","1","","","155","main_expt",""
"","bandit","235","711941","0.0-196.0-0.0","76934860","wem/bandit_either_3","AXT49VCFZDGW8","either","4","377","","","","","","","0","0","1","","0.08564190031","0.6","0.8","0.4","0.2","0.6109018817","0.08564190031","0.646897734","0.07451572188","","","","","","","","","","","","74","J","1","","","156","main_expt",""
"","bandit","236","714264","0.0-197.0-0.0","76934860","wem/bandit_either_3","AXT49VCFZDGW8","either","4","812","","","","","","","1","0","0","0.06977116317","","0.6","0.8","0.4","0.2","","","","","0.6812883852","0.06977116317","0.6912470103","0.1251686374","","","","","","","","74","J","1","","","157","main_expt",""
"","bandit","237","715841","0.0-198.0-0.0","76934860","wem/bandit_either_3","AXT49VCFZDGW8","either","4","48","","","","","","","1","0","0","0.1504927074","","0.6","0.8","0.4","0.2","","","","","0.73777041","0.1504927074","0.7865398282","0.1292052795","","","","","","","","74","J","1","","","158","main_expt",""
"","bandit","238","717789","0.0-199.0-0.0","76934860","wem/bandit_either_3","AXT49VCFZDGW8","either","4","435","","","","","","","1","0","0","0.1429264201","","0.6","0.8","0.4","0.2","","","","","0.8388849062","0.1429264201","0.7220910122","0.1200050714","","","","","","","","74","J","1","","","159","main_expt",""
"","bandit","239","719486","0.0-200.0-0.0","76934860","wem/bandit_either_3","AXT49VCFZDGW8","either","4","177","","","","","","","0","0","1","0.1832893837","","0.6","0.8","0.4","0.2","","","","","0.8006667519","0.1832893837","0.710563805","0.1156014834","","","","","","","","74","J","1","","","160","main_expt",""
"","bandit","240","721684","0.0-201.0-0.0","76934860","wem/bandit_either_3","AXT49VCFZDGW8","either","4","685","","","","","","","0","0","1","0.2337310763","","0.6","0.8","0.4","0.2","","","","","0.7406956812","0.2337310763","0.6205281072","0.1425751263","","","","","","","","74","J","1","","","161","main_expt",""
"","bandit","241","723565","0.0-202.0-0.0","76934860","wem/bandit_either_3","AXT49VCFZDGW8","either","4","368","","","","","","","1","0","0","0.2326198937","","0.6","0.8","0.4","0.2","","","","","0.775259894","0.2326198937","0.5246840185","0.2108345254","","","","","","","","74","J","1","","","162","main_expt",""
"","bandit","242","725635","0.0-203.0-0.0","76934860","wem/bandit_either_3","AXT49VCFZDGW8","either","4","553","","","","","","","0","0","1","0.1584290897","","0.6","0.8","0.4","0.2","","","","","0.6539471222","0.1584290897","0.569340372","0.1664621688","","","","","","","","74","J","1","","","163","main_expt",""
"","bandit","243","727565","0.0-204.0-0.0","76934860","wem/bandit_either_3","AXT49VCFZDGW8","either","4","417","","","","","","","0","0","1","0.1417900361","","0.6","0.8","0.4","0.2","","","","","0.7914062868","0.1417900361","0.5688323765","0.1741279052","","","","","","","","74","J","1","","","164","main_expt",""
"","bandit","244","729939","0.0-205.0-0.0","76934860","wem/bandit_either_3","AXT49VCFZDGW8","either","4","861","","","","","","","0","0","1","","0.08849486786","0.6","0.8","0.4","0.2","0.8415061218","0.08849486786","0.5195648955","0.1891196979","","","","","","","","","","","","74","J","1","","","165","main_expt",""
"","bandit","245","731793","0.0-206.0-0.0","76934860","wem/bandit_either_3","AXT49VCFZDGW8","either","4","328","","","","","","","0","0","1","0.1010416226","","0.6","0.8","0.4","0.2","","","","","0.9084068317","0.1010416226","0.536500984","0.3016440744","","","","","","","","74","J","1","","","166","main_expt",""
"","bandit","246","733456","0.0-207.0-0.0","76934860","wem/bandit_either_3","AXT49VCFZDGW8","either","4","149","","","","","","","0","0","1","0.1506776516","","0.6","0.8","0.4","0.2","","","","","0.8857506799","0.1506776516","0.4243381616","0.3427468607","","","","","","","","74","J","1","","","167","main_expt",""
"","bandit","247","735055","0.0-208.0-0.0","76934860","wem/bandit_either_3","AXT49VCFZDGW8","either","4","88","","","","","","","0","0","1","0.2532220847","","0.6","0.8","0.4","0.2","","","","","0.9247721234","0.2532220847","0.4877327119","0.3759001064","","","","","","","","74","J","1","","","168","main_expt",""
"","bandit","248","738055","0.0-209.0-0.0","76934860","wem/bandit_either_3","AXT49VCFZDGW8","either","4","1487","","","","","","","0","0","1","0.2223654062","","0.6","0.8","0.4","0.2","","","","","0.8870410368","0.2223654062","0.5096331713","0.3824832387","","","","","","","","74","J","1","","","169","main_expt",""
"","bandit","249","739726","0.0-210.0-0.0","76934860","wem/bandit_either_3","AXT49VCFZDGW8","either","4","145","","","","","","","0","1","0","","0.8782412079","0.6","0.8","0.4","0.2","0.8782412079","0.2161840498","0.6111595203","0.3257043992","","","","","","","","","","","","72","H","0","img/none_selected.jpg","","170","main_expt",""
"","bandit","250","741839","0.0-211.0-0.0","76934860","wem/bandit_either_3","AXT49VCFZDGW8","either","4","591","","","","","","","1","0","0","0.7978982074","","0.6","0.8","0.4","0.2","","","","","0.7978982074","0.1996440145","0.5888321224","0.2943589708","","","","","","","","72","H","0","img/none_selected.jpg","","171","main_expt",""
"","bandit","251","743711","0.0-212.0-0.0","76934860","wem/bandit_either_3","AXT49VCFZDGW8","either","4","358","","","","","","","0","1","0","","0.7896885826","0.6","0.8","0.4","0.2","0.7896885826","0.275753823","0.6295404033","0.4298537702","","","","","","","","","","","","72","H","0","img/none_selected.jpg","","172","main_expt",""
"","bandit","252","745851","0.0-213.0-0.0","76934860","wem/bandit_either_3","AXT49VCFZDGW8","either","4","624","","","","","","","1","0","0","0.7771385218","","0.6","0.8","0.4","0.2","","","","","0.7771385218","0.2850946521","0.5976712981","0.4196262671","","","","","","","","72","H","0","img/none_selected.jpg","","173","main_expt",""
"","bandit","253","747749","0.0-214.0-0.0","76934860","wem/bandit_either_3","AXT49VCFZDGW8","either","4","384","","","","","","","1","0","0","0.8412209493","","0.6","0.8","0.4","0.2","","","","","0.8412209493","0.2836726952","0.5936331925","0.4056978145","","","","","","","","72","H","0","img/none_selected.jpg","","174","main_expt",""
"","bandit","254","749340","0.0-215.0-0.0","76934860","wem/bandit_either_3","AXT49VCFZDGW8","either","4","74","","","","","","","0","1","0","","0.8433491626","0.6","0.8","0.4","0.2","0.8433491626","0.27413619","0.544145328","0.3323311207","","","","","","","","","","","","72","H","0","img/none_selected.jpg","","175","main_expt",""
"","bandit","255","751489","0.0-216.0-0.0","76934860","wem/bandit_either_3","AXT49VCFZDGW8","either","4","628","","","","","","","0","0","1","0.778586436","","0.6","0.8","0.4","0.2","","","","","0.778586436","0.2369491767","0.3584947592","0.3087900888","","","","","","","","72","H","0","img/none_selected.jpg","","176","main_expt",""
"","bandit","256","753727","0.0-217.0-0.0","76934860","wem/bandit_either_3","AXT49VCFZDGW8","either","4","714","","","","","","","1","0","0","0.3440943848","","0.6","0.8","0.4","0.2","","","","","0.7488794252","0.3440943848","0.436171931","0.3898613412","","","","","","","","74","J","1","","","177","main_expt",""
"","bandit","257","755558","0.0-218.0-0.0","76934860","wem/bandit_either_3","AXT49VCFZDGW8","either","4","312","","","","","","","1","0","0","0.3529135521","","0.6","0.8","0.4","0.2","","","","","0.7738581751","0.3529135521","0.5193680035","0.5236321052","","","","","","","","74","J","1","","","178","main_expt",""
"","bandit","258","757436","0.0-219.0-0.0","76934860","wem/bandit_either_3","AXT49VCFZDGW8","either","4","361","","","","","","","0","0","1","","0.3787243664","0.6","0.8","0.4","0.2","0.7527820287","0.3787243664","0.3957798075","0.2955080601","","","","","","","","","","","","74","J","1","","","179","main_expt",""
"","bandit","259","759390","0.0-220.0-0.0","76934860","wem/bandit_either_3","AXT49VCFZDGW8","either","4","433","","","","","","","1","0","0","0.3092677326","","0.6","0.8","0.4","0.2","","","","","0.8022950929","0.3092677326","0.4249873197","0.3174151272","","","","","","","","74","J","1","","","180","main_expt",""
"","bandit","260","761234","0.0-221.0-0.0","76934860","wem/bandit_either_3","AXT49VCFZDGW8","either","4","319","","","","","","","1","0","0","0.3701559146","","0.6","0.8","0.4","0.2","","","","","0.7505347306","0.3701559146","0.4260342439","0.3560995969","","","","","","","","74","J","1","","","181","main_expt",""
"","bandit","261","763132","0.0-222.0-0.0","76934860","wem/bandit_either_3","AXT49VCFZDGW8","either","4","378","","","","","","","0","0","1","0.2672844749","","0.6","0.8","0.4","0.2","","","","","0.603349844","0.2672844749","0.4305619521","0.4649908644","","","","","","","","74","J","1","","","182","main_expt",""
"","bandit","262","764696","0.0-223.0-0.0","76934860","wem/bandit_either_3","AXT49VCFZDGW8","either","4","52","","","","","","","0","0","1","","0.3046315644","0.6","0.8","0.4","0.2","0.6464544124","0.3046315644","0.4638513582","0.4588174784","","","","","","","","","","","","74","J","1","","","183","main_expt",""
"","bandit","263","766226","0.0-224.0-0.0","76934860","wem/bandit_either_3","AXT49VCFZDGW8","either","4","11","","","","","","","0","0","1","0.3507685813","","0.6","0.8","0.4","0.2","","","","","0.6606024443","0.3507685813","0.5084330557","0.509799977","","","","","","","","74","J","1","","","184","main_expt",""
"","bandit","264","767790","0.0-225.0-0.0","76934860","wem/bandit_either_3","AXT49VCFZDGW8","either","4","51","","","","","","","0","0","1","0.3250269766","","0.6","0.8","0.4","0.2","","","","","0.7034535028","0.3250269766","0.5853778332","0.4557178443","","","","","","","","74","J","1","","","185","main_expt",""
"","bandit","265","769557","0.0-226.0-0.0","76934860","wem/bandit_either_3","AXT49VCFZDGW8","either","4","253","","","","","","","1","0","0","0.3636669497","","0.6","0.8","0.4","0.2","","","","","0.7672503758","0.3636669497","0.5009207633","0.3250172706","","","","","","","","74","J","1","","","186","main_expt",""
"","bandit","266","771490","0.0-227.0-0.0","76934860","wem/bandit_either_3","AXT49VCFZDGW8","either","4","421","","","","","","","1","0","0","0.4095027401","","0.6","0.8","0.4","0.2","","","","","0.7505037824","0.4095027401","0.4376492532","0.2982192525","","","","","","","","74","J","1","","","187","main_expt",""
"","bandit","267","773379","0.0-228.0-0.0","76934860","wem/bandit_either_3","AXT49VCFZDGW8","either","4","367","","","","","","","1","0","0","0.3356624093","","0.6","0.8","0.4","0.2","","","","","0.7458261356","0.3356624093","0.317868257","0.2647713636","","","","","","","","74","J","1","","","188","main_expt",""
"","bandit","268","775240","0.0-229.0-0.0","76934860","wem/bandit_either_3","AXT49VCFZDGW8","either","4","326","","","","","","","0","0","1","0.3717951419","","0.6","0.8","0.4","0.2","","","","","0.747965221","0.3717951419","0.3700786551","0.2798663258","","","","","","","","74","J","1","","","189","main_expt",""
"","bandit","269","778180","0.0-230.0-0.0","76934860","wem/bandit_either_3","AXT49VCFZDGW8","either","4","1412","","","","","","","0","0","1","0.3266606931","","0.6","0.8","0.4","0.2","","","","","0.7459095382","0.3266606931","0.3423477616","0.2146362806","","","","","","","","74","J","1","","","190","main_expt",""
"","bandit","270","780004","0.0-231.0-0.0","76934860","wem/bandit_either_3","AXT49VCFZDGW8","either","4","311","","","","","","","0","0","1","0.4206899072","","0.6","0.8","0.4","0.2","","","","","0.6299055833","0.4206899072","0.2488230813","0.3132783624","","","","","","","","74","J","1","","","191","main_expt",""
"","bandit","271","782041","0.0-232.0-0.0","76934860","wem/bandit_either_3","AXT49VCFZDGW8","either","4","511","","","","","","","1","0","0","0.4982817076","","0.6","0.8","0.4","0.2","","","","","0.688533977","0.4982817076","0.2193108308","0.2488083766","","","","","","","","74","J","1","","","192","main_expt",""
"","bandit","272","783838","0.0-233.0-0.0","76934860","wem/bandit_either_3","AXT49VCFZDGW8","either","4","279","","","","","","","0","0","1","0.4820211017","","0.6","0.8","0.4","0.2","","","","","0.7176496952","0.4820211017","0.4057276106","0.225611763","","","","","","","","74","J","1","","","193","main_expt",""
"","bandit","273","785941","0.0-234.0-0.0","76934860","wem/bandit_either_3","AXT49VCFZDGW8","either","4","568","","","","","","","0","1","0","","0.5373891537","0.6","0.8","0.4","0.2","0.746212457","0.5373891537","0.3826056333","0.2159393038","","","","","","","","","","","","74","J","1","","","194","main_expt",""
"","bandit","274","787988","0.0-235.0-0.0","76934860","wem/bandit_either_3","AXT49VCFZDGW8","either","4","524","","","","","","","0","1","0","","0.3890275207","0.6","0.8","0.4","0.2","0.6800784202","0.3890275207","0.4922935908","0.3112228701","","","","","","","","","","","","74","J","1","","","195","main_expt",""
"","bandit","275","790093","0.0-236.0-0.0","76934860","wem/bandit_either_3","AXT49VCFZDGW8","either","4","591","","","","","","","0","0","1","0.4329462643","","0.6","0.8","0.4","0.2","","","","","0.5986295964","0.4329462643","0.5475793877","0.3249051539","","","","","","","","74","J","1","","","196","main_expt",""
"","bandit","276","791757","0.0-237.0-0.0","76934860","wem/bandit_either_3","AXT49VCFZDGW8","either","4","144","","","","","","","1","0","0","0.416825946","","0.6","0.8","0.4","0.2","","","","","0.5323622673","0.416825946","0.6069385875","0.2985018541","","","","","","","","74","J","1","","","197","main_expt",""
"","bandit","277","793661","0.0-238.0-0.0","76934860","wem/bandit_either_3","AXT49VCFZDGW8","either","4","391","","","","","","","0","1","0","","0.4063336836","0.6","0.8","0.4","0.2","0.5348043844","0.4063336836","0.4946816555","0.3109366799","","","","","","","","","","","","74","J","1","","","198","main_expt",""
"","bandit","278","795182","0.0-239.0-0.0","76934860","wem/bandit_either_3","AXT49VCFZDGW8","either","4","6","","","","","","","0","0","1","0.4534403339","","0.6","0.8","0.4","0.2","","","","","0.4534403339","0.361264989","0.479635203","0.3143364341","","","","","","","","72","H","0","img/none_selected.jpg","","199","main_expt",""
"","bandit","279","797038","0.0-240.0-0.0","76934860","wem/bandit_either_3","AXT49VCFZDGW8","either","4","341","","","","","","","0","0","1","0.4185876589","","0.6","0.8","0.4","0.2","","","","","0.4185876589","0.4700223374","0.4969837249","0.3176919365","","","","","","","","72","H","0","img/none_selected.jpg","","200","main_expt",""
"","bandit","280","798934","0.0-241.0-0.0","76934860","wem/bandit_either_3","AXT49VCFZDGW8","either","4","365","","","","","","","1","0","0","0.3812211227","","0.6","0.8","0.4","0.2","","","","","0.3812211227","0.4751543938","0.4548125401","0.2848283651","","","","","","","","72","H","0","img/none_selected.jpg","","201","main_expt",""
"","bandit","281","800886","0.0-242.0-0.0","76934860","wem/bandit_either_3","AXT49VCFZDGW8","either","4","433","","","","","","","1","0","0","0.4414728031","","0.6","0.8","0.4","0.2","","","","","0.4414728031","0.4044794657","0.5767771981","0.2439676923","","","","","","","","72","H","0","img/none_selected.jpg","","202","main_expt",""
"","bandit","282","802805","0.0-243.0-0.0","76934860","wem/bandit_either_3","AXT49VCFZDGW8","either","4","407","","","","","","","0","0","1","","0.3698030662","0.6","0.8","0.4","0.2","0.3698030662","0.3321077444","0.6118171827","0.2582922662","","","","","","","","","","","","72","H","0","img/none_selected.jpg","","203","main_expt",""
"","bandit","283","804681","0.0-244.0-0.0","76934860","wem/bandit_either_3","AXT49VCFZDGW8","either","4","354","","","","","","","0","1","0","","0.4899087748","0.6","0.8","0.4","0.2","0.4899087748","0.3697340749","0.5373194108","0.3799793739","","","","","","","","","","","","72","H","0","img/none_selected.jpg","","204","main_expt",""
"","bandit","284","806548","0.0-245.0-0.0","76934860","wem/bandit_either_3","AXT49VCFZDGW8","either","4","352","","","","","","","0","0","1","0.4310108402","","0.6","0.8","0.4","0.2","","","","","0.4310108402","0.3998168993","0.5501461309","0.4441528059","","","","","","","","72","H","0","img/none_selected.jpg","","205","main_expt",""
"","bandit","285","808388","0.0-246.0-0.0","76934860","wem/bandit_either_3","AXT49VCFZDGW8","either","4","325","","","","","","","0","1","0","","0.3912115078","0.6","0.8","0.4","0.2","0.3912115078","0.4929909192","0.5094027242","0.4468516792","","","","","","","","","","","","72","H","0","img/none_selected.jpg","","206","main_expt",""
"","bandit","286","810282","0.0-247.0-0.0","76934860","wem/bandit_either_3","AXT49VCFZDGW8","either","4","364","","","","","","","1","0","0","0.3195818707","","0.6","0.8","0.4","0.2","","","","","0.3195818707","0.4960693894","0.6449696869","0.399366085","","","","","","","","72","H","0","img/none_selected.jpg","","207","main_expt",""
"","bandit","287","812204","0.0-248.0-0.0","76934860","wem/bandit_either_3","AXT49VCFZDGW8","either","4","408","","","","","","","1","0","0","0.2378171997","","0.6","0.8","0.4","0.2","","","","","0.2378171997","0.3912862986","0.549996868","0.4206610772","","","","","","","","72","H","0","img/none_selected.jpg","","208","main_expt",""
"","bandit","288","814180","0.0-249.0-0.0","76934860","wem/bandit_either_3","AXT49VCFZDGW8","either","4","453","","","","","","","0","0","1","0.2339104391","","0.6","0.8","0.4","0.2","","","","","0.2339104391","0.4218938049","0.5258833792","0.5145499259","","","","","","","","72","H","0","img/none_selected.jpg","","209","main_expt",""
"","bandit","289","816955","0.0-250.0-0.0","76934860","wem/bandit_either_3","AXT49VCFZDGW8","either","4","1258","","","","","","","0","1","0","","0.2506558306","0.6","0.8","0.4","0.2","0.2506558306","0.6003160005","0.5453980868","0.3497539355","","","","","","","","","","","","72","H","0","img/none_selected.jpg","","210","main_expt",""
"","bandit","290","818861","0.0-251.0-0.0","76934860","wem/bandit_either_3","AXT49VCFZDGW8","either","4","393","","","","","","","1","0","0","0.5481562991","","0.6","0.8","0.4","0.2","","","","","0.3466578502","0.5481562991","0.5370950561","0.3335821388","","","","","","","","74","J","1","","","211","main_expt",""
"","bandit","291","820742","0.0-252.0-0.0","76934860","wem/bandit_either_3","AXT49VCFZDGW8","either","4","367","","","","","","","1","0","0","0.6210595125","","0.6","0.8","0.4","0.2","","","","","0.4162959965","0.6210595125","0.5774996514","0.2778022227","","","","","","","","74","J","1","","","212","main_expt",""
"","bandit","292","822680","0.0-253.0-0.0","76934860","wem/bandit_either_3","AXT49VCFZDGW8","either","4","420","","","","","","","1","0","0","0.7732161257","","0.6","0.8","0.4","0.2","","","","","0.545788555","0.7732161257","0.4826056363","0.2949104287","","","","","","","","74","J","1","","","213","main_expt",""
"","bandit","293","824587","0.0-254.0-0.0","76934860","wem/bandit_either_3","AXT49VCFZDGW8","either","4","381","","","","","","","0","1","0","","0.7689771773","0.6","0.8","0.4","0.2","0.6077749924","0.7689771773","0.4913277851","0.2443343027","","","","","","","","","","","","74","J","1","","","214","main_expt",""
"","bandit","294","826193","0.0-255.0-0.0","76934860","wem/bandit_either_3","AXT49VCFZDGW8","either","4","93","","","","","","","1","0","0","0.6841712945","","0.6","0.8","0.4","0.2","","","","","0.4883429648","0.6841712945","0.5415006571","0.2232989174","","","","","","","","74","J","1","","","215","main_expt",""
"","bandit","295","828094","0.0-256.0-0.0","76934860","wem/bandit_either_3","AXT49VCFZDGW8","either","4","384","","","","","","","1","0","0","0.7019934296","","0.6","0.8","0.4","0.2","","","","","0.3309854328","0.7019934296","0.5198015267","0.2918619336","","","","","","","","74","J","1","","","216","main_expt",""
"","bandit","296","829842","0.0-257.0-0.0","76934860","wem/bandit_either_3","AXT49VCFZDGW8","either","4","235","","","","","","","1","0","0","0.7537099884","","0.6","0.8","0.4","0.2","","","","","0.3310528633","0.7537099884","0.545097872","0.3571058798","","","","","","","","74","J","1","","","217","main_expt",""
"","bandit","297","831682","0.0-258.0-0.0","76934860","wem/bandit_either_3","AXT49VCFZDGW8","either","4","311","","","","","","","1","0","0","0.8428980993","","0.6","0.8","0.4","0.2","","","","","0.4147218791","0.8428980993","0.5776025334","0.3738303097","","","","","","","","74","J","1","","","218","main_expt",""
"","bandit","298","833490","0.0-259.0-0.0","76934860","wem/bandit_either_3","AXT49VCFZDGW8","either","4","293","","","","","","","1","0","0","0.8007326434","","0.6","0.8","0.4","0.2","","","","","0.3402104323","0.8007326434","0.5616346574","0.4832874948","","","","","","","","74","J","1","","","219","main_expt",""
"","bandit","299","835361","0.0-260.0-0.0","76934860","wem/bandit_either_3","AXT49VCFZDGW8","either","4","357","","","","","","","1","0","0","0.8518850648","","0.6","0.8","0.4","0.2","","","","","0.3448871422","0.8518850648","0.6261942659","0.475455537","","","","","","","","74","J","1","","","220","main_expt",""
"","bandit","300","837215","0.0-261.0-0.0","76934860","wem/bandit_either_3","AXT49VCFZDGW8","either","4","339","","","","","","","0","1","0","","0.8488451861","0.6","0.8","0.4","0.2","0.4438284365","0.8488451861","0.6533416475","0.3849790123","","","","","","","","","","","","74","J","1","","","221","main_expt",""
"","bandit","301","839942","0.0-262.0-0.0","76934860","wem/bandit_either_3","AXT49VCFZDGW8","either","4","1214","","","","","","","0","0","1","0.8202185963","","0.6","0.8","0.4","0.2","","","","","0.3768672835","0.8202185963","0.6780524799","0.2708628555","","","","","","","","74","J","1","","","222","main_expt",""
"","bandit","302","841780","0.0-263.0-0.0","76934860","wem/bandit_either_3","AXT49VCFZDGW8","either","4","317","","","","","","","0","0","1","0.839196386","","0.6","0.8","0.4","0.2","","","","","0.4599748191","0.839196386","0.638470603","0.3886191555","","","","","","","","74","J","1","","","223","main_expt",""
"","bandit","303","844383","0.0-264.0-0.0","76934860","wem/bandit_either_3","AXT49VCFZDGW8","either","4","1079","","","","","","","0","0","1","","0.560582988","0.6","0.8","0.4","0.2","0.5868274652","0.8340435664","0.560582988","0.3352763987","","","","","","","","","","","","75","K","2","","","224","main_expt",""
"","bandit","304","847282","0.0-265.0-0.0","76934860","wem/bandit_either_3","AXT49VCFZDGW8","either","4","1378","","","","","","","0","0","1","0.5004803289","","0.6","0.8","0.4","0.2","","","","","0.510759767","0.8229669419","0.5004803289","0.3948846532","","","","","","","","75","K","2","","","225","main_expt",""
"","bandit","305","849211","0.0-266.0-0.0","76934860","wem/bandit_either_3","AXT49VCFZDGW8","either","4","413","","","","","","","0","0","1","0.5109709899","","0.6","0.8","0.4","0.2","","","","","0.6026028704","0.8326575293","0.5109709899","0.385279681","","","","","","","","75","K","2","","","226","main_expt",""
"","bandit","306","852123","0.0-267.0-0.0","76934860","wem/bandit_either_3","AXT49VCFZDGW8","either","4","1387","","","","","","","0","1","0","","0.3296530349","0.6","0.8","0.4","0.2","0.588132951","0.8904476858","0.4271661703","0.3296530349","","","","","","","","","","","","76","L","3","","","227","main_expt",""
"","bandit","307","854202","0.0-268.0-0.0","76934860","wem/bandit_either_3","AXT49VCFZDGW8","either","4","562","","","","","","","1","0","0","0.4227788413","","0.6","0.8","0.4","0.2","","","","","0.5754590721","0.8877596604","0.374673526","0.4227788413","","","","","","","","76","L","3","","","228","main_expt",""
"","bandit","308","856124","0.0-269.0-0.0","76934860","wem/bandit_either_3","AXT49VCFZDGW8","either","4","398","","","","","","","1","0","0","0.4470353227","","0.6","0.8","0.4","0.2","","","","","0.6311951266","0.8647697669","0.393435759","0.4470353227","","","","","","","","76","L","3","","","229","main_expt",""
"","bandit","309","857991","0.0-270.0-0.0","76934860","wem/bandit_either_3","AXT49VCFZDGW8","either","4","352","","","","","","","1","0","0","0.2986819632","","0.6","0.8","0.4","0.2","","","","","0.6164228117","0.8704214291","0.3299431778","0.2986819632","","","","","","","","76","L","3","","","230","main_expt",""
"","bandit","310","859837","0.0-271.0-0.0","76934860","wem/bandit_either_3","AXT49VCFZDGW8","either","4","327","","","","","","","1","0","0","0.4508866759","","0.6","0.8","0.4","0.2","","","","","0.5943568022","0.8598686354","0.3477061432","0.4508866759","","","","","","","","76","L","3","","","231","main_expt",""
"","bandit","311","861634","0.0-272.0-0.0","76934860","wem/bandit_either_3","AXT49VCFZDGW8","either","4","281","","","","","","","0","0","1","0.5125968159","","0.6","0.8","0.4","0.2","","","","","0.6032910051","0.7939027672","0.3430234075","0.5125968159","","","","","","","","76","L","3","","","232","main_expt",""
"","bandit","312","863737","0.0-273.0-0.0","76934860","wem/bandit_either_3","AXT49VCFZDGW8","either","4","587","","","","","","","0","0","1","","0.6020802482","0.6","0.8","0.4","0.2","0.7225660168","0.7930400566","0.2812772396","0.6020802482","","","","","","","","","","","","76","L","3","","","233","main_expt",""
"","bandit","313","865606","0.0-274.0-0.0","76934860","wem/bandit_either_3","AXT49VCFZDGW8","either","4","355","","","","","","","0","1","0","","0.5927943616","0.6","0.8","0.4","0.2","0.6718439238","0.7549101179","0.2049555934","0.5927943616","","","","","","","","","","","","76","L","3","","","234","main_expt",""
"","bandit","314","867961","0.0-275.0-0.0","76934860","wem/bandit_either_3","AXT49VCFZDGW8","either","4","840","","","","","","","0","1","0","","0.5814417759","0.6","0.8","0.4","0.2","0.6025803433","0.7654291135","0.144612338","0.5814417759","","","","","","","","","","","","76","L","3","","","235","main_expt",""
"","bandit","315","869792","0.0-276.0-0.0","76934860","wem/bandit_either_3","AXT49VCFZDGW8","either","4","316","","","","","","","1","0","0","0.6170166349","","0.6","0.8","0.4","0.2","","","","","0.6170166349","0.6965918162","0.1509581517","0.6530024001","","","","","","","","72","H","0","img/none_selected.jpg","","236","main_expt",""
"","bandit","316","871607","0.0-277.0-0.0","76934860","wem/bandit_either_3","AXT49VCFZDGW8","either","4","298","","","","","","","1","0","0","0.6426153702","","0.6","0.8","0.4","0.2","","","","","0.6426153702","0.8151927982","0.2267465707","0.5861490443","","","","","","","","72","H","0","img/none_selected.jpg","","237","main_expt",""
"","bandit","317","873540","0.0-278.0-0.0","76934860","wem/bandit_either_3","AXT49VCFZDGW8","either","4","389","","","","","","","1","0","0","0.5421138037","","0.6","0.8","0.4","0.2","","","","","0.5421138037","0.7696745118","0.1651127221","0.6086881899","","","","","","","","72","H","0","img/none_selected.jpg","","238","main_expt",""
"","bandit","318","875397","0.0-279.0-0.0","76934860","wem/bandit_either_3","AXT49VCFZDGW8","either","4","342","","","","","","","0","1","0","","0.5534077834","0.6","0.8","0.4","0.2","0.5534077834","0.7368178416","0.1587945469","0.6323362843","","","","","","","","","","","","72","H","0","img/none_selected.jpg","","239","main_expt",""
"","bandit","319","877029","0.0-280.0-0.0","76934860","wem/bandit_either_3","AXT49VCFZDGW8","either","4","114","","","","","","","0","0","1","","0.6443792527","0.6","0.8","0.4","0.2","0.7267030345","0.6443792527","0.08644000702","0.5620837446","","","","","","","","","","","","74","J","1","","","240","main_expt",""
"","bandit","320","878834","0.0-281.0-0.0","76934860","wem/bandit_either_3","AXT49VCFZDGW8","either","4","280","","","","","","","0","1","0","","0.6467572307","0.6","0.8","0.4","0.2","0.7211407476","0.6467572307","0.06677296221","0.5571148452","","","","","","","","","","","","74","J","1","","","241","main_expt",""
"","bandit","321","880633","0.0-282.0-0.0","76934860","wem/bandit_either_3","AXT49VCFZDGW8","either","4","267","","","","","","","1","0","0","0.6131120494","","0.6","0.8","0.4","0.2","","","","","0.6764936995","0.6131120494","0.08066643837","0.4016720442","","","","","","","","74","J","1","","","242","main_expt",""
"","bandit","322","882199","0.0-283.0-0.0","76934860","wem/bandit_either_3","AXT49VCFZDGW8","either","4","48","","","","","","","0","1","0","","0.7409975133","0.6","0.8","0.4","0.2","0.6677952341","0.7409975133","0.08086195374","0.5389796081","","","","","","","","","","","","74","J","1","","","243","main_expt",""
"","bandit","323","884297","0.0-284.0-0.0","76934860","wem/bandit_either_3","AXT49VCFZDGW8","either","4","582","","","","","","","1","0","0","0.6582216966","","0.6","0.8","0.4","0.2","","","","","0.7284567303","0.6582216966","0.1496534925","0.5123058505","","","","","","","","74","J","1","","","244","main_expt",""
"","bandit","324","886194","0.0-285.0-0.0","76934860","wem/bandit_either_3","AXT49VCFZDGW8","either","4","383","","","","","","","0","0","1","0.7274682542","","0.6","0.8","0.4","0.2","","","","","0.7435316078","0.7274682542","0.1788819116","0.434346282","","","","","","","","74","J","1","","","245","main_expt",""
"","bandit","325","889069","0.0-286.0-0.0","76934860","wem/bandit_either_3","AXT49VCFZDGW8","either","4","1359","","","","","","","1","0","0","0.7675378805","","0.6","0.8","0.4","0.2","","","","","0.7420547497","0.7675378805","0.2147576294","0.4080319695","","","","","","","","74","J","1","","","246","main_expt",""
