"consent","trial_type","trial_index","time_elapsed","internal_node_id","subjID","study","MID","cond","drift","rt","responses","key_press","expt_phase","like","value","connected","gems","bombs","no_reward","GemPrChosen","BombPrChosen","GainOverPainPr_0","GainOverPainPr_1","GainOverPainPr_2","GainOverPainPr_3","LosePr_0","LosePr_1","LosePr_2","LosePr_3","WinPr_0","WinPr_1","WinPr_2","WinPr_3","Q0","Q1","Q2","gender","age","ethnicity","target","respCharCode","respKey","respChoiceNum","respChoice","practice","trial_counter","trial_label","button_pressed"
"INL_behavioral_consent_30min_online.html","consent","0","321938","0.0-0.0","77372013","wem/bandit_either_3","A94DL4GI8ZBUO","either","8","","","","","","","","","","","","","","","","","","","","","","","","","","","","","","","","","","","","","","",""
"","survey-text","1","325700","0.0-1.0","77372013","wem/bandit_either_3","A94DL4GI8ZBUO","either","8","2753","{""Q0"":""A94DL4GI8ZBUO""}","","","","","","","","","","","","","","","","","","","","","","","","","","","","","","","","","","","","",""
"","text","2","332661","0.0-2.0","77372013","wem/bandit_either_3","A94DL4GI8ZBUO","either","8","5957","","32","","","","","","","","","","","","","","","","","","","","","","","","","","","","","","","","","","","",""
"","text","3","347581","0.0-3.0","77372013","wem/bandit_either_3","A94DL4GI8ZBUO","either","8","14918","","32","","","","","","","","","","","","","","","","","","","","","","","","","","","","","","","","","","","",""
"","text","4","355508","0.0-4.0","77372013","wem/bandit_either_3","A94DL4GI8ZBUO","either","8","7924","","32","","","","","","","","","","","","","","","","","","","","","","","","","","","","","","","","","","","",""
"","text","5","362943","0.0-5.0","77372013","wem/bandit_either_3","A94DL4GI8ZBUO","either","8","7433","","32","","","","","","","","","","","","","","","","","","","","","","","","","","","","","","","","","","","",""
"","text","6","374575","0.0-6.0","77372013","wem/bandit_either_3","A94DL4GI8ZBUO","either","8","11631","","32","","","","","","","","","","","","","","","","","","","","","","","","","","","","","","","","","","","",""
"","text","7","379608","0.0-7.0","77372013","wem/bandit_either_3","A94DL4GI8ZBUO","either","8","5031","","32","","","","","","","","","","","","","","","","","","","","","","","","","","","","","","","","","","","",""
"","text","8","382608","0.0-8.0","77372013","wem/bandit_either_3","A94DL4GI8ZBUO","either","8","2997","","32","","","","","","","","","","","","","","","","","","","","","","","","","","","","","","","","","","","",""
"","identification","9","387979","0.0-9.0-0.0","77372013","wem/bandit_either_3","A94DL4GI8ZBUO","either","8","5352","","","","5","5","6","","","","","","","","","","","","","","","","","","","","","","","","the village of Zur","","","","","","","",""
"","identification","10","392174","0.0-9.0-1.0","77372013","wem/bandit_either_3","A94DL4GI8ZBUO","either","8","3173","","","","1","0","1","","","","","","","","","","","","","","","","","","","","","","","","the village of Nyx","","","","","","","",""
"","text","11","400442","0.0-10.0","77372013","wem/bandit_either_3","A94DL4GI8ZBUO","either","8","7264","","32","","","","","","","","","","","","","","","","","","","","","","","","","","","","","","","","","","","",""
"","text","12","403517","0.0-11.0","77372013","wem/bandit_either_3","A94DL4GI8ZBUO","either","8","3074","","32","","","","","","","","","","","","","","","","","","","","","","","","","","","","","","","","","","","",""
"","text","13","405039","0.0-12.0","77372013","wem/bandit_either_3","A94DL4GI8ZBUO","either","8","1520","","32","","","","","","","","","","","","","","","","","","","","","","","","","","","","","","","","","","","",""
"","text","14","410123","0.0-13.0","77372013","wem/bandit_either_3","A94DL4GI8ZBUO","either","8","5081","","32","","","","","","","","","","","","","","","","","","","","","","","","","","","","","","","","","","","",""
"","bandit","15","413181","0.0-14.0-0.0","77372013","wem/bandit_either_3","A94DL4GI8ZBUO","either","8","1544","","","","","","","0","0","1","0","0","","","","","0","","","","0","","","","","","","","","","","74","J","0","img/none_selected_demo.jpg","true","0","",""
"","bandit","16","415682","0.0-15.0-0.0","77372013","wem/bandit_either_3","A94DL4GI8ZBUO","either","8","994","","","","","","","0","0","1","0","0","","","","","0","","","","0","","","","","","","","","","","75","K","0","img/none_selected_demo.jpg","true","0","",""
"","text","17","423362","0.0-16.0","77372013","wem/bandit_either_3","A94DL4GI8ZBUO","either","8","7677","","32","","","","","","","","","","","","","","","","","","","","","","","","","","","","","","","","","","","",""
"","text","18","438003","0.0-17.0","77372013","wem/bandit_either_3","A94DL4GI8ZBUO","either","8","14639","","32","","","","","","","","","","","","","","","","","","","","","","","","","","","","","","","","","","","",""
"","text","19","438198","0.0-18.0","77372013","wem/bandit_either_3","A94DL4GI8ZBUO","either","8","193","","32","","","","","","","","","","","","","","","","","","","","","","","","","","","","","","","","","","","",""
"","text","20","448080","0.0-19.0","77372013","wem/bandit_either_3","A94DL4GI8ZBUO","either","8","9879","","32","","","","","","","","","","","","","","","","","","","","","","","","","","","","","","","","","","","",""
"","bandit","21","450339","0.0-20.0-0.0","77372013","wem/bandit_either_3","A94DL4GI8ZBUO","either","8","747","","","","","","","1","0","0","0.8","","0.5","0.5","","","","","","","0.8","0.2","","","","","","","","","","74","J","0","img/none_selected_demo.jpg","true","0","80_20_practice",""
"","bandit","22","452187","0.0-20.0-1.0","77372013","wem/bandit_either_3","A94DL4GI8ZBUO","either","8","340","","","","","","","0","1","0","","0.8","0.5","0.5","","","0.8","0.2","","","","","","","","","","","","","","74","J","0","img/none_selected_demo.jpg","true","0","80_20_practice",""
"","bandit","23","453873","0.0-20.0-2.0","77372013","wem/bandit_either_3","A94DL4GI8ZBUO","either","8","179","","","","","","","0","1","0","","0.8","0.5","0.5","","","0.8","0.2","","","","","","","","","","","","","","74","J","0","img/none_selected_demo.jpg","true","0","80_20_practice",""
"","bandit","24","455381","0.0-20.0-3.0","77372013","wem/bandit_either_3","A94DL4GI8ZBUO","either","8","2","","","","","","","1","0","0","0.8","","0.5","0.5","","","","","","","0.8","0.2","","","","","","","","","","74","J","0","img/none_selected_demo.jpg","true","0","80_20_practice",""
"","bandit","25","457070","0.0-20.0-4.0","77372013","wem/bandit_either_3","A94DL4GI8ZBUO","either","8","182","","","","","","","0","0","1","","0.8","0.5","0.5","","","0.8","0.2","","","","","","","","","","","","","","74","J","0","img/none_selected_demo.jpg","true","0","80_20_practice",""
"","bandit","26","458623","0.0-20.0-5.0","77372013","wem/bandit_either_3","A94DL4GI8ZBUO","either","8","45","","","","","","","0","0","1","","0.8","0.5","0.5","","","0.8","0.2","","","","","","","","","","","","","","74","J","0","img/none_selected_demo.jpg","true","0","80_20_practice",""
"","bandit","27","460251","0.0-20.0-6.0","77372013","wem/bandit_either_3","A94DL4GI8ZBUO","either","8","118","","","","","","","1","0","0","0.8","","0.5","0.5","","","","","","","0.8","0.2","","","","","","","","","","74","J","0","img/none_selected_demo.jpg","true","0","80_20_practice",""
"","bandit","28","461829","0.0-20.0-7.0","77372013","wem/bandit_either_3","A94DL4GI8ZBUO","either","8","69","","","","","","","1","0","0","0.8","","0.5","0.5","","","","","","","0.8","0.2","","","","","","","","","","74","J","0","img/none_selected_demo.jpg","true","0","80_20_practice",""
"","bandit","29","463407","0.0-20.0-8.0","77372013","wem/bandit_either_3","A94DL4GI8ZBUO","either","8","67","","","","","","","1","0","0","0.8","","0.5","0.5","","","","","","","0.8","0.2","","","","","","","","","","74","J","0","img/none_selected_demo.jpg","true","0","80_20_practice",""
"","bandit","30","464920","0.0-20.0-9.0","77372013","wem/bandit_either_3","A94DL4GI8ZBUO","either","8","5","","","","","","","0","1","0","","0.8","0.5","0.5","","","0.8","0.2","","","","","","","","","","","","","","74","J","0","img/none_selected_demo.jpg","true","0","80_20_practice",""
"","bandit","31","466475","0.0-20.0-10.0","77372013","wem/bandit_either_3","A94DL4GI8ZBUO","either","8","51","","","","","","","0","1","0","","0.8","0.5","0.5","","","0.8","0.2","","","","","","","","","","","","","","74","J","0","img/none_selected_demo.jpg","true","0","80_20_practice",""
"","bandit","32","468112","0.0-20.0-11.0","77372013","wem/bandit_either_3","A94DL4GI8ZBUO","either","8","133","","","","","","","1","0","0","0.8","","0.5","0.5","","","","","","","0.8","0.2","","","","","","","","","","74","J","0","img/none_selected_demo.jpg","true","0","80_20_practice",""
"","bandit","33","469671","0.0-20.0-12.0","77372013","wem/bandit_either_3","A94DL4GI8ZBUO","either","8","52","","","","","","","0","1","0","","0.8","0.5","0.5","","","0.8","0.2","","","","","","","","","","","","","","74","J","0","img/none_selected_demo.jpg","true","0","80_20_practice",""
"","bandit","34","471218","0.0-20.0-13.0","77372013","wem/bandit_either_3","A94DL4GI8ZBUO","either","8","38","","","","","","","1","0","0","0.8","","0.5","0.5","","","","","","","0.8","0.2","","","","","","","","","","74","J","0","img/none_selected_demo.jpg","true","0","80_20_practice",""
"","bandit","35","472879","0.0-20.0-14.0","77372013","wem/bandit_either_3","A94DL4GI8ZBUO","either","8","150","","","","","","","1","0","0","0.8","","0.5","0.5","","","","","","","0.8","0.2","","","","","","","","","","74","J","0","img/none_selected_demo.jpg","true","0","80_20_practice",""
"","bandit","36","474490","0.0-20.0-15.0","77372013","wem/bandit_either_3","A94DL4GI8ZBUO","either","8","103","","","","","","","0","1","0","","0.8","0.5","0.5","","","0.8","0.2","","","","","","","","","","","","","","74","J","0","img/none_selected_demo.jpg","true","0","80_20_practice",""
"","bandit","37","476025","0.0-20.0-16.0","77372013","wem/bandit_either_3","A94DL4GI8ZBUO","either","8","27","","","","","","","0","0","1","","0.8","0.5","0.5","","","0.8","0.2","","","","","","","","","","","","","","74","J","0","img/none_selected_demo.jpg","true","0","80_20_practice",""
"","bandit","38","477637","0.0-20.0-17.0","77372013","wem/bandit_either_3","A94DL4GI8ZBUO","either","8","105","","","","","","","0","1","0","","0.8","0.5","0.5","","","0.8","0.2","","","","","","","","","","","","","","74","J","0","img/none_selected_demo.jpg","true","0","80_20_practice",""
"","bandit","39","479192","0.0-20.0-18.0","77372013","wem/bandit_either_3","A94DL4GI8ZBUO","either","8","49","","","","","","","1","0","0","0.8","","0.5","0.5","","","","","","","0.8","0.2","","","","","","","","","","74","J","0","img/none_selected_demo.jpg","true","0","80_20_practice",""
"","bandit","40","480810","0.0-20.0-19.0","77372013","wem/bandit_either_3","A94DL4GI8ZBUO","either","8","109","","","","","","","0","1","0","","0.8","0.5","0.5","","","0.8","0.2","","","","","","","","","","","","","","74","J","0","img/none_selected_demo.jpg","true","0","80_20_practice",""
"","text","41","483281","0.0-21.0","77372013","wem/bandit_either_3","A94DL4GI8ZBUO","either","8","2468","","32","","","","","","","","","","","","","","","","","","","","","","","","","","","","","","","","","","","",""
"","bandit","42","485441","0.0-22.0-0.0","77372013","wem/bandit_either_3","A94DL4GI8ZBUO","either","8","651","","","","","","","1","0","0","1","0","","","","","0","1","","","1","0","","","","","","","","","","74","J","0","img/none_selected_demo.jpg","true","0","",""
"","text","43","491574","0.0-23.0","77372013","wem/bandit_either_3","A94DL4GI8ZBUO","either","8","6129","","32","","","","","","","","","","","","","","","","","","","","","","","","","","","","","","","","","","","",""
"","text","44","494095","0.0-24.0","77372013","wem/bandit_either_3","A94DL4GI8ZBUO","either","8","2518","","32","","","","","","","","","","","","","","","","","","","","","","","","","","","","","","","","","","","",""
"","text","45","496713","0.0-25.0","77372013","wem/bandit_either_3","A94DL4GI8ZBUO","either","8","2615","","32","","","","","","","","","","","","","","","","","","","","","","","","","","","","","","","","","","","",""
"","text","46","498696","0.0-26.0","77372013","wem/bandit_either_3","A94DL4GI8ZBUO","either","8","1980","","32","","","","","","","","","","","","","","","","","","","","","","","","","","","","","","","","","","","",""
"","text","47","502721","0.0-27.0","77372013","wem/bandit_either_3","A94DL4GI8ZBUO","either","8","4021","","32","","","","","","","","","","","","","","","","","","","","","","","","","","","","","","","","","","","",""
"","text","48","505075","0.0-28.0","77372013","wem/bandit_either_3","A94DL4GI8ZBUO","either","8","2350","","32","","","","","","","","","","","","","","","","","","","","","","","","","","","","","","","","","","","",""
"","text","49","509480","0.0-29.0","77372013","wem/bandit_either_3","A94DL4GI8ZBUO","either","8","4402","","32","","","","","","","","","","","","","","","","","","","","","","","","","","","","","","","","","","","",""
"","text","50","511859","0.0-30.0","77372013","wem/bandit_either_3","A94DL4GI8ZBUO","either","8","2377","","32","","","","","","","","","","","","","","","","","","","","","","","","","","","","","","","","","","","",""
"","text","51","517988","0.0-31.0","77372013","wem/bandit_either_3","A94DL4GI8ZBUO","either","8","6126","","32","","","","","","","","","","","","","","","","","","","","","","","","","","","","","","","","","","","",""
"","text","52","519266","0.0-32.0","77372013","wem/bandit_either_3","A94DL4GI8ZBUO","either","8","1275","","32","","","","","","","","","","","","","","","","","","","","","","","","","","","","","","","","","","","",""
"","text","53","520798","0.0-33.0","77372013","wem/bandit_either_3","A94DL4GI8ZBUO","either","8","1529","","32","","","","","","","","","","","","","","","","","","","","","","","","","","","","","","","","","","","",""
"","bandit","54","523063","0.0-34.0-0.0","77372013","wem/bandit_either_3","A94DL4GI8ZBUO","either","8","755","","","","","","","0","0","1","","0.8","0.5","0.5","0.5","0.5","0.8","0.2","0.6","0.2","","","","","","","","","","","","72","H","0","img/none_selected.jpg","true","0","full_practice",""
"","bandit","55","524831","0.0-34.0-1.0","77372013","wem/bandit_either_3","A94DL4GI8ZBUO","either","8","259","","","","","","","0","0","1","","0.2","0.5","0.5","0.5","0.5","0.8","0.2","0.6","0.2","","","","","","","","","","","","74","J","1","","true","0","full_practice",""
"","bandit","56","526419","0.0-34.0-2.0","77372013","wem/bandit_either_3","A94DL4GI8ZBUO","either","8","79","","","","","","","0","0","1","","0.6","0.5","0.5","0.5","0.5","0.8","0.2","0.6","0.2","","","","","","","","","","","","75","K","2","","true","0","full_practice",""
"","bandit","57","528078","0.0-34.0-3.0","77372013","wem/bandit_either_3","A94DL4GI8ZBUO","either","8","152","","","","","","","0","0","1","","0.2","0.5","0.5","0.5","0.5","0.8","0.2","0.6","0.2","","","","","","","","","","","","76","L","3","","true","0","full_practice",""
"","bandit","58","530723","0.0-34.0-4.0","77372013","wem/bandit_either_3","A94DL4GI8ZBUO","either","8","1135","","","","","","","0","0","1","0.2","","0.5","0.5","0.5","0.5","","","","","0.8","0.2","0.6","0.2","","","","","","","","74","J","1","","true","0","full_practice",""
"","bandit","59","532497","0.0-34.0-5.0","77372013","wem/bandit_either_3","A94DL4GI8ZBUO","either","8","264","","","","","","","0","1","0","","0.6","0.5","0.5","0.5","0.5","0.8","0.2","0.6","0.2","","","","","","","","","","","","75","K","2","","true","0","full_practice",""
"","bandit","60","534065","0.0-34.0-6.0","77372013","wem/bandit_either_3","A94DL4GI8ZBUO","either","8","58","","","","","","","0","1","0","","0.6","0.5","0.5","0.5","0.5","0.8","0.2","0.6","0.2","","","","","","","","","","","","75","K","2","","true","0","full_practice",""
"","bandit","61","535576","0.0-34.0-7.0","77372013","wem/bandit_either_3","A94DL4GI8ZBUO","either","8","1","","","","","","","0","0","1","0.6","","0.5","0.5","0.5","0.5","","","","","0.8","0.2","0.6","0.2","","","","","","","","75","K","2","","true","0","full_practice",""
"","bandit","62","537230","0.0-34.0-8.0","77372013","wem/bandit_either_3","A94DL4GI8ZBUO","either","8","145","","","","","","","0","1","0","","0.6","0.5","0.5","0.5","0.5","0.8","0.2","0.6","0.2","","","","","","","","","","","","75","K","2","","true","0","full_practice",""
"","bandit","63","538908","0.0-34.0-9.0","77372013","wem/bandit_either_3","A94DL4GI8ZBUO","either","8","171","","","","","","","0","1","0","","0.6","0.5","0.5","0.5","0.5","0.8","0.2","0.6","0.2","","","","","","","","","","","","75","K","2","","true","0","full_practice",""
"","bandit","64","540607","0.0-34.0-10.0","77372013","wem/bandit_either_3","A94DL4GI8ZBUO","either","8","188","","","","","","","0","1","0","","0.6","0.5","0.5","0.5","0.5","0.8","0.2","0.6","0.2","","","","","","","","","","","","75","K","2","","true","0","full_practice",""
"","bandit","65","542197","0.0-34.0-11.0","77372013","wem/bandit_either_3","A94DL4GI8ZBUO","either","8","82","","","","","","","0","0","1","","0.6","0.5","0.5","0.5","0.5","0.8","0.2","0.6","0.2","","","","","","","","","","","","75","K","2","","true","0","full_practice",""
"","bandit","66","543793","0.0-34.0-12.0","77372013","wem/bandit_either_3","A94DL4GI8ZBUO","either","8","89","","","","","","","0","1","0","","0.6","0.5","0.5","0.5","0.5","0.8","0.2","0.6","0.2","","","","","","","","","","","","75","K","2","","true","0","full_practice",""
"","bandit","67","545382","0.0-34.0-13.0","77372013","wem/bandit_either_3","A94DL4GI8ZBUO","either","8","78","","","","","","","0","0","1","0.6","","0.5","0.5","0.5","0.5","","","","","0.8","0.2","0.6","0.2","","","","","","","","75","K","2","","true","0","full_practice",""
"","bandit","68","547070","0.0-34.0-14.0","77372013","wem/bandit_either_3","A94DL4GI8ZBUO","either","8","180","","","","","","","0","0","1","0.6","","0.5","0.5","0.5","0.5","","","","","0.8","0.2","0.6","0.2","","","","","","","","75","K","2","","true","0","full_practice",""
"","bandit","69","548635","0.0-34.0-15.0","77372013","wem/bandit_either_3","A94DL4GI8ZBUO","either","8","59","","","","","","","0","0","1","","0.6","0.5","0.5","0.5","0.5","0.8","0.2","0.6","0.2","","","","","","","","","","","","75","K","2","","true","0","full_practice",""
"","bandit","70","550270","0.0-34.0-16.0","77372013","wem/bandit_either_3","A94DL4GI8ZBUO","either","8","118","","","","","","","0","0","1","0.8","","0.5","0.5","0.5","0.5","","","","","0.8","0.2","0.6","0.2","","","","","","","","72","H","0","img/none_selected.jpg","true","0","full_practice",""
"","bandit","71","551909","0.0-34.0-17.0","77372013","wem/bandit_either_3","A94DL4GI8ZBUO","either","8","128","","","","","","","0","0","1","0.2","","0.5","0.5","0.5","0.5","","","","","0.8","0.2","0.6","0.2","","","","","","","","74","J","1","","true","0","full_practice",""
"","bandit","72","553436","0.0-34.0-18.0","77372013","wem/bandit_either_3","A94DL4GI8ZBUO","either","8","17","","","","","","","0","0","1","0.2","","0.5","0.5","0.5","0.5","","","","","0.8","0.2","0.6","0.2","","","","","","","","76","L","3","","true","0","full_practice",""
"","bandit","73","555180","0.0-34.0-19.0","77372013","wem/bandit_either_3","A94DL4GI8ZBUO","either","8","236","","","","","","","0","0","1","","0.2","0.5","0.5","0.5","0.5","0.8","0.2","0.6","0.2","","","","","","","","","","","","76","L","3","","true","0","full_practice",""
"","text","74","557057","0.0-35.0","77372013","wem/bandit_either_3","A94DL4GI8ZBUO","either","8","1868","","32","","","","","","","","","","","","","","","","","","","","","","","","","","","","","","","","","","","",""
"","text","75","583251","0.0-36.0","77372013","wem/bandit_either_3","A94DL4GI8ZBUO","either","8","25188","","32","","","","","","","","","","","","","","","","","","","","","","","","","","","","","","","","","","","",""
"","text","76","591158","0.0-37.0","77372013","wem/bandit_either_3","A94DL4GI8ZBUO","either","8","7904","","32","","","","","","","","","","","","","","","","","","","","","","","","","","","","","","","","","","","",""
"","text","77","594801","0.0-38.0","77372013","wem/bandit_either_3","A94DL4GI8ZBUO","either","8","3640","","32","","","","","","","","","","","","","","","","","","","","","","","","","","","","","","","","","","","",""
"","text","78","601185","0.0-39.0","77372013","wem/bandit_either_3","A94DL4GI8ZBUO","either","8","6379","","32","","","","","","","","","","","","","","","","","","","","","","","","","","","","","","","","","","","",""
"","text","79","603416","0.0-40.0","77372013","wem/bandit_either_3","A94DL4GI8ZBUO","either","8","2227","","32","","","","","","","","","","","","","","","","","","","","","","","","","","","","","","","","","","","",""
"","bandit","80","606451","0.0-41.0-0.0","77372013","wem/bandit_either_3","A94DL4GI8ZBUO","either","8","1526","","","","","","","0","0","1","0.2428949588","","0.8","0.4","0.2","0.6","","","","","0.2428949588","0.3040937467","0.4468950172","0.6337563202","","","","","","","","72","H","0","img/none_selected.jpg","","1","main_expt",""
"","bandit","81","608267","0.0-42.0-0.0","77372013","wem/bandit_either_3","A94DL4GI8ZBUO","either","8","307","","","","","","","0","0","1","","0.2687625136","0.8","0.4","0.2","0.6","0.248961424","0.2687625136","0.3846124694","0.7380673114","","","","","","","","","","","","74","J","1","","","2","main_expt",""
"","bandit","82","610052","0.0-43.0-0.0","77372013","wem/bandit_either_3","A94DL4GI8ZBUO","either","8","274","","","","","","","0","0","1","0.3885967974","","0.8","0.4","0.2","0.6","","","","","0.1878604038","0.3017919557","0.3885967974","0.7715549737","","","","","","","","75","K","2","","","3","main_expt",""
"","bandit","83","611712","0.0-44.0-0.0","77372013","wem/bandit_either_3","A94DL4GI8ZBUO","either","8","150","","","","","","","1","0","0","0.8257013646","","0.8","0.4","0.2","0.6","","","","","0.1194049449","0.3388517529","0.2891644394","0.8257013646","","","","","","","","76","L","3","","","4","main_expt",""
"","bandit","84","613553","0.0-45.0-0.0","77372013","wem/bandit_either_3","A94DL4GI8ZBUO","either","8","334","","","","","","","0","1","0","","0.8617886559","0.8","0.4","0.2","0.6","0.197046458","0.389096829","0.2654579937","0.8617886559","","","","","","","","","","","","76","L","3","","","5","main_expt",""
"","bandit","85","615341","0.0-46.0-0.0","77372013","wem/bandit_either_3","A94DL4GI8ZBUO","either","8","278","","","","","","","1","0","0","0.8452125903","","0.8","0.4","0.2","0.6","","","","","0.2312720201","0.4799636182","0.355160999","0.8452125903","","","","","","","","76","L","3","","","6","main_expt",""
"","bandit","86","617060","0.0-47.0-0.0","77372013","wem/bandit_either_3","A94DL4GI8ZBUO","either","8","207","","","","","","","1","0","0","0.8765288384","","0.8","0.4","0.2","0.6","","","","","0.3255591742","0.5316557606","0.4733904832","0.8765288384","","","","","","","","76","L","3","","","7","main_expt",""
"","bandit","87","618742","0.0-48.0-0.0","77372013","wem/bandit_either_3","A94DL4GI8ZBUO","either","8","172","","","","","","","1","0","0","0.8625068071","","0.8","0.4","0.2","0.6","","","","","0.163151729","0.4935712437","0.4900136729","0.8625068071","","","","","","","","76","L","3","","","8","main_expt",""
"","bandit","88","620426","0.0-49.0-0.0","77372013","wem/bandit_either_3","A94DL4GI8ZBUO","either","8","172","","","","","","","1","0","0","0.8385781597","","0.8","0.4","0.2","0.6","","","","","0.1671639775","0.5400450001","0.4543552171","0.8385781597","","","","","","","","76","L","3","","","9","main_expt",""
"","bandit","89","622152","0.0-50.0-0.0","77372013","wem/bandit_either_3","A94DL4GI8ZBUO","either","8","215","","","","","","","0","1","0","","0.833356221","0.8","0.4","0.2","0.6","0.1315225434","0.6510952772","0.4523920981","0.833356221","","","","","","","","","","","","76","L","3","","","10","main_expt",""
"","bandit","90","623949","0.0-51.0-0.0","77372013","wem/bandit_either_3","A94DL4GI8ZBUO","either","8","287","","","","","","","1","0","0","0.9030756702","","0.8","0.4","0.2","0.6","","","","","0.1287002637","0.6117649901","0.4053083118","0.9030756702","","","","","","","","76","L","3","","","11","main_expt",""
"","bandit","91","625611","0.0-52.0-0.0","77372013","wem/bandit_either_3","A94DL4GI8ZBUO","either","8","148","","","","","","","1","0","0","0.9129290363","","0.8","0.4","0.2","0.6","","","","","0.1026596936","0.6360746298","0.4059907931","0.9129290363","","","","","","","","76","L","3","","","12","main_expt",""
"","bandit","92","627316","0.0-53.0-0.0","77372013","wem/bandit_either_3","A94DL4GI8ZBUO","either","8","195","","","","","","","1","0","0","0.8638417716","","0.8","0.4","0.2","0.6","","","","","0.1287514256","0.5673960652","0.2934167972","0.8638417716","","","","","","","","76","L","3","","","13","main_expt",""
"","bandit","93","628963","0.0-54.0-0.0","77372013","wem/bandit_either_3","A94DL4GI8ZBUO","either","8","138","","","","","","","1","0","0","0.787806988","","0.8","0.4","0.2","0.6","","","","","0.1786171179","0.6747725803","0.3260927596","0.787806988","","","","","","","","76","L","3","","","14","main_expt",""
"","bandit","94","630633","0.0-55.0-0.0","77372013","wem/bandit_either_3","A94DL4GI8ZBUO","either","8","157","","","","","","","1","0","0","0.7254212376","","0.8","0.4","0.2","0.6","","","","","0.1459410532","0.6277188345","0.3355382734","0.7254212376","","","","","","","","76","L","3","","","15","main_expt",""
"","bandit","95","632241","0.0-56.0-0.0","77372013","wem/bandit_either_3","A94DL4GI8ZBUO","either","8","98","","","","","","","0","0","1","0.7238415528","","0.8","0.4","0.2","0.6","","","","","0.2255600906","0.5435568235","0.3040928121","0.7238415528","","","","","","","","76","L","3","","","16","main_expt",""
"","bandit","96","633961","0.0-57.0-0.0","77372013","wem/bandit_either_3","A94DL4GI8ZBUO","either","8","208","","","","","","","1","0","0","0.7796243455","","0.8","0.4","0.2","0.6","","","","","0.2052013943","0.4180161478","0.2730366263","0.7796243455","","","","","","","","76","L","3","","","17","main_expt",""
"","bandit","97","635671","0.0-58.0-0.0","77372013","wem/bandit_either_3","A94DL4GI8ZBUO","either","8","199","","","","","","","1","0","0","0.6928902724","","0.8","0.4","0.2","0.6","","","","","0.1780354615","0.4961111773","0.4105298721","0.6928902724","","","","","","","","76","L","3","","","18","main_expt",""
"","bandit","98","637391","0.0-59.0-0.0","77372013","wem/bandit_either_3","A94DL4GI8ZBUO","either","8","210","","","","","","","1","0","0","0.7658630901","","0.8","0.4","0.2","0.6","","","","","0.1576496117","0.445530788","0.3586923344","0.7658630901","","","","","","","","76","L","3","","","19","main_expt",""
"","bandit","99","639052","0.0-60.0-0.0","77372013","wem/bandit_either_3","A94DL4GI8ZBUO","either","8","143","","","","","","","1","0","0","0.7584200513","","0.8","0.4","0.2","0.6","","","","","0.1618752313","0.3443163705","0.3220075653","0.7584200513","","","","","","","","76","L","3","","","20","main_expt",""
"","bandit","100","640861","0.0-61.0-0.0","77372013","wem/bandit_either_3","A94DL4GI8ZBUO","either","8","289","","","","","","","1","0","0","0.7727038765","","0.8","0.4","0.2","0.6","","","","","0.2152187387","0.3012808647","0.2729660799","0.7727038765","","","","","","","","76","L","3","","","21","main_expt",""
"","bandit","101","642550","0.0-62.0-0.0","77372013","wem/bandit_either_3","A94DL4GI8ZBUO","either","8","179","","","","","","","0","0","1","0.8152565923","","0.8","0.4","0.2","0.6","","","","","0.3547982299","0.2882062485","0.2712352107","0.8152565923","","","","","","","","76","L","3","","","22","main_expt",""
"","bandit","102","644227","0.0-63.0-0.0","77372013","wem/bandit_either_3","A94DL4GI8ZBUO","either","8","165","","","","","","","1","0","0","0.7537075358","","0.8","0.4","0.2","0.6","","","","","0.323805638","0.2113421372","0.3390855774","0.7537075358","","","","","","","","76","L","3","","","23","main_expt",""
"","bandit","103","645938","0.0-64.0-0.0","77372013","wem/bandit_either_3","A94DL4GI8ZBUO","either","8","202","","","","","","","1","0","0","0.7108822858","","0.8","0.4","0.2","0.6","","","","","0.3588909826","0.2201805416","0.3483259141","0.7108822858","","","","","","","","76","L","3","","","24","main_expt",""
"","bandit","104","647606","0.0-65.0-0.0","77372013","wem/bandit_either_3","A94DL4GI8ZBUO","either","8","157","","","","","","","1","0","0","0.6930515954","","0.8","0.4","0.2","0.6","","","","","0.3885553436","0.2580956466","0.3416976173","0.6930515954","","","","","","","","76","L","3","","","25","main_expt",""
"","bandit","105","649261","0.0-66.0-0.0","77372013","wem/bandit_either_3","A94DL4GI8ZBUO","either","8","145","","","","","","","0","0","1","","0.6905393417","0.8","0.4","0.2","0.6","0.4871556374","0.2153432854","0.4243476322","0.6905393417","","","","","","","","","","","","76","L","3","","","26","main_expt",""
"","bandit","106","650893","0.0-67.0-0.0","77372013","wem/bandit_either_3","A94DL4GI8ZBUO","either","8","121","","","","","","","0","1","0","","0.7531652131","0.8","0.4","0.2","0.6","0.4934119911","0.1727955236","0.5257754898","0.7531652131","","","","","","","","","","","","76","L","3","","","27","main_expt",""
"","bandit","107","652622","0.0-68.0-0.0","77372013","wem/bandit_either_3","A94DL4GI8ZBUO","either","8","215","","","","","","","1","0","0","0.8001777041","","0.8","0.4","0.2","0.6","","","","","0.4322092846","0.1894296703","0.5246232361","0.8001777041","","","","","","","","76","L","3","","","28","main_expt",""
"","bandit","108","654280","0.0-69.0-0.0","77372013","wem/bandit_either_3","A94DL4GI8ZBUO","either","8","147","","","","","","","1","0","0","0.8118404327","","0.8","0.4","0.2","0.6","","","","","0.3459113699","0.2128919211","0.375994784","0.8118404327","","","","","","","","76","L","3","","","29","main_expt",""
"","bandit","109","655823","0.0-70.0-0.0","77372013","wem/bandit_either_3","A94DL4GI8ZBUO","either","8","32","","","","","","","0","1","0","","0.7839534503","0.8","0.4","0.2","0.6","0.280789843","0.206056468","0.2936890161","0.7839534503","","","","","","","","","","","","76","L","3","","","30","main_expt",""
"","bandit","110","657459","0.0-71.0-0.0","77372013","wem/bandit_either_3","A94DL4GI8ZBUO","either","8","125","","","","","","","0","0","1","0.8066372971","","0.8","0.4","0.2","0.6","","","","","0.2613810438","0.1725623241","0.2878812258","0.8066372971","","","","","","","","76","L","3","","","31","main_expt",""
"","bandit","111","659165","0.0-72.0-0.0","77372013","wem/bandit_either_3","A94DL4GI8ZBUO","either","8","194","","","","","","","0","1","0","","0.8049259064","0.8","0.4","0.2","0.6","0.3821585683","0.1629883914","0.2451492808","0.8049259064","","","","","","","","","","","","76","L","3","","","32","main_expt",""
"","bandit","112","660823","0.0-73.0-0.0","77372013","wem/bandit_either_3","A94DL4GI8ZBUO","either","8","146","","","","","","","0","0","1","","0.7891664673","0.8","0.4","0.2","0.6","0.2714925976","0.2107911223","0.2802113289","0.7891664673","","","","","","","","","","","","76","L","3","","","33","main_expt",""
"","bandit","113","662552","0.0-74.0-0.0","77372013","wem/bandit_either_3","A94DL4GI8ZBUO","either","8","217","","","","","","","1","0","0","0.7854278051","","0.8","0.4","0.2","0.6","","","","","0.2755575364","0.1025901997","0.2892342718","0.7854278051","","","","","","","","76","L","3","","","34","main_expt",""
"","bandit","114","664297","0.0-75.0-0.0","77372013","wem/bandit_either_3","A94DL4GI8ZBUO","either","8","234","","","","","","","1","0","0","0.7260182018","","0.8","0.4","0.2","0.6","","","","","0.2697856654","0.1289879153","0.2486893666","0.7260182018","","","","","","","","76","L","3","","","35","main_expt",""
"","bandit","115","665971","0.0-76.0-0.0","77372013","wem/bandit_either_3","A94DL4GI8ZBUO","either","8","162","","","","","","","0","1","0","","0.7910957192","0.8","0.4","0.2","0.6","0.2483646443","0.1645491317","0.3536408983","0.7910957192","","","","","","","","","","","","76","L","3","","","36","main_expt",""
"","bandit","116","667549","0.0-77.0-0.0","77372013","wem/bandit_either_3","A94DL4GI8ZBUO","either","8","68","","","","","","","0","1","0","","0.7996551039","0.8","0.4","0.2","0.6","0.2103950957","0.1698046746","0.2493566902","0.7996551039","","","","","","","","","","","","76","L","3","","","37","main_expt",""
"","bandit","117","669115","0.0-78.0-0.0","77372013","wem/bandit_either_3","A94DL4GI8ZBUO","either","8","56","","","","","","","0","1","0","","0.6717479894","0.8","0.4","0.2","0.6","0.2128944509","0.2281502886","0.2948354516","0.6717479894","","","","","","","","","","","","76","L","3","","","38","main_expt",""
"","bandit","118","670698","0.0-79.0-0.0","77372013","wem/bandit_either_3","A94DL4GI8ZBUO","either","8","70","","","","","","","1","0","0","0.7121128808","","0.8","0.4","0.2","0.6","","","","","0.2965153327","0.1561271762","0.3373274679","0.7121128808","","","","","","","","76","L","3","","","39","main_expt",""
"","bandit","119","672410","0.0-80.0-0.0","77372013","wem/bandit_either_3","A94DL4GI8ZBUO","either","8","200","","","","","","","1","0","0","0.7157410044","","0.8","0.4","0.2","0.6","","","","","0.4447532253","0.1543620621","0.4138768052","0.7157410044","","","","","","","","76","L","3","","","40","main_expt",""
"","bandit","120","674136","0.0-81.0-0.0","77372013","wem/bandit_either_3","A94DL4GI8ZBUO","either","8","214","","","","","","","0","0","1","0.681196038","","0.8","0.4","0.2","0.6","","","","","0.5330008696","0.2271499981","0.438096834","0.681196038","","","","","","","","76","L","3","","","41","main_expt",""
"","bandit","121","675756","0.0-82.0-0.0","77372013","wem/bandit_either_3","A94DL4GI8ZBUO","either","8","108","","","","","","","0","1","0","","0.6504320647","0.8","0.4","0.2","0.6","0.573861049","0.2882452936","0.4185173612","0.6504320647","","","","","","","","","","","","76","L","3","","","42","main_expt",""
"","bandit","122","677374","0.0-83.0-0.0","77372013","wem/bandit_either_3","A94DL4GI8ZBUO","either","8","103","","","","","","","1","0","0","0.7369830744","","0.8","0.4","0.2","0.6","","","","","0.6654349765","0.298522686","0.3796335567","0.7369830744","","","","","","","","76","L","3","","","43","main_expt",""
"","bandit","123","679000","0.0-84.0-0.0","77372013","wem/bandit_either_3","A94DL4GI8ZBUO","either","8","113","","","","","","","0","0","1","0.6797935378","","0.8","0.4","0.2","0.6","","","","","0.691198465","0.3188886026","0.31766129","0.6797935378","","","","","","","","76","L","3","","","44","main_expt",""
"","bandit","124","680589","0.0-85.0-0.0","77372013","wem/bandit_either_3","A94DL4GI8ZBUO","either","8","78","","","","","","","1","0","0","0.6507473666","","0.8","0.4","0.2","0.6","","","","","0.7652674903","0.2705760174","0.4047397141","0.6507473666","","","","","","","","76","L","3","","","45","main_expt",""
"","bandit","125","682136","0.0-86.0-0.0","77372013","wem/bandit_either_3","A94DL4GI8ZBUO","either","8","35","","","","","","","1","0","0","0.6334510787","","0.8","0.4","0.2","0.6","","","","","0.8065230058","0.2506880939","0.4961613307","0.6334510787","","","","","","","","76","L","3","","","46","main_expt",""
"","bandit","126","683770","0.0-87.0-0.0","77372013","wem/bandit_either_3","A94DL4GI8ZBUO","either","8","122","","","","","","","0","0","1","0.6143175143","","0.8","0.4","0.2","0.6","","","","","0.7774474893","0.2491585872","0.4624468315","0.6143175143","","","","","","","","76","L","3","","","47","main_expt",""
"","bandit","127","685362","0.0-88.0-0.0","77372013","wem/bandit_either_3","A94DL4GI8ZBUO","either","8","80","","","","","","","1","0","0","0.6404512611","","0.8","0.4","0.2","0.6","","","","","0.7693176975","0.1997021219","0.4886537242","0.6404512611","","","","","","","","76","L","3","","","48","main_expt",""
"","bandit","128","686989","0.0-89.0-0.0","77372013","wem/bandit_either_3","A94DL4GI8ZBUO","either","8","117","","","","","","","0","1","0","","0.6758621215","0.8","0.4","0.2","0.6","0.807419373","0.2119577724","0.4270302022","0.6758621215","","","","","","","","","","","","76","L","3","","","49","main_expt",""
"","bandit","129","688644","0.0-90.0-0.0","77372013","wem/bandit_either_3","A94DL4GI8ZBUO","either","8","143","","","","","","","0","1","0","","0.6873234502","0.8","0.4","0.2","0.6","0.8562769227","0.2615271711","0.5151345658","0.6873234502","","","","","","","","","","","","76","L","3","","","50","main_expt",""
"","bandit","130","690183","0.0-91.0-0.0","77372013","wem/bandit_either_3","A94DL4GI8ZBUO","either","8","26","","","","","","","1","0","0","0.7776044395","","0.8","0.4","0.2","0.6","","","","","0.8705114925","0.2764427577","0.5134524181","0.7776044395","","","","","","","","76","L","3","","","51","main_expt",""
"","bandit","131","691921","0.0-92.0-0.0","77372013","wem/bandit_either_3","A94DL4GI8ZBUO","either","8","227","","","","","","","1","0","0","0.8403410939","","0.8","0.4","0.2","0.6","","","","","0.9310361031","0.3833776697","0.4842684999","0.8403410939","","","","","","","","76","L","3","","","52","main_expt",""
"","bandit","132","693522","0.0-93.0-0.0","77372013","wem/bandit_either_3","A94DL4GI8ZBUO","either","8","92","","","","","","","0","1","0","","0.8151983534","0.8","0.4","0.2","0.6","0.905794742","0.4356502318","0.4412850773","0.8151983534","","","","","","","","","","","","76","L","3","","","53","main_expt",""
"","bandit","133","695158","0.0-94.0-0.0","77372013","wem/bandit_either_3","A94DL4GI8ZBUO","either","8","123","","","","","","","1","0","0","0.8081222638","","0.8","0.4","0.2","0.6","","","","","0.9391541593","0.4120588364","0.4397693946","0.8081222638","","","","","","","","76","L","3","","","54","main_expt",""
"","bandit","134","696845","0.0-95.0-0.0","77372013","wem/bandit_either_3","A94DL4GI8ZBUO","either","8","175","","","","","","","0","0","1","","0.742009976","0.8","0.4","0.2","0.6","0.9596285882","0.2714296105","0.3928202278","0.742009976","","","","","","","","","","","","76","L","3","","","55","main_expt",""
"","bandit","135","698431","0.0-96.0-0.0","77372013","wem/bandit_either_3","A94DL4GI8ZBUO","either","8","75","","","","","","","1","0","0","0.7065076074","","0.8","0.4","0.2","0.6","","","","","0.9565658233","0.2122311877","0.4593665993","0.7065076074","","","","","","","","76","L","3","","","56","main_expt",""
"","bandit","136","700207","0.0-97.0-0.0","77372013","wem/bandit_either_3","A94DL4GI8ZBUO","either","8","263","","","","","","","0","1","0","","0.6860695476","0.8","0.4","0.2","0.6","0.9681540372","0.2282278588","0.4006145211","0.6860695476","","","","","","","","","","","","76","L","3","","","57","main_expt",""
"","bandit","137","701886","0.0-98.0-0.0","77372013","wem/bandit_either_3","A94DL4GI8ZBUO","either","8","166","","","","","","","0","1","0","","0.742301155","0.8","0.4","0.2","0.6","0.9207083952","0.1392076118","0.4597890412","0.742301155","","","","","","","","","","","","76","L","3","","","58","main_expt",""
"","bandit","138","703640","0.0-99.0-0.0","77372013","wem/bandit_either_3","A94DL4GI8ZBUO","either","8","240","","","","","","","1","0","0","0.5291004622","","0.8","0.4","0.2","0.6","","","","","0.9178227258","0.1706239206","0.4232266093","0.5291004622","","","","","","","","76","L","3","","","59","main_expt",""
"","bandit","139","705929","0.0-100.0-0.0","77372013","wem/bandit_either_3","A94DL4GI8ZBUO","either","8","776","","","","","","","0","0","1","0.6348838793","","0.8","0.4","0.2","0.6","","","","","0.8951285427","0.1674269281","0.3565880291","0.6348838793","","","","","","","","76","L","3","","","60","main_expt",""
"","bandit","140","707602","0.0-101.0-0.0","77372013","wem/bandit_either_3","A94DL4GI8ZBUO","either","8","165","","","","","","","0","0","1","","0.6796423313","0.8","0.4","0.2","0.6","0.8506814954","0.2182313474","0.3663276413","0.6796423313","","","","","","","","","","","","76","L","3","","","61","main_expt",""
"","bandit","141","710347","0.0-102.0-0.0","77372013","wem/bandit_either_3","A94DL4GI8ZBUO","either","8","1232","","","","","","","1","0","0","0.2949218256","","0.8","0.4","0.2","0.6","","","","","0.8513854559","0.2949218256","0.3193005293","0.6928172916","","","","","","","","74","J","1","","","62","main_expt",""
"","bandit","142","711981","0.0-103.0-0.0","77372013","wem/bandit_either_3","A94DL4GI8ZBUO","either","8","124","","","","","","","0","0","1","","0.3170222383","0.8","0.4","0.2","0.6","0.8927579502","0.3170222383","0.1562068481","0.6996506825","","","","","","","","","","","","74","J","1","","","63","main_expt",""
"","bandit","143","713729","0.0-104.0-0.0","77372013","wem/bandit_either_3","A94DL4GI8ZBUO","either","8","237","","","","","","","0","0","1","","0.3033511374","0.8","0.4","0.2","0.6","0.9217936765","0.3033511374","0.2300477965","0.7294442249","","","","","","","","","","","","74","J","1","","","64","main_expt",""
"","bandit","144","715415","0.0-105.0-0.0","77372013","wem/bandit_either_3","A94DL4GI8ZBUO","either","8","174","","","","","","","0","0","1","","0.2869838185","0.8","0.4","0.2","0.6","0.9357047413","0.3973690147","0.2869838185","0.6605354899","","","","","","","","","","","","75","K","2","","","65","main_expt",""
"","bandit","145","717195","0.0-106.0-0.0","77372013","wem/bandit_either_3","A94DL4GI8ZBUO","either","8","267","","","","","","","0","0","1","0.3287476356","","0.8","0.4","0.2","0.6","","","","","0.910343843","0.4320294497","0.3287476356","0.6959621059","","","","","","","","75","K","2","","","66","main_expt",""
"","bandit","146","718992","0.0-107.0-0.0","77372013","wem/bandit_either_3","A94DL4GI8ZBUO","either","8","284","","","","","","","1","0","0","0.9022080512","","0.8","0.4","0.2","0.6","","","","","0.9022080512","0.3208465419","0.3018365728","0.653899752","","","","","","","","72","H","0","img/none_selected.jpg","","67","main_expt",""
"","bandit","147","720697","0.0-108.0-0.0","77372013","wem/bandit_either_3","A94DL4GI8ZBUO","either","8","191","","","","","","","1","0","0","0.8492414063","","0.8","0.4","0.2","0.6","","","","","0.8492414063","0.3570730799","0.3208616414","0.6517851336","","","","","","","","72","H","0","img/none_selected.jpg","","68","main_expt",""
"","bandit","148","722426","0.0-109.0-0.0","77372013","wem/bandit_either_3","A94DL4GI8ZBUO","either","8","218","","","","","","","0","0","1","","0.768219052","0.8","0.4","0.2","0.6","0.768219052","0.3451514791","0.386863802","0.7011615004","","","","","","","","","","","","72","H","0","img/none_selected.jpg","","69","main_expt",""
"","bandit","149","724198","0.0-110.0-0.0","77372013","wem/bandit_either_3","A94DL4GI8ZBUO","either","8","258","","","","","","","0","0","1","","0.7996218848","0.8","0.4","0.2","0.6","0.7996218848","0.3127714871","0.3628244161","0.6278947594","","","","","","","","","","","","72","H","0","img/none_selected.jpg","","70","main_expt",""
"","bandit","150","725851","0.0-111.0-0.0","77372013","wem/bandit_either_3","A94DL4GI8ZBUO","either","8","140","","","","","","","0","1","0","","0.9130189757","0.8","0.4","0.2","0.6","0.9130189757","0.3855297895","0.2969295023","0.688517509","","","","","","","","","","","","72","H","0","img/none_selected.jpg","","71","main_expt",""
"","bandit","151","727603","0.0-112.0-0.0","77372013","wem/bandit_either_3","A94DL4GI8ZBUO","either","8","240","","","","","","","1","0","0","0.9016843832","","0.8","0.4","0.2","0.6","","","","","0.9016843832","0.3555010044","0.3512325323","0.6125440106","","","","","","","","72","H","0","img/none_selected.jpg","","72","main_expt",""
"","bandit","152","729241","0.0-113.0-0.0","77372013","wem/bandit_either_3","A94DL4GI8ZBUO","either","8","125","","","","","","","1","0","0","0.9166584401","","0.8","0.4","0.2","0.6","","","","","0.9166584401","0.3278360739","0.3845321254","0.4884410468","","","","","","","","72","H","0","img/none_selected.jpg","","73","main_expt",""
"","bandit","153","730966","0.0-114.0-0.0","77372013","wem/bandit_either_3","A94DL4GI8ZBUO","either","8","213","","","","","","","1","0","0","0.8699410266","","0.8","0.4","0.2","0.6","","","","","0.8699410266","0.3275161349","0.3760614253","0.5800760741","","","","","","","","72","H","0","img/none_selected.jpg","","74","main_expt",""
"","bandit","154","732715","0.0-115.0-0.0","77372013","wem/bandit_either_3","A94DL4GI8ZBUO","either","8","235","","","","","","","0","0","1","0.8192171788","","0.8","0.4","0.2","0.6","","","","","0.8192171788","0.3454333807","0.370831352","0.6614390465","","","","","","","","72","H","0","img/none_selected.jpg","","75","main_expt",""
"","bandit","155","734423","0.0-116.0-0.0","77372013","wem/bandit_either_3","A94DL4GI8ZBUO","either","8","196","","","","","","","1","0","0","0.8990587115","","0.8","0.4","0.2","0.6","","","","","0.8990587115","0.4213924804","0.4008199491","0.6861570843","","","","","","","","72","H","0","img/none_selected.jpg","","76","main_expt",""
"","bandit","156","736133","0.0-117.0-0.0","77372013","wem/bandit_either_3","A94DL4GI8ZBUO","either","8","195","","","","","","","1","0","0","0.9062137116","","0.8","0.4","0.2","0.6","","","","","0.9062137116","0.439510692","0.3928984844","0.5980737028","","","","","","","","72","H","0","img/none_selected.jpg","","77","main_expt",""
"","bandit","157","737867","0.0-118.0-0.0","77372013","wem/bandit_either_3","A94DL4GI8ZBUO","either","8","222","","","","","","","0","1","0","","0.9215914722","0.8","0.4","0.2","0.6","0.9215914722","0.4419424199","0.4709058574","0.6754083514","","","","","","","","","","","","72","H","0","img/none_selected.jpg","","78","main_expt",""
"","bandit","158","739460","0.0-119.0-0.0","77372013","wem/bandit_either_3","A94DL4GI8ZBUO","either","8","80","","","","","","","1","0","0","0.895443078","","0.8","0.4","0.2","0.6","","","","","0.895443078","0.5056762283","0.4971614577","0.7012934339","","","","","","","","72","H","0","img/none_selected.jpg","","79","main_expt",""
"","bandit","159","741216","0.0-120.0-0.0","77372013","wem/bandit_either_3","A94DL4GI8ZBUO","either","8","242","","","","","","","0","1","0","","0.7789772955","0.8","0.4","0.2","0.6","0.7789772955","0.4558190996","0.4828267768","0.7067798052","","","","","","","","","","","","72","H","0","img/none_selected.jpg","","80","main_expt",""
"","bandit","160","742952","0.0-121.0-0.0","77372013","wem/bandit_either_3","A94DL4GI8ZBUO","either","8","223","","","","","","","1","0","0","0.755426824","","0.8","0.4","0.2","0.6","","","","","0.755426824","0.4774921548","0.4280570329","0.7259433061","","","","","","","","72","H","0","img/none_selected.jpg","","81","main_expt",""
"","bandit","161","744651","0.0-122.0-0.0","77372013","wem/bandit_either_3","A94DL4GI8ZBUO","either","8","188","","","","","","","0","1","0","","0.8356426425","0.8","0.4","0.2","0.6","0.8356426425","0.3611036613","0.486136241","0.7022130872","","","","","","","","","","","","72","H","0","img/none_selected.jpg","","82","main_expt",""
"","bandit","162","746363","0.0-123.0-0.0","77372013","wem/bandit_either_3","A94DL4GI8ZBUO","either","8","199","","","","","","","1","0","0","0.8783145762","","0.8","0.4","0.2","0.6","","","","","0.8783145762","0.3341354767","0.3539143083","0.75927227","","","","","","","","72","H","0","img/none_selected.jpg","","83","main_expt",""
"","bandit","163","748112","0.0-124.0-0.0","77372013","wem/bandit_either_3","A94DL4GI8ZBUO","either","8","234","","","","","","","1","0","0","0.9087743635","","0.8","0.4","0.2","0.6","","","","","0.9087743635","0.288479151","0.374811954","0.8556046088","","","","","","","","72","H","0","img/none_selected.jpg","","84","main_expt",""
"","bandit","164","749774","0.0-125.0-0.0","77372013","wem/bandit_either_3","A94DL4GI8ZBUO","either","8","148","","","","","","","1","0","0","0.8632011641","","0.8","0.4","0.2","0.6","","","","","0.8632011641","0.3061923995","0.4518264681","0.7835234447","","","","","","","","72","H","0","img/none_selected.jpg","","85","main_expt",""
"","bandit","165","751492","0.0-126.0-0.0","77372013","wem/bandit_either_3","A94DL4GI8ZBUO","either","8","205","","","","","","","1","0","0","0.8341253046","","0.8","0.4","0.2","0.6","","","","","0.8341253046","0.3370204437","0.461936863","0.7037548709","","","","","","","","72","H","0","img/none_selected.jpg","","86","main_expt",""
"","bandit","166","753237","0.0-127.0-0.0","77372013","wem/bandit_either_3","A94DL4GI8ZBUO","either","8","232","","","","","","","1","0","0","0.8728746981","","0.8","0.4","0.2","0.6","","","","","0.8728746981","0.3900809043","0.3681660755","0.6903674631","","","","","","","","72","H","0","img/none_selected.jpg","","87","main_expt",""
"","bandit","167","754943","0.0-128.0-0.0","77372013","wem/bandit_either_3","A94DL4GI8ZBUO","either","8","192","","","","","","","0","0","1","0.8408980459","","0.8","0.4","0.2","0.6","","","","","0.8408980459","0.4296615172","0.3788462328","0.5883284312","","","","","","","","72","H","0","img/none_selected.jpg","","88","main_expt",""
"","bandit","168","756552","0.0-129.0-0.0","77372013","wem/bandit_either_3","A94DL4GI8ZBUO","either","8","97","","","","","","","0","1","0","","0.8585781628","0.8","0.4","0.2","0.6","0.8585781628","0.4636560077","0.3316952272","0.5258490985","","","","","","","","","","","","72","H","0","img/none_selected.jpg","","89","main_expt",""
"","bandit","169","758265","0.0-130.0-0.0","77372013","wem/bandit_either_3","A94DL4GI8ZBUO","either","8","199","","","","","","","1","0","0","0.925840658","","0.8","0.4","0.2","0.6","","","","","0.925840658","0.4463585346","0.438068917","0.6395041767","","","","","","","","72","H","0","img/none_selected.jpg","","90","main_expt",""
"","bandit","170","759987","0.0-131.0-0.0","77372013","wem/bandit_either_3","A94DL4GI8ZBUO","either","8","210","","","","","","","1","0","0","0.9201841885","","0.8","0.4","0.2","0.6","","","","","0.9201841885","0.4734463503","0.5158843935","0.6931091445","","","","","","","","72","H","0","img/none_selected.jpg","","91","main_expt",""
"","bandit","171","761701","0.0-132.0-0.0","77372013","wem/bandit_either_3","A94DL4GI8ZBUO","either","8","199","","","","","","","1","0","0","0.8508076908","","0.8","0.4","0.2","0.6","","","","","0.8508076908","0.5248255385","0.5182757575","0.6725373887","","","","","","","","72","H","0","img/none_selected.jpg","","92","main_expt",""
"","bandit","172","763449","0.0-133.0-0.0","77372013","wem/bandit_either_3","A94DL4GI8ZBUO","either","8","241","","","","","","","1","0","0","0.8106711147","","0.8","0.4","0.2","0.6","","","","","0.8106711147","0.3386726181","0.5498130742","0.7388835399","","","","","","","","72","H","0","img/none_selected.jpg","","93","main_expt",""
"","bandit","173","765191","0.0-134.0-0.0","77372013","wem/bandit_either_3","A94DL4GI8ZBUO","either","8","226","","","","","","","1","0","0","0.8543263914","","0.8","0.4","0.2","0.6","","","","","0.8543263914","0.3718894848","0.6049407638","0.697373586","","","","","","","","72","H","0","img/none_selected.jpg","","94","main_expt",""
"","bandit","174","766912","0.0-135.0-0.0","77372013","wem/bandit_either_3","A94DL4GI8ZBUO","either","8","207","","","","","","","0","1","0","","0.8387782901","0.8","0.4","0.2","0.6","0.8387782901","0.4005278521","0.6604115927","0.7550322224","","","","","","","","","","","","72","H","0","img/none_selected.jpg","","95","main_expt",""
"","bandit","175","768663","0.0-136.0-0.0","77372013","wem/bandit_either_3","A94DL4GI8ZBUO","either","8","231","","","","","","","1","0","0","0.8208071174","","0.8","0.4","0.2","0.6","","","","","0.8208071174","0.3694595514","0.7003847986","0.6576962358","","","","","","","","72","H","0","img/none_selected.jpg","","96","main_expt",""
"","bandit","176","770371","0.0-137.0-0.0","77372013","wem/bandit_either_3","A94DL4GI8ZBUO","either","8","195","","","","","","","1","0","0","0.765358829","","0.8","0.4","0.2","0.6","","","","","0.765358829","0.3186037095","0.6793148949","0.6802484638","","","","","","","","72","H","0","img/none_selected.jpg","","97","main_expt",""
"","bandit","177","772126","0.0-138.0-0.0","77372013","wem/bandit_either_3","A94DL4GI8ZBUO","either","8","240","","","","","","","1","0","0","0.7823463211","","0.8","0.4","0.2","0.6","","","","","0.7823463211","0.2786717818","0.6204607354","0.7042077447","","","","","","","","72","H","0","img/none_selected.jpg","","98","main_expt",""
"","bandit","178","773765","0.0-139.0-0.0","77372013","wem/bandit_either_3","A94DL4GI8ZBUO","either","8","125","","","","","","","1","0","0","0.7523003034","","0.8","0.4","0.2","0.6","","","","","0.7523003034","0.32929866","0.6166262367","0.7355617892","","","","","","","","72","H","0","img/none_selected.jpg","","99","main_expt",""
"","bandit","179","775381","0.0-140.0-0.0","77372013","wem/bandit_either_3","A94DL4GI8ZBUO","either","8","103","","","","","","","0","1","0","","0.7174790615","0.8","0.4","0.2","0.6","0.7174790615","0.3115323478","0.5347115766","0.7117411671","","","","","","","","","","","","72","H","0","img/none_selected.jpg","","100","main_expt",""
"","bandit","180","777097","0.0-141.0-0.0","77372013","wem/bandit_either_3","A94DL4GI8ZBUO","either","8","203","","","","","","","1","0","0","0.7660578318","","0.8","0.4","0.2","0.6","","","","","0.7660578318","0.4221749579","0.3418016043","0.7263903312","","","","","","","","72","H","0","img/none_selected.jpg","","101","main_expt",""
"","bandit","181","778730","0.0-142.0-0.0","77372013","wem/bandit_either_3","A94DL4GI8ZBUO","either","8","121","","","","","","","1","0","0","0.7201180075","","0.8","0.4","0.2","0.6","","","","","0.7201180075","0.2718078598","0.2550922237","0.7357346189","","","","","","","","72","H","0","img/none_selected.jpg","","102","main_expt",""
"","bandit","182","780450","0.0-143.0-0.0","77372013","wem/bandit_either_3","A94DL4GI8ZBUO","either","8","207","","","","","","","0","1","0","","0.8452780714","0.8","0.4","0.2","0.6","0.8452780714","0.3011307106","0.3181696353","0.7026134783","","","","","","","","","","","","72","H","0","img/none_selected.jpg","","103","main_expt",""
"","bandit","183","781987","0.0-144.0-0.0","77372013","wem/bandit_either_3","A94DL4GI8ZBUO","either","8","23","","","","","","","1","0","0","0.7236924273","","0.8","0.4","0.2","0.6","","","","","0.7236924273","0.3659291838","0.3383579412","0.8073666152","","","","","","","","72","H","0","img/none_selected.jpg","","104","main_expt",""
"","bandit","184","783909","0.0-145.0-0.0","77372013","wem/bandit_either_3","A94DL4GI8ZBUO","either","8","409","","","","","","","1","0","0","0.743719778","","0.8","0.4","0.2","0.6","","","","","0.743719778","0.3499435223","0.2354673658","0.824483439","","","","","","","","72","H","0","img/none_selected.jpg","","105","main_expt",""
"","bandit","185","785660","0.0-146.0-0.0","77372013","wem/bandit_either_3","A94DL4GI8ZBUO","either","8","239","","","","","","","1","0","0","0.7985687284","","0.8","0.4","0.2","0.6","","","","","0.7985687284","0.3602262465","0.159398249","0.9208810438","","","","","","","","72","H","0","img/none_selected.jpg","","106","main_expt",""
"","bandit","186","787428","0.0-147.0-0.0","77372013","wem/bandit_either_3","A94DL4GI8ZBUO","either","8","255","","","","","","","0","1","0","","0.799345197","0.8","0.4","0.2","0.6","0.799345197","0.3252215163","0.1295169146","0.8911910097","","","","","","","","","","","","72","H","0","img/none_selected.jpg","","107","main_expt",""
"","bandit","187","789074","0.0-148.0-0.0","77372013","wem/bandit_either_3","A94DL4GI8ZBUO","either","8","131","","","","","","","1","0","0","0.8681690713","","0.8","0.4","0.2","0.6","","","","","0.8681690713","0.2812406992","0.07754053308","0.8450149587","","","","","","","","72","H","0","img/none_selected.jpg","","108","main_expt",""
"","bandit","188","790834","0.0-149.0-0.0","77372013","wem/bandit_either_3","A94DL4GI8ZBUO","either","8","247","","","","","","","1","0","0","0.8556732204","","0.8","0.4","0.2","0.6","","","","","0.8556732204","0.2559497519","0.06591215473","0.868327257","","","","","","","","72","H","0","img/none_selected.jpg","","109","main_expt",""
"","bandit","189","792557","0.0-150.0-0.0","77372013","wem/bandit_either_3","A94DL4GI8ZBUO","either","8","209","","","","","","","1","0","0","0.8669893864","","0.8","0.4","0.2","0.6","","","","","0.8669893864","0.2817400418","0.1189546392","0.8868335222","","","","","","","","72","H","0","img/none_selected.jpg","","110","main_expt",""
"","bandit","190","794247","0.0-151.0-0.0","77372013","wem/bandit_either_3","A94DL4GI8ZBUO","either","8","176","","","","","","","1","0","0","0.799383849","","0.8","0.4","0.2","0.6","","","","","0.799383849","0.2773620367","0.09523351692","0.8770728171","","","","","","","","72","H","0","img/none_selected.jpg","","111","main_expt",""
"","bandit","191","796002","0.0-152.0-0.0","77372013","wem/bandit_either_3","A94DL4GI8ZBUO","either","8","243","","","","","","","1","0","0","0.859799476","","0.8","0.4","0.2","0.6","","","","","0.859799476","0.2833316415","0.107489667","0.8481710002","","","","","","","","72","H","0","img/none_selected.jpg","","112","main_expt",""
"","bandit","192","797660","0.0-153.0-0.0","77372013","wem/bandit_either_3","A94DL4GI8ZBUO","either","8","143","","","","","","","0","0","1","0.7932436089","","0.8","0.4","0.2","0.6","","","","","0.7932436089","0.3433702059","0.1026187258","0.8573528835","","","","","","","","72","H","0","img/none_selected.jpg","","113","main_expt",""
"","bandit","193","799429","0.0-154.0-0.0","77372013","wem/bandit_either_3","A94DL4GI8ZBUO","either","8","254","","","","","","","1","0","0","0.849407262","","0.8","0.4","0.2","0.6","","","","","0.849407262","0.4828882278","0.1044839951","0.8291807482","","","","","","","","72","H","0","img/none_selected.jpg","","114","main_expt",""
"","bandit","194","801155","0.0-155.0-0.0","77372013","wem/bandit_either_3","A94DL4GI8ZBUO","either","8","213","","","","","","","0","1","0","","0.8882716547","0.8","0.4","0.2","0.6","0.8882716547","0.54932579","0.1213931844","0.761972944","","","","","","","","","","","","72","H","0","img/none_selected.jpg","","115","main_expt",""
"","bandit","195","802911","0.0-156.0-0.0","77372013","wem/bandit_either_3","A94DL4GI8ZBUO","either","8","242","","","","","","","1","0","0","0.8741354715","","0.8","0.4","0.2","0.6","","","","","0.8741354715","0.6971345968","0.1184144227","0.786197192","","","","","","","","72","H","0","img/none_selected.jpg","","116","main_expt",""
"","bandit","196","804584","0.0-157.0-0.0","77372013","wem/bandit_either_3","A94DL4GI8ZBUO","either","8","159","","","","","","","1","0","0","0.8083823922","","0.8","0.4","0.2","0.6","","","","","0.8083823922","0.5396272374","0.1983931569","0.7834453561","","","","","","","","72","H","0","img/none_selected.jpg","","117","main_expt",""
"","bandit","197","806330","0.0-158.0-0.0","77372013","wem/bandit_either_3","A94DL4GI8ZBUO","either","8","231","","","","","","","1","0","0","0.868525306","","0.8","0.4","0.2","0.6","","","","","0.868525306","0.5544567993","0.2840039584","0.6742380839","","","","","","","","72","H","0","img/none_selected.jpg","","118","main_expt",""
"","bandit","198","807966","0.0-159.0-0.0","77372013","wem/bandit_either_3","A94DL4GI8ZBUO","either","8","122","","","","","","","0","1","0","","0.8386471998","0.8","0.4","0.2","0.6","0.8386471998","0.5504896642","0.3563325119","0.7350700153","","","","","","","","","","","","72","H","0","img/none_selected.jpg","","119","main_expt",""
"","bandit","199","809659","0.0-160.0-0.0","77372013","wem/bandit_either_3","A94DL4GI8ZBUO","either","8","178","","","","","","","1","0","0","0.8103559508","","0.8","0.4","0.2","0.6","","","","","0.8103559508","0.5812137135","0.5682387565","0.70601835","","","","","","","","72","H","0","img/none_selected.jpg","","120","main_expt",""
"","bandit","200","811427","0.0-161.0-0.0","77372013","wem/bandit_either_3","A94DL4GI8ZBUO","either","8","252","","","","","","","1","0","0","0.8193015173","","0.8","0.4","0.2","0.6","","","","","0.8193015173","0.6033058466","0.5189107771","0.7347719752","","","","","","","","72","H","0","img/none_selected.jpg","","121","main_expt",""
"","bandit","201","813217","0.0-162.0-0.0","77372013","wem/bandit_either_3","A94DL4GI8ZBUO","either","8","276","","","","","","","1","0","0","0.8025146027","","0.8","0.4","0.2","0.6","","","","","0.8025146027","0.6102220397","0.4428493372","0.8270923978","","","","","","","","72","H","0","img/none_selected.jpg","","122","main_expt",""
"","bandit","202","814811","0.0-163.0-0.0","77372013","wem/bandit_either_3","A94DL4GI8ZBUO","either","8","86","","","","","","","1","0","0","0.8121847492","","0.8","0.4","0.2","0.6","","","","","0.8121847492","0.6108151959","0.472724465","0.7980631313","","","","","","","","72","H","0","img/none_selected.jpg","","123","main_expt",""
"","bandit","203","816554","0.0-164.0-0.0","77372013","wem/bandit_either_3","A94DL4GI8ZBUO","either","8","231","","","","","","","0","1","0","","0.8299418439","0.8","0.4","0.2","0.6","0.8299418439","0.7117385939","0.4799585558","0.7369852887","","","","","","","","","","","","72","H","0","img/none_selected.jpg","","124","main_expt",""
"","bandit","204","818387","0.0-165.0-0.0","77372013","wem/bandit_either_3","A94DL4GI8ZBUO","either","8","249","","","","","","","1","0","0","0.825688343","","0.8","0.4","0.2","0.6","","","","","0.825688343","0.7554186078","0.5080184993","0.7465944313","","","","","","","","72","H","0","img/none_selected.jpg","","125","main_expt",""
"","bandit","205","820145","0.0-166.0-0.0","77372013","wem/bandit_either_3","A94DL4GI8ZBUO","either","8","249","","","","","","","0","0","1","0.8372054396","","0.8","0.4","0.2","0.6","","","","","0.8372054396","0.8855751833","0.4555098289","0.7596834852","","","","","","","","72","H","0","img/none_selected.jpg","","126","main_expt",""
"","bandit","206","821963","0.0-167.0-0.0","77372013","wem/bandit_either_3","A94DL4GI8ZBUO","either","8","309","","","","","","","1","0","0","0.7906689898","","0.8","0.4","0.2","0.6","","","","","0.7906689898","0.8003015049","0.5475411796","0.7398299979","","","","","","","","72","H","0","img/none_selected.jpg","","127","main_expt",""
"","bandit","207","823740","0.0-168.0-0.0","77372013","wem/bandit_either_3","A94DL4GI8ZBUO","either","8","263","","","","","","","0","0","1","0.8008571507","","0.8","0.4","0.2","0.6","","","","","0.8008571507","0.8403113951","0.612647382","0.7764866849","","","","","","","","72","H","0","img/none_selected.jpg","","128","main_expt",""
"","bandit","208","825562","0.0-169.0-0.0","77372013","wem/bandit_either_3","A94DL4GI8ZBUO","either","8","307","","","","","","","1","0","0","0.7829297973","","0.8","0.4","0.2","0.6","","","","","0.7829297973","0.8826872071","0.7128970287","0.6435675963","","","","","","","","72","H","0","img/none_selected.jpg","","129","main_expt",""
"","bandit","209","827296","0.0-170.0-0.0","77372013","wem/bandit_either_3","A94DL4GI8ZBUO","either","8","219","","","","","","","1","0","0","0.6898445721","","0.8","0.4","0.2","0.6","","","","","0.6898445721","0.8641000085","0.7309911721","0.7030252038","","","","","","","","72","H","0","img/none_selected.jpg","","130","main_expt",""
"","bandit","210","829002","0.0-171.0-0.0","77372013","wem/bandit_either_3","A94DL4GI8ZBUO","either","8","190","","","","","","","0","0","1","","0.5864867529","0.8","0.4","0.2","0.6","0.5864867529","0.8752037592","0.73180147","0.6829232191","","","","","","","","","","","","72","H","0","img/none_selected.jpg","","131","main_expt",""
"","bandit","211","830677","0.0-172.0-0.0","77372013","wem/bandit_either_3","A94DL4GI8ZBUO","either","8","160","","","","","","","1","0","0","0.560122833","","0.8","0.4","0.2","0.6","","","","","0.560122833","0.8279556795","0.8467134838","0.7406452387","","","","","","","","72","H","0","img/none_selected.jpg","","132","main_expt",""
"","bandit","212","832416","0.0-173.0-0.0","77372013","wem/bandit_either_3","A94DL4GI8ZBUO","either","8","225","","","","","","","0","0","1","0.48439517","","0.8","0.4","0.2","0.6","","","","","0.48439517","0.8194722428","0.8481264083","0.6666234363","","","","","","","","72","H","0","img/none_selected.jpg","","133","main_expt",""
"","bandit","213","834352","0.0-174.0-0.0","77372013","wem/bandit_either_3","A94DL4GI8ZBUO","either","8","421","","","","","","","0","1","0","","0.8037084922","0.8","0.4","0.2","0.6","0.3919863126","0.8037084922","0.8771050955","0.680542061","","","","","","","","","","","","74","J","1","","","134","main_expt",""
"","bandit","214","836135","0.0-175.0-0.0","77372013","wem/bandit_either_3","A94DL4GI8ZBUO","either","8","269","","","","","","","1","0","0","0.8155916457","","0.8","0.4","0.2","0.6","","","","","0.5174750093","0.8155916457","0.9103241533","0.7006187635","","","","","","","","74","J","1","","","135","main_expt",""
"","bandit","215","837931","0.0-176.0-0.0","77372013","wem/bandit_either_3","A94DL4GI8ZBUO","either","8","282","","","","","","","0","1","0","","0.8281957705","0.8","0.4","0.2","0.6","0.4264762493","0.8281957705","0.9126032517","0.6936815578","","","","","","","","","","","","74","J","1","","","136","main_expt",""
"","bandit","216","839700","0.0-177.0-0.0","77372013","wem/bandit_either_3","A94DL4GI8ZBUO","either","8","260","","","","","","","0","0","1","","0.7055403129","0.8","0.4","0.2","0.6","0.5351999402","0.7055403129","0.8983360858","0.6531428085","","","","","","","","","","","","74","J","1","","","137","main_expt",""
"","bandit","217","841467","0.0-178.0-0.0","77372013","wem/bandit_either_3","A94DL4GI8ZBUO","either","8","251","","","","","","","0","0","1","0.6884351598","","0.8","0.4","0.2","0.6","","","","","0.4758748922","0.6884351598","0.8851370462","0.6769758131","","","","","","","","74","J","1","","","138","main_expt",""
"","bandit","218","843168","0.0-179.0-0.0","77372013","wem/bandit_either_3","A94DL4GI8ZBUO","either","8","187","","","","","","","1","0","0","0.6090423031","","0.8","0.4","0.2","0.6","","","","","0.4039793023","0.6090423031","0.8662270416","0.7649589049","","","","","","","","74","J","1","","","139","main_expt",""
"","bandit","219","844956","0.0-180.0-0.0","77372013","wem/bandit_either_3","A94DL4GI8ZBUO","either","8","272","","","","","","","1","0","0","0.7000077187","","0.8","0.4","0.2","0.6","","","","","0.384774136","0.7000077187","0.8345767194","0.7674202191","","","","","","","","74","J","1","","","140","main_expt",""
"","bandit","220","846754","0.0-181.0-0.0","77372013","wem/bandit_either_3","A94DL4GI8ZBUO","either","8","285","","","","","","","0","1","0","","0.6643185619","0.8","0.4","0.2","0.6","0.327254859","0.6643185619","0.8783670964","0.8575114448","","","","","","","","","","","","74","J","1","","","141","main_expt",""
"","bandit","221","848517","0.0-182.0-0.0","77372013","wem/bandit_either_3","A94DL4GI8ZBUO","either","8","248","","","","","","","0","1","0","","0.7079845674","0.8","0.4","0.2","0.6","0.4536641492","0.7079845674","0.8895828315","0.8134430427","","","","","","","","","","","","74","J","1","","","142","main_expt",""
"","bandit","222","850437","0.0-183.0-0.0","77372013","wem/bandit_either_3","A94DL4GI8ZBUO","either","8","405","","","","","","","0","1","0","","0.6624187643","0.8","0.4","0.2","0.6","0.4348486293","0.6624187643","0.9053928798","0.8345505038","","","","","","","","","","","","74","J","1","","","143","main_expt",""
"","bandit","223","852256","0.0-184.0-0.0","77372013","wem/bandit_either_3","A94DL4GI8ZBUO","either","8","304","","","","","","","0","1","0","","0.6779247185","0.8","0.4","0.2","0.6","0.4086594597","0.6779247185","0.9033088386","0.7482817554","","","","","","","","","","","","74","J","1","","","144","main_expt",""
"","bandit","224","854066","0.0-185.0-0.0","77372013","wem/bandit_either_3","A94DL4GI8ZBUO","either","8","294","","","","","","","1","0","0","0.7216102374","","0.8","0.4","0.2","0.6","","","","","0.4420772456","0.7216102374","0.8572864227","0.7400387939","","","","","","","","74","J","1","","","145","main_expt",""
"","bandit","225","855812","0.0-186.0-0.0","77372013","wem/bandit_either_3","A94DL4GI8ZBUO","either","8","231","","","","","","","0","0","1","","0.7837267619","0.8","0.4","0.2","0.6","0.508741462","0.7837267619","0.8687508917","0.795971973","","","","","","","","","","","","74","J","1","","","146","main_expt",""
"","bandit","226","857556","0.0-187.0-0.0","77372013","wem/bandit_either_3","A94DL4GI8ZBUO","either","8","229","","","","","","","0","1","0","","0.7652264833","0.8","0.4","0.2","0.6","0.4624398998","0.7652264833","0.8657621525","0.7503502301","","","","","","","","","","","","74","J","1","","","147","main_expt",""
"","bandit","227","859308","0.0-188.0-0.0","77372013","wem/bandit_either_3","A94DL4GI8ZBUO","either","8","236","","","","","","","0","1","0","","0.7358716413","0.8","0.4","0.2","0.6","0.4062589849","0.7358716413","0.8362891365","0.8200474043","","","","","","","","","","","","74","J","1","","","148","main_expt",""
"","bandit","228","861019","0.0-189.0-0.0","77372013","wem/bandit_either_3","A94DL4GI8ZBUO","either","8","195","","","","","","","1","0","0","0.7129200786","","0.8","0.4","0.2","0.6","","","","","0.4895331913","0.7129200786","0.8144386017","0.8509010271","","","","","","","","74","J","1","","","149","main_expt",""
"","bandit","229","862748","0.0-190.0-0.0","77372013","wem/bandit_either_3","A94DL4GI8ZBUO","either","8","217","","","","","","","1","0","0","0.705531668","","0.8","0.4","0.2","0.6","","","","","0.4704746919","0.705531668","0.6948055455","0.8298908313","","","","","","","","74","J","1","","","150","main_expt",""
"","bandit","230","864492","0.0-191.0-0.0","77372013","wem/bandit_either_3","A94DL4GI8ZBUO","either","8","229","","","","","","","0","0","1","0.5744604188","","0.8","0.4","0.2","0.6","","","","","0.4725745774","0.5744604188","0.6231991314","0.7362749002","","","","","","","","74","J","1","","","151","main_expt",""
"","bandit","231","866149","0.0-192.0-0.0","77372013","wem/bandit_either_3","A94DL4GI8ZBUO","either","8","142","","","","","","","0","1","0","","0.5372669321","0.8","0.4","0.2","0.6","0.4943906398","0.5372669321","0.7045057733","0.7601791643","","","","","","","","","","","","74","J","1","","","152","main_expt",""
"","bandit","232","867830","0.0-193.0-0.0","77372013","wem/bandit_either_3","A94DL4GI8ZBUO","either","8","166","","","","","","","0","1","0","","0.5447545218","0.8","0.4","0.2","0.6","0.4639524782","0.5447545218","0.5331338622","0.7590648118","","","","","","","","","","","","74","J","1","","","153","main_expt",""
"","bandit","233","869573","0.0-194.0-0.0","77372013","wem/bandit_either_3","A94DL4GI8ZBUO","either","8","227","","","","","","","1","0","0","0.4191749193","","0.8","0.4","0.2","0.6","","","","","0.3935792086","0.4191749193","0.5096720896","0.7805387907","","","","","","","","74","J","1","","","154","main_expt",""
"","bandit","234","871322","0.0-195.0-0.0","77372013","wem/bandit_either_3","A94DL4GI8ZBUO","either","8","234","","","","","","","0","1","0","","0.4269770229","0.8","0.4","0.2","0.6","0.4127348605","0.4269770229","0.4719011365","0.8450805748","","","","","","","","","","","","74","J","1","","","155","main_expt",""
"","bandit","235","873071","0.0-196.0-0.0","77372013","wem/bandit_either_3","A94DL4GI8ZBUO","either","8","232","","","","","","","1","0","0","0.4589862704","","0.8","0.4","0.2","0.6","","","","","0.3697675558","0.4589862704","0.5818713095","0.8513110265","","","","","","","","74","J","1","","","156","main_expt",""
"","bandit","236","874796","0.0-197.0-0.0","77372013","wem/bandit_either_3","A94DL4GI8ZBUO","either","8","210","","","","","","","0","0","1","","0.5370818316","0.8","0.4","0.2","0.6","0.3604398023","0.5370818316","0.5804022203","0.8226236001","","","","","","","","","","","","74","J","1","","","157","main_expt",""
"","bandit","237","876551","0.0-198.0-0.0","77372013","wem/bandit_either_3","A94DL4GI8ZBUO","either","8","238","","","","","","","1","0","0","0.4757376888","","0.8","0.4","0.2","0.6","","","","","0.4061750625","0.4757376888","0.4773166223","0.8843141367","","","","","","","","74","J","1","","","158","main_expt",""
"","bandit","238","878361","0.0-199.0-0.0","77372013","wem/bandit_either_3","A94DL4GI8ZBUO","either","8","295","","","","","","","0","1","0","","0.4887287223","0.8","0.4","0.2","0.6","0.4696417586","0.4887287223","0.419048585","0.8078798749","","","","","","","","","","","","74","J","1","","","159","main_expt",""
"","bandit","239","880104","0.0-200.0-0.0","77372013","wem/bandit_either_3","A94DL4GI8ZBUO","either","8","229","","","","","","","0","0","1","","0.4588489809","0.8","0.4","0.2","0.6","0.4659569923","0.4588489809","0.4672574386","0.7689164465","","","","","","","","","","","","74","J","1","","","160","main_expt",""
"","bandit","240","881896","0.0-201.0-0.0","77372013","wem/bandit_either_3","A94DL4GI8ZBUO","either","8","276","","","","","","","0","0","1","0.4920004413","","0.8","0.4","0.2","0.6","","","","","0.3947207546","0.4920004413","0.5612985374","0.7863156869","","","","","","","","74","J","1","","","161","main_expt",""
"","bandit","241","883681","0.0-202.0-0.0","77372013","wem/bandit_either_3","A94DL4GI8ZBUO","either","8","268","","","","","","","0","0","1","","0.5389881207","0.8","0.4","0.2","0.6","0.2460097942","0.5389881207","0.5288680036","0.8098475403","","","","","","","","","","","","74","J","1","","","162","main_expt",""
"","bandit","242","885320","0.0-203.0-0.0","77372013","wem/bandit_either_3","A94DL4GI8ZBUO","either","8","125","","","","","","","0","0","1","","0.6096883849","0.8","0.4","0.2","0.6","0.3603606056","0.6040136001","0.6096883849","0.8222712862","","","","","","","","","","","","75","K","2","","","163","main_expt",""
"","bandit","243","887104","0.0-204.0-0.0","77372013","wem/bandit_either_3","A94DL4GI8ZBUO","either","8","267","","","","","","","0","1","0","","0.4868922288","0.8","0.4","0.2","0.6","0.2507209727","0.623756827","0.4868922288","0.7876031225","","","","","","","","","","","","75","K","2","","","164","main_expt",""
"","bandit","244","888948","0.0-205.0-0.0","77372013","wem/bandit_either_3","A94DL4GI8ZBUO","either","8","329","","","","","","","0","1","0","","0.4055552053","0.8","0.4","0.2","0.6","0.2162043423","0.6164515281","0.4055552053","0.7435052823","","","","","","","","","","","","75","K","2","","","165","main_expt",""
"","bandit","245","890744","0.0-206.0-0.0","77372013","wem/bandit_either_3","A94DL4GI8ZBUO","either","8","280","","","","","","","0","0","1","0.4748236382","","0.8","0.4","0.2","0.6","","","","","0.2573409732","0.4660222187","0.4748236382","0.6545739251","","","","","","","","75","K","2","","","166","main_expt",""
"","bandit","246","892497","0.0-207.0-0.0","77372013","wem/bandit_either_3","A94DL4GI8ZBUO","either","8","239","","","","","","","0","0","1","","0.4725242185","0.8","0.4","0.2","0.6","0.4016088623","0.3336058786","0.4725242185","0.6645907447","","","","","","","","","","","","75","K","2","","","167","main_expt",""
"","bandit","247","894227","0.0-208.0-0.0","77372013","wem/bandit_either_3","A94DL4GI8ZBUO","either","8","214","","","","","","","0","0","1","0.7243751722","","0.8","0.4","0.2","0.6","","","","","0.5522858252","0.2887723434","0.4775208721","0.7243751722","","","","","","","","76","L","3","","","168","main_expt",""
"","bandit","248","895858","0.0-209.0-0.0","77372013","wem/bandit_either_3","A94DL4GI8ZBUO","either","8","116","","","","","","","0","0","1","0.5461138513","","0.8","0.4","0.2","0.6","","","","","0.5461138513","0.3357056981","0.4682732781","0.6453105543","","","","","","","","72","H","0","img/none_selected.jpg","","169","main_expt",""
"","bandit","249","897419","0.0-210.0-0.0","77372013","wem/bandit_either_3","A94DL4GI8ZBUO","either","8","55","","","","","","","1","0","0","0.4402798015","","0.8","0.4","0.2","0.6","","","","","0.4402798015","0.4179693295","0.4246621539","0.5334010147","","","","","","","","72","H","0","img/none_selected.jpg","","170","main_expt",""
"","bandit","250","899218","0.0-211.0-0.0","77372013","wem/bandit_either_3","A94DL4GI8ZBUO","either","8","283","","","","","","","0","0","1","0.450294849","","0.8","0.4","0.2","0.6","","","","","0.450294849","0.3050406521","0.2843380906","0.498122785","","","","","","","","72","H","0","img/none_selected.jpg","","171","main_expt",""
"","bandit","251","901063","0.0-212.0-0.0","77372013","wem/bandit_either_3","A94DL4GI8ZBUO","either","8","330","","","","","","","1","0","0","0.6475755847","","0.8","0.4","0.2","0.6","","","","","0.6475755847","0.3364500029","0.2668952485","0.4356988635","","","","","","","","72","H","0","img/none_selected.jpg","","172","main_expt",""
"","bandit","252","902907","0.0-213.0-0.0","77372013","wem/bandit_either_3","A94DL4GI8ZBUO","either","8","328","","","","","","","0","0","1","0.6095255177","","0.8","0.4","0.2","0.6","","","","","0.6095255177","0.421339117","0.3802819164","0.3964199688","","","","","","","","72","H","0","img/none_selected.jpg","","173","main_expt",""
"","bandit","253","904476","0.0-214.0-0.0","77372013","wem/bandit_either_3","A94DL4GI8ZBUO","either","8","52","","","","","","","0","1","0","","0.4913704717","0.8","0.4","0.2","0.6","0.5003628493","0.4913704717","0.4042455133","0.3194345802","","","","","","","","","","","","74","J","1","","","174","main_expt",""
"","bandit","254","906211","0.0-215.0-0.0","77372013","wem/bandit_either_3","A94DL4GI8ZBUO","either","8","218","","","","","","","0","1","0","","0.5882611891","0.8","0.4","0.2","0.6","0.5576212716","0.5882611891","0.4393989914","0.2865230234","","","","","","","","","","","","74","J","1","","","175","main_expt",""
"","bandit","255","907999","0.0-216.0-0.0","77372013","wem/bandit_either_3","A94DL4GI8ZBUO","either","8","270","","","","","","","0","1","0","","0.6313830356","0.8","0.4","0.2","0.6","0.6230679906","0.6313830356","0.4705173801","0.3352692614","","","","","","","","","","","","74","J","1","","","176","main_expt",""
"","bandit","256","909715","0.0-217.0-0.0","77372013","wem/bandit_either_3","A94DL4GI8ZBUO","either","8","199","","","","","","","1","0","0","0.5531265137","","0.8","0.4","0.2","0.6","","","","","0.6501784685","0.5531265137","0.4698597734","0.3389264817","","","","","","","","74","J","1","","","177","main_expt",""
"","bandit","257","911532","0.0-218.0-0.0","77372013","wem/bandit_either_3","A94DL4GI8ZBUO","either","8","299","","","","","","","0","1","0","","0.4621004187","0.8","0.4","0.2","0.6","0.6334155083","0.4621004187","0.3570804947","0.3709673039","","","","","","","","","","","","74","J","1","","","178","main_expt",""
"","bandit","258","913325","0.0-219.0-0.0","77372013","wem/bandit_either_3","A94DL4GI8ZBUO","either","8","276","","","","","","","0","0","1","0.512884041","","0.8","0.4","0.2","0.6","","","","","0.7548338289","0.512884041","0.3441184995","0.2940579202","","","","","","","","74","J","1","","","179","main_expt",""
"","bandit","259","915176","0.0-220.0-0.0","77372013","wem/bandit_either_3","A94DL4GI8ZBUO","either","8","332","","","","","","","0","0","1","","0.506744284","0.8","0.4","0.2","0.6","0.8074073351","0.506744284","0.3646136501","0.3218724025","","","","","","","","","","","","74","J","1","","","180","main_expt",""
"","bandit","260","917178","0.0-221.0-0.0","77372013","wem/bandit_either_3","A94DL4GI8ZBUO","either","8","490","","","","","","","0","0","1","0.4556494723","","0.8","0.4","0.2","0.6","","","","","0.780721516","0.4556494723","0.3777688814","0.3633286182","","","","","","","","74","J","1","","","181","main_expt",""
"","bandit","261","918801","0.0-222.0-0.0","77372013","wem/bandit_either_3","A94DL4GI8ZBUO","either","8","106","","","","","","","0","0","1","","0.4578236703","0.8","0.4","0.2","0.6","0.7647415088","0.4494525508","0.4578236703","0.3324048704","","","","","","","","","","","","75","K","2","","","182","main_expt",""
"","bandit","262","920383","0.0-223.0-0.0","77372013","wem/bandit_either_3","A94DL4GI8ZBUO","either","8","64","","","","","","","0","0","1","","0.3092830871","0.8","0.4","0.2","0.6","0.7349307529","0.5189143621","0.4244895098","0.3092830871","","","","","","","","","","","","76","L","3","","","183","main_expt",""
"","bandit","263","922127","0.0-224.0-0.0","77372013","wem/bandit_either_3","A94DL4GI8ZBUO","either","8","227","","","","","","","1","0","0","0.3566779322","","0.8","0.4","0.2","0.6","","","","","0.8298088288","0.5167606333","0.3566779322","0.3905692936","","","","","","","","75","K","2","","","184","main_expt",""
"","bandit","264","923966","0.0-225.0-0.0","77372013","wem/bandit_either_3","A94DL4GI8ZBUO","either","8","322","","","","","","","0","1","0","","0.3737416658","0.8","0.4","0.2","0.6","0.7894193193","0.5270237034","0.3737416658","0.4626192444","","","","","","","","","","","","75","K","2","","","185","main_expt",""
"","bandit","265","925785","0.0-226.0-0.0","77372013","wem/bandit_either_3","A94DL4GI8ZBUO","either","8","301","","","","","","","0","0","1","","0.3120176694","0.8","0.4","0.2","0.6","0.7665022487","0.5556036571","0.3120176694","0.6061762586","","","","","","","","","","","","75","K","2","","","186","main_expt",""
"","bandit","266","927601","0.0-227.0-0.0","77372013","wem/bandit_either_3","A94DL4GI8ZBUO","either","8","299","","","","","","","0","0","1","","0.4134691065","0.8","0.4","0.2","0.6","0.7394266891","0.5865134094","0.4134691065","0.530958695","","","","","","","","","","","","75","K","2","","","187","main_expt",""
"","bandit","267","929466","0.0-228.0-0.0","77372013","wem/bandit_either_3","A94DL4GI8ZBUO","either","8","348","","","","","","","0","0","1","0.5034866795","","0.8","0.4","0.2","0.6","","","","","0.6567361442","0.5034866795","0.4637770407","0.380024655","","","","","","","","74","J","1","","","188","main_expt",""
"","bandit","268","931283","0.0-229.0-0.0","77372013","wem/bandit_either_3","A94DL4GI8ZBUO","either","8","298","","","","","","","0","0","1","","0.5739034088","0.8","0.4","0.2","0.6","0.6572443956","0.5761715841","0.5739034088","0.4563575644","","","","","","","","","","","","75","K","2","","","189","main_expt",""
"","bandit","269","932982","0.0-230.0-0.0","77372013","wem/bandit_either_3","A94DL4GI8ZBUO","either","8","180","","","","","","","0","0","1","0.6735764162","","0.8","0.4","0.2","0.6","","","","","0.6735764162","0.5325489933","0.5859504021","0.4540853102","","","","","","","","72","H","0","img/none_selected.jpg","","190","main_expt",""
"","bandit","270","934624","0.0-231.0-0.0","77372013","wem/bandit_either_3","A94DL4GI8ZBUO","either","8","125","","","","","","","0","1","0","","0.5614919892","0.8","0.4","0.2","0.6","0.5997518312","0.5614919892","0.5325822721","0.4328006462","","","","","","","","","","","","74","J","1","","","191","main_expt",""
"","bandit","271","936432","0.0-232.0-0.0","77372013","wem/bandit_either_3","A94DL4GI8ZBUO","either","8","291","","","","","","","0","0","1","0.5972832049","","0.8","0.4","0.2","0.6","","","","","0.6582178794","0.5972832049","0.4622441745","0.4979354652","","","","","","","","74","J","1","","","192","main_expt",""
"","bandit","272","938200","0.0-233.0-0.0","77372013","wem/bandit_either_3","A94DL4GI8ZBUO","either","8","251","","","","","","","1","0","0","0.6997951875","","0.8","0.4","0.2","0.6","","","","","0.7246172867","0.6997951875","0.4765036663","0.4887187701","","","","","","","","74","J","1","","","193","main_expt",""
"","bandit","273","939945","0.0-234.0-0.0","77372013","wem/bandit_either_3","A94DL4GI8ZBUO","either","8","228","","","","","","","0","1","0","","0.7511051992","0.8","0.4","0.2","0.6","0.7721250451","0.7511051992","0.4504155567","0.4993882896","","","","","","","","","","","","74","J","1","","","194","main_expt",""
"","bandit","274","941663","0.0-235.0-0.0","77372013","wem/bandit_either_3","A94DL4GI8ZBUO","either","8","205","","","","","","","0","0","1","0.8281457055","","0.8","0.4","0.2","0.6","","","","","0.8366496483","0.8281457055","0.4354252764","0.5011331455","","","","","","","","74","J","1","","","195","main_expt",""
"","bandit","275","943376","0.0-236.0-0.0","77372013","wem/bandit_either_3","A94DL4GI8ZBUO","either","8","195","","","","","","","0","1","0","","0.8248544968","0.8","0.4","0.2","0.6","0.8484646997","0.8248544968","0.4170899215","0.4487960683","","","","","","","","","","","","74","J","1","","","196","main_expt",""
"","bandit","276","945133","0.0-237.0-0.0","77372013","wem/bandit_either_3","A94DL4GI8ZBUO","either","8","240","","","","","","","0","0","1","","0.8532714289","0.8","0.4","0.2","0.6","0.8734060335","0.8532714289","0.4149059055","0.3975590019","","","","","","","","","","","","74","J","1","","","197","main_expt",""
"","bandit","277","946825","0.0-238.0-0.0","77372013","wem/bandit_either_3","A94DL4GI8ZBUO","either","8","174","","","","","","","0","1","0","","0.7587337752","0.8","0.4","0.2","0.6","0.8515360685","0.7587337752","0.4737306044","0.4161601929","","","","","","","","","","","","74","J","1","","","198","main_expt",""
"","bandit","278","948561","0.0-239.0-0.0","77372013","wem/bandit_either_3","A94DL4GI8ZBUO","either","8","219","","","","","","","0","1","0","","0.8124408481","0.8","0.4","0.2","0.6","0.8805923715","0.8124408481","0.4541760911","0.4483979408","","","","","","","","","","","","74","J","1","","","199","main_expt",""
"","bandit","279","950363","0.0-240.0-0.0","77372013","wem/bandit_either_3","A94DL4GI8ZBUO","either","8","283","","","","","","","0","1","0","","0.7935778268","0.8","0.4","0.2","0.6","0.9645818821","0.7935778268","0.3964714959","0.5303380975","","","","","","","","","","","","74","J","1","","","200","main_expt",""
"","bandit","280","952071","0.0-241.0-0.0","77372013","wem/bandit_either_3","A94DL4GI8ZBUO","either","8","189","","","","","","","0","0","1","","0.736942723","0.8","0.4","0.2","0.6","0.9689478708","0.736942723","0.3815447649","0.4014045657","","","","","","","","","","","","74","J","1","","","201","main_expt",""
"","bandit","281","953870","0.0-242.0-0.0","77372013","wem/bandit_either_3","A94DL4GI8ZBUO","either","8","280","","","","","","","0","1","0","","0.7001951276","0.8","0.4","0.2","0.6","0.9678291885","0.7001951276","0.3726367513","0.5115169607","","","","","","","","","","","","74","J","1","","","202","main_expt",""
"","bandit","282","955681","0.0-243.0-0.0","77372013","wem/bandit_either_3","A94DL4GI8ZBUO","either","8","293","","","","","","","0","1","0","","0.7209300446","0.8","0.4","0.2","0.6","0.9633244117","0.7209300446","0.3062653216","0.5026191452","","","","","","","","","","","","74","J","1","","","203","main_expt",""
"","bandit","283","957483","0.0-244.0-0.0","77372013","wem/bandit_either_3","A94DL4GI8ZBUO","either","8","282","","","","","","","1","0","0","0.8574132932","","0.8","0.4","0.2","0.6","","","","","0.9730812582","0.8574132932","0.2848501254","0.4736298566","","","","","","","","74","J","1","","","204","main_expt",""
"","bandit","284","959316","0.0-245.0-0.0","77372013","wem/bandit_either_3","A94DL4GI8ZBUO","either","8","312","","","","","","","1","0","0","0.9038760074","","0.8","0.4","0.2","0.6","","","","","0.9521206422","0.9038760074","0.3457586416","0.6121858428","","","","","","","","74","J","1","","","205","main_expt",""
"","bandit","285","961013","0.0-246.0-0.0","77372013","wem/bandit_either_3","A94DL4GI8ZBUO","either","8","178","","","","","","","0","1","0","","0.9273356803","0.8","0.4","0.2","0.6","0.9614764056","0.9273356803","0.4609097875","0.6377028942","","","","","","","","","","","","74","J","1","","","206","main_expt",""
"","bandit","286","962592","0.0-247.0-0.0","77372013","wem/bandit_either_3","A94DL4GI8ZBUO","either","8","59","","","","","","","0","1","0","","0.9502037039","0.8","0.4","0.2","0.6","0.9625830716","0.9502037039","0.4980316736","0.5700483165","","","","","","","","","","","","74","J","1","","","207","main_expt",""
"","bandit","287","964333","0.0-248.0-0.0","77372013","wem/bandit_either_3","A94DL4GI8ZBUO","either","8","223","","","","","","","1","0","0","0.944094639","","0.8","0.4","0.2","0.6","","","","","0.9359306517","0.944094639","0.4537691537","0.624428721","","","","","","","","74","J","1","","","208","main_expt",""
"","bandit","288","965994","0.0-249.0-0.0","77372013","wem/bandit_either_3","A94DL4GI8ZBUO","either","8","142","","","","","","","0","1","0","","0.9070839441","0.8","0.4","0.2","0.6","0.9632917203","0.9070839441","0.4475842875","0.4861871301","","","","","","","","","","","","74","J","1","","","209","main_expt",""
"","bandit","289","967741","0.0-250.0-0.0","77372013","wem/bandit_either_3","A94DL4GI8ZBUO","either","8","234","","","","","","","0","1","0","","0.8960653589","0.8","0.4","0.2","0.6","0.9633226214","0.8960653589","0.4803454055","0.3956361612","","","","","","","","","","","","74","J","1","","","210","main_expt",""
"","bandit","290","969510","0.0-251.0-0.0","77372013","wem/bandit_either_3","A94DL4GI8ZBUO","either","8","250","","","","","","","1","0","0","0.9155455821","","0.8","0.4","0.2","0.6","","","","","0.9719781217","0.9155455821","0.4126443349","0.3599204452","","","","","","","","74","J","1","","","211","main_expt",""
"","bandit","291","971241","0.0-252.0-0.0","77372013","wem/bandit_either_3","A94DL4GI8ZBUO","either","8","210","","","","","","","0","1","0","","0.9087954588","0.8","0.4","0.2","0.6","0.9700781686","0.9087954588","0.3384802849","0.3349000901","","","","","","","","","","","","74","J","1","","","212","main_expt",""
"","bandit","292","972880","0.0-253.0-0.0","77372013","wem/bandit_either_3","A94DL4GI8ZBUO","either","8","120","","","","","","","0","1","0","","0.8528540962","0.8","0.4","0.2","0.6","0.971165811","0.8528540962","0.3039242722","0.3183344176","","","","","","","","","","","","74","J","1","","","213","main_expt",""
"","bandit","293","974606","0.0-254.0-0.0","77372013","wem/bandit_either_3","A94DL4GI8ZBUO","either","8","205","","","","","","","0","1","0","","0.8506041988","0.8","0.4","0.2","0.6","0.9627117","0.8506041988","0.4541530846","0.2390758011","","","","","","","","","","","","74","J","1","","","214","main_expt",""
"","bandit","294","976193","0.0-255.0-0.0","77372013","wem/bandit_either_3","A94DL4GI8ZBUO","either","8","68","","","","","","","0","0","1","0.8001829978","","0.8","0.4","0.2","0.6","","","","","0.9552130497","0.8001829978","0.5101749692","0.1997060473","","","","","","","","74","J","1","","","215","main_expt",""
"","bandit","295","977882","0.0-256.0-0.0","77372013","wem/bandit_either_3","A94DL4GI8ZBUO","either","8","168","","","","","","","0","0","1","0.733614842","","0.8","0.4","0.2","0.6","","","","","0.9220350188","0.733614842","0.5580520347","0.2326539104","","","","","","","","74","J","1","","","216","main_expt",""
"","bandit","296","979592","0.0-257.0-0.0","77372013","wem/bandit_either_3","A94DL4GI8ZBUO","either","8","186","","","","","","","1","0","0","0.7479737912","","0.8","0.4","0.2","0.6","","","","","0.8736667029","0.7479737912","0.4368451062","0.2319826337","","","","","","","","74","J","1","","","217","main_expt",""
"","bandit","297","981329","0.0-258.0-0.0","77372013","wem/bandit_either_3","A94DL4GI8ZBUO","either","8","218","","","","","","","0","0","1","0.7713398237","","0.8","0.4","0.2","0.6","","","","","0.7602784417","0.7713398237","0.3963441813","0.3143382807","","","","","","","","74","J","1","","","218","main_expt",""
"","bandit","298","982976","0.0-259.0-0.0","77372013","wem/bandit_either_3","A94DL4GI8ZBUO","either","8","130","","","","","","","0","0","1","","0.8077055691","0.8","0.4","0.2","0.6","0.7643050859","0.8077055691","0.4809426617","0.3304972923","","","","","","","","","","","","74","J","1","","","219","main_expt",""
"","bandit","299","984659","0.0-260.0-0.0","77372013","wem/bandit_either_3","A94DL4GI8ZBUO","either","8","165","","","","","","","1","0","0","0.7778114837","","0.8","0.4","0.2","0.6","","","","","0.7793587236","0.7778114837","0.397759556","0.2866104843","","","","","","","","74","J","1","","","220","main_expt",""
"","bandit","300","986441","0.0-261.0-0.0","77372013","wem/bandit_either_3","A94DL4GI8ZBUO","either","8","263","","","","","","","0","1","0","","0.7214198583","0.8","0.4","0.2","0.6","0.82086311","0.7214198583","0.4087677593","0.3602561646","","","","","","","","","","","","74","J","1","","","221","main_expt",""
"","bandit","301","988092","0.0-262.0-0.0","77372013","wem/bandit_either_3","A94DL4GI8ZBUO","either","8","130","","","","","","","1","0","0","0.8091526303","","0.8","0.4","0.2","0.6","","","","","0.8543662658","0.8091526303","0.4561280915","0.3228749062","","","","","","","","74","J","1","","","222","main_expt",""
"","bandit","302","989756","0.0-263.0-0.0","77372013","wem/bandit_either_3","A94DL4GI8ZBUO","either","8","145","","","","","","","0","1","0","","0.8240838469","0.8","0.4","0.2","0.6","0.8599459829","0.8240838469","0.4419858618","0.2549485676","","","","","","","","","","","","74","J","1","","","223","main_expt",""
"","bandit","303","991379","0.0-264.0-0.0","77372013","wem/bandit_either_3","A94DL4GI8ZBUO","either","8","104","","","","","","","1","0","0","0.7670685714","","0.8","0.4","0.2","0.6","","","","","0.8747991669","0.7670685714","0.494409337","0.2389333491","","","","","","","","74","J","1","","","224","main_expt",""
"","bandit","304","993028","0.0-265.0-0.0","77372013","wem/bandit_either_3","A94DL4GI8ZBUO","either","8","131","","","","","","","1","0","0","0.8775689376","","0.8","0.4","0.2","0.6","","","","","0.7910409491","0.8775689376","0.3713348049","0.1517307125","","","","","","","","74","J","1","","","225","main_expt",""
"","bandit","305","994798","0.0-266.0-0.0","77372013","wem/bandit_either_3","A94DL4GI8ZBUO","either","8","252","","","","","","","0","0","1","0.8846504348","","0.8","0.4","0.2","0.6","","","","","0.7212928749","0.8846504348","0.4013452417","0.1002450003","","","","","","","","74","J","1","","","226","main_expt",""
"","bandit","306","996386","0.0-267.0-0.0","77372013","wem/bandit_either_3","A94DL4GI8ZBUO","either","8","69","","","","","","","0","1","0","","0.851087938","0.8","0.4","0.2","0.6","0.7090989562","0.851087938","0.393451628","0.1049945928","","","","","","","","","","","","74","J","1","","","227","main_expt",""
"","bandit","307","998003","0.0-268.0-0.0","77372013","wem/bandit_either_3","A94DL4GI8ZBUO","either","8","98","","","","","","","0","1","0","","0.9074720337","0.8","0.4","0.2","0.6","0.6606736223","0.9074720337","0.4175844788","0.03915988122","","","","","","","","","","","","74","J","1","","","228","main_expt",""
"","bandit","308","999737","0.0-269.0-0.0","77372013","wem/bandit_either_3","A94DL4GI8ZBUO","either","8","214","","","","","","","1","0","0","0.872332114","","0.8","0.4","0.2","0.6","","","","","0.6893924153","0.872332114","0.408368909","0.03767516843","","","","","","","","74","J","1","","","229","main_expt",""
"","bandit","309","1001319","0.0-270.0-0.0","77372013","wem/bandit_either_3","A94DL4GI8ZBUO","either","8","65","","","","","","","0","1","0","","0.7967167456","0.8","0.4","0.2","0.6","0.6067604319","0.7967167456","0.4777699032","0.05804790214","","","","","","","","","","","","74","J","1","","","230","main_expt",""
"","bandit","310","1002903","0.0-271.0-0.0","77372013","wem/bandit_either_3","A94DL4GI8ZBUO","either","8","63","","","","","","","0","1","0","","0.7760618079","0.8","0.4","0.2","0.6","0.5037419277","0.7760618079","0.4935442242","0.04963095007","","","","","","","","","","","","74","J","1","","","231","main_expt",""
"","bandit","311","1004553","0.0-272.0-0.0","77372013","wem/bandit_either_3","A94DL4GI8ZBUO","either","8","130","","","","","","","0","1","0","","0.7765467853","0.8","0.4","0.2","0.6","0.4339479185","0.7765467853","0.4889590317","0.03759782928","","","","","","","","","","","","74","J","1","","","232","main_expt",""
"","bandit","312","1006097","0.0-273.0-0.0","77372013","wem/bandit_either_3","A94DL4GI8ZBUO","either","8","23","","","","","","","1","0","0","0.7895219362","","0.8","0.4","0.2","0.6","","","","","0.4525546635","0.7895219362","0.5212294662","0.03147013274","","","","","","","","74","J","1","","","233","main_expt",""
"","bandit","313","1007643","0.0-274.0-0.0","77372013","wem/bandit_either_3","A94DL4GI8ZBUO","either","8","25","","","","","","","0","1","0","","0.7491899586","0.8","0.4","0.2","0.6","0.3680080929","0.7491899586","0.4420617392","0.03547440544","","","","","","","","","","","","74","J","1","","","234","main_expt",""
"","bandit","314","1009452","0.0-275.0-0.0","77372013","wem/bandit_either_3","A94DL4GI8ZBUO","either","8","291","","","","","","","1","0","0","0.7397351474","","0.8","0.4","0.2","0.6","","","","","0.3416373547","0.7397351474","0.4816955248","0.04486782706","","","","","","","","74","J","1","","","235","main_expt",""
"","bandit","315","1011083","0.0-276.0-0.0","77372013","wem/bandit_either_3","A94DL4GI8ZBUO","either","8","113","","","","","","","1","0","0","0.6587673302","","0.8","0.4","0.2","0.6","","","","","0.3722877153","0.6587673302","0.3028121716","0.03122339122","","","","","","","","74","J","1","","","236","main_expt",""
"","bandit","316","1012848","0.0-277.0-0.0","77372013","wem/bandit_either_3","A94DL4GI8ZBUO","either","8","244","","","","","","","0","0","1","0.7534934878","","0.8","0.4","0.2","0.6","","","","","0.3081002542","0.7534934878","0.3802502189","0.04191117605","","","","","","","","74","J","1","","","237","main_expt",""
"","bandit","317","1014473","0.0-278.0-0.0","77372013","wem/bandit_either_3","A94DL4GI8ZBUO","either","8","105","","","","","","","1","0","0","0.8023031038","","0.8","0.4","0.2","0.6","","","","","0.2546656634","0.8023031038","0.4160754302","0.06367740527","","","","","","","","74","J","1","","","238","main_expt",""
"","bandit","318","1016156","0.0-279.0-0.0","77372013","wem/bandit_either_3","A94DL4GI8ZBUO","either","8","163","","","","","","","0","0","1","","0.8333986962","0.8","0.4","0.2","0.6","0.3038323055","0.8333986962","0.3510440385","0.06315957527","","","","","","","","","","","","74","J","1","","","239","main_expt",""
"","bandit","319","1017798","0.0-280.0-0.0","77372013","wem/bandit_either_3","A94DL4GI8ZBUO","either","8","121","","","","","","","1","0","0","0.840768508","","0.8","0.4","0.2","0.6","","","","","0.291884511","0.840768508","0.4182550587","0.05324295338","","","","","","","","74","J","1","","","240","main_expt",""
"","bandit","320","1019556","0.0-281.0-0.0","77372013","wem/bandit_either_3","A94DL4GI8ZBUO","either","8","239","","","","","","","0","1","0","","0.823006268","0.8","0.4","0.2","0.6","0.3124975621","0.823006268","0.5037088371","0.04641095239","","","","","","","","","","","","74","J","1","","","241","main_expt",""
"","bandit","321","1021202","0.0-282.0-0.0","77372013","wem/bandit_either_3","A94DL4GI8ZBUO","either","8","126","","","","","","","0","1","0","","0.8152254121","0.8","0.4","0.2","0.6","0.3637146884","0.8152254121","0.4877747003","0.04954190216","","","","","","","","","","","","74","J","1","","","242","main_expt",""
"","bandit","322","1022938","0.0-283.0-0.0","77372013","wem/bandit_either_3","A94DL4GI8ZBUO","either","8","217","","","","","","","1","0","0","0.8377493118","","0.8","0.4","0.2","0.6","","","","","0.3304840913","0.8377493118","0.5007011316","0.05592390002","","","","","","","","74","J","1","","","243","main_expt",""
"","bandit","323","1024706","0.0-284.0-0.0","77372013","wem/bandit_either_3","A94DL4GI8ZBUO","either","8","256","","","","","","","0","1","0","","0.8258586067","0.8","0.4","0.2","0.6","0.4067767971","0.8258586067","0.5730304632","0.03808637997","","","","","","","","","","","","74","J","1","","","244","main_expt",""
"","bandit","324","1026305","0.0-285.0-0.0","77372013","wem/bandit_either_3","A94DL4GI8ZBUO","either","8","80","","","","","","","0","1","0","","0.7889424323","0.8","0.4","0.2","0.6","0.4091901929","0.7889424323","0.6096531262","0.02077199453","","","","","","","","","","","","74","J","1","","","245","main_expt",""
