"consent","trial_type","trial_index","time_elapsed","internal_node_id","subjID","study","MID","cond","drift","rt","responses","key_press","expt_phase","like","value","connected","gems","bombs","no_reward","GemPrChosen","BombPrChosen","GainOverPainPr_0","GainOverPainPr_1","GainOverPainPr_2","GainOverPainPr_3","LosePr_0","LosePr_1","LosePr_2","LosePr_3","WinPr_0","WinPr_1","WinPr_2","WinPr_3","Q0","Q1","Q2","gender","age","ethnicity","target","respCharCode","respKey","respChoiceNum","respChoice","practice","trial_counter","trial_label","button_pressed"
"INL_behavioral_consent_30min_online.html","consent","0","11480","0.0-0.0","80544681","wem/bandit_either_3","A3SOZYQZWJOOYS","either","6","","","","","","","","","","","","","","","","","","","","","","","","","","","","","","","","","","","","","","",""
"","survey-text","1","14945","0.0-1.0","80544681","wem/bandit_either_3","A3SOZYQZWJOOYS","either","6","2441","{""Q0"":""A3SOZYQZWJOOYS""}","","","","","","","","","","","","","","","","","","","","","","","","","","","","","","","","","","","","",""
"","text","2","32791","0.0-2.0","80544681","wem/bandit_either_3","A3SOZYQZWJOOYS","either","6","16841","","32","","","","","","","","","","","","","","","","","","","","","","","","","","","","","","","","","","","",""
"","text","3","39274","0.0-3.0","80544681","wem/bandit_either_3","A3SOZYQZWJOOYS","either","6","6479","","32","","","","","","","","","","","","","","","","","","","","","","","","","","","","","","","","","","","",""
"","text","4","46848","0.0-4.0","80544681","wem/bandit_either_3","A3SOZYQZWJOOYS","either","6","7572","","32","","","","","","","","","","","","","","","","","","","","","","","","","","","","","","","","","","","",""
"","text","5","64033","0.0-5.0","80544681","wem/bandit_either_3","A3SOZYQZWJOOYS","either","6","17183","","32","","","","","","","","","","","","","","","","","","","","","","","","","","","","","","","","","","","",""
"","text","6","91703","0.0-6.0","80544681","wem/bandit_either_3","A3SOZYQZWJOOYS","either","6","27667","","32","","","","","","","","","","","","","","","","","","","","","","","","","","","","","","","","","","","",""
"","text","7","102633","0.0-7.0","80544681","wem/bandit_either_3","A3SOZYQZWJOOYS","either","6","10928","","32","","","","","","","","","","","","","","","","","","","","","","","","","","","","","","","","","","","",""
"","text","8","104498","0.0-8.0","80544681","wem/bandit_either_3","A3SOZYQZWJOOYS","either","6","1863","","32","","","","","","","","","","","","","","","","","","","","","","","","","","","","","","","","","","","",""
"","identification","9","111270","0.0-9.0-0.0","80544681","wem/bandit_either_3","A3SOZYQZWJOOYS","either","6","6733","","","","5","5","5","","","","","","","","","","","","","","","","","","","","","","","","the village of Zur","","","","","","","",""
"","identification","10","118288","0.0-9.0-1.0","80544681","wem/bandit_either_3","A3SOZYQZWJOOYS","either","6","5982","","","","5","5","5","","","","","","","","","","","","","","","","","","","","","","","","the village of Nyx","","","","","","","",""
"","text","11","124821","0.0-10.0","80544681","wem/bandit_either_3","A3SOZYQZWJOOYS","either","6","5530","","32","","","","","","","","","","","","","","","","","","","","","","","","","","","","","","","","","","","",""
"","text","12","128912","0.0-11.0","80544681","wem/bandit_either_3","A3SOZYQZWJOOYS","either","6","4089","","32","","","","","","","","","","","","","","","","","","","","","","","","","","","","","","","","","","","",""
"","text","13","130911","0.0-12.0","80544681","wem/bandit_either_3","A3SOZYQZWJOOYS","either","6","1997","","32","","","","","","","","","","","","","","","","","","","","","","","","","","","","","","","","","","","",""
"","text","14","134737","0.0-13.0","80544681","wem/bandit_either_3","A3SOZYQZWJOOYS","either","6","3824","","32","","","","","","","","","","","","","","","","","","","","","","","","","","","","","","","","","","","",""
"","bandit","15","138485","0.0-14.0-0.0","80544681","wem/bandit_either_3","A3SOZYQZWJOOYS","either","6","2231","","","","","","","0","0","1","0","0","","","","","0","","","","0","","","","","","","","","","","74","J","0","img/none_selected_demo.jpg","true","0","",""
"","bandit","16","141539","0.0-15.0-0.0","80544681","wem/bandit_either_3","A3SOZYQZWJOOYS","either","6","1541","","","","","","","0","0","1","0","0","","","","","0","","","","0","","","","","","","","","","","75","K","0","img/none_selected_demo.jpg","true","0","",""
"","text","17","151224","0.0-16.0","80544681","wem/bandit_either_3","A3SOZYQZWJOOYS","either","6","9682","","32","","","","","","","","","","","","","","","","","","","","","","","","","","","","","","","","","","","",""
"","text","18","162095","0.0-17.0","80544681","wem/bandit_either_3","A3SOZYQZWJOOYS","either","6","10869","","32","","","","","","","","","","","","","","","","","","","","","","","","","","","","","","","","","","","",""
"","text","19","169378","0.0-18.0","80544681","wem/bandit_either_3","A3SOZYQZWJOOYS","either","6","7280","","32","","","","","","","","","","","","","","","","","","","","","","","","","","","","","","","","","","","",""
"","text","20","172800","0.0-19.0","80544681","wem/bandit_either_3","A3SOZYQZWJOOYS","either","6","3416","","32","","","","","","","","","","","","","","","","","","","","","","","","","","","","","","","","","","","",""
"","bandit","21","176289","0.0-20.0-0.0","80544681","wem/bandit_either_3","A3SOZYQZWJOOYS","either","6","1977","","","","","","","1","0","0","0.8","","0.5","0.5","","","","","","","0.8","0.2","","","","","","","","","","74","J","0","img/none_selected_demo.jpg","true","0","80_20_practice",""
"","bandit","22","178128","0.0-20.0-1.0","80544681","wem/bandit_either_3","A3SOZYQZWJOOYS","either","6","328","","","","","","","0","1","0","","0.8","0.5","0.5","","","0.8","0.2","","","","","","","","","","","","","","74","J","0","img/none_selected_demo.jpg","true","0","80_20_practice",""
"","bandit","23","179947","0.0-20.0-2.0","80544681","wem/bandit_either_3","A3SOZYQZWJOOYS","either","6","307","","","","","","","0","0","1","0.8","","0.5","0.5","","","","","","","0.8","0.2","","","","","","","","","","74","J","0","img/none_selected_demo.jpg","true","0","80_20_practice",""
"","bandit","24","181535","0.0-20.0-3.0","80544681","wem/bandit_either_3","A3SOZYQZWJOOYS","either","6","79","","","","","","","1","0","0","0.8","","0.5","0.5","","","","","","","0.8","0.2","","","","","","","","","","74","J","0","img/none_selected_demo.jpg","true","0","80_20_practice",""
"","bandit","25","183328","0.0-20.0-4.0","80544681","wem/bandit_either_3","A3SOZYQZWJOOYS","either","6","280","","","","","","","1","0","0","0.8","","0.5","0.5","","","","","","","0.8","0.2","","","","","","","","","","74","J","0","img/none_selected_demo.jpg","true","0","80_20_practice",""
"","bandit","26","185365","0.0-20.0-5.0","80544681","wem/bandit_either_3","A3SOZYQZWJOOYS","either","6","523","","","","","","","1","0","0","0.8","","0.5","0.5","","","","","","","0.8","0.2","","","","","","","","","","74","J","0","img/none_selected_demo.jpg","true","0","80_20_practice",""
"","bandit","27","186909","0.0-20.0-6.0","80544681","wem/bandit_either_3","A3SOZYQZWJOOYS","either","6","32","","","","","","","1","0","0","0.8","","0.5","0.5","","","","","","","0.8","0.2","","","","","","","","","","74","J","0","img/none_selected_demo.jpg","true","0","80_20_practice",""
"","bandit","28","188791","0.0-20.0-7.0","80544681","wem/bandit_either_3","A3SOZYQZWJOOYS","either","6","372","","","","","","","1","0","0","0.8","","0.5","0.5","","","","","","","0.8","0.2","","","","","","","","","","74","J","0","img/none_selected_demo.jpg","true","0","80_20_practice",""
"","bandit","29","191325","0.0-20.0-8.0","80544681","wem/bandit_either_3","A3SOZYQZWJOOYS","either","6","1021","","","","","","","1","0","0","0.8","","0.5","0.5","","","","","","","0.8","0.2","","","","","","","","","","74","J","0","img/none_selected_demo.jpg","true","0","80_20_practice",""
"","bandit","30","193104","0.0-20.0-9.0","80544681","wem/bandit_either_3","A3SOZYQZWJOOYS","either","6","267","","","","","","","1","0","0","0.8","","0.5","0.5","","","","","","","0.8","0.2","","","","","","","","","","74","J","0","img/none_selected_demo.jpg","true","0","80_20_practice",""
"","bandit","31","194640","0.0-20.0-10.0","80544681","wem/bandit_either_3","A3SOZYQZWJOOYS","either","6","23","","","","","","","1","0","0","0.8","","0.5","0.5","","","","","","","0.8","0.2","","","","","","","","","","74","J","0","img/none_selected_demo.jpg","true","0","80_20_practice",""
"","bandit","32","196415","0.0-20.0-11.0","80544681","wem/bandit_either_3","A3SOZYQZWJOOYS","either","6","266","","","","","","","1","0","0","0.8","","0.5","0.5","","","","","","","0.8","0.2","","","","","","","","","","74","J","0","img/none_selected_demo.jpg","true","0","80_20_practice",""
"","bandit","33","198339","0.0-20.0-12.0","80544681","wem/bandit_either_3","A3SOZYQZWJOOYS","either","6","410","","","","","","","1","0","0","0.8","","0.5","0.5","","","","","","","0.8","0.2","","","","","","","","","","74","J","0","img/none_selected_demo.jpg","true","0","80_20_practice",""
"","bandit","34","200193","0.0-20.0-13.0","80544681","wem/bandit_either_3","A3SOZYQZWJOOYS","either","6","321","","","","","","","1","0","0","0.8","","0.5","0.5","","","","","","","0.8","0.2","","","","","","","","","","74","J","0","img/none_selected_demo.jpg","true","0","80_20_practice",""
"","bandit","35","202047","0.0-20.0-14.0","80544681","wem/bandit_either_3","A3SOZYQZWJOOYS","either","6","344","","","","","","","0","1","0","","0.8","0.5","0.5","","","0.8","0.2","","","","","","","","","","","","","","74","J","0","img/none_selected_demo.jpg","true","0","80_20_practice",""
"","bandit","36","203662","0.0-20.0-15.0","80544681","wem/bandit_either_3","A3SOZYQZWJOOYS","either","6","102","","","","","","","0","0","1","","0.2","0.5","0.5","","","0.8","0.2","","","","","","","","","","","","","","75","K","1","","true","0","80_20_practice",""
"","bandit","37","205273","0.0-20.0-16.0","80544681","wem/bandit_either_3","A3SOZYQZWJOOYS","either","6","99","","","","","","","0","0","1","0.8","","0.5","0.5","","","","","","","0.8","0.2","","","","","","","","","","74","J","0","img/none_selected_demo.jpg","true","0","80_20_practice",""
"","bandit","38","206792","0.0-20.0-17.0","80544681","wem/bandit_either_3","A3SOZYQZWJOOYS","either","6","2","","","","","","","0","0","1","0.8","","0.5","0.5","","","","","","","0.8","0.2","","","","","","","","","","74","J","0","img/none_selected_demo.jpg","true","0","80_20_practice",""
"","bandit","39","208370","0.0-20.0-18.0","80544681","wem/bandit_either_3","A3SOZYQZWJOOYS","either","6","65","","","","","","","1","0","0","0.8","","0.5","0.5","","","","","","","0.8","0.2","","","","","","","","","","74","J","0","img/none_selected_demo.jpg","true","0","80_20_practice",""
"","bandit","40","210111","0.0-20.0-19.0","80544681","wem/bandit_either_3","A3SOZYQZWJOOYS","either","6","226","","","","","","","0","1","0","","0.8","0.5","0.5","","","0.8","0.2","","","","","","","","","","","","","","74","J","0","img/none_selected_demo.jpg","true","0","80_20_practice",""
"","text","41","214312","0.0-21.0","80544681","wem/bandit_either_3","A3SOZYQZWJOOYS","either","6","4196","","32","","","","","","","","","","","","","","","","","","","","","","","","","","","","","","","","","","","",""
"","bandit","42","216453","0.0-22.0-0.0","80544681","wem/bandit_either_3","A3SOZYQZWJOOYS","either","6","627","","","","","","","1","0","0","1","0","","","","","0","1","","","1","0","","","","","","","","","","74","J","0","img/none_selected_demo.jpg","true","0","",""
"","text","43","222971","0.0-23.0","80544681","wem/bandit_either_3","A3SOZYQZWJOOYS","either","6","6513","","32","","","","","","","","","","","","","","","","","","","","","","","","","","","","","","","","","","","",""
"","text","44","225148","0.0-24.0","80544681","wem/bandit_either_3","A3SOZYQZWJOOYS","either","6","2173","","32","","","","","","","","","","","","","","","","","","","","","","","","","","","","","","","","","","","",""
"","text","45","228799","0.0-25.0","80544681","wem/bandit_either_3","A3SOZYQZWJOOYS","either","6","3647","","32","","","","","","","","","","","","","","","","","","","","","","","","","","","","","","","","","","","",""
"","text","46","232527","0.0-26.0","80544681","wem/bandit_either_3","A3SOZYQZWJOOYS","either","6","3724","","32","","","","","","","","","","","","","","","","","","","","","","","","","","","","","","","","","","","",""
"","text","47","249532","0.0-27.0","80544681","wem/bandit_either_3","A3SOZYQZWJOOYS","either","6","16999","","32","","","","","","","","","","","","","","","","","","","","","","","","","","","","","","","","","","","",""
"","text","48","253936","0.0-28.0","80544681","wem/bandit_either_3","A3SOZYQZWJOOYS","either","6","4399","","32","","","","","","","","","","","","","","","","","","","","","","","","","","","","","","","","","","","",""
"","text","49","262391","0.0-29.0","80544681","wem/bandit_either_3","A3SOZYQZWJOOYS","either","6","8451","","32","","","","","","","","","","","","","","","","","","","","","","","","","","","","","","","","","","","",""
"","text","50","267441","0.0-30.0","80544681","wem/bandit_either_3","A3SOZYQZWJOOYS","either","6","5045","","32","","","","","","","","","","","","","","","","","","","","","","","","","","","","","","","","","","","",""
"","text","51","274083","0.0-31.0","80544681","wem/bandit_either_3","A3SOZYQZWJOOYS","either","6","6639","","32","","","","","","","","","","","","","","","","","","","","","","","","","","","","","","","","","","","",""
"","text","52","276321","0.0-32.0","80544681","wem/bandit_either_3","A3SOZYQZWJOOYS","either","6","2236","","32","","","","","","","","","","","","","","","","","","","","","","","","","","","","","","","","","","","",""
"","text","53","285813","0.0-33.0","80544681","wem/bandit_either_3","A3SOZYQZWJOOYS","either","6","9488","","32","","","","","","","","","","","","","","","","","","","","","","","","","","","","","","","","","","","",""
"","bandit","54","288857","0.0-34.0-0.0","80544681","wem/bandit_either_3","A3SOZYQZWJOOYS","either","6","1530","","","","","","","1","0","0","0.8","","0.5","0.5","0.5","0.5","","","","","0.8","0.2","0.6","0.2","","","","","","","","72","H","0","img/none_selected.jpg","true","0","full_practice",""
"","bandit","55","290467","0.0-34.0-1.0","80544681","wem/bandit_either_3","A3SOZYQZWJOOYS","either","6","96","","","","","","","1","0","0","0.8","","0.5","0.5","0.5","0.5","","","","","0.8","0.2","0.6","0.2","","","","","","","","72","H","0","img/none_selected.jpg","true","0","full_practice",""
"","bandit","56","292070","0.0-34.0-2.0","80544681","wem/bandit_either_3","A3SOZYQZWJOOYS","either","6","90","","","","","","","1","0","0","0.8","","0.5","0.5","0.5","0.5","","","","","0.8","0.2","0.6","0.2","","","","","","","","72","H","0","img/none_selected.jpg","true","0","full_practice",""
"","bandit","57","293676","0.0-34.0-3.0","80544681","wem/bandit_either_3","A3SOZYQZWJOOYS","either","6","90","","","","","","","0","1","0","","0.8","0.5","0.5","0.5","0.5","0.8","0.2","0.6","0.2","","","","","","","","","","","","72","H","0","img/none_selected.jpg","true","0","full_practice",""
"","bandit","58","295193","0.0-34.0-4.0","80544681","wem/bandit_either_3","A3SOZYQZWJOOYS","either","6","2","","","","","","","0","1","0","","0.8","0.5","0.5","0.5","0.5","0.8","0.2","0.6","0.2","","","","","","","","","","","","72","H","0","img/none_selected.jpg","true","0","full_practice",""
"","bandit","59","296981","0.0-34.0-5.0","80544681","wem/bandit_either_3","A3SOZYQZWJOOYS","either","6","275","","","","","","","0","1","0","","0.8","0.5","0.5","0.5","0.5","0.8","0.2","0.6","0.2","","","","","","","","","","","","72","H","0","img/none_selected.jpg","true","0","full_practice",""
"","bandit","60","298679","0.0-34.0-6.0","80544681","wem/bandit_either_3","A3SOZYQZWJOOYS","either","6","185","","","","","","","0","1","0","","0.8","0.5","0.5","0.5","0.5","0.8","0.2","0.6","0.2","","","","","","","","","","","","72","H","0","img/none_selected.jpg","true","0","full_practice",""
"","bandit","61","300730","0.0-34.0-7.0","80544681","wem/bandit_either_3","A3SOZYQZWJOOYS","either","6","536","","","","","","","1","0","0","0.8","","0.5","0.5","0.5","0.5","","","","","0.8","0.2","0.6","0.2","","","","","","","","72","H","0","img/none_selected.jpg","true","0","full_practice",""
"","bandit","62","302333","0.0-34.0-8.0","80544681","wem/bandit_either_3","A3SOZYQZWJOOYS","either","6","84","","","","","","","0","1","0","","0.8","0.5","0.5","0.5","0.5","0.8","0.2","0.6","0.2","","","","","","","","","","","","72","H","0","img/none_selected.jpg","true","0","full_practice",""
"","bandit","63","304034","0.0-34.0-9.0","80544681","wem/bandit_either_3","A3SOZYQZWJOOYS","either","6","187","","","","","","","0","1","0","","0.8","0.5","0.5","0.5","0.5","0.8","0.2","0.6","0.2","","","","","","","","","","","","72","H","0","img/none_selected.jpg","true","0","full_practice",""
"","bandit","64","305677","0.0-34.0-10.0","80544681","wem/bandit_either_3","A3SOZYQZWJOOYS","either","6","128","","","","","","","1","0","0","0.8","","0.5","0.5","0.5","0.5","","","","","0.8","0.2","0.6","0.2","","","","","","","","72","H","0","img/none_selected.jpg","true","0","full_practice",""
"","bandit","65","307330","0.0-34.0-11.0","80544681","wem/bandit_either_3","A3SOZYQZWJOOYS","either","6","138","","","","","","","1","0","0","0.8","","0.5","0.5","0.5","0.5","","","","","0.8","0.2","0.6","0.2","","","","","","","","72","H","0","img/none_selected.jpg","true","0","full_practice",""
"","bandit","66","309124","0.0-34.0-12.0","80544681","wem/bandit_either_3","A3SOZYQZWJOOYS","either","6","281","","","","","","","0","1","0","","0.8","0.5","0.5","0.5","0.5","0.8","0.2","0.6","0.2","","","","","","","","","","","","72","H","0","img/none_selected.jpg","true","0","full_practice",""
"","bandit","67","310865","0.0-34.0-13.0","80544681","wem/bandit_either_3","A3SOZYQZWJOOYS","either","6","228","","","","","","","1","0","0","0.8","","0.5","0.5","0.5","0.5","","","","","0.8","0.2","0.6","0.2","","","","","","","","72","H","0","img/none_selected.jpg","true","0","full_practice",""
"","bandit","68","312595","0.0-34.0-14.0","80544681","wem/bandit_either_3","A3SOZYQZWJOOYS","either","6","213","","","","","","","0","1","0","","0.8","0.5","0.5","0.5","0.5","0.8","0.2","0.6","0.2","","","","","","","","","","","","72","H","0","img/none_selected.jpg","true","0","full_practice",""
"","bandit","69","314131","0.0-34.0-15.0","80544681","wem/bandit_either_3","A3SOZYQZWJOOYS","either","6","16","","","","","","","0","0","1","","0.8","0.5","0.5","0.5","0.5","0.8","0.2","0.6","0.2","","","","","","","","","","","","72","H","0","img/none_selected.jpg","true","0","full_practice",""
"","bandit","70","316394","0.0-34.0-16.0","80544681","wem/bandit_either_3","A3SOZYQZWJOOYS","either","6","730","","","","","","","0","0","1","0.8","","0.5","0.5","0.5","0.5","","","","","0.8","0.2","0.6","0.2","","","","","","","","72","H","0","img/none_selected.jpg","true","0","full_practice",""
"","bandit","71","317969","0.0-34.0-17.0","80544681","wem/bandit_either_3","A3SOZYQZWJOOYS","either","6","61","","","","","","","0","0","1","0.6","","0.5","0.5","0.5","0.5","","","","","0.8","0.2","0.6","0.2","","","","","","","","75","K","2","","true","0","full_practice",""
"","bandit","72","319744","0.0-34.0-18.0","80544681","wem/bandit_either_3","A3SOZYQZWJOOYS","either","6","261","","","","","","","0","0","1","","0.2","0.5","0.5","0.5","0.5","0.8","0.2","0.6","0.2","","","","","","","","","","","","74","J","1","","true","0","full_practice",""
"","bandit","73","321900","0.0-34.0-19.0","80544681","wem/bandit_either_3","A3SOZYQZWJOOYS","either","6","641","","","","","","","0","0","1","","0.2","0.5","0.5","0.5","0.5","0.8","0.2","0.6","0.2","","","","","","","","","","","","76","L","3","","true","0","full_practice",""
"","text","74","324229","0.0-35.0","80544681","wem/bandit_either_3","A3SOZYQZWJOOYS","either","6","2318","","32","","","","","","","","","","","","","","","","","","","","","","","","","","","","","","","","","","","",""
"","text","75","343059","0.0-36.0","80544681","wem/bandit_either_3","A3SOZYQZWJOOYS","either","6","17824","","32","","","","","","","","","","","","","","","","","","","","","","","","","","","","","","","","","","","",""
"","text","76","361802","0.0-37.0","80544681","wem/bandit_either_3","A3SOZYQZWJOOYS","either","6","18738","","32","","","","","","","","","","","","","","","","","","","","","","","","","","","","","","","","","","","",""
"","text","77","376761","0.0-38.0","80544681","wem/bandit_either_3","A3SOZYQZWJOOYS","either","6","14955","","32","","","","","","","","","","","","","","","","","","","","","","","","","","","","","","","","","","","",""
"","text","78","385810","0.0-39.0","80544681","wem/bandit_either_3","A3SOZYQZWJOOYS","either","6","9042","","32","","","","","","","","","","","","","","","","","","","","","","","","","","","","","","","","","","","",""
"","text","79","389685","0.0-40.0","80544681","wem/bandit_either_3","A3SOZYQZWJOOYS","either","6","3870","","32","","","","","","","","","","","","","","","","","","","","","","","","","","","","","","","","","","","",""
"","bandit","80","392269","0.0-41.0-0.0","80544681","wem/bandit_either_3","A3SOZYQZWJOOYS","either","6","1069","","","","","","","0","0","1","0.2309914537","","0.4","0.8","0.2","0.6","","","","","0.2309914537","0.3049938501","0.7197236342","0.1947351938","","","","","","","","72","H","0","img/none_selected.jpg","","1","main_expt",""
"","bandit","81","394110","0.0-42.0-0.0","80544681","wem/bandit_either_3","A3SOZYQZWJOOYS","either","6","325","","","","","","","0","0","1","","0.3105507028","0.4","0.8","0.2","0.6","0.2351366282","0.3105507028","0.7453792406","0.1865171684","","","","","","","","","","","","74","J","1","","","2","main_expt",""
"","bandit","82","395685","0.0-43.0-0.0","80544681","wem/bandit_either_3","A3SOZYQZWJOOYS","either","6","59","","","","","","","0","0","1","","0.7422746785","0.4","0.8","0.2","0.6","0.3338792953","0.347932066","0.7422746785","0.1578482069","","","","","","","","","","","","75","K","2","","","3","main_expt",""
"","bandit","83","397290","0.0-44.0-0.0","80544681","wem/bandit_either_3","A3SOZYQZWJOOYS","either","6","90","","","","","","","0","0","1","0.1733557992","","0.4","0.8","0.2","0.6","","","","","0.2578124611","0.294099503","0.8152876082","0.1733557992","","","","","","","","76","L","3","","","4","main_expt",""
"","bandit","84","399079","0.0-45.0-0.0","80544681","wem/bandit_either_3","A3SOZYQZWJOOYS","either","6","272","","","","","","","0","1","0","","0.8494846052","0.4","0.8","0.2","0.6","0.152782507","0.256228135","0.8494846052","0.1275681293","","","","","","","","","","","","75","K","2","","","5","main_expt",""
"","bandit","85","400854","0.0-46.0-0.0","80544681","wem/bandit_either_3","A3SOZYQZWJOOYS","either","6","264","","","","","","","1","0","0","0.8036792828","","0.4","0.8","0.2","0.6","","","","","0.200224935","0.3142053347","0.8036792828","0.1776351543","","","","","","","","75","K","2","","","6","main_expt",""
"","bandit","86","402638","0.0-47.0-0.0","80544681","wem/bandit_either_3","A3SOZYQZWJOOYS","either","6","275","","","","","","","1","0","0","0.8659664865","","0.4","0.8","0.2","0.6","","","","","0.2200442108","0.2382568898","0.8659664865","0.1412615145","","","","","","","","75","K","2","","","7","main_expt",""
"","bandit","87","404768","0.0-48.0-0.0","80544681","wem/bandit_either_3","A3SOZYQZWJOOYS","either","6","615","","","","","","","0","1","0","","0.8475436228","0.4","0.8","0.2","0.6","0.1516915951","0.220471749","0.8475436228","0.1508054742","","","","","","","","","","","","75","K","2","","","8","main_expt",""
"","bandit","88","406430","0.0-49.0-0.0","80544681","wem/bandit_either_3","A3SOZYQZWJOOYS","either","6","155","","","","","","","0","1","0","","0.8034999265","0.4","0.8","0.2","0.6","0.1468829212","0.2842820234","0.8034999265","0.1882404854","","","","","","","","","","","","75","K","2","","","9","main_expt",""
"","bandit","89","408877","0.0-50.0-0.0","80544681","wem/bandit_either_3","A3SOZYQZWJOOYS","either","6","931","","","","","","","0","0","1","","0.7148412232","0.4","0.8","0.2","0.6","0.1507643719","0.3392415315","0.7148412232","0.1731305678","","","","","","","","","","","","75","K","2","","","10","main_expt",""
"","bandit","90","412198","0.0-51.0-0.0","80544681","wem/bandit_either_3","A3SOZYQZWJOOYS","either","6","1806","","","","","","","0","1","0","","0.7213030285","0.4","0.8","0.2","0.6","0.18301","0.4470346709","0.7213030285","0.2475279461","","","","","","","","","","","","75","K","2","","","11","main_expt",""
"","bandit","91","413864","0.0-52.0-0.0","80544681","wem/bandit_either_3","A3SOZYQZWJOOYS","either","6","150","","","","","","","0","0","1","0.7396148754","","0.4","0.8","0.2","0.6","","","","","0.209562337","0.5143820195","0.7396148754","0.2068792089","","","","","","","","75","K","2","","","12","main_expt",""
"","bandit","92","416046","0.0-53.0-0.0","80544681","wem/bandit_either_3","A3SOZYQZWJOOYS","either","6","666","","","","","","","0","0","1","","0.6870781676","0.4","0.8","0.2","0.6","0.2133897639","0.4934308908","0.6870781676","0.1594062408","","","","","","","","","","","","75","K","2","","","13","main_expt",""
"","bandit","93","418102","0.0-54.0-0.0","80544681","wem/bandit_either_3","A3SOZYQZWJOOYS","either","6","540","","","","","","","0","0","1","","0.1865122749","0.4","0.8","0.2","0.6","0.1865122749","0.5884397519","0.6561171826","0.1808320347","","","","","","","","","","","","72","H","0","img/none_selected.jpg","","14","main_expt",""
"","bandit","94","419619","0.0-55.0-0.0","80544681","wem/bandit_either_3","A3SOZYQZWJOOYS","either","6","2","","","","","","","1","0","0","0.425765204","","0.4","0.8","0.2","0.6","","","","","0.3169691733","0.425765204","0.6255101569","0.2401125286","","","","","","","","74","J","1","","","15","main_expt",""
"","bandit","95","421471","0.0-56.0-0.0","80544681","wem/bandit_either_3","A3SOZYQZWJOOYS","either","6","342","","","","","","","0","0","1","0.4458974369","","0.4","0.8","0.2","0.6","","","","","0.3927767979","0.4458974369","0.6101220295","0.1823220599","","","","","","","","74","J","1","","","16","main_expt",""
"","bandit","96","422993","0.0-57.0-0.0","80544681","wem/bandit_either_3","A3SOZYQZWJOOYS","either","6","3","","","","","","","0","0","1","","0.4907358526","0.4","0.8","0.2","0.6","0.2882183284","0.4907358526","0.6233337625","0.2076179308","","","","","","","","","","","","74","J","1","","","17","main_expt",""
"","bandit","97","427150","0.0-58.0-0.0","80544681","wem/bandit_either_3","A3SOZYQZWJOOYS","either","6","2641","","","","","","","1","0","0","0.4895096529","","0.4","0.8","0.2","0.6","","","","","0.3212622409","0.4895096529","0.598865074","0.2310064443","","","","","","","","74","J","1","","","18","main_expt",""
"","bandit","98","429283","0.0-59.0-0.0","80544681","wem/bandit_either_3","A3SOZYQZWJOOYS","either","6","613","","","","","","","0","0","1","0.5437378015","","0.4","0.8","0.2","0.6","","","","","0.3678238944","0.5437378015","0.6318918302","0.1919199612","","","","","","","","74","J","1","","","19","main_expt",""
"","bandit","99","431948","0.0-60.0-0.0","80544681","wem/bandit_either_3","A3SOZYQZWJOOYS","either","6","1140","","","","","","","0","0","1","0.543071052","","0.4","0.8","0.2","0.6","","","","","0.4357360734","0.543071052","0.5667690756","0.2150176637","","","","","","","","74","J","1","","","20","main_expt",""
"","bandit","100","440366","0.0-61.0-0.0","80544681","wem/bandit_either_3","A3SOZYQZWJOOYS","either","6","6901","","","","","","","0","0","1","0.5457928974","","0.4","0.8","0.2","0.6","","","","","0.4486518506","0.5457928974","0.6364396753","0.2980309021","","","","","","","","74","J","1","","","21","main_expt",""
"","bandit","101","442517","0.0-62.0-0.0","80544681","wem/bandit_either_3","A3SOZYQZWJOOYS","either","6","636","","","","","","","0","0","1","0.3238742104","","0.4","0.8","0.2","0.6","","","","","0.5145372488","0.4531799458","0.5563436533","0.3238742104","","","","","","","","76","L","3","","","22","main_expt",""
"","bandit","102","444390","0.0-63.0-0.0","80544681","wem/bandit_either_3","A3SOZYQZWJOOYS","either","6","355","","","","","","","0","1","0","","0.6324996067","0.4","0.8","0.2","0.6","0.6324996067","0.4321579995","0.4555064456","0.4158928209","","","","","","","","","","","","72","H","0","img/none_selected.jpg","","23","main_expt",""
"","bandit","103","447596","0.0-64.0-0.0","80544681","wem/bandit_either_3","A3SOZYQZWJOOYS","either","6","1682","","","","","","","1","0","0","0.6665025749","","0.4","0.8","0.2","0.6","","","","","0.6665025749","0.3892872195","0.4398961724","0.2798670784","","","","","","","","72","H","0","img/none_selected.jpg","","24","main_expt",""
"","bandit","104","449646","0.0-65.0-0.0","80544681","wem/bandit_either_3","A3SOZYQZWJOOYS","either","6","532","","","","","","","0","0","1","0.5316582614","","0.4","0.8","0.2","0.6","","","","","0.5316582614","0.4322880781","0.3810464824","0.3932164435","","","","","","","","72","H","0","img/none_selected.jpg","","25","main_expt",""
"","bandit","105","451164","0.0-66.0-0.0","80544681","wem/bandit_either_3","A3SOZYQZWJOOYS","either","6","2","","","","","","","0","0","1","","0.451695138","0.4","0.8","0.2","0.6","0.4282094451","0.4560392573","0.451695138","0.3243459504","","","","","","","","","","","","75","K","2","","","26","main_expt",""
"","bandit","106","452841","0.0-67.0-0.0","80544681","wem/bandit_either_3","A3SOZYQZWJOOYS","either","6","162","","","","","","","0","1","0","","0.4711380508","0.4","0.8","0.2","0.6","0.4711380508","0.5372901799","0.4423729324","0.4266302179","","","","","","","","","","","","72","H","0","img/none_selected.jpg","","27","main_expt",""
"","bandit","107","454555","0.0-68.0-0.0","80544681","wem/bandit_either_3","A3SOZYQZWJOOYS","either","6","196","","","","","","","0","1","0","","0.4539290932","0.4","0.8","0.2","0.6","0.4539290932","0.6619872032","0.4221124674","0.4206607535","","","","","","","","","","","","72","H","0","img/none_selected.jpg","","28","main_expt",""
"","bandit","108","456411","0.0-69.0-0.0","80544681","wem/bandit_either_3","A3SOZYQZWJOOYS","either","6","340","","","","","","","0","0","1","0.4378511583","","0.4","0.8","0.2","0.6","","","","","0.4378511583","0.5939885142","0.489207998","0.440099583","","","","","","","","72","H","0","img/none_selected.jpg","","29","main_expt",""
"","bandit","109","457967","0.0-70.0-0.0","80544681","wem/bandit_either_3","A3SOZYQZWJOOYS","either","6","39","","","","","","","1","0","0","0.5602145404","","0.4","0.8","0.2","0.6","","","","","0.3425428874","0.5602145404","0.4406356357","0.3982168329","","","","","","","","74","J","1","","","30","main_expt",""
"","bandit","110","460809","0.0-71.0-0.0","80544681","wem/bandit_either_3","A3SOZYQZWJOOYS","either","6","1325","","","","","","","0","1","0","","0.5376870091","0.4","0.8","0.2","0.6","0.2354865125","0.5376870091","0.484130952","0.3573437221","","","","","","","","","","","","74","J","1","","","31","main_expt",""
"","bandit","111","462611","0.0-72.0-0.0","80544681","wem/bandit_either_3","A3SOZYQZWJOOYS","either","6","284","","","","","","","1","0","0","0.6346195819","","0.4","0.8","0.2","0.6","","","","","0.2552437171","0.6346195819","0.432294219","0.3712986889","","","","","","","","74","J","1","","","32","main_expt",""
"","bandit","112","464362","0.0-73.0-0.0","80544681","wem/bandit_either_3","A3SOZYQZWJOOYS","either","6","240","","","","","","","1","0","0","0.7540961955","","0.4","0.8","0.2","0.6","","","","","0.2470382599","0.7540961955","0.4821309474","0.45096985","","","","","","","","74","J","1","","","33","main_expt",""
"","bandit","113","478221","0.0-74.0-0.0","80544681","wem/bandit_either_3","A3SOZYQZWJOOYS","either","6","12340","","","","","","","1","0","0","0.699797925","","0.4","0.8","0.2","0.6","","","","","0.2951894024","0.699797925","0.4702474349","0.5559331637","","","","","","","","74","J","1","","","34","main_expt",""
"","bandit","114","522383","0.0-75.0-0.0","80544681","wem/bandit_either_3","A3SOZYQZWJOOYS","either","6","42644","","","","","","","1","0","0","0.7410295452","","0.4","0.8","0.2","0.6","","","","","0.2596626779","0.7410295452","0.5363697359","0.7354386419","","","","","","","","74","J","1","","","35","main_expt",""
"","bandit","115","524214","0.0-76.0-0.0","80544681","wem/bandit_either_3","A3SOZYQZWJOOYS","either","6","313","","","","","","","0","1","0","","0.7332281969","0.4","0.8","0.2","0.6","0.3164764808","0.7332281969","0.602250539","0.6934166837","","","","","","","","","","","","74","J","1","","","36","main_expt",""
"","bandit","116","527488","0.0-77.0-0.0","80544681","wem/bandit_either_3","A3SOZYQZWJOOYS","either","6","1756","","","","","","","0","1","0","","0.736713329","0.4","0.8","0.2","0.6","0.3672962009","0.736713329","0.5337433964","0.6311869688","","","","","","","","","","","","74","J","1","","","37","main_expt",""
"","bandit","117","530461","0.0-78.0-0.0","80544681","wem/bandit_either_3","A3SOZYQZWJOOYS","either","6","1455","","","","","","","1","0","0","0.6860808007","","0.4","0.8","0.2","0.6","","","","","0.4056598401","0.6860808007","0.5970413872","0.6583504975","","","","","","","","74","J","1","","","38","main_expt",""
"","bandit","118","532519","0.0-79.0-0.0","80544681","wem/bandit_either_3","A3SOZYQZWJOOYS","either","6","544","","","","","","","0","0","1","","0.7498761973","0.4","0.8","0.2","0.6","0.4236995386","0.7498761973","0.6529448079","0.5861321806","","","","","","","","","","","","74","J","1","","","39","main_expt",""
"","bandit","119","534372","0.0-80.0-0.0","80544681","wem/bandit_either_3","A3SOZYQZWJOOYS","either","6","333","","","","","","","0","0","1","0.7043283504","","0.4","0.8","0.2","0.6","","","","","0.4365163158","0.7043283504","0.6612991154","0.4892836735","","","","","","","","74","J","1","","","40","main_expt",""
"","bandit","120","536426","0.0-81.0-0.0","80544681","wem/bandit_either_3","A3SOZYQZWJOOYS","either","6","536","","","","","","","0","0","1","0.4854269132","","0.4","0.8","0.2","0.6","","","","","0.4854269132","0.6469690382","0.7390431107","0.3479900608","","","","","","","","72","H","0","img/none_selected.jpg","","41","main_expt",""
"","bandit","121","539070","0.0-82.0-0.0","80544681","wem/bandit_either_3","A3SOZYQZWJOOYS","either","6","1123","","","","","","","0","0","1","","0.376709287","0.4","0.8","0.2","0.6","0.4753587859","0.6388905256","0.7609423287","0.376709287","","","","","","","","","","","","76","L","3","","","42","main_expt",""
"","bandit","122","540912","0.0-83.0-0.0","80544681","wem/bandit_either_3","A3SOZYQZWJOOYS","either","6","325","","","","","","","1","0","0","0.8039673949","","0.4","0.8","0.2","0.6","","","","","0.452202747","0.6383372244","0.8039673949","0.4319300722","","","","","","","","75","K","2","","","43","main_expt",""
"","bandit","123","542652","0.0-84.0-0.0","80544681","wem/bandit_either_3","A3SOZYQZWJOOYS","either","6","221","","","","","","","0","1","0","","0.8216753652","0.4","0.8","0.2","0.6","0.5522191005","0.6247854939","0.8216753652","0.4458636389","","","","","","","","","","","","75","K","2","","","44","main_expt",""
"","bandit","124","544420","0.0-85.0-0.0","80544681","wem/bandit_either_3","A3SOZYQZWJOOYS","either","6","251","","","","","","","0","1","0","","0.7636866317","0.4","0.8","0.2","0.6","0.4878962787","0.6341880498","0.7636866317","0.4323480181","","","","","","","","","","","","75","K","2","","","45","main_expt",""
"","bandit","125","546384","0.0-86.0-0.0","80544681","wem/bandit_either_3","A3SOZYQZWJOOYS","either","6","446","","","","","","","0","1","0","","0.8203755575","0.4","0.8","0.2","0.6","0.487595293","0.5081310512","0.8203755575","0.4348202433","","","","","","","","","","","","75","K","2","","","46","main_expt",""
"","bandit","126","548665","0.0-87.0-0.0","80544681","wem/bandit_either_3","A3SOZYQZWJOOYS","either","6","762","","","","","","","0","1","0","","0.8706375764","0.4","0.8","0.2","0.6","0.444754188","0.4202927251","0.8706375764","0.3430847618","","","","","","","","","","","","75","K","2","","","47","main_expt",""
"","bandit","127","551711","0.0-88.0-0.0","80544681","wem/bandit_either_3","A3SOZYQZWJOOYS","either","6","1528","","","","","","","0","1","0","","0.8019506245","0.4","0.8","0.2","0.6","0.5044276746","0.4767868938","0.8019506245","0.2601977795","","","","","","","","","","","","75","K","2","","","48","main_expt",""
"","bandit","128","554207","0.0-89.0-0.0","80544681","wem/bandit_either_3","A3SOZYQZWJOOYS","either","6","979","","","","","","","0","1","0","","0.7331224435","0.4","0.8","0.2","0.6","0.3766714482","0.3749468019","0.7331224435","0.2368144698","","","","","","","","","","","","75","K","2","","","49","main_expt",""
"","bandit","129","555842","0.0-90.0-0.0","80544681","wem/bandit_either_3","A3SOZYQZWJOOYS","either","6","116","","","","","","","0","1","0","","0.7908344101","0.4","0.8","0.2","0.6","0.406992786","0.3532902347","0.7908344101","0.2484527115","","","","","","","","","","","","75","K","2","","","50","main_expt",""
"","bandit","130","557470","0.0-91.0-0.0","80544681","wem/bandit_either_3","A3SOZYQZWJOOYS","either","6","112","","","","","","","0","0","1","","0.7922828235","0.4","0.8","0.2","0.6","0.3854505747","0.2413466802","0.7922828235","0.230268934","","","","","","","","","","","","75","K","2","","","51","main_expt",""
"","bandit","131","559185","0.0-92.0-0.0","80544681","wem/bandit_either_3","A3SOZYQZWJOOYS","either","6","197","","","","","","","0","1","0","","0.7485378942","0.4","0.8","0.2","0.6","0.3956915145","0.2673723166","0.7485378942","0.3429002399","","","","","","","","","","","","75","K","2","","","52","main_expt",""
"","bandit","132","560775","0.0-93.0-0.0","80544681","wem/bandit_either_3","A3SOZYQZWJOOYS","either","6","71","","","","","","","0","1","0","","0.6603794952","0.4","0.8","0.2","0.6","0.3062348001","0.2806035608","0.6603794952","0.2871029552","","","","","","","","","","","","75","K","2","","","53","main_expt",""
"","bandit","133","562437","0.0-94.0-0.0","80544681","wem/bandit_either_3","A3SOZYQZWJOOYS","either","6","145","","","","","","","0","1","0","","0.6931449795","0.4","0.8","0.2","0.6","0.2996500993","0.2544312064","0.6931449795","0.2594444468","","","","","","","","","","","","75","K","2","","","54","main_expt",""
"","bandit","134","564199","0.0-95.0-0.0","80544681","wem/bandit_either_3","A3SOZYQZWJOOYS","either","6","245","","","","","","","0","0","1","","0.7553272845","0.4","0.8","0.2","0.6","0.2518247787","0.3362815808","0.7553272845","0.3333749245","","","","","","","","","","","","75","K","2","","","55","main_expt",""
"","bandit","135","565767","0.0-96.0-0.0","80544681","wem/bandit_either_3","A3SOZYQZWJOOYS","either","6","51","","","","","","","1","0","0","0.7231548626","","0.4","0.8","0.2","0.6","","","","","0.3014763065","0.3798256012","0.7231548626","0.3049104067","","","","","","","","75","K","2","","","56","main_expt",""
"","bandit","136","567716","0.0-97.0-0.0","80544681","wem/bandit_either_3","A3SOZYQZWJOOYS","either","6","431","","","","","","","0","1","0","","0.7485901337","0.4","0.8","0.2","0.6","0.2730843718","0.3989549393","0.7485901337","0.3623273811","","","","","","","","","","","","75","K","2","","","57","main_expt",""
"","bandit","137","569702","0.0-98.0-0.0","80544681","wem/bandit_either_3","A3SOZYQZWJOOYS","either","6","468","","","","","","","0","1","0","","0.797082508","0.4","0.8","0.2","0.6","0.367239041","0.3373398956","0.797082508","0.3621169042","","","","","","","","","","","","75","K","2","","","58","main_expt",""
"","bandit","138","571892","0.0-99.0-0.0","80544681","wem/bandit_either_3","A3SOZYQZWJOOYS","either","6","670","","","","","","","0","1","0","","0.7466963627","0.4","0.8","0.2","0.6","0.4005220403","0.3381045731","0.7466963627","0.3672848169","","","","","","","","","","","","75","K","2","","","59","main_expt",""
"","bandit","139","573792","0.0-100.0-0.0","80544681","wem/bandit_either_3","A3SOZYQZWJOOYS","either","6","384","","","","","","","1","0","0","0.6359615323","","0.4","0.8","0.2","0.6","","","","","0.4863912708","0.4838111383","0.6359615323","0.5123874715","","","","","","","","75","K","2","","","60","main_expt",""
"","bandit","140","576016","0.0-101.0-0.0","80544681","wem/bandit_either_3","A3SOZYQZWJOOYS","either","6","705","","","","","","","0","0","1","","0.7125939799","0.4","0.8","0.2","0.6","0.5220595343","0.4290776342","0.7125939799","0.5218319631","","","","","","","","","","","","75","K","2","","","61","main_expt",""
"","bandit","141","577938","0.0-102.0-0.0","80544681","wem/bandit_either_3","A3SOZYQZWJOOYS","either","6","413","","","","","","","1","0","0","0.5978650666","","0.4","0.8","0.2","0.6","","","","","0.5447889898","0.4387439774","0.5978650666","0.6482151027","","","","","","","","75","K","2","","","62","main_expt",""
"","bandit","142","579531","0.0-103.0-0.0","80544681","wem/bandit_either_3","A3SOZYQZWJOOYS","either","6","72","","","","","","","0","1","0","","0.5166338879","0.4","0.8","0.2","0.6","0.5517390004","0.3670418014","0.5166338879","0.6966290852","","","","","","","","","","","","75","K","2","","","63","main_expt",""
"","bandit","143","581206","0.0-104.0-0.0","80544681","wem/bandit_either_3","A3SOZYQZWJOOYS","either","6","157","","","","","","","0","1","0","","0.4901650138","0.4","0.8","0.2","0.6","0.6576188384","0.3470393933","0.4901650138","0.6497033777","","","","","","","","","","","","75","K","2","","","64","main_expt",""
"","bandit","144","582862","0.0-105.0-0.0","80544681","wem/bandit_either_3","A3SOZYQZWJOOYS","either","6","134","","","","","","","0","1","0","","0.459365688","0.4","0.8","0.2","0.6","0.5156176703","0.3361574661","0.459365688","0.6925184903","","","","","","","","","","","","75","K","2","","","65","main_expt",""
"","bandit","145","584724","0.0-106.0-0.0","80544681","wem/bandit_either_3","A3SOZYQZWJOOYS","either","6","343","","","","","","","0","1","0","","0.4666104807","0.4","0.8","0.2","0.6","0.3851410914","0.34308242","0.4666104807","0.8298767513","","","","","","","","","","","","75","K","2","","","66","main_expt",""
"","bandit","146","586469","0.0-107.0-0.0","80544681","wem/bandit_either_3","A3SOZYQZWJOOYS","either","6","224","","","","","","","0","0","1","","0.5547259005","0.4","0.8","0.2","0.6","0.3925250542","0.3730603492","0.5547259005","0.8506596021","","","","","","","","","","","","75","K","2","","","67","main_expt",""
"","bandit","147","588271","0.0-108.0-0.0","80544681","wem/bandit_either_3","A3SOZYQZWJOOYS","either","6","287","","","","","","","1","0","0","0.6038719492","","0.4","0.8","0.2","0.6","","","","","0.3884113518","0.4089949532","0.6038719492","0.8536910832","","","","","","","","75","K","2","","","68","main_expt",""
"","bandit","148","590028","0.0-109.0-0.0","80544681","wem/bandit_either_3","A3SOZYQZWJOOYS","either","6","239","","","","","","","0","1","0","","0.6148283845","0.4","0.8","0.2","0.6","0.3434478979","0.3749002533","0.6148283845","0.8642538991","","","","","","","","","","","","75","K","2","","","69","main_expt",""
"","bandit","149","591887","0.0-110.0-0.0","80544681","wem/bandit_either_3","A3SOZYQZWJOOYS","either","6","340","","","","","","","0","1","0","","0.6683283761","0.4","0.8","0.2","0.6","0.4426642051","0.4133869845","0.6683283761","0.8073802352","","","","","","","","","","","","75","K","2","","","70","main_expt",""
"","bandit","150","593443","0.0-111.0-0.0","80544681","wem/bandit_either_3","A3SOZYQZWJOOYS","either","6","38","","","","","","","1","0","0","0.738459761","","0.4","0.8","0.2","0.6","","","","","0.4518046004","0.3302164541","0.738459761","0.8059201048","","","","","","","","75","K","2","","","71","main_expt",""
"","bandit","151","595167","0.0-112.0-0.0","80544681","wem/bandit_either_3","A3SOZYQZWJOOYS","either","6","205","","","","","","","0","0","1","","0.6525166508","0.4","0.8","0.2","0.6","0.4903223245","0.2570952275","0.6525166508","0.8262275011","","","","","","","","","","","","75","K","2","","","72","main_expt",""
"","bandit","152","597675","0.0-113.0-0.0","80544681","wem/bandit_either_3","A3SOZYQZWJOOYS","either","6","989","","","","","","","0","0","1","","0.5715134512","0.4","0.8","0.2","0.6","0.5296083002","0.2042885023","0.5715134512","0.7334390718","","","","","","","","","","","","75","K","2","","","73","main_expt",""
"","bandit","153","599854","0.0-114.0-0.0","80544681","wem/bandit_either_3","A3SOZYQZWJOOYS","either","6","661","","","","","","","0","0","1","","0.6228045854","0.4","0.8","0.2","0.6","0.4883026933","0.2152837516","0.6228045854","0.7490977197","","","","","","","","","","","","75","K","2","","","74","main_expt",""
"","bandit","154","603462","0.0-115.0-0.0","80544681","wem/bandit_either_3","A3SOZYQZWJOOYS","either","6","2088","","","","","","","0","1","0","","0.4914171484","0.4","0.8","0.2","0.6","0.4914171484","0.2044775694","0.613630376","0.7554087461","","","","","","","","","","","","72","H","0","img/none_selected.jpg","","75","main_expt",""
"","bandit","155","605783","0.0-116.0-0.0","80544681","wem/bandit_either_3","A3SOZYQZWJOOYS","either","6","803","","","","","","","0","0","1","","0.6059218973","0.4","0.8","0.2","0.6","0.6059218973","0.2247613499","0.7047266053","0.804443878","","","","","","","","","","","","72","H","0","img/none_selected.jpg","","76","main_expt",""
"","bandit","156","607364","0.0-117.0-0.0","80544681","wem/bandit_either_3","A3SOZYQZWJOOYS","either","6","65","","","","","","","0","0","1","0.553792366","","0.4","0.8","0.2","0.6","","","","","0.553792366","0.2266335256","0.6910360943","0.6656620098","","","","","","","","72","H","0","img/none_selected.jpg","","77","main_expt",""
"","bandit","157","609236","0.0-118.0-0.0","80544681","wem/bandit_either_3","A3SOZYQZWJOOYS","either","6","351","","","","","","","0","0","1","","0.6884193839","0.4","0.8","0.2","0.6","0.6884193839","0.1659731505","0.5515992215","0.5898140708","","","","","","","","","","","","72","H","0","img/none_selected.jpg","","78","main_expt",""
"","bandit","158","611131","0.0-119.0-0.0","80544681","wem/bandit_either_3","A3SOZYQZWJOOYS","either","6","379","","","","","","","0","0","1","0.2343921172","","0.4","0.8","0.2","0.6","","","","","0.7214277645","0.2343921172","0.6448399581","0.613215191","","","","","","","","74","J","1","","","79","main_expt",""
"","bandit","159","612818","0.0-120.0-0.0","80544681","wem/bandit_either_3","A3SOZYQZWJOOYS","either","6","177","","","","","","","0","0","1","0.4605925783","","0.4","0.8","0.2","0.6","","","","","0.7328142644","0.2164054515","0.739479497","0.4605925783","","","","","","","","76","L","3","","","80","main_expt",""
"","bandit","160","614456","0.0-121.0-0.0","80544681","wem/bandit_either_3","A3SOZYQZWJOOYS","either","6","116","","","","","","","0","1","0","","0.5390789087","0.4","0.8","0.2","0.6","0.7101675561","0.1361232007","0.6956071838","0.5390789087","","","","","","","","","","","","76","L","3","","","81","main_expt",""
"","bandit","161","616165","0.0-122.0-0.0","80544681","wem/bandit_either_3","A3SOZYQZWJOOYS","either","6","190","","","","","","","0","0","1","","0.621290364","0.4","0.8","0.2","0.6","0.6984384541","0.2275447725","0.5886517937","0.621290364","","","","","","","","","","","","76","L","3","","","82","main_expt",""
"","bandit","162","617736","0.0-123.0-0.0","80544681","wem/bandit_either_3","A3SOZYQZWJOOYS","either","6","54","","","","","","","0","1","0","","0.6359424421","0.4","0.8","0.2","0.6","0.7447883659","0.1900607051","0.4764182235","0.6359424421","","","","","","","","","","","","76","L","3","","","83","main_expt",""
"","bandit","163","619800","0.0-124.0-0.0","80544681","wem/bandit_either_3","A3SOZYQZWJOOYS","either","6","545","","","","","","","1","0","0","0.6133664729","","0.4","0.8","0.2","0.6","","","","","0.6900592863","0.1306868958","0.5149027494","0.6133664729","","","","","","","","76","L","3","","","84","main_expt",""
"","bandit","164","621881","0.0-125.0-0.0","80544681","wem/bandit_either_3","A3SOZYQZWJOOYS","either","6","562","","","","","","","0","1","0","","0.7815463305","0.4","0.8","0.2","0.6","0.7010597455","0.1683201849","0.4908067213","0.7815463305","","","","","","","","","","","","76","L","3","","","85","main_expt",""
"","bandit","165","623612","0.0-126.0-0.0","80544681","wem/bandit_either_3","A3SOZYQZWJOOYS","either","6","212","","","","","","","1","0","0","0.7355789231","","0.4","0.8","0.2","0.6","","","","","0.6171062652","0.1290314955","0.4139472458","0.7355789231","","","","","","","","76","L","3","","","86","main_expt",""
"","bandit","166","625135","0.0-127.0-0.0","80544681","wem/bandit_either_3","A3SOZYQZWJOOYS","either","6","9","","","","","","","0","0","1","0.7267399876","","0.4","0.8","0.2","0.6","","","","","0.5629375242","0.2297537383","0.4253818619","0.7267399876","","","","","","","","76","L","3","","","87","main_expt",""
"","bandit","167","626910","0.0-128.0-0.0","80544681","wem/bandit_either_3","A3SOZYQZWJOOYS","either","6","263","","","","","","","1","0","0","0.7703195612","","0.4","0.8","0.2","0.6","","","","","0.6434443074","0.1878263516","0.4448862761","0.7703195612","","","","","","","","76","L","3","","","88","main_expt",""
"","bandit","168","628661","0.0-129.0-0.0","80544681","wem/bandit_either_3","A3SOZYQZWJOOYS","either","6","236","","","","","","","0","1","0","","0.81872988","0.4","0.8","0.2","0.6","0.7296698787","0.1896964823","0.4295642349","0.81872988","","","","","","","","","","","","76","L","3","","","89","main_expt",""
"","bandit","169","630346","0.0-130.0-0.0","80544681","wem/bandit_either_3","A3SOZYQZWJOOYS","either","6","164","","","","","","","0","1","0","","0.8032570632","0.4","0.8","0.2","0.6","0.7042864347","0.1614970172","0.3655203192","0.8032570632","","","","","","","","","","","","76","L","3","","","90","main_expt",""
"","bandit","170","632172","0.0-131.0-0.0","80544681","wem/bandit_either_3","A3SOZYQZWJOOYS","either","6","308","","","","","","","1","0","0","0.8257352781","","0.4","0.8","0.2","0.6","","","","","0.7606559624","0.2107705911","0.402428746","0.8257352781","","","","","","","","76","L","3","","","91","main_expt",""
"","bandit","171","634032","0.0-132.0-0.0","80544681","wem/bandit_either_3","A3SOZYQZWJOOYS","either","6","338","","","","","","","0","0","1","0.7762210657","","0.4","0.8","0.2","0.6","","","","","0.8466818248","0.1317951273","0.452733603","0.7762210657","","","","","","","","76","L","3","","","92","main_expt",""
"","bandit","172","635713","0.0-133.0-0.0","80544681","wem/bandit_either_3","A3SOZYQZWJOOYS","either","6","169","","","","","","","0","1","0","","0.8293629201","0.4","0.8","0.2","0.6","0.8181600593","0.09268613222","0.5416456901","0.8293629201","","","","","","","","","","","","76","L","3","","","93","main_expt",""
"","bandit","173","637500","0.0-134.0-0.0","80544681","wem/bandit_either_3","A3SOZYQZWJOOYS","either","6","266","","","","","","","1","0","0","0.7849393417","","0.4","0.8","0.2","0.6","","","","","0.7259749053","0.06418168538","0.5246039132","0.7849393417","","","","","","","","76","L","3","","","94","main_expt",""
"","bandit","174","639037","0.0-135.0-0.0","80544681","wem/bandit_either_3","A3SOZYQZWJOOYS","either","6","15","","","","","","","0","1","0","","0.7850226125","0.4","0.8","0.2","0.6","0.6538641892","0.100072779","0.606801291","0.7850226125","","","","","","","","","","","","76","L","3","","","95","main_expt",""
"","bandit","175","640960","0.0-136.0-0.0","80544681","wem/bandit_either_3","A3SOZYQZWJOOYS","either","6","409","","","","","","","0","1","0","","0.8013150942","0.4","0.8","0.2","0.6","0.6384360591","0.09628221604","0.7175242067","0.8013150942","","","","","","","","","","","","76","L","3","","","96","main_expt",""
"","bandit","176","642616","0.0-137.0-0.0","80544681","wem/bandit_either_3","A3SOZYQZWJOOYS","either","6","144","","","","","","","0","0","1","0.70340399","","0.4","0.8","0.2","0.6","","","","","0.6836118029","0.1335622201","0.7706560561","0.70340399","","","","","","","","76","L","3","","","97","main_expt",""
"","bandit","177","644722","0.0-138.0-0.0","80544681","wem/bandit_either_3","A3SOZYQZWJOOYS","either","6","585","","","","","","","0","1","0","","0.7562517051","0.4","0.8","0.2","0.6","0.659457158","0.167202632","0.7234704616","0.7562517051","","","","","","","","","","","","76","L","3","","","98","main_expt",""
"","bandit","178","647311","0.0-139.0-0.0","80544681","wem/bandit_either_3","A3SOZYQZWJOOYS","either","6","1070","","","","","","","1","0","0","0.6514659141","","0.4","0.8","0.2","0.6","","","","","0.7726162223","0.1216125457","0.6582042781","0.6514659141","","","","","","","","76","L","3","","","99","main_expt",""
"","bandit","179","650324","0.0-140.0-0.0","80544681","wem/bandit_either_3","A3SOZYQZWJOOYS","either","6","1495","","","","","","","1","0","0","0.7112237606","","0.4","0.8","0.2","0.6","","","","","0.8446518706","0.1163239148","0.6530973887","0.7112237606","","","","","","","","76","L","3","","","100","main_expt",""
"","bandit","180","652321","0.0-141.0-0.0","80544681","wem/bandit_either_3","A3SOZYQZWJOOYS","either","6","486","","","","","","","1","0","0","0.6865981462","","0.4","0.8","0.2","0.6","","","","","0.8784151442","0.1037928869","0.6690961394","0.6865981462","","","","","","","","76","L","3","","","101","main_expt",""
"","bandit","181","654231","0.0-142.0-0.0","80544681","wem/bandit_either_3","A3SOZYQZWJOOYS","either","6","391","","","","","","","1","0","0","0.6663704066","","0.4","0.8","0.2","0.6","","","","","0.8781202538","0.0991068806","0.6268844929","0.6663704066","","","","","","","","76","L","3","","","102","main_expt",""
"","bandit","182","656535","0.0-143.0-0.0","80544681","wem/bandit_either_3","A3SOZYQZWJOOYS","either","6","783","","","","","","","1","0","0","0.6006744832","","0.4","0.8","0.2","0.6","","","","","0.8123732176","0.1226752409","0.6657789595","0.6006744832","","","","","","","","76","L","3","","","103","main_expt",""
"","bandit","183","658370","0.0-144.0-0.0","80544681","wem/bandit_either_3","A3SOZYQZWJOOYS","either","6","315","","","","","","","1","0","0","0.518723913","","0.4","0.8","0.2","0.6","","","","","0.8461937008","0.1552466415","0.6951589836","0.518723913","","","","","","","","76","L","3","","","104","main_expt",""
"","bandit","184","660102","0.0-145.0-0.0","80544681","wem/bandit_either_3","A3SOZYQZWJOOYS","either","6","210","","","","","","","1","0","0","0.5343999165","","0.4","0.8","0.2","0.6","","","","","0.8664825842","0.1702138509","0.6382729445","0.5343999165","","","","","","","","76","L","3","","","105","main_expt",""
"","bandit","185","661693","0.0-146.0-0.0","80544681","wem/bandit_either_3","A3SOZYQZWJOOYS","either","6","68","","","","","","","1","0","0","0.4959998489","","0.4","0.8","0.2","0.6","","","","","0.8703997655","0.2021425125","0.7139624249","0.4959998489","","","","","","","","76","L","3","","","106","main_expt",""
"","bandit","186","669169","0.0-147.0-0.0","80544681","wem/bandit_either_3","A3SOZYQZWJOOYS","either","6","5952","","","","","","","0","1","0","","0.5052663648","0.4","0.8","0.2","0.6","0.8964314806","0.2196373816","0.7718136471","0.5052663648","","","","","","","","","","","","76","L","3","","","107","main_expt",""
"","bandit","187","671012","0.0-148.0-0.0","80544681","wem/bandit_either_3","A3SOZYQZWJOOYS","either","6","322","","","","","","","0","0","1","","0.4859582203","0.4","0.8","0.2","0.6","0.9080126319","0.2393661099","0.8818715302","0.4859582203","","","","","","","","","","","","76","L","3","","","108","main_expt",""
"","bandit","188","672691","0.0-149.0-0.0","80544681","wem/bandit_either_3","A3SOZYQZWJOOYS","either","6","157","","","","","","","0","1","0","","0.523617738","0.4","0.8","0.2","0.6","0.8880845243","0.2516352594","0.8757741924","0.523617738","","","","","","","","","","","","76","L","3","","","109","main_expt",""
"","bandit","189","674453","0.0-150.0-0.0","80544681","wem/bandit_either_3","A3SOZYQZWJOOYS","either","6","242","","","","","","","0","0","1","","0.5492010791","0.4","0.8","0.2","0.6","0.899251136","0.2424291788","0.8657151097","0.5492010791","","","","","","","","","","","","76","L","3","","","110","main_expt",""
"","bandit","190","676450","0.0-151.0-0.0","80544681","wem/bandit_either_3","A3SOZYQZWJOOYS","either","6","471","","","","","","","1","0","0","0.5467154696","","0.4","0.8","0.2","0.6","","","","","0.9019514556","0.2033086481","0.8457624762","0.5467154696","","","","","","","","76","L","3","","","111","main_expt",""
"","bandit","191","678637","0.0-152.0-0.0","80544681","wem/bandit_either_3","A3SOZYQZWJOOYS","either","6","667","","","","","","","0","1","0","","0.5396215981","0.4","0.8","0.2","0.6","0.9315537639","0.208613213","0.8756116827","0.5396215981","","","","","","","","","","","","76","L","3","","","112","main_expt",""
"","bandit","192","680688","0.0-153.0-0.0","80544681","wem/bandit_either_3","A3SOZYQZWJOOYS","either","6","530","","","","","","","0","0","1","","0.5542875214","0.4","0.8","0.2","0.6","0.9254394702","0.2743958833","0.8773181328","0.5542875214","","","","","","","","","","","","76","L","3","","","113","main_expt",""
"","bandit","193","682464","0.0-154.0-0.0","80544681","wem/bandit_either_3","A3SOZYQZWJOOYS","either","6","253","","","","","","","1","0","0","0.8842236373","","0.4","0.8","0.2","0.6","","","","","0.9394904604","0.2657329006","0.8842236373","0.6411428718","","","","","","","","75","K","2","","","114","main_expt",""
"","bandit","194","684082","0.0-155.0-0.0","80544681","wem/bandit_either_3","A3SOZYQZWJOOYS","either","6","98","","","","","","","0","1","0","","0.8499121835","0.4","0.8","0.2","0.6","0.9533355239","0.3234316928","0.8499121835","0.7261400339","","","","","","","","","","","","75","K","2","","","115","main_expt",""
"","bandit","195","685725","0.0-156.0-0.0","80544681","wem/bandit_either_3","A3SOZYQZWJOOYS","either","6","120","","","","","","","0","1","0","","0.7890056153","0.4","0.8","0.2","0.6","0.960842596","0.3625587123","0.7890056153","0.7395407697","","","","","","","","","","","","75","K","2","","","116","main_expt",""
"","bandit","196","687397","0.0-157.0-0.0","80544681","wem/bandit_either_3","A3SOZYQZWJOOYS","either","6","151","","","","","","","0","0","1","","0.7709890197","0.4","0.8","0.2","0.6","0.937733065","0.4946904956","0.7709890197","0.8231731708","","","","","","","","","","","","75","K","2","","","117","main_expt",""
"","bandit","197","689104","0.0-158.0-0.0","80544681","wem/bandit_either_3","A3SOZYQZWJOOYS","either","6","185","","","","","","","1","0","0","0.7459937787","","0.4","0.8","0.2","0.6","","","","","0.9561499645","0.6246330079","0.7459937787","0.8278750807","","","","","","","","75","K","2","","","118","main_expt",""
"","bandit","198","690624","0.0-159.0-0.0","80544681","wem/bandit_either_3","A3SOZYQZWJOOYS","either","6","2","","","","","","","1","0","0","0.716881491","","0.4","0.8","0.2","0.6","","","","","0.9595118281","0.5818097722","0.716881491","0.8715827524","","","","","","","","75","K","2","","","119","main_expt",""
"","bandit","199","692537","0.0-160.0-0.0","80544681","wem/bandit_either_3","A3SOZYQZWJOOYS","either","6","399","","","","","","","0","0","1","","0.6595649419","0.4","0.8","0.2","0.6","0.9548463758","0.5990025551","0.6595649419","0.8522670476","","","","","","","","","","","","75","K","2","","","120","main_expt",""
"","bandit","200","694633","0.0-161.0-0.0","80544681","wem/bandit_either_3","A3SOZYQZWJOOYS","either","6","575","","","","","","","0","0","1","","0.6576447048","0.4","0.8","0.2","0.6","0.958085665","0.6534424477","0.6576447048","0.8266542562","","","","","","","","","","","","75","K","2","","","121","main_expt",""
"","bandit","201","696374","0.0-162.0-0.0","80544681","wem/bandit_either_3","A3SOZYQZWJOOYS","either","6","219","","","","","","","0","1","0","","0.9630601427","0.4","0.8","0.2","0.6","0.9630601427","0.5952731017","0.6391957719","0.81688531","","","","","","","","","","","","72","H","0","img/none_selected.jpg","","122","main_expt",""
"","bandit","202","698166","0.0-163.0-0.0","80544681","wem/bandit_either_3","A3SOZYQZWJOOYS","either","6","270","","","","","","","0","1","0","","0.9790283764","0.4","0.8","0.2","0.6","0.9790283764","0.6469086187","0.5873908865","0.8307363081","","","","","","","","","","","","72","H","0","img/none_selected.jpg","","123","main_expt",""
"","bandit","203","701395","0.0-164.0-0.0","80544681","wem/bandit_either_3","A3SOZYQZWJOOYS","either","6","1709","","","","","","","1","0","0","0.9718765302","","0.4","0.8","0.2","0.6","","","","","0.9718765302","0.6911454426","0.6592760984","0.6943824695","","","","","","","","72","H","0","img/none_selected.jpg","","124","main_expt",""
"","bandit","204","703289","0.0-165.0-0.0","80544681","wem/bandit_either_3","A3SOZYQZWJOOYS","either","6","372","","","","","","","1","0","0","0.9845173964","","0.4","0.8","0.2","0.6","","","","","0.9845173964","0.750572215","0.6012083746","0.7137568944","","","","","","","","72","H","0","img/none_selected.jpg","","125","main_expt",""
"","bandit","205","705248","0.0-166.0-0.0","80544681","wem/bandit_either_3","A3SOZYQZWJOOYS","either","6","437","","","","","","","0","1","0","","0.9804670004","0.4","0.8","0.2","0.6","0.9804670004","0.8108432581","0.6043440275","0.6878742658","","","","","","","","","","","","72","H","0","img/none_selected.jpg","","126","main_expt",""
"","bandit","206","707389","0.0-167.0-0.0","80544681","wem/bandit_either_3","A3SOZYQZWJOOYS","either","6","620","","","","","","","0","1","0","","0.9792667249","0.4","0.8","0.2","0.6","0.9792667249","0.8338196277","0.5043142332","0.6175454059","","","","","","","","","","","","72","H","0","img/none_selected.jpg","","127","main_expt",""
"","bandit","207","709553","0.0-168.0-0.0","80544681","wem/bandit_either_3","A3SOZYQZWJOOYS","either","6","641","","","","","","","1","0","0","0.9853815399","","0.4","0.8","0.2","0.6","","","","","0.9853815399","0.8624128669","0.5778209799","0.5556505876","","","","","","","","72","H","0","img/none_selected.jpg","","128","main_expt",""
"","bandit","208","711960","0.0-169.0-0.0","80544681","wem/bandit_either_3","A3SOZYQZWJOOYS","either","6","887","","","","","","","1","0","0","0.9838319732","","0.4","0.8","0.2","0.6","","","","","0.9838319732","0.9026068167","0.5806273004","0.5948532478","","","","","","","","72","H","0","img/none_selected.jpg","","129","main_expt",""
"","bandit","209","713553","0.0-170.0-0.0","80544681","wem/bandit_either_3","A3SOZYQZWJOOYS","either","6","73","","","","","","","1","0","0","0.9798768453","","0.4","0.8","0.2","0.6","","","","","0.9798768453","0.8983636673","0.4152233618","0.6646968067","","","","","","","","72","H","0","img/none_selected.jpg","","130","main_expt",""
"","bandit","210","715422","0.0-171.0-0.0","80544681","wem/bandit_either_3","A3SOZYQZWJOOYS","either","6","347","","","","","","","1","0","0","0.9628017066","","0.4","0.8","0.2","0.6","","","","","0.9628017066","0.888478962","0.4527057242","0.6676177377","","","","","","","","72","H","0","img/none_selected.jpg","","131","main_expt",""
"","bandit","211","717451","0.0-172.0-0.0","80544681","wem/bandit_either_3","A3SOZYQZWJOOYS","either","6","506","","","","","","","0","1","0","","0.9723970119","0.4","0.8","0.2","0.6","0.9723970119","0.8470567254","0.5185753891","0.7638630926","","","","","","","","","","","","72","H","0","img/none_selected.jpg","","132","main_expt",""
"","bandit","212","719518","0.0-173.0-0.0","80544681","wem/bandit_either_3","A3SOZYQZWJOOYS","either","6","547","","","","","","","0","0","1","0.9754432393","","0.4","0.8","0.2","0.6","","","","","0.9754432393","0.8852081265","0.4567386081","0.726350598","","","","","","","","72","H","0","img/none_selected.jpg","","133","main_expt",""
"","bandit","213","721360","0.0-174.0-0.0","80544681","wem/bandit_either_3","A3SOZYQZWJOOYS","either","6","333","","","","","","","0","1","0","","0.9635376407","0.4","0.8","0.2","0.6","0.9635376407","0.8317422298","0.4494056808","0.7638059904","","","","","","","","","","","","72","H","0","img/none_selected.jpg","","134","main_expt",""
"","bandit","214","723313","0.0-175.0-0.0","80544681","wem/bandit_either_3","A3SOZYQZWJOOYS","either","6","432","","","","","","","0","1","0","","0.9304273523","0.4","0.8","0.2","0.6","0.9304273523","0.8121858422","0.4608562393","0.7337835984","","","","","","","","","","","","72","H","0","img/none_selected.jpg","","135","main_expt",""
"","bandit","215","726187","0.0-176.0-0.0","80544681","wem/bandit_either_3","A3SOZYQZWJOOYS","either","6","1353","","","","","","","0","1","0","","0.9295592062","0.4","0.8","0.2","0.6","0.9295592062","0.8473276522","0.6684020244","0.7869055623","","","","","","","","","","","","72","H","0","img/none_selected.jpg","","136","main_expt",""
"","bandit","216","727779","0.0-177.0-0.0","80544681","wem/bandit_either_3","A3SOZYQZWJOOYS","either","6","68","","","","","","","1","0","0","0.9343332129","","0.4","0.8","0.2","0.6","","","","","0.9343332129","0.8251243182","0.614137061","0.8033651193","","","","","","","","72","H","0","img/none_selected.jpg","","137","main_expt",""
"","bandit","217","729337","0.0-178.0-0.0","80544681","wem/bandit_either_3","A3SOZYQZWJOOYS","either","6","38","","","","","","","0","1","0","","0.9325781127","0.4","0.8","0.2","0.6","0.9325781127","0.7892590299","0.711021659","0.7620089345","","","","","","","","","","","","72","H","0","img/none_selected.jpg","","138","main_expt",""
"","bandit","218","731032","0.0-179.0-0.0","80544681","wem/bandit_either_3","A3SOZYQZWJOOYS","either","6","177","","","","","","","0","1","0","","0.9687763229","0.4","0.8","0.2","0.6","0.9687763229","0.753698647","0.5731932267","0.8098853196","","","","","","","","","","","","72","H","0","img/none_selected.jpg","","139","main_expt",""
"","bandit","219","733294","0.0-180.0-0.0","80544681","wem/bandit_either_3","A3SOZYQZWJOOYS","either","6","748","","","","","","","0","1","0","","0.9520204639","0.4","0.8","0.2","0.6","0.9520204639","0.7281837229","0.6553783698","0.8737133651","","","","","","","","","","","","72","H","0","img/none_selected.jpg","","140","main_expt",""
"","bandit","220","735505","0.0-181.0-0.0","80544681","wem/bandit_either_3","A3SOZYQZWJOOYS","either","6","693","","","","","","","1","0","0","0.9615613541","","0.4","0.8","0.2","0.6","","","","","0.9615613541","0.7913145473","0.5665224918","0.8464817719","","","","","","","","72","H","0","img/none_selected.jpg","","141","main_expt",""
"","bandit","221","737032","0.0-182.0-0.0","80544681","wem/bandit_either_3","A3SOZYQZWJOOYS","either","6","6","","","","","","","0","1","0","","0.9438722422","0.4","0.8","0.2","0.6","0.9438722422","0.7498898283","0.5230460729","0.8457688645","","","","","","","","","","","","72","H","0","img/none_selected.jpg","","142","main_expt",""
"","bandit","222","739797","0.0-183.0-0.0","80544681","wem/bandit_either_3","A3SOZYQZWJOOYS","either","6","1246","","","","","","","1","0","0","0.9419241064","","0.4","0.8","0.2","0.6","","","","","0.9419241064","0.723110339","0.5401897842","0.8801682128","","","","","","","","72","H","0","img/none_selected.jpg","","143","main_expt",""
"","bandit","223","741728","0.0-184.0-0.0","80544681","wem/bandit_either_3","A3SOZYQZWJOOYS","either","6","410","","","","","","","0","1","0","","0.9383966058","0.4","0.8","0.2","0.6","0.9383966058","0.7697142539","0.5495292383","0.7806105972","","","","","","","","","","","","72","H","0","img/none_selected.jpg","","144","main_expt",""
"","bandit","224","743499","0.0-185.0-0.0","80544681","wem/bandit_either_3","A3SOZYQZWJOOYS","either","6","251","","","","","","","0","1","0","","0.9442204223","0.4","0.8","0.2","0.6","0.9442204223","0.8279494337","0.4718854897","0.7384744451","","","","","","","","","","","","72","H","0","img/none_selected.jpg","","145","main_expt",""
"","bandit","225","745397","0.0-186.0-0.0","80544681","wem/bandit_either_3","A3SOZYQZWJOOYS","either","6","377","","","","","","","0","1","0","","0.9461270134","0.4","0.8","0.2","0.6","0.9461270134","0.747104877","0.3790577705","0.7078417075","","","","","","","","","","","","72","H","0","img/none_selected.jpg","","146","main_expt",""
"","bandit","226","747885","0.0-187.0-0.0","80544681","wem/bandit_either_3","A3SOZYQZWJOOYS","either","6","970","","","","","","","0","1","0","","0.9677113618","0.4","0.8","0.2","0.6","0.9677113618","0.7635883185","0.3671333747","0.7671729372","","","","","","","","","","","","72","H","0","img/none_selected.jpg","","147","main_expt",""
"","bandit","227","750584","0.0-188.0-0.0","80544681","wem/bandit_either_3","A3SOZYQZWJOOYS","either","6","1177","","","","","","","0","1","0","","0.9603287673","0.4","0.8","0.2","0.6","0.9603287673","0.6650729927","0.4462771912","0.7515071201","","","","","","","","","","","","72","H","0","img/none_selected.jpg","","148","main_expt",""
"","bandit","228","752796","0.0-189.0-0.0","80544681","wem/bandit_either_3","A3SOZYQZWJOOYS","either","6","692","","","","","","","0","0","1","","0.9256305183","0.4","0.8","0.2","0.6","0.9256305183","0.594527628","0.3929125452","0.7582160768","","","","","","","","","","","","72","H","0","img/none_selected.jpg","","149","main_expt",""
"","bandit","229","754654","0.0-190.0-0.0","80544681","wem/bandit_either_3","A3SOZYQZWJOOYS","either","6","335","","","","","","","0","1","0","","0.9222609783","0.4","0.8","0.2","0.6","0.9222609783","0.5101412162","0.3825194633","0.6843302658","","","","","","","","","","","","72","H","0","img/none_selected.jpg","","150","main_expt",""
"","bandit","230","756742","0.0-191.0-0.0","80544681","wem/bandit_either_3","A3SOZYQZWJOOYS","either","6","571","","","","","","","1","0","0","0.9522131909","","0.4","0.8","0.2","0.6","","","","","0.9522131909","0.5755011036","0.3889652011","0.4980827124","","","","","","","","72","H","0","img/none_selected.jpg","","151","main_expt",""
"","bandit","231","758791","0.0-192.0-0.0","80544681","wem/bandit_either_3","A3SOZYQZWJOOYS","either","6","527","","","","","","","1","0","0","0.9351777179","","0.4","0.8","0.2","0.6","","","","","0.9351777179","0.5415628766","0.372169082","0.5418861514","","","","","","","","72","H","0","img/none_selected.jpg","","152","main_expt",""
"","bandit","232","761094","0.0-193.0-0.0","80544681","wem/bandit_either_3","A3SOZYQZWJOOYS","either","6","774","","","","","","","1","0","0","0.9526549669","","0.4","0.8","0.2","0.6","","","","","0.9526549669","0.6392888902","0.4275919172","0.6424708626","","","","","","","","72","H","0","img/none_selected.jpg","","153","main_expt",""
"","bandit","233","1332337","0.0-194.0-0.0","80544681","wem/bandit_either_3","A3SOZYQZWJOOYS","either","6","569720","","","","","","","0","0","1","","0.6798835142","0.4","0.8","0.2","0.6","0.944677936","0.6798835142","0.3978897223","0.6200403258","","","","","","","","","","","","74","J","1","","","154","main_expt",""
"","bandit","234","1334769","0.0-195.0-0.0","80544681","wem/bandit_either_3","A3SOZYQZWJOOYS","either","6","908","","","","","","","1","0","0","0.4922143253","","0.4","0.8","0.2","0.6","","","","","0.9443948233","0.7376683638","0.4922143253","0.5087788092","","","","","","","","75","K","2","","","155","main_expt",""
"","bandit","235","1336997","0.0-196.0-0.0","80544681","wem/bandit_either_3","A3SOZYQZWJOOYS","either","6","708","","","","","","","0","1","0","","0.5060601407","0.4","0.8","0.2","0.6","0.9312029685","0.7740838489","0.5060601407","0.4397360723","","","","","","","","","","","","75","K","2","","","156","main_expt",""
"","bandit","236","1342479","0.0-197.0-0.0","80544681","wem/bandit_either_3","A3SOZYQZWJOOYS","either","6","3962","","","","","","","1","0","0","0.56460533","","0.4","0.8","0.2","0.6","","","","","0.9009413449","0.7526352547","0.56460533","0.4529934193","","","","","","","","75","K","2","","","157","main_expt",""
"","bandit","237","1345642","0.0-198.0-0.0","80544681","wem/bandit_either_3","A3SOZYQZWJOOYS","either","6","1643","","","","","","","1","0","0","0.5551408743","","0.4","0.8","0.2","0.6","","","","","0.8799225656","0.807066173","0.5551408743","0.522014142","","","","","","","","75","K","2","","","158","main_expt",""
"","bandit","238","1348607","0.0-199.0-0.0","80544681","wem/bandit_either_3","A3SOZYQZWJOOYS","either","6","1451","","","","","","","0","1","0","","0.6362487126","0.4","0.8","0.2","0.6","0.9103166083","0.8348587906","0.6362487126","0.447178695","","","","","","","","","","","","75","K","2","","","159","main_expt",""
"","bandit","239","1353901","0.0-200.0-0.0","80544681","wem/bandit_either_3","A3SOZYQZWJOOYS","either","6","3763","","","","","","","0","1","0","","0.5818198138","0.4","0.8","0.2","0.6","0.9575168601","0.8054329593","0.5818198138","0.4293784973","","","","","","","","","","","","75","K","2","","","160","main_expt",""
"","bandit","240","1356988","0.0-201.0-0.0","80544681","wem/bandit_either_3","A3SOZYQZWJOOYS","either","6","1567","","","","","","","0","1","0","","0.5079421761","0.4","0.8","0.2","0.6","0.9323430526","0.8263011938","0.5079421761","0.4263694152","","","","","","","","","","","","75","K","2","","","161","main_expt",""
"","bandit","241","1358987","0.0-202.0-0.0","80544681","wem/bandit_either_3","A3SOZYQZWJOOYS","either","6","476","","","","","","","0","0","1","0.3944353318","","0.4","0.8","0.2","0.6","","","","","0.8731035433","0.8468561623","0.3944353318","0.4394756583","","","","","","","","75","K","2","","","162","main_expt",""
"","bandit","242","1361701","0.0-203.0-0.0","80544681","wem/bandit_either_3","A3SOZYQZWJOOYS","either","6","1192","","","","","","","0","0","1","","0.4560534757","0.4","0.8","0.2","0.6","0.860239847","0.866861138","0.4560534757","0.4632532181","","","","","","","","","","","","75","K","2","","","163","main_expt",""
"","bandit","243","1364302","0.0-204.0-0.0","80544681","wem/bandit_either_3","A3SOZYQZWJOOYS","either","6","1080","","","","","","","0","0","1","","0.4338988853","0.4","0.8","0.2","0.6","0.8327160304","0.8621839131","0.4338988853","0.469091439","","","","","","","","","","","","75","K","2","","","164","main_expt",""
"","bandit","244","1366195","0.0-205.0-0.0","80544681","wem/bandit_either_3","A3SOZYQZWJOOYS","either","6","374","","","","","","","0","1","0","","0.8780399083","0.4","0.8","0.2","0.6","0.8780399083","0.8368369455","0.3640020004","0.4691854483","","","","","","","","","","","","72","H","0","img/none_selected.jpg","","165","main_expt",""
"","bandit","245","1368014","0.0-206.0-0.0","80544681","wem/bandit_either_3","A3SOZYQZWJOOYS","either","6","296","","","","","","","0","1","0","","0.8659509199","0.4","0.8","0.2","0.6","0.8659509199","0.8543831227","0.4433911144","0.424594696","","","","","","","","","","","","72","H","0","img/none_selected.jpg","","166","main_expt",""
"","bandit","246","1369579","0.0-207.0-0.0","80544681","wem/bandit_either_3","A3SOZYQZWJOOYS","either","6","53","","","","","","","1","0","0","0.8458676595","","0.4","0.8","0.2","0.6","","","","","0.8458676595","0.8444257961","0.4852122499","0.4691217736","","","","","","","","72","H","0","img/none_selected.jpg","","167","main_expt",""
"","bandit","247","1371635","0.0-208.0-0.0","80544681","wem/bandit_either_3","A3SOZYQZWJOOYS","either","6","524","","","","","","","0","0","1","0.7368025647","","0.4","0.8","0.2","0.6","","","","","0.7368025647","0.8895061166","0.4829488348","0.4605946041","","","","","","","","72","H","0","img/none_selected.jpg","","168","main_expt",""
"","bandit","248","1373215","0.0-209.0-0.0","80544681","wem/bandit_either_3","A3SOZYQZWJOOYS","either","6","64","","","","","","","0","1","0","","0.6811301937","0.4","0.8","0.2","0.6","0.6811301937","0.8980662015","0.467087579","0.4302520818","","","","","","","","","","","","72","H","0","img/none_selected.jpg","","169","main_expt",""
"","bandit","249","1374839","0.0-210.0-0.0","80544681","wem/bandit_either_3","A3SOZYQZWJOOYS","either","6","102","","","","","","","0","1","0","","0.6781719117","0.4","0.8","0.2","0.6","0.6781719117","0.9399190154","0.3575164989","0.3846086554","","","","","","","","","","","","72","H","0","img/none_selected.jpg","","170","main_expt",""
"","bandit","250","1376791","0.0-211.0-0.0","80544681","wem/bandit_either_3","A3SOZYQZWJOOYS","either","6","431","","","","","","","0","0","1","","0.5779776893","0.4","0.8","0.2","0.6","0.5779776893","0.9199626721","0.3433755155","0.4938912128","","","","","","","","","","","","72","H","0","img/none_selected.jpg","","171","main_expt",""
"","bandit","251","1378592","0.0-212.0-0.0","80544681","wem/bandit_either_3","A3SOZYQZWJOOYS","either","6","281","","","","","","","0","1","0","","0.5461867433","0.4","0.8","0.2","0.6","0.5461867433","0.8885959212","0.2921203137","0.5409242696","","","","","","","","","","","","72","H","0","img/none_selected.jpg","","172","main_expt",""
"","bandit","252","1380399","0.0-213.0-0.0","80544681","wem/bandit_either_3","A3SOZYQZWJOOYS","either","6","284","","","","","","","0","1","0","","0.5898781272","0.4","0.8","0.2","0.6","0.5898781272","0.8502068985","0.3237382503","0.4899310385","","","","","","","","","","","","72","H","0","img/none_selected.jpg","","173","main_expt",""
"","bandit","253","1382121","0.0-214.0-0.0","80544681","wem/bandit_either_3","A3SOZYQZWJOOYS","either","6","199","","","","","","","1","0","0","0.5990225055","","0.4","0.8","0.2","0.6","","","","","0.5990225055","0.9054067092","0.2935635685","0.4464532747","","","","","","","","72","H","0","img/none_selected.jpg","","174","main_expt",""
"","bandit","254","1383995","0.0-215.0-0.0","80544681","wem/bandit_either_3","A3SOZYQZWJOOYS","either","6","352","","","","","","","0","1","0","","0.6129624105","0.4","0.8","0.2","0.6","0.6129624105","0.9096893241","0.2797951809","0.4363040476","","","","","","","","","","","","72","H","0","img/none_selected.jpg","","175","main_expt",""
"","bandit","255","1385771","0.0-216.0-0.0","80544681","wem/bandit_either_3","A3SOZYQZWJOOYS","either","6","265","","","","","","","0","0","1","","0.5434192492","0.4","0.8","0.2","0.6","0.5434192492","0.9081003197","0.2067270565","0.4198776974","","","","","","","","","","","","72","H","0","img/none_selected.jpg","","176","main_expt",""
"","bandit","256","1388673","0.0-217.0-0.0","80544681","wem/bandit_either_3","A3SOZYQZWJOOYS","either","6","1391","","","","","","","0","1","0","","0.5893108522","0.4","0.8","0.2","0.6","0.5893108522","0.8417535431","0.19266164","0.4001478854","","","","","","","","","","","","72","H","0","img/none_selected.jpg","","177","main_expt",""
"","bandit","257","1390561","0.0-218.0-0.0","80544681","wem/bandit_either_3","A3SOZYQZWJOOYS","either","6","363","","","","","","","1","0","0","0.4862463398","","0.4","0.8","0.2","0.6","","","","","0.4862463398","0.8045518304","0.1393448617","0.3015477047","","","","","","","","72","H","0","img/none_selected.jpg","","178","main_expt",""
"","bandit","258","1392240","0.0-219.0-0.0","80544681","wem/bandit_either_3","A3SOZYQZWJOOYS","either","6","157","","","","","","","0","0","1","","0.4227787996","0.4","0.8","0.2","0.6","0.4227787996","0.8250115846","0.1149816072","0.2700131006","","","","","","","","","","","","72","H","0","img/none_selected.jpg","","179","main_expt",""
"","bandit","259","1395084","0.0-220.0-0.0","80544681","wem/bandit_either_3","A3SOZYQZWJOOYS","either","6","1320","","","","","","","0","1","0","","0.3583368423","0.4","0.8","0.2","0.6","0.3583368423","0.7418096358","0.1231561222","0.3473069","","","","","","","","","","","","72","H","0","img/none_selected.jpg","","180","main_expt",""
"","bandit","260","1396953","0.0-221.0-0.0","80544681","wem/bandit_either_3","A3SOZYQZWJOOYS","either","6","347","","","","","","","0","1","0","","0.3820052134","0.4","0.8","0.2","0.6","0.3820052134","0.7180260456","0.1134989143","0.3478804011","","","","","","","","","","","","72","H","0","img/none_selected.jpg","","181","main_expt",""
"","bandit","261","1399938","0.0-222.0-0.0","80544681","wem/bandit_either_3","A3SOZYQZWJOOYS","either","6","1473","","","","","","","0","1","0","","0.437769555","0.4","0.8","0.2","0.6","0.437769555","0.6777378447","0.07317944644","0.3304981007","","","","","","","","","","","","72","H","0","img/none_selected.jpg","","182","main_expt",""
"","bandit","262","1401598","0.0-223.0-0.0","80544681","wem/bandit_either_3","A3SOZYQZWJOOYS","either","6","148","","","","","","","0","0","1","0.3951330089","","0.4","0.8","0.2","0.6","","","","","0.3951330089","0.6331465848","0.05085611098","0.2578466268","","","","","","","","72","H","0","img/none_selected.jpg","","183","main_expt",""
"","bandit","263","1403738","0.0-224.0-0.0","80544681","wem/bandit_either_3","A3SOZYQZWJOOYS","either","6","613","","","","","","","1","0","0","0.4062376343","","0.4","0.8","0.2","0.6","","","","","0.4062376343","0.6578519513","0.07152820202","0.3550464129","","","","","","","","72","H","0","img/none_selected.jpg","","184","main_expt",""
"","bandit","264","1405742","0.0-225.0-0.0","80544681","wem/bandit_either_3","A3SOZYQZWJOOYS","either","6","480","","","","","","","0","1","0","","0.4035727276","0.4","0.8","0.2","0.6","0.4035727276","0.7160298793","0.08814522307","0.2993299556","","","","","","","","","","","","72","H","0","img/none_selected.jpg","","185","main_expt",""
"","bandit","265","1407666","0.0-226.0-0.0","80544681","wem/bandit_either_3","A3SOZYQZWJOOYS","either","6","402","","","","","","","0","0","1","","0.4595565904","0.4","0.8","0.2","0.6","0.4595565904","0.7081703269","0.0931487442","0.3985972224","","","","","","","","","","","","72","H","0","img/none_selected.jpg","","186","main_expt",""
"","bandit","266","1409309","0.0-227.0-0.0","80544681","wem/bandit_either_3","A3SOZYQZWJOOYS","either","6","122","","","","","","","0","0","1","0.4956959756","","0.4","0.8","0.2","0.6","","","","","0.4956959756","0.7670757258","0.05847154344","0.4563810555","","","","","","","","72","H","0","img/none_selected.jpg","","187","main_expt",""
"","bandit","267","1410920","0.0-228.0-0.0","80544681","wem/bandit_either_3","A3SOZYQZWJOOYS","either","6","87","","","","","","","0","0","1","0.4295585103","","0.4","0.8","0.2","0.6","","","","","0.4295585103","0.7986884496","0.05005107021","0.4621092719","","","","","","","","72","H","0","img/none_selected.jpg","","188","main_expt",""
"","bandit","268","1412717","0.0-229.0-0.0","80544681","wem/bandit_either_3","A3SOZYQZWJOOYS","either","6","281","","","","","","","0","0","1","0.4121259827","","0.4","0.8","0.2","0.6","","","","","0.4121259827","0.8113194514","0.05158958255","0.4214675273","","","","","","","","72","H","0","img/none_selected.jpg","","189","main_expt",""
"","bandit","269","1414938","0.0-230.0-0.0","80544681","wem/bandit_either_3","A3SOZYQZWJOOYS","either","6","697","","","","","","","0","1","0","","0.40505342","0.4","0.8","0.2","0.6","0.40505342","0.8311477635","0.0530996007","0.4445162903","","","","","","","","","","","","72","H","0","img/none_selected.jpg","","190","main_expt",""
"","bandit","270","1416807","0.0-231.0-0.0","80544681","wem/bandit_either_3","A3SOZYQZWJOOYS","either","6","344","","","","","","","0","0","1","","0.3671493273","0.4","0.8","0.2","0.6","0.3671493273","0.7941336253","0.05342003941","0.4077799102","","","","","","","","","","","","72","H","0","img/none_selected.jpg","","191","main_expt",""
"","bandit","271","1418862","0.0-232.0-0.0","80544681","wem/bandit_either_3","A3SOZYQZWJOOYS","either","6","532","","","","","","","0","0","1","0.413117206","","0.4","0.8","0.2","0.6","","","","","0.3367263454","0.841847859","0.05264216412","0.413117206","","","","","","","","76","L","3","","","192","main_expt",""
"","bandit","272","1420574","0.0-233.0-0.0","80544681","wem/bandit_either_3","A3SOZYQZWJOOYS","either","6","187","","","","","","","1","0","0","0.374663265","","0.4","0.8","0.2","0.6","","","","","0.2587514209","0.865127625","0.07418965368","0.374663265","","","","","","","","76","L","3","","","193","main_expt",""
"","bandit","273","1422380","0.0-234.0-0.0","80544681","wem/bandit_either_3","A3SOZYQZWJOOYS","either","6","281","","","","","","","0","0","1","0.2792309937","","0.4","0.8","0.2","0.6","","","","","0.2123696513","0.8369883383","0.1148515542","0.2792309937","","","","","","","","76","L","3","","","194","main_expt",""
"","bandit","274","1423922","0.0-235.0-0.0","80544681","wem/bandit_either_3","A3SOZYQZWJOOYS","either","6","15","","","","","","","0","0","1","0.1102075851","","0.4","0.8","0.2","0.6","","","","","0.2551117677","0.8226177272","0.1102075851","0.3090424304","","","","","","","","75","K","2","","","195","main_expt",""
"","bandit","275","1425802","0.0-236.0-0.0","80544681","wem/bandit_either_3","A3SOZYQZWJOOYS","either","6","350","","","","","","","1","0","0","0.8759919892","","0.4","0.8","0.2","0.6","","","","","0.2948177706","0.8759919892","0.09307195637","0.2254203465","","","","","","","","74","J","1","","","196","main_expt",""
"","bandit","276","1427326","0.0-237.0-0.0","80544681","wem/bandit_either_3","A3SOZYQZWJOOYS","either","6","1","","","","","","","1","0","0","0.9413038234","","0.4","0.8","0.2","0.6","","","","","0.2864074111","0.9413038234","0.08341332984","0.2104085952","","","","","","","","74","J","1","","","197","main_expt",""
"","bandit","277","1429033","0.0-238.0-0.0","80544681","wem/bandit_either_3","A3SOZYQZWJOOYS","either","6","184","","","","","","","1","0","0","0.9384937307","","0.4","0.8","0.2","0.6","","","","","0.3044962429","0.9384937307","0.06206278739","0.1686499416","","","","","","","","74","J","1","","","198","main_expt",""
"","bandit","278","1430824","0.0-239.0-0.0","80544681","wem/bandit_either_3","A3SOZYQZWJOOYS","either","6","267","","","","","","","0","1","0","","0.927250614","0.4","0.8","0.2","0.6","0.2804127106","0.927250614","0.1015706687","0.1696058054","","","","","","","","","","","","74","J","1","","","199","main_expt",""
"","bandit","279","1432536","0.0-240.0-0.0","80544681","wem/bandit_either_3","A3SOZYQZWJOOYS","either","6","195","","","","","","","1","0","0","0.8840406778","","0.4","0.8","0.2","0.6","","","","","0.3151112274","0.8840406778","0.07348353789","0.1940139532","","","","","","","","74","J","1","","","200","main_expt",""
"","bandit","280","1434428","0.0-241.0-0.0","80544681","wem/bandit_either_3","A3SOZYQZWJOOYS","either","6","364","","","","","","","1","0","0","0.8866639954","","0.4","0.8","0.2","0.6","","","","","0.3124471347","0.8866639954","0.09218994405","0.2384341862","","","","","","","","74","J","1","","","201","main_expt",""
"","bandit","281","1436314","0.0-242.0-0.0","80544681","wem/bandit_either_3","A3SOZYQZWJOOYS","either","6","362","","","","","","","1","0","0","0.8188103646","","0.4","0.8","0.2","0.6","","","","","0.3418115628","0.8188103646","0.1662378481","0.2069173963","","","","","","","","74","J","1","","","202","main_expt",""
"","bandit","282","1438608","0.0-243.0-0.0","80544681","wem/bandit_either_3","A3SOZYQZWJOOYS","either","6","766","","","","","","","1","0","0","0.8026106274","","0.4","0.8","0.2","0.6","","","","","0.2676578736","0.8026106274","0.1808123801","0.2502389624","","","","","","","","74","J","1","","","203","main_expt",""
"","bandit","283","1440478","0.0-244.0-0.0","80544681","wem/bandit_either_3","A3SOZYQZWJOOYS","either","6","340","","","","","","","1","0","0","0.6613987003","","0.4","0.8","0.2","0.6","","","","","0.2513587973","0.6613987003","0.2011980288","0.2226806","","","","","","","","74","J","1","","","204","main_expt",""
"","bandit","284","1442507","0.0-245.0-0.0","80544681","wem/bandit_either_3","A3SOZYQZWJOOYS","either","6","503","","","","","","","1","0","0","0.7402115251","","0.4","0.8","0.2","0.6","","","","","0.2733703365","0.7402115251","0.1877492959","0.2327973494","","","","","","","","74","J","1","","","205","main_expt",""
"","bandit","285","1444803","0.0-246.0-0.0","80544681","wem/bandit_either_3","A3SOZYQZWJOOYS","either","6","769","","","","","","","0","1","0","","0.6792505986","0.4","0.8","0.2","0.6","0.3212331514","0.6792505986","0.1891298069","0.3134624789","","","","","","","","","","","","74","J","1","","","206","main_expt",""
"","bandit","286","1446456","0.0-247.0-0.0","80544681","wem/bandit_either_3","A3SOZYQZWJOOYS","either","6","128","","","","","","","0","0","1","0.6510378203","","0.4","0.8","0.2","0.6","","","","","0.3381772831","0.6510378203","0.2092890992","0.3808856429","","","","","","","","74","J","1","","","207","main_expt",""
"","bandit","287","1448610","0.0-248.0-0.0","80544681","wem/bandit_either_3","A3SOZYQZWJOOYS","either","6","626","","","","","","","1","0","0","0.5971377862","","0.4","0.8","0.2","0.6","","","","","0.2370260631","0.5971377862","0.2563161799","0.318509643","","","","","","","","74","J","1","","","208","main_expt",""
"","bandit","288","1450630","0.0-249.0-0.0","80544681","wem/bandit_either_3","A3SOZYQZWJOOYS","either","6","486","","","","","","","1","0","0","0.6040603887","","0.4","0.8","0.2","0.6","","","","","0.2157004535","0.6040603887","0.2643940457","0.2932847295","","","","","","","","74","J","1","","","209","main_expt",""
"","bandit","289","1452488","0.0-250.0-0.0","80544681","wem/bandit_either_3","A3SOZYQZWJOOYS","either","6","342","","","","","","","1","0","0","0.7794442159","","0.4","0.8","0.2","0.6","","","","","0.2655169153","0.7794442159","0.2710870001","0.2230023122","","","","","","","","74","J","1","","","210","main_expt",""
"","bandit","290","1454483","0.0-251.0-0.0","80544681","wem/bandit_either_3","A3SOZYQZWJOOYS","either","6","468","","","","","","","1","0","0","0.8397026392","","0.4","0.8","0.2","0.6","","","","","0.2359505063","0.8397026392","0.2056380183","0.1899351836","","","","","","","","74","J","1","","","211","main_expt",""
"","bandit","291","1456534","0.0-252.0-0.0","80544681","wem/bandit_either_3","A3SOZYQZWJOOYS","either","6","525","","","","","","","1","0","0","0.7883870126","","0.4","0.8","0.2","0.6","","","","","0.2431981852","0.7883870126","0.2487045614","0.2593929449","","","","","","","","74","J","1","","","212","main_expt",""
"","bandit","292","1458354","0.0-253.0-0.0","80544681","wem/bandit_either_3","A3SOZYQZWJOOYS","either","6","296","","","","","","","0","1","0","","0.7160446845","0.4","0.8","0.2","0.6","0.3385658967","0.7160446845","0.3520378668","0.2304425673","","","","","","","","","","","","74","J","1","","","213","main_expt",""
"","bandit","293","1460235","0.0-254.0-0.0","80544681","wem/bandit_either_3","A3SOZYQZWJOOYS","either","6","354","","","","","","","1","0","0","0.7501162241","","0.4","0.8","0.2","0.6","","","","","0.445002088","0.7501162241","0.3455661114","0.2849244028","","","","","","","","74","J","1","","","214","main_expt",""
"","bandit","294","1461833","0.0-255.0-0.0","80544681","wem/bandit_either_3","A3SOZYQZWJOOYS","either","6","70","","","","","","","1","0","0","0.7574589115","","0.4","0.8","0.2","0.6","","","","","0.4340580748","0.7574589115","0.3290646698","0.3184819088","","","","","","","","74","J","1","","","215","main_expt",""
"","bandit","295","1463787","0.0-256.0-0.0","80544681","wem/bandit_either_3","A3SOZYQZWJOOYS","either","6","427","","","","","","","1","0","0","0.7376674805","","0.4","0.8","0.2","0.6","","","","","0.3996931216","0.7376674805","0.2737258078","0.2989728513","","","","","","","","74","J","1","","","216","main_expt",""
"","bandit","296","1465865","0.0-257.0-0.0","80544681","wem/bandit_either_3","A3SOZYQZWJOOYS","either","6","554","","","","","","","0","0","1","0.67262171","","0.4","0.8","0.2","0.6","","","","","0.453570069","0.67262171","0.2401291484","0.5538830624","","","","","","","","74","J","1","","","217","main_expt",""
"","bandit","297","1467834","0.0-258.0-0.0","80544681","wem/bandit_either_3","A3SOZYQZWJOOYS","either","6","441","","","","","","","1","0","0","0.6309662891","","0.4","0.8","0.2","0.6","","","","","0.3566620654","0.6309662891","0.2395298113","0.5331458927","","","","","","","","74","J","1","","","218","main_expt",""
"","bandit","298","1469824","0.0-259.0-0.0","80544681","wem/bandit_either_3","A3SOZYQZWJOOYS","either","6","463","","","","","","","1","0","0","0.610488243","","0.4","0.8","0.2","0.6","","","","","0.3114207129","0.610488243","0.2333127667","0.409279481","","","","","","","","74","J","1","","","219","main_expt",""
"","bandit","299","1471712","0.0-260.0-0.0","80544681","wem/bandit_either_3","A3SOZYQZWJOOYS","either","6","361","","","","","","","1","0","0","0.6741838821","","0.4","0.8","0.2","0.6","","","","","0.348491043","0.6741838821","0.2097963002","0.3910907299","","","","","","","","74","J","1","","","220","main_expt",""
"","bandit","300","1473576","0.0-261.0-0.0","80544681","wem/bandit_either_3","A3SOZYQZWJOOYS","either","6","338","","","","","","","0","0","1","0.6938787555","","0.4","0.8","0.2","0.6","","","","","0.325682353","0.6938787555","0.1761429423","0.37386253","","","","","","","","74","J","1","","","221","main_expt",""
"","bandit","301","1475448","0.0-262.0-0.0","80544681","wem/bandit_either_3","A3SOZYQZWJOOYS","either","6","345","","","","","","","1","0","0","0.622086605","","0.4","0.8","0.2","0.6","","","","","0.3582518194","0.622086605","0.1770547834","0.5460784034","","","","","","","","74","J","1","","","222","main_expt",""
"","bandit","302","1477352","0.0-263.0-0.0","80544681","wem/bandit_either_3","A3SOZYQZWJOOYS","either","6","375","","","","","","","1","0","0","0.6190419158","","0.4","0.8","0.2","0.6","","","","","0.3596631187","0.6190419158","0.1494166006","0.5484594206","","","","","","","","74","J","1","","","223","main_expt",""
"","bandit","303","1479235","0.0-264.0-0.0","80544681","wem/bandit_either_3","A3SOZYQZWJOOYS","either","6","356","","","","","","","1","0","0","0.6525227655","","0.4","0.8","0.2","0.6","","","","","0.4757784632","0.6525227655","0.1444184755","0.5156266917","","","","","","","","74","J","1","","","224","main_expt",""
"","bandit","304","1481402","0.0-265.0-0.0","80544681","wem/bandit_either_3","A3SOZYQZWJOOYS","either","6","641","","","","","","","0","0","1","","0.5739960468","0.4","0.8","0.2","0.6","0.5384710229","0.5739960468","0.2381889698","0.5120039273","","","","","","","","","","","","74","J","1","","","225","main_expt",""
"","bandit","305","1482949","0.0-266.0-0.0","80544681","wem/bandit_either_3","A3SOZYQZWJOOYS","either","6","20","","","","","","","1","0","0","0.6038380469","","0.4","0.8","0.2","0.6","","","","","0.5308581489","0.6038380469","0.1429230379","0.5568413113","","","","","","","","74","J","1","","","226","main_expt",""
"","bandit","306","1484852","0.0-267.0-0.0","80544681","wem/bandit_either_3","A3SOZYQZWJOOYS","either","6","372","","","","","","","0","1","0","","0.5203417309","0.4","0.8","0.2","0.6","0.488482713","0.5203417309","0.124100867","0.5277183188","","","","","","","","","","","","74","J","1","","","227","main_expt",""
"","bandit","307","1486638","0.0-268.0-0.0","80544681","wem/bandit_either_3","A3SOZYQZWJOOYS","either","6","256","","","","","","","0","0","1","0.4263922038","","0.4","0.8","0.2","0.6","","","","","0.4406219513","0.4263922038","0.1762219884","0.5041270258","","","","","","","","74","J","1","","","228","main_expt",""
"","bandit","308","1488779","0.0-269.0-0.0","80544681","wem/bandit_either_3","A3SOZYQZWJOOYS","either","6","621","","","","","","","0","1","0","","0.3475105047","0.4","0.8","0.2","0.6","0.4892119921","0.3475105047","0.1910325121","0.4541369304","","","","","","","","","","","","74","J","1","","","229","main_expt",""
"","bandit","309","1490670","0.0-270.0-0.0","80544681","wem/bandit_either_3","A3SOZYQZWJOOYS","either","6","366","","","","","","","0","1","0","","0.2571549068","0.4","0.8","0.2","0.6","0.5129573662","0.3353007417","0.2571549068","0.4504381994","","","","","","","","","","","","75","K","2","","","230","main_expt",""
"","bandit","310","1492900","0.0-271.0-0.0","80544681","wem/bandit_either_3","A3SOZYQZWJOOYS","either","6","715","","","","","","","0","0","1","","0.1781345747","0.4","0.8","0.2","0.6","0.4382888871","0.2870546929","0.1781345747","0.4698668598","","","","","","","","","","","","75","K","2","","","231","main_expt",""
"","bandit","311","1495004","0.0-272.0-0.0","80544681","wem/bandit_either_3","A3SOZYQZWJOOYS","either","6","576","","","","","","","0","0","1","","0.1748933913","0.4","0.8","0.2","0.6","0.42174841","0.3092655517","0.1748933913","0.5460008395","","","","","","","","","","","","75","K","2","","","232","main_expt",""
"","bandit","312","1496543","0.0-273.0-0.0","80544681","wem/bandit_either_3","A3SOZYQZWJOOYS","either","6","13","","","","","","","1","0","0","0.5345299581","","0.4","0.8","0.2","0.6","","","","","0.4297142637","0.4231157335","0.2196371411","0.5345299581","","","","","","","","76","L","3","","","233","main_expt",""
"","bandit","313","1498529","0.0-274.0-0.0","80544681","wem/bandit_either_3","A3SOZYQZWJOOYS","either","6","458","","","","","","","0","0","1","0.508060833","","0.4","0.8","0.2","0.6","","","","","0.3016140143","0.5525929145","0.2052749597","0.508060833","","","","","","","","76","L","3","","","234","main_expt",""
"","bandit","314","1500335","0.0-275.0-0.0","80544681","wem/bandit_either_3","A3SOZYQZWJOOYS","either","6","278","","","","","","","0","0","1","0.4956589368","","0.4","0.8","0.2","0.6","","","","","0.2735586703","0.7239072418","0.3158924645","0.4956589368","","","","","","","","76","L","3","","","235","main_expt",""
"","bandit","315","1502406","0.0-276.0-0.0","80544681","wem/bandit_either_3","A3SOZYQZWJOOYS","either","6","543","","","","","","","1","0","0","0.2536827631","","0.4","0.8","0.2","0.6","","","","","0.2536827631","0.8076920848","0.3668106878","0.5514737959","","","","","","","","72","H","0","img/none_selected.jpg","","236","main_expt",""
"","bandit","316","1504344","0.0-277.0-0.0","80544681","wem/bandit_either_3","A3SOZYQZWJOOYS","either","6","411","","","","","","","1","0","0","0.2478783488","","0.4","0.8","0.2","0.6","","","","","0.2478783488","0.7703095863","0.3866395083","0.5183580196","","","","","","","","72","H","0","img/none_selected.jpg","","237","main_expt",""
"","bandit","317","1506233","0.0-278.0-0.0","80544681","wem/bandit_either_3","A3SOZYQZWJOOYS","either","6","362","","","","","","","1","0","0","0.1688186905","","0.4","0.8","0.2","0.6","","","","","0.1688186905","0.6485929649","0.4108821033","0.5320509842","","","","","","","","72","H","0","img/none_selected.jpg","","238","main_expt",""
"","bandit","318","1508398","0.0-279.0-0.0","80544681","wem/bandit_either_3","A3SOZYQZWJOOYS","either","6","650","","","","","","","0","1","0","","0.1232648298","0.4","0.8","0.2","0.6","0.1232648298","0.7028133827","0.4384900471","0.46832295","","","","","","","","","","","","72","H","0","img/none_selected.jpg","","239","main_expt",""
"","bandit","319","1510072","0.0-280.0-0.0","80544681","wem/bandit_either_3","A3SOZYQZWJOOYS","either","6","140","","","","","","","0","1","0","","0.1720424997","0.4","0.8","0.2","0.6","0.1720424997","0.6620055833","0.4246438665","0.5024711131","","","","","","","","","","","","72","H","0","img/none_selected.jpg","","240","main_expt",""
"","bandit","320","1511881","0.0-281.0-0.0","80544681","wem/bandit_either_3","A3SOZYQZWJOOYS","either","6","282","","","","","","","0","0","1","0.1045812876","","0.4","0.8","0.2","0.6","","","","","0.1045812876","0.6925250702","0.3783755671","0.6092933485","","","","","","","","72","H","0","img/none_selected.jpg","","241","main_expt",""
"","bandit","321","1513558","0.0-282.0-0.0","80544681","wem/bandit_either_3","A3SOZYQZWJOOYS","either","6","149","","","","","","","0","1","0","","0.08136382084","0.4","0.8","0.2","0.6","0.08136382084","0.7076428944","0.3619864671","0.5812412386","","","","","","","","","","","","72","H","0","img/none_selected.jpg","","242","main_expt",""
