"consent","trial_type","trial_index","time_elapsed","internal_node_id","subjID","study","MID","cond","drift","rt","responses","key_press","expt_phase","like","value","connected","gems","bombs","no_reward","GemPrChosen","BombPrChosen","GainOverPainPr_0","GainOverPainPr_1","GainOverPainPr_2","GainOverPainPr_3","LosePr_0","LosePr_1","LosePr_2","LosePr_3","WinPr_0","WinPr_1","WinPr_2","WinPr_3","Q0","Q1","Q2","gender","age","ethnicity","target","respCharCode","respKey","respChoiceNum","respChoice","practice","trial_counter","trial_label","button_pressed"
"INL_behavioral_consent_30min_online.html","consent","0","23804","0.0-0.0","82147769","wem/bandit_either_3","A2QCHFSNUU7Y1F","either","7","","","","","","","","","","","","","","","","","","","","","","","","","","","","","","","","","","","","","","",""
"","survey-text","1","29328","0.0-1.0","82147769","wem/bandit_either_3","A2QCHFSNUU7Y1F","either","7","4512","{""Q0"":""A2QCHFSNUU7Y1F""}","","","","","","","","","","","","","","","","","","","","","","","","","","","","","","","","","","","","",""
"","text","2","44295","0.0-2.0","82147769","wem/bandit_either_3","A2QCHFSNUU7Y1F","either","7","13963","","32","","","","","","","","","","","","","","","","","","","","","","","","","","","","","","","","","","","",""
"","text","3","51709","0.0-3.0","82147769","wem/bandit_either_3","A2QCHFSNUU7Y1F","either","7","7413","","32","","","","","","","","","","","","","","","","","","","","","","","","","","","","","","","","","","","",""
"","text","4","86873","0.0-4.0","82147769","wem/bandit_either_3","A2QCHFSNUU7Y1F","either","7","35162","","32","","","","","","","","","","","","","","","","","","","","","","","","","","","","","","","","","","","",""
"","text","5","98124","0.0-5.0","82147769","wem/bandit_either_3","A2QCHFSNUU7Y1F","either","7","11246","","32","","","","","","","","","","","","","","","","","","","","","","","","","","","","","","","","","","","",""
"","text","6","123435","0.0-6.0","82147769","wem/bandit_either_3","A2QCHFSNUU7Y1F","either","7","25307","","32","","","","","","","","","","","","","","","","","","","","","","","","","","","","","","","","","","","",""
"","text","7","129174","0.0-7.0","82147769","wem/bandit_either_3","A2QCHFSNUU7Y1F","either","7","5737","","32","","","","","","","","","","","","","","","","","","","","","","","","","","","","","","","","","","","",""
"","text","8","133011","0.0-8.0","82147769","wem/bandit_either_3","A2QCHFSNUU7Y1F","either","7","3834","","32","","","","","","","","","","","","","","","","","","","","","","","","","","","","","","","","","","","",""
"","identification","9","140752","0.0-9.0-0.0","82147769","wem/bandit_either_3","A2QCHFSNUU7Y1F","either","7","7707","","","","6","6","6","","","","","","","","","","","","","","","","","","","","","","","","the village of Zur","","","","","","","",""
"","identification","10","146989","0.0-9.0-1.0","82147769","wem/bandit_either_3","A2QCHFSNUU7Y1F","either","7","5211","","","","0","0","0","","","","","","","","","","","","","","","","","","","","","","","","the village of Nyx","","","","","","","",""
"","text","11","151552","0.0-10.0","82147769","wem/bandit_either_3","A2QCHFSNUU7Y1F","either","7","3558","","32","","","","","","","","","","","","","","","","","","","","","","","","","","","","","","","","","","","",""
"","text","12","155185","0.0-11.0","82147769","wem/bandit_either_3","A2QCHFSNUU7Y1F","either","7","3631","","32","","","","","","","","","","","","","","","","","","","","","","","","","","","","","","","","","","","",""
"","text","13","157232","0.0-12.0","82147769","wem/bandit_either_3","A2QCHFSNUU7Y1F","either","7","2045","","32","","","","","","","","","","","","","","","","","","","","","","","","","","","","","","","","","","","",""
"","text","14","161440","0.0-13.0","82147769","wem/bandit_either_3","A2QCHFSNUU7Y1F","either","7","4206","","32","","","","","","","","","","","","","","","","","","","","","","","","","","","","","","","","","","","",""
"","bandit","15","165103","0.0-14.0-0.0","82147769","wem/bandit_either_3","A2QCHFSNUU7Y1F","either","7","2144","","","","","","","0","0","1","0","0","","","","","0","","","","0","","","","","","","","","","","74","J","0","img/none_selected_demo.jpg","true","0","",""
"","bandit","16","167535","0.0-15.0-0.0","82147769","wem/bandit_either_3","A2QCHFSNUU7Y1F","either","7","914","","","","","","","0","0","1","0","0","","","","","0","","","","0","","","","","","","","","","","75","K","0","img/none_selected_demo.jpg","true","0","",""
"","text","17","207343","0.0-16.0","82147769","wem/bandit_either_3","A2QCHFSNUU7Y1F","either","7","39804","","32","","","","","","","","","","","","","","","","","","","","","","","","","","","","","","","","","","","",""
"","text","18","220295","0.0-17.0","82147769","wem/bandit_either_3","A2QCHFSNUU7Y1F","either","7","12947","","32","","","","","","","","","","","","","","","","","","","","","","","","","","","","","","","","","","","",""
"","text","19","225349","0.0-18.0","82147769","wem/bandit_either_3","A2QCHFSNUU7Y1F","either","7","5051","","32","","","","","","","","","","","","","","","","","","","","","","","","","","","","","","","","","","","",""
"","text","20","227781","0.0-19.0","82147769","wem/bandit_either_3","A2QCHFSNUU7Y1F","either","7","2429","","32","","","","","","","","","","","","","","","","","","","","","","","","","","","","","","","","","","","",""
"","bandit","21","232083","0.0-20.0-0.0","82147769","wem/bandit_either_3","A2QCHFSNUU7Y1F","either","7","2782","","","","","","","0","1","0","","0.8","0.5","0.5","","","0.8","0.2","","","","","","","","","","","","","","74","J","0","img/none_selected_demo.jpg","true","0","80_20_practice",""
"","bandit","22","234987","0.0-20.0-1.0","82147769","wem/bandit_either_3","A2QCHFSNUU7Y1F","either","7","1387","","","","","","","1","0","0","0.8","","0.5","0.5","","","","","","","0.8","0.2","","","","","","","","","","74","J","0","img/none_selected_demo.jpg","true","0","80_20_practice",""
"","bandit","23","237013","0.0-20.0-2.0","82147769","wem/bandit_either_3","A2QCHFSNUU7Y1F","either","7","505","","","","","","","1","0","0","0.8","","0.5","0.5","","","","","","","0.8","0.2","","","","","","","","","","74","J","0","img/none_selected_demo.jpg","true","0","80_20_practice",""
"","bandit","24","238803","0.0-20.0-3.0","82147769","wem/bandit_either_3","A2QCHFSNUU7Y1F","either","7","274","","","","","","","0","0","1","0.2","","0.5","0.5","","","","","","","0.8","0.2","","","","","","","","","","75","K","1","","true","0","80_20_practice",""
"","bandit","25","240593","0.0-20.0-4.0","82147769","wem/bandit_either_3","A2QCHFSNUU7Y1F","either","7","277","","","","","","","1","0","0","0.8","","0.5","0.5","","","","","","","0.8","0.2","","","","","","","","","","74","J","0","img/none_selected_demo.jpg","true","0","80_20_practice",""
"","bandit","26","242692","0.0-20.0-5.0","82147769","wem/bandit_either_3","A2QCHFSNUU7Y1F","either","7","462","","","","","","","1","0","0","0.8","","0.5","0.5","","","","","","","0.8","0.2","","","","","","","","","","74","J","0","img/none_selected_demo.jpg","true","0","80_20_practice",""
"","bandit","27","244434","0.0-20.0-6.0","82147769","wem/bandit_either_3","A2QCHFSNUU7Y1F","either","7","228","","","","","","","1","0","0","0.8","","0.5","0.5","","","","","","","0.8","0.2","","","","","","","","","","74","J","0","img/none_selected_demo.jpg","true","0","80_20_practice",""
"","bandit","28","246202","0.0-20.0-7.0","82147769","wem/bandit_either_3","A2QCHFSNUU7Y1F","either","7","252","","","","","","","0","1","0","","0.8","0.5","0.5","","","0.8","0.2","","","","","","","","","","","","","","74","J","0","img/none_selected_demo.jpg","true","0","80_20_practice",""
"","bandit","29","248916","0.0-20.0-8.0","82147769","wem/bandit_either_3","A2QCHFSNUU7Y1F","either","7","1197","","","","","","","0","1","0","","0.8","0.5","0.5","","","0.8","0.2","","","","","","","","","","","","","","74","J","0","img/none_selected_demo.jpg","true","0","80_20_practice",""
"","bandit","30","255795","0.0-20.0-9.0","82147769","wem/bandit_either_3","A2QCHFSNUU7Y1F","either","7","5361","","","","","","","0","0","1","","0.8","0.5","0.5","","","0.8","0.2","","","","","","","","","","","","","","74","J","0","img/none_selected_demo.jpg","true","0","80_20_practice",""
"","bandit","31","257681","0.0-20.0-10.0","82147769","wem/bandit_either_3","A2QCHFSNUU7Y1F","either","7","338","","","","","","","0","0","1","","0.8","0.5","0.5","","","0.8","0.2","","","","","","","","","","","","","","74","J","0","img/none_selected_demo.jpg","true","0","80_20_practice",""
"","bandit","32","259705","0.0-20.0-11.0","82147769","wem/bandit_either_3","A2QCHFSNUU7Y1F","either","7","508","","","","","","","0","1","0","","0.2","0.5","0.5","","","0.8","0.2","","","","","","","","","","","","","","75","K","1","","true","0","80_20_practice",""
"","bandit","33","261789","0.0-20.0-12.0","82147769","wem/bandit_either_3","A2QCHFSNUU7Y1F","either","7","492","","","","","","","0","0","1","0.2","","0.5","0.5","","","","","","","0.8","0.2","","","","","","","","","","75","K","1","","true","0","80_20_practice",""
"","bandit","34","263609","0.0-20.0-13.0","82147769","wem/bandit_either_3","A2QCHFSNUU7Y1F","either","7","306","","","","","","","0","0","1","","0.2","0.5","0.5","","","0.8","0.2","","","","","","","","","","","","","","75","K","1","","true","0","80_20_practice",""
"","bandit","35","265432","0.0-20.0-14.0","82147769","wem/bandit_either_3","A2QCHFSNUU7Y1F","either","7","298","","","","","","","0","0","1","0.2","","0.5","0.5","","","","","","","0.8","0.2","","","","","","","","","","75","K","1","","true","0","80_20_practice",""
"","bandit","36","267297","0.0-20.0-15.0","82147769","wem/bandit_either_3","A2QCHFSNUU7Y1F","either","7","299","","","","","","","1","0","0","0.8","","0.5","0.5","","","","","","","0.8","0.2","","","","","","","","","","74","J","0","img/none_selected_demo.jpg","true","0","80_20_practice",""
"","bandit","37","269165","0.0-20.0-16.0","82147769","wem/bandit_either_3","A2QCHFSNUU7Y1F","either","7","279","","","","","","","1","0","0","0.8","","0.5","0.5","","","","","","","0.8","0.2","","","","","","","","","","74","J","0","img/none_selected_demo.jpg","true","0","80_20_practice",""
"","bandit","38","270904","0.0-20.0-17.0","82147769","wem/bandit_either_3","A2QCHFSNUU7Y1F","either","7","215","","","","","","","0","1","0","","0.8","0.5","0.5","","","0.8","0.2","","","","","","","","","","","","","","74","J","0","img/none_selected_demo.jpg","true","0","80_20_practice",""
"","bandit","39","272727","0.0-20.0-18.0","82147769","wem/bandit_either_3","A2QCHFSNUU7Y1F","either","7","293","","","","","","","0","1","0","","0.8","0.5","0.5","","","0.8","0.2","","","","","","","","","","","","","","74","J","0","img/none_selected_demo.jpg","true","0","80_20_practice",""
"","bandit","40","274901","0.0-20.0-19.0","82147769","wem/bandit_either_3","A2QCHFSNUU7Y1F","either","7","566","","","","","","","1","0","0","0.8","","0.5","0.5","","","","","","","0.8","0.2","","","","","","","","","","74","J","0","img/none_selected_demo.jpg","true","0","80_20_practice",""
"","text","41","276898","0.0-21.0","82147769","wem/bandit_either_3","A2QCHFSNUU7Y1F","either","7","1995","","32","","","","","","","","","","","","","","","","","","","","","","","","","","","","","","","","","","","",""
"","bandit","42","279097","0.0-22.0-0.0","82147769","wem/bandit_either_3","A2QCHFSNUU7Y1F","either","7","584","","","","","","","1","0","0","1","0","","","","","0","1","","","1","0","","","","","","","","","","74","J","0","img/none_selected_demo.jpg","true","0","",""
"","text","43","285900","0.0-23.0","82147769","wem/bandit_either_3","A2QCHFSNUU7Y1F","either","7","6794","","32","","","","","","","","","","","","","","","","","","","","","","","","","","","","","","","","","","","",""
"","text","44","288796","0.0-24.0","82147769","wem/bandit_either_3","A2QCHFSNUU7Y1F","either","7","2889","","32","","","","","","","","","","","","","","","","","","","","","","","","","","","","","","","","","","","",""
"","text","45","293756","0.0-25.0","82147769","wem/bandit_either_3","A2QCHFSNUU7Y1F","either","7","4954","","32","","","","","","","","","","","","","","","","","","","","","","","","","","","","","","","","","","","",""
"","text","46","296531","0.0-26.0","82147769","wem/bandit_either_3","A2QCHFSNUU7Y1F","either","7","2768","","32","","","","","","","","","","","","","","","","","","","","","","","","","","","","","","","","","","","",""
"","text","47","303545","0.0-27.0","82147769","wem/bandit_either_3","A2QCHFSNUU7Y1F","either","7","7008","","32","","","","","","","","","","","","","","","","","","","","","","","","","","","","","","","","","","","",""
"","text","48","305785","0.0-28.0","82147769","wem/bandit_either_3","A2QCHFSNUU7Y1F","either","7","2236","","32","","","","","","","","","","","","","","","","","","","","","","","","","","","","","","","","","","","",""
"","text","49","310737","0.0-29.0","82147769","wem/bandit_either_3","A2QCHFSNUU7Y1F","either","7","4948","","32","","","","","","","","","","","","","","","","","","","","","","","","","","","","","","","","","","","",""
"","text","50","313529","0.0-30.0","82147769","wem/bandit_either_3","A2QCHFSNUU7Y1F","either","7","2789","","32","","","","","","","","","","","","","","","","","","","","","","","","","","","","","","","","","","","",""
"","text","51","318756","0.0-31.0","82147769","wem/bandit_either_3","A2QCHFSNUU7Y1F","either","7","5224","","32","","","","","","","","","","","","","","","","","","","","","","","","","","","","","","","","","","","",""
"","text","52","320430","0.0-32.0","82147769","wem/bandit_either_3","A2QCHFSNUU7Y1F","either","7","1672","","32","","","","","","","","","","","","","","","","","","","","","","","","","","","","","","","","","","","",""
"","text","53","323368","0.0-33.0","82147769","wem/bandit_either_3","A2QCHFSNUU7Y1F","either","7","2936","","32","","","","","","","","","","","","","","","","","","","","","","","","","","","","","","","","","","","",""
"","bandit","54","325658","0.0-34.0-0.0","82147769","wem/bandit_either_3","A2QCHFSNUU7Y1F","either","7","686","","","","","","","0","0","1","0.8","","0.5","0.5","0.5","0.5","","","","","0.8","0.2","0.6","0.2","","","","","","","","72","H","0","img/none_selected.jpg","true","0","full_practice",""
"","bandit","55","327271","0.0-34.0-1.0","82147769","wem/bandit_either_3","A2QCHFSNUU7Y1F","either","7","94","","","","","","","0","0","1","0.2","","0.5","0.5","0.5","0.5","","","","","0.8","0.2","0.6","0.2","","","","","","","","74","J","1","","true","0","full_practice",""
"","bandit","56","329284","0.0-34.0-2.0","82147769","wem/bandit_either_3","A2QCHFSNUU7Y1F","either","7","488","","","","","","","0","0","1","","0.6","0.5","0.5","0.5","0.5","0.8","0.2","0.6","0.2","","","","","","","","","","","","75","K","2","","true","0","full_practice",""
"","bandit","57","331041","0.0-34.0-3.0","82147769","wem/bandit_either_3","A2QCHFSNUU7Y1F","either","7","237","","","","","","","0","0","1","","0.2","0.5","0.5","0.5","0.5","0.8","0.2","0.6","0.2","","","","","","","","","","","","76","L","3","","true","0","full_practice",""
"","bandit","58","332872","0.0-34.0-4.0","82147769","wem/bandit_either_3","A2QCHFSNUU7Y1F","either","7","313","","","","","","","0","1","0","","0.8","0.5","0.5","0.5","0.5","0.8","0.2","0.6","0.2","","","","","","","","","","","","72","H","0","img/none_selected.jpg","true","0","full_practice",""
"","bandit","59","334692","0.0-34.0-5.0","82147769","wem/bandit_either_3","A2QCHFSNUU7Y1F","either","7","272","","","","","","","0","0","1","","0.2","0.5","0.5","0.5","0.5","0.8","0.2","0.6","0.2","","","","","","","","","","","","74","J","1","","true","0","full_practice",""
"","bandit","60","336664","0.0-34.0-6.0","82147769","wem/bandit_either_3","A2QCHFSNUU7Y1F","either","7","371","","","","","","","0","0","1","0.6","","0.5","0.5","0.5","0.5","","","","","0.8","0.2","0.6","0.2","","","","","","","","75","K","2","","true","0","full_practice",""
"","bandit","61","338456","0.0-34.0-7.0","82147769","wem/bandit_either_3","A2QCHFSNUU7Y1F","either","7","272","","","","","","","0","0","1","0.2","","0.5","0.5","0.5","0.5","","","","","0.8","0.2","0.6","0.2","","","","","","","","76","L","3","","true","0","full_practice",""
"","bandit","62","340194","0.0-34.0-8.0","82147769","wem/bandit_either_3","A2QCHFSNUU7Y1F","either","7","209","","","","","","","0","0","1","0.8","","0.5","0.5","0.5","0.5","","","","","0.8","0.2","0.6","0.2","","","","","","","","72","H","0","img/none_selected.jpg","true","0","full_practice",""
"","bandit","63","341855","0.0-34.0-9.0","82147769","wem/bandit_either_3","A2QCHFSNUU7Y1F","either","7","140","","","","","","","1","0","0","0.8","","0.5","0.5","0.5","0.5","","","","","0.8","0.2","0.6","0.2","","","","","","","","72","H","0","img/none_selected.jpg","true","0","full_practice",""
"","bandit","64","343613","0.0-34.0-10.0","82147769","wem/bandit_either_3","A2QCHFSNUU7Y1F","either","7","242","","","","","","","0","1","0","","0.8","0.5","0.5","0.5","0.5","0.8","0.2","0.6","0.2","","","","","","","","","","","","72","H","0","img/none_selected.jpg","true","0","full_practice",""
"","bandit","65","345387","0.0-34.0-11.0","82147769","wem/bandit_either_3","A2QCHFSNUU7Y1F","either","7","260","","","","","","","0","1","0","","0.8","0.5","0.5","0.5","0.5","0.8","0.2","0.6","0.2","","","","","","","","","","","","72","H","0","img/none_selected.jpg","true","0","full_practice",""
"","bandit","66","347175","0.0-34.0-12.0","82147769","wem/bandit_either_3","A2QCHFSNUU7Y1F","either","7","270","","","","","","","1","0","0","0.8","","0.5","0.5","0.5","0.5","","","","","0.8","0.2","0.6","0.2","","","","","","","","72","H","0","img/none_selected.jpg","true","0","full_practice",""
"","bandit","67","349043","0.0-34.0-13.0","82147769","wem/bandit_either_3","A2QCHFSNUU7Y1F","either","7","322","","","","","","","0","1","0","","0.8","0.5","0.5","0.5","0.5","0.8","0.2","0.6","0.2","","","","","","","","","","","","72","H","0","img/none_selected.jpg","true","0","full_practice",""
"","bandit","68","351366","0.0-34.0-14.0","82147769","wem/bandit_either_3","A2QCHFSNUU7Y1F","either","7","795","","","","","","","0","1","0","","0.8","0.5","0.5","0.5","0.5","0.8","0.2","0.6","0.2","","","","","","","","","","","","72","H","0","img/none_selected.jpg","true","0","full_practice",""
"","bandit","69","353780","0.0-34.0-15.0","82147769","wem/bandit_either_3","A2QCHFSNUU7Y1F","either","7","897","","","","","","","0","1","0","","0.8","0.5","0.5","0.5","0.5","0.8","0.2","0.6","0.2","","","","","","","","","","","","72","H","0","img/none_selected.jpg","true","0","full_practice",""
"","bandit","70","361510","0.0-34.0-16.0","82147769","wem/bandit_either_3","A2QCHFSNUU7Y1F","either","7","6205","","","","","","","0","0","1","","0.8","0.5","0.5","0.5","0.5","0.8","0.2","0.6","0.2","","","","","","","","","","","","72","H","0","img/none_selected.jpg","true","0","full_practice",""
"","bandit","71","363320","0.0-34.0-17.0","82147769","wem/bandit_either_3","A2QCHFSNUU7Y1F","either","7","279","","","","","","","1","0","0","0.8","","0.5","0.5","0.5","0.5","","","","","0.8","0.2","0.6","0.2","","","","","","","","72","H","0","img/none_selected.jpg","true","0","full_practice",""
"","bandit","72","365120","0.0-34.0-18.0","82147769","wem/bandit_either_3","A2QCHFSNUU7Y1F","either","7","276","","","","","","","0","0","1","","0.8","0.5","0.5","0.5","0.5","0.8","0.2","0.6","0.2","","","","","","","","","","","","72","H","0","img/none_selected.jpg","true","0","full_practice",""
"","bandit","73","367143","0.0-34.0-19.0","82147769","wem/bandit_either_3","A2QCHFSNUU7Y1F","either","7","506","","","","","","","1","0","0","0.2","","0.5","0.5","0.5","0.5","","","","","0.8","0.2","0.6","0.2","","","","","","","","74","J","1","","true","0","full_practice",""
"","text","74","370120","0.0-35.0","82147769","wem/bandit_either_3","A2QCHFSNUU7Y1F","either","7","2969","","32","","","","","","","","","","","","","","","","","","","","","","","","","","","","","","","","","","","",""
"","text","75","381296","0.0-36.0","82147769","wem/bandit_either_3","A2QCHFSNUU7Y1F","either","7","10168","","32","","","","","","","","","","","","","","","","","","","","","","","","","","","","","","","","","","","",""
"","text","76","391736","0.0-37.0","82147769","wem/bandit_either_3","A2QCHFSNUU7Y1F","either","7","10431","","32","","","","","","","","","","","","","","","","","","","","","","","","","","","","","","","","","","","",""
"","text","77","396773","0.0-38.0","82147769","wem/bandit_either_3","A2QCHFSNUU7Y1F","either","7","5032","","32","","","","","","","","","","","","","","","","","","","","","","","","","","","","","","","","","","","",""
"","text","78","400943","0.0-39.0","82147769","wem/bandit_either_3","A2QCHFSNUU7Y1F","either","7","4164","","32","","","","","","","","","","","","","","","","","","","","","","","","","","","","","","","","","","","",""
"","text","79","405439","0.0-40.0","82147769","wem/bandit_either_3","A2QCHFSNUU7Y1F","either","7","4488","","32","","","","","","","","","","","","","","","","","","","","","","","","","","","","","","","","","","","",""
"","bandit","80","408914","0.0-41.0-0.0","82147769","wem/bandit_either_3","A2QCHFSNUU7Y1F","either","7","1948","","","","","","","1","0","0","0.1731741302","","0.8","0.2","0.6","0.4","","","","","0.1731741302","0.2888626749","0.5514722813","0.7088318221","","","","","","","","72","H","0","img/none_selected.jpg","","1","main_expt",""
"","bandit","81","412914","0.0-42.0-0.0","82147769","wem/bandit_either_3","A2QCHFSNUU7Y1F","either","7","2481","","","","","","","1","0","0","0.3999538902","","0.8","0.2","0.6","0.4","","","","","0.2874485847","0.3999538902","0.5039303977","0.6292935488","","","","","","","","74","J","1","","","2","main_expt",""
"","bandit","82","415901","0.0-43.0-0.0","82147769","wem/bandit_either_3","A2QCHFSNUU7Y1F","either","7","1464","","","","","","","1","0","0","0.5527877924","","0.8","0.2","0.6","0.4","","","","","0.2683250969","0.4126831114","0.5527877924","0.5285482983","","","","","","","","75","K","2","","","3","main_expt",""
"","bandit","83","418977","0.0-44.0-0.0","82147769","wem/bandit_either_3","A2QCHFSNUU7Y1F","either","7","1560","","","","","","","0","1","0","","0.6336700584","0.8","0.2","0.6","0.4","0.3988631097","0.3923803367","0.6336700584","0.6744491701","","","","","","","","","","","","75","K","2","","","4","main_expt",""
"","bandit","84","422008","0.0-45.0-0.0","82147769","wem/bandit_either_3","A2QCHFSNUU7Y1F","either","7","1420","","","","","","","0","1","0","","0.7922285807","0.8","0.2","0.6","0.4","0.3568799457","0.3803283439","0.6340088104","0.7922285807","","","","","","","","","","","","76","L","3","","","5","main_expt",""
"","bandit","85","424589","0.0-46.0-0.0","82147769","wem/bandit_either_3","A2QCHFSNUU7Y1F","either","7","1045","","","","","","","0","0","1","0.3188731731","","0.8","0.2","0.6","0.4","","","","","0.3188731731","0.4214296899","0.5784181907","0.7459441126","","","","","","","","72","H","0","img/none_selected.jpg","","6","main_expt",""
"","bandit","86","427001","0.0-47.0-0.0","82147769","wem/bandit_either_3","A2QCHFSNUU7Y1F","either","7","896","","","","","","","0","0","1","0.4755968838","","0.8","0.2","0.6","0.4","","","","","0.4574196012","0.4755968838","0.6727083857","0.7681481668","","","","","","","","74","J","1","","","7","main_expt",""
"","bandit","87","429720","0.0-48.0-0.0","82147769","wem/bandit_either_3","A2QCHFSNUU7Y1F","either","7","1111","","","","","","","0","0","1","","0.7251609313","0.8","0.2","0.6","0.4","0.5037884951","0.5353568537","0.7574508858","0.7251609313","","","","","","","","","","","","76","L","3","","","8","main_expt",""
"","bandit","88","431706","0.0-49.0-0.0","82147769","wem/bandit_either_3","A2QCHFSNUU7Y1F","either","7","470","","","","","","","1","0","0","0.8280759311","","0.8","0.2","0.6","0.4","","","","","0.5750013994","0.6246831942","0.8280759311","0.7403055102","","","","","","","","75","K","2","","","9","main_expt",""
"","bandit","89","434578","0.0-50.0-0.0","82147769","wem/bandit_either_3","A2QCHFSNUU7Y1F","either","7","1192","","","","","","","1","0","0","0.859726102","","0.8","0.2","0.6","0.4","","","","","0.5399040382","0.4475954046","0.859726102","0.722944265","","","","","","","","75","K","2","","","10","main_expt",""
"","bandit","90","436362","0.0-51.0-0.0","82147769","wem/bandit_either_3","A2QCHFSNUU7Y1F","either","7","266","","","","","","","1","0","0","0.877956501","","0.8","0.2","0.6","0.4","","","","","0.5181098662","0.4514702697","0.877956501","0.6833847698","","","","","","","","75","K","2","","","11","main_expt",""
"","bandit","91","438325","0.0-52.0-0.0","82147769","wem/bandit_either_3","A2QCHFSNUU7Y1F","either","7","322","","","","","","","0","0","1","0.8883669707","","0.8","0.2","0.6","0.4","","","","","0.5489165229","0.4873058782","0.8883669707","0.689227163","","","","","","","","75","K","2","","","12","main_expt",""
"","bandit","92","440161","0.0-53.0-0.0","82147769","wem/bandit_either_3","A2QCHFSNUU7Y1F","either","7","319","","","","","","","1","0","0","0.817149195","","0.8","0.2","0.6","0.4","","","","","0.6186986429","0.4862469224","0.817149195","0.5178623456","","","","","","","","75","K","2","","","13","main_expt",""
"","bandit","93","442156","0.0-54.0-0.0","82147769","wem/bandit_either_3","A2QCHFSNUU7Y1F","either","7","427","","","","","","","1","0","0","0.8589139609","","0.8","0.2","0.6","0.4","","","","","0.4944095791","0.360908092","0.8589139609","0.4768489018","","","","","","","","75","K","2","","","14","main_expt",""
"","bandit","94","444006","0.0-55.0-0.0","82147769","wem/bandit_either_3","A2QCHFSNUU7Y1F","either","7","332","","","","","","","1","0","0","0.7955781648","","0.8","0.2","0.6","0.4","","","","","0.4820951366","0.4126647893","0.7955781648","0.5201849276","","","","","","","","75","K","2","","","15","main_expt",""
"","bandit","95","445856","0.0-56.0-0.0","82147769","wem/bandit_either_3","A2QCHFSNUU7Y1F","either","7","326","","","","","","","1","0","0","0.8864445785","","0.8","0.2","0.6","0.4","","","","","0.4888848296","0.4930686601","0.8864445785","0.6862231469","","","","","","","","75","K","2","","","16","main_expt",""
"","bandit","96","447773","0.0-57.0-0.0","82147769","wem/bandit_either_3","A2QCHFSNUU7Y1F","either","7","275","","","","","","","1","0","0","0.8746062981","","0.8","0.2","0.6","0.4","","","","","0.381306026","0.5162343008","0.8746062981","0.7297328357","","","","","","","","75","K","2","","","17","main_expt",""
"","bandit","97","449527","0.0-58.0-0.0","82147769","wem/bandit_either_3","A2QCHFSNUU7Y1F","either","7","239","","","","","","","0","1","0","","0.8910236512","0.8","0.2","0.6","0.4","0.3537135189","0.5627456494","0.8910236512","0.6686287009","","","","","","","","","","","","75","K","2","","","18","main_expt",""
"","bandit","98","451305","0.0-59.0-0.0","82147769","wem/bandit_either_3","A2QCHFSNUU7Y1F","either","7","260","","","","","","","1","0","0","0.8932054573","","0.8","0.2","0.6","0.4","","","","","0.4891458502","0.4478227807","0.8932054573","0.7885428456","","","","","","","","75","K","2","","","19","main_expt",""
"","bandit","99","453055","0.0-60.0-0.0","82147769","wem/bandit_either_3","A2QCHFSNUU7Y1F","either","7","224","","","","","","","0","1","0","","0.8900063933","0.8","0.2","0.6","0.4","0.5440957398","0.5306796692","0.8900063933","0.7442236049","","","","","","","","","","","","75","K","2","","","20","main_expt",""
"","bandit","100","454911","0.0-61.0-0.0","82147769","wem/bandit_either_3","A2QCHFSNUU7Y1F","either","7","252","","","","","","","1","0","0","0.8748704397","","0.8","0.2","0.6","0.4","","","","","0.5621313733","0.5423611418","0.8748704397","0.7908218503","","","","","","","","75","K","2","","","21","main_expt",""
"","bandit","101","456805","0.0-62.0-0.0","82147769","wem/bandit_either_3","A2QCHFSNUU7Y1F","either","7","306","","","","","","","0","0","1","0.8498769136","","0.8","0.2","0.6","0.4","","","","","0.5296345876","0.4190568807","0.8498769136","0.7163236006","","","","","","","","75","K","2","","","22","main_expt",""
"","bandit","102","458818","0.0-63.0-0.0","82147769","wem/bandit_either_3","A2QCHFSNUU7Y1F","either","7","486","","","","","","","0","1","0","","0.8357449374","0.8","0.2","0.6","0.4","0.5187107172","0.4329937009","0.8357449374","0.7061190667","","","","","","","","","","","","75","K","2","","","23","main_expt",""
"","bandit","103","460611","0.0-64.0-0.0","82147769","wem/bandit_either_3","A2QCHFSNUU7Y1F","either","7","270","","","","","","","0","1","0","","0.8431908073","0.8","0.2","0.6","0.4","0.6000521927","0.4298879426","0.8431908073","0.7470556917","","","","","","","","","","","","75","K","2","","","24","main_expt",""
"","bandit","104","462357","0.0-65.0-0.0","82147769","wem/bandit_either_3","A2QCHFSNUU7Y1F","either","7","222","","","","","","","1","0","0","0.8741885854","","0.8","0.2","0.6","0.4","","","","","0.5443047256","0.2992323157","0.8741885854","0.8154180688","","","","","","","","75","K","2","","","25","main_expt",""
"","bandit","105","464103","0.0-66.0-0.0","82147769","wem/bandit_either_3","A2QCHFSNUU7Y1F","either","7","230","","","","","","","0","0","1","0.8940719671","","0.8","0.2","0.6","0.4","","","","","0.592493964","0.3857263224","0.8940719671","0.8395379789","","","","","","","","75","K","2","","","26","main_expt",""
"","bandit","106","465954","0.0-67.0-0.0","82147769","wem/bandit_either_3","A2QCHFSNUU7Y1F","either","7","334","","","","","","","1","0","0","0.8733378856","","0.8","0.2","0.6","0.4","","","","","0.5779569403","0.3715251318","0.8733378856","0.8023078409","","","","","","","","75","K","2","","","27","main_expt",""
"","bandit","107","467715","0.0-68.0-0.0","82147769","wem/bandit_either_3","A2QCHFSNUU7Y1F","either","7","227","","","","","","","0","0","1","0.8695586723","","0.8","0.2","0.6","0.4","","","","","0.7077223562","0.3387808014","0.8695586723","0.8248968235","","","","","","","","75","K","2","","","28","main_expt",""
"","bandit","108","469520","0.0-69.0-0.0","82147769","wem/bandit_either_3","A2QCHFSNUU7Y1F","either","7","249","","","","","","","0","0","1","","0.7908290088","0.8","0.2","0.6","0.4","0.7070353494","0.3737397218","0.7908290088","0.8621011303","","","","","","","","","","","","75","K","2","","","29","main_expt",""
"","bandit","109","471097","0.0-70.0-0.0","82147769","wem/bandit_either_3","A2QCHFSNUU7Y1F","either","7","56","","","","","","","0","0","1","0.8873668535","","0.8","0.2","0.6","0.4","","","","","0.6585428656","0.3232047389","0.8518997755","0.8873668535","","","","","","","","76","L","3","","","30","main_expt",""
"","bandit","110","472905","0.0-71.0-0.0","82147769","wem/bandit_either_3","A2QCHFSNUU7Y1F","either","7","288","","","","","","","0","1","0","","0.6724088618","0.8","0.2","0.6","0.4","0.6724088618","0.4130267239","0.8509842625","0.9318975106","","","","","","","","","","","","72","H","0","img/none_selected.jpg","","31","main_expt",""
"","bandit","111","474765","0.0-72.0-0.0","82147769","wem/bandit_either_3","A2QCHFSNUU7Y1F","either","7","319","","","","","","","0","0","1","","0.4167758813","0.8","0.2","0.6","0.4","0.6416581209","0.4167758813","0.872996121","0.9013609786","","","","","","","","","","","","74","J","1","","","32","main_expt",""
"","bandit","112","476561","0.0-73.0-0.0","82147769","wem/bandit_either_3","A2QCHFSNUU7Y1F","either","7","265","","","","","","","0","1","0","","0.7055802426","0.8","0.2","0.6","0.4","0.7055802426","0.4546052232","0.8571046391","0.9041531295","","","","","","","","","","","","72","H","0","img/none_selected.jpg","","33","main_expt",""
"","bandit","113","478350","0.0-74.0-0.0","82147769","wem/bandit_either_3","A2QCHFSNUU7Y1F","either","7","258","","","","","","","0","0","1","0.7554114371","","0.8","0.2","0.6","0.4","","","","","0.7554114371","0.5231803088","0.9175819521","0.9386104272","","","","","","","","72","H","0","img/none_selected.jpg","","34","main_expt",""
"","bandit","114","480128","0.0-75.0-0.0","82147769","wem/bandit_either_3","A2QCHFSNUU7Y1F","either","7","257","","","","","","","1","0","0","0.8008095759","","0.8","0.2","0.6","0.4","","","","","0.8008095759","0.4661188593","0.9503165686","0.9180645683","","","","","","","","72","H","0","img/none_selected.jpg","","35","main_expt",""
"","bandit","115","481919","0.0-76.0-0.0","82147769","wem/bandit_either_3","A2QCHFSNUU7Y1F","either","7","272","","","","","","","1","0","0","0.6925109639","","0.8","0.2","0.6","0.4","","","","","0.6925109639","0.4106027186","0.9327615424","0.9095107155","","","","","","","","72","H","0","img/none_selected.jpg","","36","main_expt",""
"","bandit","116","483720","0.0-77.0-0.0","82147769","wem/bandit_either_3","A2QCHFSNUU7Y1F","either","7","274","","","","","","","0","0","1","0.7764255689","","0.8","0.2","0.6","0.4","","","","","0.7764255689","0.5021263718","0.9196494001","0.9405648028","","","","","","","","72","H","0","img/none_selected.jpg","","37","main_expt",""
"","bandit","117","485638","0.0-78.0-0.0","82147769","wem/bandit_either_3","A2QCHFSNUU7Y1F","either","7","238","","","","","","","0","1","0","","0.8392953971","0.8","0.2","0.6","0.4","0.8392953971","0.5065313343","0.928530414","0.9058459248","","","","","","","","","","","","72","H","0","img/none_selected.jpg","","38","main_expt",""
"","bandit","118","487559","0.0-79.0-0.0","82147769","wem/bandit_either_3","A2QCHFSNUU7Y1F","either","7","266","","","","","","","1","0","0","0.7614495855","","0.8","0.2","0.6","0.4","","","","","0.7614495855","0.6098243774","0.9001545702","0.8784462517","","","","","","","","72","H","0","img/none_selected.jpg","","39","main_expt",""
"","bandit","119","489314","0.0-80.0-0.0","82147769","wem/bandit_either_3","A2QCHFSNUU7Y1F","either","7","233","","","","","","","1","0","0","0.8060705796","","0.8","0.2","0.6","0.4","","","","","0.8060705796","0.679699592","0.8432481254","0.8408568766","","","","","","","","72","H","0","img/none_selected.jpg","","40","main_expt",""
"","bandit","120","491334","0.0-81.0-0.0","82147769","wem/bandit_either_3","A2QCHFSNUU7Y1F","either","7","409","","","","","","","1","0","0","0.7539991053","","0.8","0.2","0.6","0.4","","","","","0.7539991053","0.616488607","0.8326479564","0.811342849","","","","","","","","72","H","0","img/none_selected.jpg","","41","main_expt",""
"","bandit","121","493007","0.0-82.0-0.0","82147769","wem/bandit_either_3","A2QCHFSNUU7Y1F","either","7","151","","","","","","","1","0","0","0.7717369324","","0.8","0.2","0.6","0.4","","","","","0.7717369324","0.6307104111","0.8602810298","0.8058808774","","","","","","","","72","H","0","img/none_selected.jpg","","42","main_expt",""
"","bandit","122","494759","0.0-83.0-0.0","82147769","wem/bandit_either_3","A2QCHFSNUU7Y1F","either","7","233","","","","","","","0","0","1","","0.7625968551","0.8","0.2","0.6","0.4","0.7625968551","0.554567591","0.894365654","0.7899844578","","","","","","","","","","","","72","H","0","img/none_selected.jpg","","43","main_expt",""
"","bandit","123","496659","0.0-84.0-0.0","82147769","wem/bandit_either_3","A2QCHFSNUU7Y1F","either","7","276","","","","","","","1","0","0","0.8488621298","","0.8","0.2","0.6","0.4","","","","","0.8488621298","0.5281861223","0.9033664713","0.7654486741","","","","","","","","72","H","0","img/none_selected.jpg","","44","main_expt",""
"","bandit","124","498417","0.0-85.0-0.0","82147769","wem/bandit_either_3","A2QCHFSNUU7Y1F","either","7","227","","","","","","","0","0","1","0.8522077325","","0.8","0.2","0.6","0.4","","","","","0.8522077325","0.5043334007","0.8829964613","0.7674111825","","","","","","","","72","H","0","img/none_selected.jpg","","45","main_expt",""
"","bandit","125","500306","0.0-86.0-0.0","82147769","wem/bandit_either_3","A2QCHFSNUU7Y1F","either","7","244","","","","","","","1","0","0","0.8618589195","","0.8","0.2","0.6","0.4","","","","","0.8618589195","0.5426256613","0.8674694879","0.6301273516","","","","","","","","72","H","0","img/none_selected.jpg","","46","main_expt",""
"","bandit","126","502226","0.0-87.0-0.0","82147769","wem/bandit_either_3","A2QCHFSNUU7Y1F","either","7","344","","","","","","","1","0","0","0.905897833","","0.8","0.2","0.6","0.4","","","","","0.905897833","0.5024796093","0.8886720039","0.7885969413","","","","","","","","72","H","0","img/none_selected.jpg","","47","main_expt",""
"","bandit","127","503973","0.0-88.0-0.0","82147769","wem/bandit_either_3","A2QCHFSNUU7Y1F","either","7","226","","","","","","","1","0","0","0.8929468812","","0.8","0.2","0.6","0.4","","","","","0.8929468812","0.4689138593","0.9229902905","0.7983786211","","","","","","","","72","H","0","img/none_selected.jpg","","48","main_expt",""
"","bandit","128","505759","0.0-89.0-0.0","82147769","wem/bandit_either_3","A2QCHFSNUU7Y1F","either","7","244","","","","","","","1","0","0","0.854905512","","0.8","0.2","0.6","0.4","","","","","0.854905512","0.4439560463","0.9141434128","0.8249867574","","","","","","","","72","H","0","img/none_selected.jpg","","49","main_expt",""
"","bandit","129","507731","0.0-90.0-0.0","82147769","wem/bandit_either_3","A2QCHFSNUU7Y1F","either","7","403","","","","","","","1","0","0","0.8363103738","","0.8","0.2","0.6","0.4","","","","","0.8363103738","0.4079842927","0.9181160336","0.7532301684","","","","","","","","72","H","0","img/none_selected.jpg","","50","main_expt",""
"","bandit","130","511103","0.0-91.0-0.0","82147769","wem/bandit_either_3","A2QCHFSNUU7Y1F","either","7","1825","","","","","","","0","0","1","0.7168506975","","0.8","0.2","0.6","0.4","","","","","0.7168506975","0.4675199832","0.9266489825","0.6750909554","","","","","","","","72","H","0","img/none_selected.jpg","","51","main_expt",""
"","bandit","131","513158","0.0-92.0-0.0","82147769","wem/bandit_either_3","A2QCHFSNUU7Y1F","either","7","535","","","","","","","0","0","1","0.6507986152","","0.8","0.2","0.6","0.4","","","","","0.6507986152","0.4368052975","0.9285581488","0.6762079337","","","","","","","","72","H","0","img/none_selected.jpg","","52","main_expt",""
"","bandit","132","514892","0.0-93.0-0.0","82147769","wem/bandit_either_3","A2QCHFSNUU7Y1F","either","7","184","","","","","","","1","0","0","0.4967902672","","0.8","0.2","0.6","0.4","","","","","0.6531867096","0.4967902672","0.9171724481","0.7882030045","","","","","","","","74","J","1","","","53","main_expt",""
"","bandit","133","517056","0.0-94.0-0.0","82147769","wem/bandit_either_3","A2QCHFSNUU7Y1F","either","7","642","","","","","","","0","0","1","","0.5321533453","0.8","0.2","0.6","0.4","0.6178049746","0.5321533453","0.8709862684","0.8759533557","","","","","","","","","","","","74","J","1","","","54","main_expt",""
"","bandit","134","518957","0.0-95.0-0.0","82147769","wem/bandit_either_3","A2QCHFSNUU7Y1F","either","7","382","","","","","","","0","0","1","","0.593251847","0.8","0.2","0.6","0.4","0.5501477499","0.593251847","0.9016108676","0.9307112091","","","","","","","","","","","","74","J","1","","","55","main_expt",""
"","bandit","135","520486","0.0-96.0-0.0","82147769","wem/bandit_either_3","A2QCHFSNUU7Y1F","either","7","9","","","","","","","0","1","0","","0.9123335035","0.8","0.2","0.6","0.4","0.5181914202","0.602347159","0.9123335035","0.9486344027","","","","","","","","","","","","75","K","2","","","56","main_expt",""
"","bandit","136","522389","0.0-97.0-0.0","82147769","wem/bandit_either_3","A2QCHFSNUU7Y1F","either","7","370","","","","","","","0","1","0","","0.9450559811","0.8","0.2","0.6","0.4","0.5052283364","0.736851976","0.9338523698","0.9450559811","","","","","","","","","","","","76","L","3","","","57","main_expt",""
"","bandit","137","524142","0.0-98.0-0.0","82147769","wem/bandit_either_3","A2QCHFSNUU7Y1F","either","7","231","","","","","","","1","0","0","0.9023069914","","0.8","0.2","0.6","0.4","","","","","0.4494585665","0.7112026436","0.9023069914","0.960587128","","","","","","","","75","K","2","","","58","main_expt",""
"","bandit","138","525869","0.0-99.0-0.0","82147769","wem/bandit_either_3","A2QCHFSNUU7Y1F","either","7","207","","","","","","","1","0","0","0.9272570312","","0.8","0.2","0.6","0.4","","","","","0.4431029696","0.7605469626","0.903153386","0.9272570312","","","","","","","","76","L","3","","","59","main_expt",""
"","bandit","139","527484","0.0-100.0-0.0","82147769","wem/bandit_either_3","A2QCHFSNUU7Y1F","either","7","97","","","","","","","1","0","0","0.8975643475","","0.8","0.2","0.6","0.4","","","","","0.4213069188","0.6504737249","0.8975643475","0.9075075979","","","","","","","","75","K","2","","","60","main_expt",""
"","bandit","140","529051","0.0-101.0-0.0","82147769","wem/bandit_either_3","A2QCHFSNUU7Y1F","either","7","42","","","","","","","1","0","0","0.9011961695","","0.8","0.2","0.6","0.4","","","","","0.4735464544","0.7417300409","0.8455107238","0.9011961695","","","","","","","","76","L","3","","","61","main_expt",""
"","bandit","141","530803","0.0-102.0-0.0","82147769","wem/bandit_either_3","A2QCHFSNUU7Y1F","either","7","217","","","","","","","0","0","1","0.8423106617","","0.8","0.2","0.6","0.4","","","","","0.4260239588","0.6889655243","0.8423106617","0.9025442902","","","","","","","","75","K","2","","","62","main_expt",""
"","bandit","142","533223","0.0-103.0-0.0","82147769","wem/bandit_either_3","A2QCHFSNUU7Y1F","either","7","767","","","","","","","0","1","0","","0.900711875","0.8","0.2","0.6","0.4","0.4048641732","0.7532165261","0.6997676278","0.900711875","","","","","","","","","","","","76","L","3","","","63","main_expt",""
"","bandit","143","534789","0.0-104.0-0.0","82147769","wem/bandit_either_3","A2QCHFSNUU7Y1F","either","7","46","","","","","","","0","1","0","","0.8033841581","0.8","0.2","0.6","0.4","0.261135461","0.7614619666","0.8033841581","0.8445511995","","","","","","","","","","","","75","K","2","","","64","main_expt",""
"","bandit","144","536605","0.0-105.0-0.0","82147769","wem/bandit_either_3","A2QCHFSNUU7Y1F","either","7","270","","","","","","","0","1","0","","0.7838665633","0.8","0.2","0.6","0.4","0.4398785507","0.7474824059","0.8458775523","0.7838665633","","","","","","","","","","","","76","L","3","","","65","main_expt",""
"","bandit","145","538427","0.0-106.0-0.0","82147769","wem/bandit_either_3","A2QCHFSNUU7Y1F","either","7","290","","","","","","","1","0","0","0.8612648572","","0.8","0.2","0.6","0.4","","","","","0.4549930047","0.7083026918","0.8612648572","0.8399866527","","","","","","","","75","K","2","","","66","main_expt",""
"","bandit","146","540455","0.0-107.0-0.0","82147769","wem/bandit_either_3","A2QCHFSNUU7Y1F","either","7","502","","","","","","","1","0","0","0.9109535201","","0.8","0.2","0.6","0.4","","","","","0.5565794079","0.6535093674","0.8686018104","0.9109535201","","","","","","","","76","L","3","","","67","main_expt",""
"","bandit","147","542614","0.0-108.0-0.0","82147769","wem/bandit_either_3","A2QCHFSNUU7Y1F","either","7","638","","","","","","","0","0","1","0.8693437115","","0.8","0.2","0.6","0.4","","","","","0.4211802827","0.4923739087","0.8693437115","0.9064065477","","","","","","","","75","K","2","","","68","main_expt",""
"","bandit","148","544710","0.0-109.0-0.0","82147769","wem/bandit_either_3","A2QCHFSNUU7Y1F","either","7","334","","","","","","","1","0","0","0.9315833469","","0.8","0.2","0.6","0.4","","","","","0.3687693293","0.4898097669","0.9168970181","0.9315833469","","","","","","","","76","L","3","","","69","main_expt",""
"","bandit","149","546649","0.0-110.0-0.0","82147769","wem/bandit_either_3","A2QCHFSNUU7Y1F","either","7","413","","","","","","","1","0","0","0.9293527272","","0.8","0.2","0.6","0.4","","","","","0.3460903474","0.4369614599","0.9293527272","0.9393923483","","","","","","","","75","K","2","","","70","main_expt",""
"","bandit","150","548455","0.0-111.0-0.0","82147769","wem/bandit_either_3","A2QCHFSNUU7Y1F","either","7","240","","","","","","","0","1","0","","0.9568343035","0.8","0.2","0.6","0.4","0.3278112836","0.5031037484","0.949087413","0.9568343035","","","","","","","","","","","","76","L","3","","","71","main_expt",""
"","bandit","151","550249","0.0-112.0-0.0","82147769","wem/bandit_either_3","A2QCHFSNUU7Y1F","either","7","268","","","","","","","1","0","0","0.906373323","","0.8","0.2","0.6","0.4","","","","","0.2720469766","0.5397903688","0.906373323","0.947758434","","","","","","","","75","K","2","","","72","main_expt",""
"","bandit","152","551981","0.0-113.0-0.0","82147769","wem/bandit_either_3","A2QCHFSNUU7Y1F","either","7","203","","","","","","","0","1","0","","0.9052010222","0.8","0.2","0.6","0.4","0.2451019773","0.5540652028","0.93965919","0.9052010222","","","","","","","","","","","","76","L","3","","","73","main_expt",""
"","bandit","153","553809","0.0-114.0-0.0","82147769","wem/bandit_either_3","A2QCHFSNUU7Y1F","either","7","305","","","","","","","0","1","0","","0.9416319858","0.8","0.2","0.6","0.4","0.2645862521","0.61733434","0.9416319858","0.927704936","","","","","","","","","","","","75","K","2","","","74","main_expt",""
"","bandit","154","555666","0.0-115.0-0.0","82147769","wem/bandit_either_3","A2QCHFSNUU7Y1F","either","7","268","","","","","","","0","0","1","0.8769567517","","0.8","0.2","0.6","0.4","","","","","0.2298582","0.6341908543","0.9535384208","0.8769567517","","","","","","","","76","L","3","","","75","main_expt",""
"","bandit","155","557274","0.0-116.0-0.0","82147769","wem/bandit_either_3","A2QCHFSNUU7Y1F","either","7","67","","","","","","","1","0","0","0.9585479729","","0.8","0.2","0.6","0.4","","","","","0.3460043445","0.6355577018","0.9585479729","0.8456064169","","","","","","","","75","K","2","","","76","main_expt",""
"","bandit","156","559055","0.0-117.0-0.0","82147769","wem/bandit_either_3","A2QCHFSNUU7Y1F","either","7","248","","","","","","","0","0","1","0.8325595713","","0.8","0.2","0.6","0.4","","","","","0.2526488818","0.7055426269","0.9610253773","0.8325595713","","","","","","","","76","L","3","","","77","main_expt",""
"","bandit","157","560660","0.0-118.0-0.0","82147769","wem/bandit_either_3","A2QCHFSNUU7Y1F","either","7","79","","","","","","","1","0","0","0.9580320452","","0.8","0.2","0.6","0.4","","","","","0.2625396382","0.6137882531","0.9580320452","0.9128982172","","","","","","","","75","K","2","","","78","main_expt",""
"","bandit","158","562460","0.0-119.0-0.0","82147769","wem/bandit_either_3","A2QCHFSNUU7Y1F","either","7","280","","","","","","","1","0","0","0.9403834825","","0.8","0.2","0.6","0.4","","","","","0.2957535945","0.668392527","0.9403834825","0.9213349282","","","","","","","","75","K","2","","","79","main_expt",""
"","bandit","159","564623","0.0-120.0-0.0","82147769","wem/bandit_either_3","A2QCHFSNUU7Y1F","either","7","376","","","","","","","1","0","0","0.946171157","","0.8","0.2","0.6","0.4","","","","","0.1831261498","0.7457361895","0.946171157","0.8935563746","","","","","","","","75","K","2","","","80","main_expt",""
"","bandit","160","566303","0.0-121.0-0.0","82147769","wem/bandit_either_3","A2QCHFSNUU7Y1F","either","7","148","","","","","","","1","0","0","0.9800092583","","0.8","0.2","0.6","0.4","","","","","0.1450659425","0.8028050151","0.9800092583","0.932831263","","","","","","","","75","K","2","","","81","main_expt",""
"","bandit","161","568108","0.0-122.0-0.0","82147769","wem/bandit_either_3","A2QCHFSNUU7Y1F","either","7","278","","","","","","","0","1","0","","0.9666397243","0.8","0.2","0.6","0.4","0.1486641529","0.8727424511","0.9666397243","0.9403650082","","","","","","","","","","","","75","K","2","","","82","main_expt",""
"","bandit","162","569876","0.0-123.0-0.0","82147769","wem/bandit_either_3","A2QCHFSNUU7Y1F","either","7","247","","","","","","","0","1","0","","0.9637330664","0.8","0.2","0.6","0.4","0.1567811066","0.8283068274","0.9637330664","0.9066396881","","","","","","","","","","","","75","K","2","","","83","main_expt",""
"","bandit","163","571636","0.0-124.0-0.0","82147769","wem/bandit_either_3","A2QCHFSNUU7Y1F","either","7","239","","","","","","","1","0","0","0.9617949183","","0.8","0.2","0.6","0.4","","","","","0.196091916","0.8030064341","0.9617949183","0.8962006295","","","","","","","","75","K","2","","","84","main_expt",""
"","bandit","164","573594","0.0-125.0-0.0","82147769","wem/bandit_either_3","A2QCHFSNUU7Y1F","either","7","224","","","","","","","1","0","0","0.9561985801","","0.8","0.2","0.6","0.4","","","","","0.1512390112","0.8622567251","0.9561985801","0.9093999993","","","","","","","","75","K","2","","","85","main_expt",""
"","bandit","165","575371","0.0-126.0-0.0","82147769","wem/bandit_either_3","A2QCHFSNUU7Y1F","either","7","248","","","","","","","1","0","0","0.9422505668","","0.8","0.2","0.6","0.4","","","","","0.1486491559","0.896584634","0.9422505668","0.9326862648","","","","","","","","75","K","2","","","86","main_expt",""
"","bandit","166","577242","0.0-127.0-0.0","82147769","wem/bandit_either_3","A2QCHFSNUU7Y1F","either","7","338","","","","","","","1","0","0","0.926711091","","0.8","0.2","0.6","0.4","","","","","0.1047878604","0.9208758521","0.926711091","0.9039434857","","","","","","","","75","K","2","","","87","main_expt",""
"","bandit","167","579036","0.0-128.0-0.0","82147769","wem/bandit_either_3","A2QCHFSNUU7Y1F","either","7","273","","","","","","","0","1","0","","0.9092576496","0.8","0.2","0.6","0.4","0.07038149384","0.9266301883","0.9092576496","0.9195127861","","","","","","","","","","","","75","K","2","","","88","main_expt",""
"","bandit","168","580785","0.0-129.0-0.0","82147769","wem/bandit_either_3","A2QCHFSNUU7Y1F","either","7","224","","","","","","","1","0","0","0.8948591238","","0.8","0.2","0.6","0.4","","","","","0.1311535074","0.9259215542","0.8948591238","0.9225053559","","","","","","","","75","K","2","","","89","main_expt",""
"","bandit","169","582662","0.0-130.0-0.0","82147769","wem/bandit_either_3","A2QCHFSNUU7Y1F","either","7","227","","","","","","","0","1","0","","0.8716727139","0.8","0.2","0.6","0.4","0.1241310956","0.9400480964","0.8716727139","0.9014563988","","","","","","","","","","","","75","K","2","","","90","main_expt",""
"","bandit","170","584482","0.0-131.0-0.0","82147769","wem/bandit_either_3","A2QCHFSNUU7Y1F","either","7","224","","","","","","","0","1","0","","0.8969144331","0.8","0.2","0.6","0.4","0.09664170694","0.8961855863","0.8969144331","0.9162570652","","","","","","","","","","","","75","K","2","","","91","main_expt",""
"","bandit","171","586274","0.0-132.0-0.0","82147769","wem/bandit_either_3","A2QCHFSNUU7Y1F","either","7","274","","","","","","","1","0","0","0.9171199264","","0.8","0.2","0.6","0.4","","","","","0.09586364307","0.9211437923","0.9171199264","0.9171553871","","","","","","","","75","K","2","","","92","main_expt",""
"","bandit","172","588067","0.0-133.0-0.0","82147769","wem/bandit_either_3","A2QCHFSNUU7Y1F","either","7","273","","","","","","","0","1","0","","0.9593171332","0.8","0.2","0.6","0.4","0.08304118766","0.8947860396","0.9593171332","0.9463284029","","","","","","","","","","","","75","K","2","","","93","main_expt",""
"","bandit","173","589813","0.0-134.0-0.0","82147769","wem/bandit_either_3","A2QCHFSNUU7Y1F","either","7","214","","","","","","","0","1","0","","0.959226596","0.8","0.2","0.6","0.4","0.1222865453","0.822540961","0.959226596","0.9477079066","","","","","","","","","","","","75","K","2","","","94","main_expt",""
"","bandit","174","591611","0.0-135.0-0.0","82147769","wem/bandit_either_3","A2QCHFSNUU7Y1F","either","7","273","","","","","","","0","1","0","","0.947105423","0.8","0.2","0.6","0.4","0.211460517","0.8288041746","0.947105423","0.9474919074","","","","","","","","","","","","75","K","2","","","95","main_expt",""
"","bandit","175","593360","0.0-136.0-0.0","82147769","wem/bandit_either_3","A2QCHFSNUU7Y1F","either","7","231","","","","","","","1","0","0","0.937205139","","0.8","0.2","0.6","0.4","","","","","0.2757920232","0.8217366877","0.937205139","0.9722490369","","","","","","","","75","K","2","","","96","main_expt",""
"","bandit","176","595156","0.0-137.0-0.0","82147769","wem/bandit_either_3","A2QCHFSNUU7Y1F","either","7","274","","","","","","","1","0","0","0.9472767204","","0.8","0.2","0.6","0.4","","","","","0.2646876298","0.725285089","0.9472767204","0.980822097","","","","","","","","75","K","2","","","97","main_expt",""
"","bandit","177","596933","0.0-138.0-0.0","82147769","wem/bandit_either_3","A2QCHFSNUU7Y1F","either","7","244","","","","","","","1","0","0","0.962959595","","0.8","0.2","0.6","0.4","","","","","0.3278454636","0.7958966199","0.962959595","0.9761591307","","","","","","","","75","K","2","","","98","main_expt",""
"","bandit","178","598731","0.0-139.0-0.0","82147769","wem/bandit_either_3","A2QCHFSNUU7Y1F","either","7","231","","","","","","","0","1","0","","0.9720903607","0.8","0.2","0.6","0.4","0.4641870332","0.7741840332","0.9720903607","0.9597391097","","","","","","","","","","","","75","K","2","","","99","main_expt",""
"","bandit","179","601122","0.0-140.0-0.0","82147769","wem/bandit_either_3","A2QCHFSNUU7Y1F","either","7","870","","","","","","","0","1","0","","0.9737169538","0.8","0.2","0.6","0.4","0.3972344865","0.7934767162","0.9737169538","0.9557148533","","","","","","","","","","","","75","K","2","","","100","main_expt",""
"","bandit","180","603018","0.0-141.0-0.0","82147769","wem/bandit_either_3","A2QCHFSNUU7Y1F","either","7","289","","","","","","","0","1","0","","0.986468331","0.8","0.2","0.6","0.4","0.4395304924","0.8307638242","0.986468331","0.9687934467","","","","","","","","","","","","75","K","2","","","101","main_expt",""
"","bandit","181","604630","0.0-142.0-0.0","82147769","wem/bandit_either_3","A2QCHFSNUU7Y1F","either","7","78","","","","","","","0","1","0","","0.9859557102","0.8","0.2","0.6","0.4","0.5248298482","0.7737236933","0.9859557102","0.9713318577","","","","","","","","","","","","75","K","2","","","102","main_expt",""
"","bandit","182","606478","0.0-143.0-0.0","82147769","wem/bandit_either_3","A2QCHFSNUU7Y1F","either","7","320","","","","","","","0","1","0","","0.9828698412","0.8","0.2","0.6","0.4","0.6218364577","0.8168427084","0.9828698412","0.9768128314","","","","","","","","","","","","75","K","2","","","103","main_expt",""
"","bandit","183","608334","0.0-144.0-0.0","82147769","wem/bandit_either_3","A2QCHFSNUU7Y1F","either","7","231","","","","","","","1","0","0","0.9655029871","","0.8","0.2","0.6","0.4","","","","","0.5528563194","0.7020104164","0.9655029871","0.9566706727","","","","","","","","75","K","2","","","104","main_expt",""
"","bandit","184","610057","0.0-145.0-0.0","82147769","wem/bandit_either_3","A2QCHFSNUU7Y1F","either","7","199","","","","","","","1","0","0","0.9587067199","","0.8","0.2","0.6","0.4","","","","","0.515821512","0.6750414237","0.9587067199","0.9352711559","","","","","","","","75","K","2","","","105","main_expt",""
"","bandit","185","612014","0.0-146.0-0.0","82147769","wem/bandit_either_3","A2QCHFSNUU7Y1F","either","7","424","","","","","","","1","0","0","0.9358961366","","0.8","0.2","0.6","0.4","","","","","0.5380341879","0.5886413089","0.9358961366","0.8980036198","","","","","","","","75","K","2","","","106","main_expt",""
"","bandit","186","613586","0.0-147.0-0.0","82147769","wem/bandit_either_3","A2QCHFSNUU7Y1F","either","7","45","","","","","","","1","0","0","0.8829949032","","0.8","0.2","0.6","0.4","","","","","0.3291998873","0.5507707533","0.8829949032","0.9175797088","","","","","","","","75","K","2","","","107","main_expt",""
"","bandit","187","615393","0.0-148.0-0.0","82147769","wem/bandit_either_3","A2QCHFSNUU7Y1F","either","7","287","","","","","","","0","0","1","0.7668100276","","0.8","0.2","0.6","0.4","","","","","0.3608627265","0.4325904974","0.7668100276","0.8966825343","","","","","","","","75","K","2","","","108","main_expt",""
"","bandit","188","617245","0.0-149.0-0.0","82147769","wem/bandit_either_3","A2QCHFSNUU7Y1F","either","7","284","","","","","","","0","1","0","","0.7652463225","0.8","0.2","0.6","0.4","0.3837942066","0.3735159861","0.7652463225","0.8883819791","","","","","","","","","","","","75","K","2","","","109","main_expt",""
"","bandit","189","619099","0.0-150.0-0.0","82147769","wem/bandit_either_3","A2QCHFSNUU7Y1F","either","7","330","","","","","","","0","1","0","","0.7974745759","0.8","0.2","0.6","0.4","0.3019365294","0.3704440872","0.7974745759","0.9087011364","","","","","","","","","","","","75","K","2","","","110","main_expt",""
"","bandit","190","621122","0.0-151.0-0.0","82147769","wem/bandit_either_3","A2QCHFSNUU7Y1F","either","7","492","","","","","","","0","1","0","","0.812352323","0.8","0.2","0.6","0.4","0.3483008865","0.2749067499","0.812352323","0.9337026812","","","","","","","","","","","","75","K","2","","","111","main_expt",""
"","bandit","191","623128","0.0-152.0-0.0","82147769","wem/bandit_either_3","A2QCHFSNUU7Y1F","either","7","443","","","","","","","1","0","0","0.7428975936","","0.8","0.2","0.6","0.4","","","","","0.4342302697","0.2734667401","0.7428975936","0.9113388615","","","","","","","","75","K","2","","","112","main_expt",""
"","bandit","192","624783","0.0-153.0-0.0","82147769","wem/bandit_either_3","A2QCHFSNUU7Y1F","either","7","136","","","","","","","1","0","0","0.7139653514","","0.8","0.2","0.6","0.4","","","","","0.5187246657","0.2291946885","0.7139653514","0.8980528729","","","","","","","","75","K","2","","","113","main_expt",""
"","bandit","193","626653","0.0-154.0-0.0","82147769","wem/bandit_either_3","A2QCHFSNUU7Y1F","either","7","346","","","","","","","0","1","0","","0.7945657698","0.8","0.2","0.6","0.4","0.5381742134","0.2413339081","0.7945657698","0.8036326458","","","","","","","","","","","","75","K","2","","","114","main_expt",""
"","bandit","194","628930","0.0-155.0-0.0","82147769","wem/bandit_either_3","A2QCHFSNUU7Y1F","either","7","747","","","","","","","1","0","0","0.8405588069","","0.8","0.2","0.6","0.4","","","","","0.4785029821","0.3092826039","0.8405588069","0.8700945717","","","","","","","","75","K","2","","","115","main_expt",""
"","bandit","195","630980","0.0-156.0-0.0","82147769","wem/bandit_either_3","A2QCHFSNUU7Y1F","either","7","431","","","","","","","1","0","0","0.8641798474","","0.8","0.2","0.6","0.4","","","","","0.4654757386","0.2361366225","0.8641798474","0.8895114993","","","","","","","","75","K","2","","","116","main_expt",""
"","bandit","196","632928","0.0-157.0-0.0","82147769","wem/bandit_either_3","A2QCHFSNUU7Y1F","either","7","427","","","","","","","0","0","1","0.8756768431","","0.8","0.2","0.6","0.4","","","","","0.4578633225","0.218402711","0.8756768431","0.8936856952","","","","","","","","75","K","2","","","117","main_expt",""
"","bandit","197","634750","0.0-158.0-0.0","82147769","wem/bandit_either_3","A2QCHFSNUU7Y1F","either","7","280","","","","","","","1","0","0","0.9015269718","","0.8","0.2","0.6","0.4","","","","","0.4773941538","0.2003641109","0.9015269718","0.8077127093","","","","","","","","75","K","2","","","118","main_expt",""
"","bandit","198","636797","0.0-159.0-0.0","82147769","wem/bandit_either_3","A2QCHFSNUU7Y1F","either","7","513","","","","","","","0","0","1","0.8709738884","","0.8","0.2","0.6","0.4","","","","","0.508374463","0.1375137305","0.8709738884","0.8901108642","","","","","","","","75","K","2","","","119","main_expt",""
"","bandit","199","638669","0.0-160.0-0.0","82147769","wem/bandit_either_3","A2QCHFSNUU7Y1F","either","7","343","","","","","","","1","0","0","0.8268338002","","0.8","0.2","0.6","0.4","","","","","0.4294310012","0.08656631556","0.8268338002","0.8731124259","","","","","","","","75","K","2","","","120","main_expt",""
"","bandit","200","640912","0.0-161.0-0.0","82147769","wem/bandit_either_3","A2QCHFSNUU7Y1F","either","7","722","","","","","","","0","0","1","0.8432616236","","0.8","0.2","0.6","0.4","","","","","0.3933985885","0.07812634859","0.8432616236","0.8509174952","","","","","","","","75","K","2","","","121","main_expt",""
"","bandit","201","642998","0.0-162.0-0.0","82147769","wem/bandit_either_3","A2QCHFSNUU7Y1F","either","7","440","","","","","","","0","1","0","","0.8128728295","0.8","0.2","0.6","0.4","0.2641409089","0.09046411854","0.8128728295","0.8707856005","","","","","","","","","","","","75","K","2","","","122","main_expt",""
"","bandit","202","644888","0.0-163.0-0.0","82147769","wem/bandit_either_3","A2QCHFSNUU7Y1F","either","7","361","","","","","","","1","0","0","0.752198112","","0.8","0.2","0.6","0.4","","","","","0.2491349268","0.1132512529","0.752198112","0.7592524618","","","","","","","","75","K","2","","","123","main_expt",""
"","bandit","203","646915","0.0-164.0-0.0","82147769","wem/bandit_either_3","A2QCHFSNUU7Y1F","either","7","492","","","","","","","0","0","1","","0.7117781612","0.8","0.2","0.6","0.4","0.2587226179","0.09419269712","0.7117781612","0.7330206325","","","","","","","","","","","","75","K","2","","","124","main_expt",""
"","bandit","204","648743","0.0-165.0-0.0","82147769","wem/bandit_either_3","A2QCHFSNUU7Y1F","either","7","308","","","","","","","1","0","0","0.7177409252","","0.8","0.2","0.6","0.4","","","","","0.2925679814","0.110513045","0.7177409252","0.6903693331","","","","","","","","75","K","2","","","125","main_expt",""
"","bandit","205","650789","0.0-166.0-0.0","82147769","wem/bandit_either_3","A2QCHFSNUU7Y1F","either","7","477","","","","","","","0","0","1","0.7240917845","","0.8","0.2","0.6","0.4","","","","","0.3997536411","0.07088043536","0.7240917845","0.6370641568","","","","","","","","75","K","2","","","126","main_expt",""
"","bandit","206","652513","0.0-167.0-0.0","82147769","wem/bandit_either_3","A2QCHFSNUU7Y1F","either","7","193","","","","","","","0","1","0","","0.4120812041","0.8","0.2","0.6","0.4","0.4120812041","0.1041728595","0.6788578752","0.6192694325","","","","","","","","","","","","72","H","0","img/none_selected.jpg","","127","main_expt",""
"","bandit","207","654303","0.0-168.0-0.0","82147769","wem/bandit_either_3","A2QCHFSNUU7Y1F","either","7","210","","","","","","","0","0","1","","0.1006708935","0.8","0.2","0.6","0.4","0.3731276689","0.1006708935","0.6257789885","0.559348281","","","","","","","","","","","","74","J","1","","","128","main_expt",""
"","bandit","208","655951","0.0-169.0-0.0","82147769","wem/bandit_either_3","A2QCHFSNUU7Y1F","either","7","126","","","","","","","1","0","0","0.3263017501","","0.8","0.2","0.6","0.4","","","","","0.3263017501","0.1336488566","0.4761868647","0.610360397","","","","","","","","72","H","0","img/none_selected.jpg","","129","main_expt",""
"","bandit","209","657735","0.0-170.0-0.0","82147769","wem/bandit_either_3","A2QCHFSNUU7Y1F","either","7","264","","","","","","","0","0","1","0.3226142564","","0.8","0.2","0.6","0.4","","","","","0.3226142564","0.1271550391","0.4745188583","0.5737783772","","","","","","","","72","H","0","img/none_selected.jpg","","130","main_expt",""
"","bandit","210","659577","0.0-171.0-0.0","82147769","wem/bandit_either_3","A2QCHFSNUU7Y1F","either","7","318","","","","","","","1","0","0","0.3907136596","","0.8","0.2","0.6","0.4","","","","","0.3907136596","0.1594360192","0.4674409752","0.6252154127","","","","","","","","72","H","0","img/none_selected.jpg","","131","main_expt",""
"","bandit","211","661376","0.0-172.0-0.0","82147769","wem/bandit_either_3","A2QCHFSNUU7Y1F","either","7","270","","","","","","","0","0","1","","0.4983036492","0.8","0.2","0.6","0.4","0.4983036492","0.1027658661","0.368649462","0.6473056352","","","","","","","","","","","","72","H","0","img/none_selected.jpg","","132","main_expt",""
"","bandit","212","665618","0.0-173.0-0.0","82147769","wem/bandit_either_3","A2QCHFSNUU7Y1F","either","7","2679","","","","","","","0","0","1","0.6347393695","","0.8","0.2","0.6","0.4","","","","","0.6347393695","0.1223548883","0.4313577514","0.4595123468","","","","","","","","72","H","0","img/none_selected.jpg","","133","main_expt",""
"","bandit","213","670192","0.0-174.0-0.0","82147769","wem/bandit_either_3","A2QCHFSNUU7Y1F","either","7","3031","","","","","","","1","0","0","0.6037412299","","0.8","0.2","0.6","0.4","","","","","0.6037412299","0.1063029331","0.3692150919","0.3043385566","","","","","","","","72","H","0","img/none_selected.jpg","","134","main_expt",""
"","bandit","214","671935","0.0-175.0-0.0","82147769","wem/bandit_either_3","A2QCHFSNUU7Y1F","either","7","217","","","","","","","1","0","0","0.5511090861","","0.8","0.2","0.6","0.4","","","","","0.5511090861","0.080644856","0.3077662431","0.340857567","","","","","","","","72","H","0","img/none_selected.jpg","","135","main_expt",""
"","bandit","215","676297","0.0-176.0-0.0","82147769","wem/bandit_either_3","A2QCHFSNUU7Y1F","either","7","2766","","","","","","","0","0","1","0.585911414","","0.8","0.2","0.6","0.4","","","","","0.585911414","0.1359867045","0.314969588","0.2655810755","","","","","","","","72","H","0","img/none_selected.jpg","","136","main_expt",""
"","bandit","216","678623","0.0-177.0-0.0","82147769","wem/bandit_either_3","A2QCHFSNUU7Y1F","either","7","605","","","","","","","1","0","0","0.5805905743","","0.8","0.2","0.6","0.4","","","","","0.5805905743","0.168344283","0.3590847215","0.3025530854","","","","","","","","72","H","0","img/none_selected.jpg","","137","main_expt",""
"","bandit","217","680787","0.0-178.0-0.0","82147769","wem/bandit_either_3","A2QCHFSNUU7Y1F","either","7","636","","","","","","","0","0","1","","0.6357737786","0.8","0.2","0.6","0.4","0.6357737786","0.1867455324","0.3588584756","0.2888348812","","","","","","","","","","","","72","H","0","img/none_selected.jpg","","138","main_expt",""
"","bandit","218","682955","0.0-179.0-0.0","82147769","wem/bandit_either_3","A2QCHFSNUU7Y1F","either","7","609","","","","","","","1","0","0","0.66639317","","0.8","0.2","0.6","0.4","","","","","0.66639317","0.2277874407","0.4289761638","0.2463208975","","","","","","","","72","H","0","img/none_selected.jpg","","139","main_expt",""
"","bandit","219","685604","0.0-180.0-0.0","82147769","wem/bandit_either_3","A2QCHFSNUU7Y1F","either","7","1100","","","","","","","0","1","0","","0.6365789307","0.8","0.2","0.6","0.4","0.6365789307","0.2577820179","0.3801639999","0.273109751","","","","","","","","","","","","72","H","0","img/none_selected.jpg","","140","main_expt",""
"","bandit","220","689304","0.0-181.0-0.0","82147769","wem/bandit_either_3","A2QCHFSNUU7Y1F","either","7","2049","","","","","","","1","0","0","0.6045632144","","0.8","0.2","0.6","0.4","","","","","0.6045632144","0.3674069736","0.2445936549","0.3355442787","","","","","","","","72","H","0","img/none_selected.jpg","","141","main_expt",""
"","bandit","221","695822","0.0-182.0-0.0","82147769","wem/bandit_either_3","A2QCHFSNUU7Y1F","either","7","4987","","","","","","","0","0","1","0.5148607161","","0.8","0.2","0.6","0.4","","","","","0.5148607161","0.4345417514","0.3394066497","0.2781999234","","","","","","","","72","H","0","img/none_selected.jpg","","142","main_expt",""
"","bandit","222","698358","0.0-183.0-0.0","82147769","wem/bandit_either_3","A2QCHFSNUU7Y1F","either","7","1006","","","","","","","1","0","0","0.4754154836","","0.8","0.2","0.6","0.4","","","","","0.4754154836","0.3811672827","0.2899754881","0.2599467226","","","","","","","","72","H","0","img/none_selected.jpg","","143","main_expt",""
"","bandit","223","700166","0.0-184.0-0.0","82147769","wem/bandit_either_3","A2QCHFSNUU7Y1F","either","7","279","","","","","","","1","0","0","0.516029258","","0.8","0.2","0.6","0.4","","","","","0.516029258","0.2754059391","0.3701332444","0.2353144144","","","","","","","","72","H","0","img/none_selected.jpg","","144","main_expt",""
"","bandit","224","702678","0.0-185.0-0.0","82147769","wem/bandit_either_3","A2QCHFSNUU7Y1F","either","7","986","","","","","","","1","0","0","0.6646605279","","0.8","0.2","0.6","0.4","","","","","0.6646605279","0.2773400324","0.3322753171","0.2120114759","","","","","","","","72","H","0","img/none_selected.jpg","","145","main_expt",""
"","bandit","225","705429","0.0-186.0-0.0","82147769","wem/bandit_either_3","A2QCHFSNUU7Y1F","either","7","1229","","","","","","","0","1","0","","0.6331546467","0.8","0.2","0.6","0.4","0.6331546467","0.2780426824","0.3203507811","0.176067728","","","","","","","","","","","","72","H","0","img/none_selected.jpg","","146","main_expt",""
"","bandit","226","707953","0.0-187.0-0.0","82147769","wem/bandit_either_3","A2QCHFSNUU7Y1F","either","7","997","","","","","","","1","0","0","0.6356747602","","0.8","0.2","0.6","0.4","","","","","0.6356747602","0.3373608721","0.304761248","0.1329453439","","","","","","","","72","H","0","img/none_selected.jpg","","147","main_expt",""
"","bandit","227","710753","0.0-188.0-0.0","82147769","wem/bandit_either_3","A2QCHFSNUU7Y1F","either","7","1269","","","","","","","0","0","1","0.6301772709","","0.8","0.2","0.6","0.4","","","","","0.6301772709","0.3529594122","0.3809280674","0.1465103875","","","","","","","","72","H","0","img/none_selected.jpg","","148","main_expt",""
"","bandit","228","712556","0.0-189.0-0.0","82147769","wem/bandit_either_3","A2QCHFSNUU7Y1F","either","7","278","","","","","","","1","0","0","0.6640591829","","0.8","0.2","0.6","0.4","","","","","0.6640591829","0.3878328211","0.3997986218","0.1190451538","","","","","","","","72","H","0","img/none_selected.jpg","","149","main_expt",""
"","bandit","229","714671","0.0-190.0-0.0","82147769","wem/bandit_either_3","A2QCHFSNUU7Y1F","either","7","583","","","","","","","1","0","0","0.6592717552","","0.8","0.2","0.6","0.4","","","","","0.6592717552","0.42943501","0.3159341416","0.1195570164","","","","","","","","72","H","0","img/none_selected.jpg","","150","main_expt",""
"","bandit","230","717128","0.0-191.0-0.0","82147769","wem/bandit_either_3","A2QCHFSNUU7Y1F","either","7","924","","","","","","","1","0","0","0.5928743102","","0.8","0.2","0.6","0.4","","","","","0.5928743102","0.5142681232","0.3052853957","0.100492686","","","","","","","","72","H","0","img/none_selected.jpg","","151","main_expt",""
"","bandit","231","719340","0.0-192.0-0.0","82147769","wem/bandit_either_3","A2QCHFSNUU7Y1F","either","7","684","","","","","","","0","0","1","0.6822187145","","0.8","0.2","0.6","0.4","","","","","0.6822187145","0.6321073962","0.1896018403","0.1030367897","","","","","","","","72","H","0","img/none_selected.jpg","","152","main_expt",""
"","bandit","232","722525","0.0-193.0-0.0","82147769","wem/bandit_either_3","A2QCHFSNUU7Y1F","either","7","1662","","","","","","","1","0","0","0.6832005509","","0.8","0.2","0.6","0.4","","","","","0.6832005509","0.6965670792","0.2439656658","0.2059045691","","","","","","","","72","H","0","img/none_selected.jpg","","153","main_expt",""
"","bandit","233","725160","0.0-194.0-0.0","82147769","wem/bandit_either_3","A2QCHFSNUU7Y1F","either","7","1096","","","","","","","1","0","0","0.7109729062","","0.8","0.2","0.6","0.4","","","","","0.7109729062","0.6516005735","0.3068434149","0.2921647579","","","","","","","","72","H","0","img/none_selected.jpg","","154","main_expt",""
"","bandit","234","727321","0.0-195.0-0.0","82147769","wem/bandit_either_3","A2QCHFSNUU7Y1F","either","7","636","","","","","","","1","0","0","0.6975465092","","0.8","0.2","0.6","0.4","","","","","0.6975465092","0.7291318088","0.2314644909","0.1789694193","","","","","","","","72","H","0","img/none_selected.jpg","","155","main_expt",""
"","bandit","235","730444","0.0-196.0-0.0","82147769","wem/bandit_either_3","A2QCHFSNUU7Y1F","either","7","1601","","","","","","","0","0","1","0.6580608271","","0.8","0.2","0.6","0.4","","","","","0.6580608271","0.6273572288","0.2154001061","0.2187195075","","","","","","","","72","H","0","img/none_selected.jpg","","156","main_expt",""
"","bandit","236","733054","0.0-197.0-0.0","82147769","wem/bandit_either_3","A2QCHFSNUU7Y1F","either","7","966","","","","","","","0","1","0","","0.566197257","0.8","0.2","0.6","0.4","0.5695802138","0.566197257","0.1648135251","0.2669834713","","","","","","","","","","","","74","J","1","","","157","main_expt",""
"","bandit","237","735029","0.0-198.0-0.0","82147769","wem/bandit_either_3","A2QCHFSNUU7Y1F","either","7","440","","","","","","","0","0","1","","0.4523642269","0.8","0.2","0.6","0.4","0.4733954301","0.4523642269","0.2215973425","0.4240307821","","","","","","","","","","","","74","J","1","","","158","main_expt",""
"","bandit","238","737296","0.0-199.0-0.0","82147769","wem/bandit_either_3","A2QCHFSNUU7Y1F","either","7","676","","","","","","","0","1","0","","0.3991212054","0.8","0.2","0.6","0.4","0.5619817243","0.3991212054","0.2243274726","0.3840951437","","","","","","","","","","","","74","J","1","","","159","main_expt",""
"","bandit","239","739184","0.0-200.0-0.0","82147769","wem/bandit_either_3","A2QCHFSNUU7Y1F","either","7","364","","","","","","","0","0","1","","0.3566558104","0.8","0.2","0.6","0.4","0.4701658979","0.3566558104","0.2061161075","0.4098147986","","","","","","","","","","","","74","J","1","","","160","main_expt",""
"","bandit","240","740807","0.0-201.0-0.0","82147769","wem/bandit_either_3","A2QCHFSNUU7Y1F","either","7","99","","","","","","","0","0","1","0.209200141","","0.8","0.2","0.6","0.4","","","","","0.5673671472","0.4430908041","0.209200141","0.4027252302","","","","","","","","75","K","2","","","161","main_expt",""
"","bandit","241","742518","0.0-202.0-0.0","82147769","wem/bandit_either_3","A2QCHFSNUU7Y1F","either","7","170","","","","","","","0","0","1","","0.3824170733","0.8","0.2","0.6","0.4","0.4921809208","0.3966098285","0.1477343718","0.3824170733","","","","","","","","","","","","76","L","3","","","162","main_expt",""
"","bandit","242","745076","0.0-203.0-0.0","82147769","wem/bandit_either_3","A2QCHFSNUU7Y1F","either","7","832","","","","","","","1","0","0","0.4204505308","","0.8","0.2","0.6","0.4","","","","","0.4204505308","0.3455868331","0.1525050104","0.3352280924","","","","","","","","72","H","0","img/none_selected.jpg","","163","main_expt",""
"","bandit","243","747132","0.0-204.0-0.0","82147769","wem/bandit_either_3","A2QCHFSNUU7Y1F","either","7","527","","","","","","","0","0","1","0.534748173","","0.8","0.2","0.6","0.4","","","","","0.534748173","0.3368969945","0.08831047354","0.3379187571","","","","","","","","72","H","0","img/none_selected.jpg","","164","main_expt",""
"","bandit","244","749884","0.0-205.0-0.0","82147769","wem/bandit_either_3","A2QCHFSNUU7Y1F","either","7","1182","","","","","","","1","0","0","0.4724966102","","0.8","0.2","0.6","0.4","","","","","0.4724966102","0.3767562303","0.1035482763","0.3160546663","","","","","","","","72","H","0","img/none_selected.jpg","","165","main_expt",""
"","bandit","245","753288","0.0-206.0-0.0","82147769","wem/bandit_either_3","A2QCHFSNUU7Y1F","either","7","1870","","","","","","","0","0","1","0.5280505203","","0.8","0.2","0.6","0.4","","","","","0.5280505203","0.4727650462","0.06888190676","0.3058359067","","","","","","","","72","H","0","img/none_selected.jpg","","166","main_expt",""
"","bandit","246","755729","0.0-207.0-0.0","82147769","wem/bandit_either_3","A2QCHFSNUU7Y1F","either","7","909","","","","","","","1","0","0","0.589670135","","0.8","0.2","0.6","0.4","","","","","0.589670135","0.6140635231","0.06051452263","0.2561334246","","","","","","","","72","H","0","img/none_selected.jpg","","167","main_expt",""
"","bandit","247","758714","0.0-208.0-0.0","82147769","wem/bandit_either_3","A2QCHFSNUU7Y1F","either","7","1448","","","","","","","1","0","0","0.5058201204","","0.8","0.2","0.6","0.4","","","","","0.5058201204","0.5629225295","0.07905307949","0.2459084815","","","","","","","","72","H","0","img/none_selected.jpg","","168","main_expt",""
"","bandit","248","761355","0.0-209.0-0.0","82147769","wem/bandit_either_3","A2QCHFSNUU7Y1F","either","7","1115","","","","","","","0","0","1","0.4102709571","","0.8","0.2","0.6","0.4","","","","","0.4102709571","0.6456076899","0.07051596905","0.2138460752","","","","","","","","72","H","0","img/none_selected.jpg","","169","main_expt",""
"","bandit","249","763239","0.0-210.0-0.0","82147769","wem/bandit_either_3","A2QCHFSNUU7Y1F","either","7","361","","","","","","","1","0","0","0.5061826445","","0.8","0.2","0.6","0.4","","","","","0.5061826445","0.719827795","0.1056762318","0.1642406351","","","","","","","","72","H","0","img/none_selected.jpg","","170","main_expt",""
"","bandit","250","765935","0.0-211.0-0.0","82147769","wem/bandit_either_3","A2QCHFSNUU7Y1F","either","7","1171","","","","","","","1","0","0","0.6092158501","","0.8","0.2","0.6","0.4","","","","","0.6092158501","0.6716280274","0.1513980822","0.2337150112","","","","","","","","72","H","0","img/none_selected.jpg","","171","main_expt",""
"","bandit","251","767997","0.0-212.0-0.0","82147769","wem/bandit_either_3","A2QCHFSNUU7Y1F","either","7","513","","","","","","","0","1","0","","0.691496366","0.8","0.2","0.6","0.4","0.691496366","0.5683226388","0.1552293495","0.3128682212","","","","","","","","","","","","72","H","0","img/none_selected.jpg","","172","main_expt",""
"","bandit","252","773126","0.0-213.0-0.0","82147769","wem/bandit_either_3","A2QCHFSNUU7Y1F","either","7","3599","","","","","","","1","0","0","0.7402253768","","0.8","0.2","0.6","0.4","","","","","0.7402253768","0.4581357746","0.1325975083","0.2775517843","","","","","","","","72","H","0","img/none_selected.jpg","","173","main_expt",""
"","bandit","253","778818","0.0-214.0-0.0","82147769","wem/bandit_either_3","A2QCHFSNUU7Y1F","either","7","4162","","","","","","","0","1","0","","0.6601004511","0.8","0.2","0.6","0.4","0.6601004511","0.5903479164","0.09024892351","0.4159305855","","","","","","","","","","","","72","H","0","img/none_selected.jpg","","174","main_expt",""
"","bandit","254","782600","0.0-215.0-0.0","82147769","wem/bandit_either_3","A2QCHFSNUU7Y1F","either","7","2248","","","","","","","0","0","1","0.6781732273","","0.8","0.2","0.6","0.4","","","","","0.6781732273","0.5658285383","0.06963745108","0.4471770837","","","","","","","","72","H","0","img/none_selected.jpg","","175","main_expt",""
"","bandit","255","784723","0.0-216.0-0.0","82147769","wem/bandit_either_3","A2QCHFSNUU7Y1F","either","7","455","","","","","","","0","0","1","0.5313506173","","0.8","0.2","0.6","0.4","","","","","0.6932650799","0.5313506173","0.07897043431","0.5162211083","","","","","","","","74","J","1","","","176","main_expt",""
"","bandit","256","786677","0.0-217.0-0.0","82147769","wem/bandit_either_3","A2QCHFSNUU7Y1F","either","7","240","","","","","","","0","0","1","0.09469685393","","0.8","0.2","0.6","0.4","","","","","0.6803850572","0.4231289234","0.09469685393","0.6372676231","","","","","","","","75","K","2","","","177","main_expt",""
"","bandit","257","788502","0.0-218.0-0.0","82147769","wem/bandit_either_3","A2QCHFSNUU7Y1F","either","7","271","","","","","","","0","0","1","0.6295749113","","0.8","0.2","0.6","0.4","","","","","0.5407017663","0.580807006","0.1486386852","0.6295749113","","","","","","","","76","L","3","","","178","main_expt",""
"","bandit","258","790572","0.0-219.0-0.0","82147769","wem/bandit_either_3","A2QCHFSNUU7Y1F","either","7","427","","","","","","","0","0","1","0.5931576708","","0.8","0.2","0.6","0.4","","","","","0.5931576708","0.5499948007","0.1965095934","0.4126066341","","","","","","","","72","H","0","img/none_selected.jpg","","179","main_expt",""
"","bandit","259","792516","0.0-220.0-0.0","82147769","wem/bandit_either_3","A2QCHFSNUU7Y1F","either","7","417","","","","","","","1","0","0","0.4918200669","","0.8","0.2","0.6","0.4","","","","","0.5390819372","0.4918200669","0.1749048096","0.516991344","","","","","","","","74","J","1","","","180","main_expt",""
"","bandit","260","794646","0.0-221.0-0.0","82147769","wem/bandit_either_3","A2QCHFSNUU7Y1F","either","7","609","","","","","","","0","1","0","","0.5428702931","0.8","0.2","0.6","0.4","0.4929910299","0.5428702931","0.232896561","0.4239603033","","","","","","","","","","","","74","J","1","","","181","main_expt",""
"","bandit","261","797653","0.0-222.0-0.0","82147769","wem/bandit_either_3","A2QCHFSNUU7Y1F","either","7","1365","","","","","","","0","0","1","","0.5870547156","0.8","0.2","0.6","0.4","0.458433212","0.5870547156","0.2561822725","0.3961891141","","","","","","","","","","","","74","J","1","","","182","main_expt",""
"","bandit","262","799587","0.0-223.0-0.0","82147769","wem/bandit_either_3","A2QCHFSNUU7Y1F","either","7","403","","","","","","","0","0","1","","0.5031908535","0.8","0.2","0.6","0.4","0.5725449786","0.5031908535","0.2713883962","0.4364601233","","","","","","","","","","","","74","J","1","","","183","main_expt",""
"","bandit","263","801642","0.0-224.0-0.0","82147769","wem/bandit_either_3","A2QCHFSNUU7Y1F","either","7","491","","","","","","","1","0","0","0.3543557679","","0.8","0.2","0.6","0.4","","","","","0.4878383732","0.4239978994","0.3543557679","0.4826964198","","","","","","","","75","K","2","","","184","main_expt",""
"","bandit","264","805844","0.0-225.0-0.0","82147769","wem/bandit_either_3","A2QCHFSNUU7Y1F","either","7","2667","","","","","","","0","0","1","0.2974533566","","0.8","0.2","0.6","0.4","","","","","0.5189350158","0.3425545299","0.2974533566","0.4448789548","","","","","","","","75","K","2","","","185","main_expt",""
"","bandit","265","808257","0.0-226.0-0.0","82147769","wem/bandit_either_3","A2QCHFSNUU7Y1F","either","7","878","","","","","","","1","0","0","0.3295130888","","0.8","0.2","0.6","0.4","","","","","0.4310300585","0.2594221554","0.3295130888","0.4585835861","","","","","","","","75","K","2","","","186","main_expt",""
"","bandit","266","811727","0.0-227.0-0.0","82147769","wem/bandit_either_3","A2QCHFSNUU7Y1F","either","7","1095","","","","","","","0","0","1","0.3440574025","","0.8","0.2","0.6","0.4","","","","","0.4005994516","0.350747246","0.3440574025","0.5470412386","","","","","","","","75","K","2","","","187","main_expt",""
"","bandit","267","814603","0.0-228.0-0.0","82147769","wem/bandit_either_3","A2QCHFSNUU7Y1F","either","7","392","","","","","","","0","0","1","","0.5485419855","0.8","0.2","0.6","0.4","0.5684333967","0.3667816541","0.3176863717","0.5485419855","","","","","","","","","","","","76","L","3","","","188","main_expt",""
"","bandit","268","817048","0.0-229.0-0.0","82147769","wem/bandit_either_3","A2QCHFSNUU7Y1F","either","7","919","","","","","","","1","0","0","0.5768443477","","0.8","0.2","0.6","0.4","","","","","0.5768443477","0.3129240978","0.3194332301","0.6161015427","","","","","","","","72","H","0","img/none_selected.jpg","","189","main_expt",""
"","bandit","269","819079","0.0-230.0-0.0","82147769","wem/bandit_either_3","A2QCHFSNUU7Y1F","either","7","509","","","","","","","0","1","0","","0.6091254975","0.8","0.2","0.6","0.4","0.6091254975","0.3681084497","0.3585260795","0.5145576236","","","","","","","","","","","","72","H","0","img/none_selected.jpg","","190","main_expt",""
"","bandit","270","821071","0.0-231.0-0.0","82147769","wem/bandit_either_3","A2QCHFSNUU7Y1F","either","7","415","","","","","","","0","0","1","0.6355225437","","0.8","0.2","0.6","0.4","","","","","0.6355225437","0.3284994938","0.4438822556","0.4447609651","","","","","","","","72","H","0","img/none_selected.jpg","","191","main_expt",""
"","bandit","271","823151","0.0-232.0-0.0","82147769","wem/bandit_either_3","A2QCHFSNUU7Y1F","either","7","559","","","","","","","1","0","0","0.7449996868","","0.8","0.2","0.6","0.4","","","","","0.7449996868","0.2913335268","0.6336907385","0.4273979598","","","","","","","","72","H","0","img/none_selected.jpg","","192","main_expt",""
"","bandit","272","825400","0.0-233.0-0.0","82147769","wem/bandit_either_3","A2QCHFSNUU7Y1F","either","7","605","","","","","","","1","0","0","0.7645281636","","0.8","0.2","0.6","0.4","","","","","0.7645281636","0.3614904019","0.5871300795","0.4382354048","","","","","","","","72","H","0","img/none_selected.jpg","","193","main_expt",""
"","bandit","273","827346","0.0-234.0-0.0","82147769","wem/bandit_either_3","A2QCHFSNUU7Y1F","either","7","411","","","","","","","0","1","0","","0.7417458559","0.8","0.2","0.6","0.4","0.7417458559","0.4180963095","0.5919999684","0.4367950698","","","","","","","","","","","","72","H","0","img/none_selected.jpg","","194","main_expt",""
"","bandit","274","829171","0.0-235.0-0.0","82147769","wem/bandit_either_3","A2QCHFSNUU7Y1F","either","7","295","","","","","","","0","0","1","0.7102393491","","0.8","0.2","0.6","0.4","","","","","0.7102393491","0.4129416526","0.5599221581","0.4306922929","","","","","","","","72","H","0","img/none_selected.jpg","","195","main_expt",""
"","bandit","275","830957","0.0-236.0-0.0","82147769","wem/bandit_either_3","A2QCHFSNUU7Y1F","either","7","248","","","","","","","1","0","0","0.6846894693","","0.8","0.2","0.6","0.4","","","","","0.6846894693","0.6027995291","0.4552797342","0.4436260943","","","","","","","","72","H","0","img/none_selected.jpg","","196","main_expt",""
"","bandit","276","832755","0.0-237.0-0.0","82147769","wem/bandit_either_3","A2QCHFSNUU7Y1F","either","7","259","","","","","","","1","0","0","0.6573901597","","0.8","0.2","0.6","0.4","","","","","0.6573901597","0.6174547511","0.3045440077","0.4547077395","","","","","","","","72","H","0","img/none_selected.jpg","","197","main_expt",""
"","bandit","277","834579","0.0-238.0-0.0","82147769","wem/bandit_either_3","A2QCHFSNUU7Y1F","either","7","287","","","","","","","0","0","1","0.7020762336","","0.8","0.2","0.6","0.4","","","","","0.7020762336","0.5727893511","0.4061180554","0.545148617","","","","","","","","72","H","0","img/none_selected.jpg","","198","main_expt",""
"","bandit","278","837624","0.0-239.0-0.0","82147769","wem/bandit_either_3","A2QCHFSNUU7Y1F","either","7","1517","","","","","","","1","0","0","0.7749867965","","0.8","0.2","0.6","0.4","","","","","0.7749867965","0.5803616598","0.3406873398","0.5838562778","","","","","","","","72","H","0","img/none_selected.jpg","","199","main_expt",""
"","bandit","279","839895","0.0-240.0-0.0","82147769","wem/bandit_either_3","A2QCHFSNUU7Y1F","either","7","748","","","","","","","0","1","0","","0.7971262248","0.8","0.2","0.6","0.4","0.7971262248","0.5109940584","0.2810551981","0.6569131065","","","","","","","","","","","","72","H","0","img/none_selected.jpg","","200","main_expt",""
"","bandit","280","841968","0.0-241.0-0.0","82147769","wem/bandit_either_3","A2QCHFSNUU7Y1F","either","7","539","","","","","","","0","0","1","0.6431063495","","0.8","0.2","0.6","0.4","","","","","0.6431063495","0.444158281","0.2295892347","0.6559739125","","","","","","","","72","H","0","img/none_selected.jpg","","201","main_expt",""
"","bandit","281","844012","0.0-242.0-0.0","82147769","wem/bandit_either_3","A2QCHFSNUU7Y1F","either","7","511","","","","","","","1","0","0","0.6153479028","","0.8","0.2","0.6","0.4","","","","","0.6153479028","0.3774362348","0.2134833186","0.5940698896","","","","","","","","72","H","0","img/none_selected.jpg","","202","main_expt",""
"","bandit","282","846708","0.0-243.0-0.0","82147769","wem/bandit_either_3","A2QCHFSNUU7Y1F","either","7","1104","","","","","","","0","1","0","","0.6107921693","0.8","0.2","0.6","0.4","0.6107921693","0.2852638898","0.1538434825","0.6288005559","","","","","","","","","","","","72","H","0","img/none_selected.jpg","","203","main_expt",""
"","bandit","283","849256","0.0-244.0-0.0","82147769","wem/bandit_either_3","A2QCHFSNUU7Y1F","either","7","990","","","","","","","1","0","0","0.6364312764","","0.8","0.2","0.6","0.4","","","","","0.6364312764","0.3900316507","0.08629221539","0.7483345684","","","","","","","","72","H","0","img/none_selected.jpg","","204","main_expt",""
"","bandit","284","851433","0.0-245.0-0.0","82147769","wem/bandit_either_3","A2QCHFSNUU7Y1F","either","7","568","","","","","","","1","0","0","0.7098325313","","0.8","0.2","0.6","0.4","","","","","0.7098325313","0.3334674042","0.1303029892","0.7823609999","","","","","","","","72","H","0","img/none_selected.jpg","","205","main_expt",""
"","bandit","285","853606","0.0-246.0-0.0","82147769","wem/bandit_either_3","A2QCHFSNUU7Y1F","either","7","651","","","","","","","0","1","0","","0.6423198407","0.8","0.2","0.6","0.4","0.6423198407","0.3997779834","0.1290793888","0.7053347691","","","","","","","","","","","","72","H","0","img/none_selected.jpg","","206","main_expt",""
"","bandit","286","855584","0.0-247.0-0.0","82147769","wem/bandit_either_3","A2QCHFSNUU7Y1F","either","7","443","","","","","","","0","0","1","0.7196337679","","0.8","0.2","0.6","0.4","","","","","0.7196337679","0.2791746034","0.1471003053","0.692958529","","","","","","","","72","H","0","img/none_selected.jpg","","207","main_expt",""
"","bandit","287","857798","0.0-248.0-0.0","82147769","wem/bandit_either_3","A2QCHFSNUU7Y1F","either","7","471","","","","","","","1","0","0","0.7273253538","","0.8","0.2","0.6","0.4","","","","","0.7273253538","0.3447420344","0.1204476287","0.5726600787","","","","","","","","72","H","0","img/none_selected.jpg","","208","main_expt",""
"","bandit","288","859981","0.0-249.0-0.0","82147769","wem/bandit_either_3","A2QCHFSNUU7Y1F","either","7","653","","","","","","","1","0","0","0.7701678217","","0.8","0.2","0.6","0.4","","","","","0.7701678217","0.2106944101","0.1752658923","0.7193759884","","","","","","","","72","H","0","img/none_selected.jpg","","209","main_expt",""
"","bandit","289","862252","0.0-250.0-0.0","82147769","wem/bandit_either_3","A2QCHFSNUU7Y1F","either","7","742","","","","","","","0","0","1","0.7673062315","","0.8","0.2","0.6","0.4","","","","","0.7673062315","0.2609791638","0.2071456167","0.5469619257","","","","","","","","72","H","0","img/none_selected.jpg","","210","main_expt",""
"","bandit","290","864359","0.0-251.0-0.0","82147769","wem/bandit_either_3","A2QCHFSNUU7Y1F","either","7","573","","","","","","","1","0","0","0.7733207599","","0.8","0.2","0.6","0.4","","","","","0.7733207599","0.3702243554","0.1982577311","0.5432746348","","","","","","","","72","H","0","img/none_selected.jpg","","211","main_expt",""
"","bandit","291","868704","0.0-252.0-0.0","82147769","wem/bandit_either_3","A2QCHFSNUU7Y1F","either","7","2813","","","","","","","1","0","0","0.7176010575","","0.8","0.2","0.6","0.4","","","","","0.7176010575","0.4070014152","0.2837026457","0.4857525371","","","","","","","","72","H","0","img/none_selected.jpg","","212","main_expt",""
"","bandit","292","871207","0.0-253.0-0.0","82147769","wem/bandit_either_3","A2QCHFSNUU7Y1F","either","7","943","","","","","","","0","0","1","","0.7241732444","0.8","0.2","0.6","0.4","0.7241732444","0.5001351259","0.2192955177","0.4416723402","","","","","","","","","","","","72","H","0","img/none_selected.jpg","","213","main_expt",""
"","bandit","293","873355","0.0-254.0-0.0","82147769","wem/bandit_either_3","A2QCHFSNUU7Y1F","either","7","582","","","","","","","0","1","0","","0.6696022014","0.8","0.2","0.6","0.4","0.6696022014","0.5667049056","0.2885853396","0.4231083207","","","","","","","","","","","","72","H","0","img/none_selected.jpg","","214","main_expt",""
"","bandit","294","875269","0.0-255.0-0.0","82147769","wem/bandit_either_3","A2QCHFSNUU7Y1F","either","7","388","","","","","","","0","0","1","0.6255990046","","0.8","0.2","0.6","0.4","","","","","0.6255990046","0.5259574602","0.2451296471","0.329019478","","","","","","","","72","H","0","img/none_selected.jpg","","215","main_expt",""
"","bandit","295","876850","0.0-256.0-0.0","82147769","wem/bandit_either_3","A2QCHFSNUU7Y1F","either","7","43","","","","","","","1","0","0","0.1946790852","","0.8","0.2","0.6","0.4","","","","","0.6771362935","0.5468860011","0.1946790852","0.3469743373","","","","","","","","75","K","2","","","216","main_expt",""
"","bandit","296","878713","0.0-257.0-0.0","82147769","wem/bandit_either_3","A2QCHFSNUU7Y1F","either","7","329","","","","","","","0","0","1","0.2497229096","","0.8","0.2","0.6","0.4","","","","","0.6918953154","0.6182745027","0.2497229096","0.3618740044","","","","","","","","75","K","2","","","217","main_expt",""
"","bandit","297","880542","0.0-258.0-0.0","82147769","wem/bandit_either_3","A2QCHFSNUU7Y1F","either","7","302","","","","","","","0","0","1","0.3076421025","","0.8","0.2","0.6","0.4","","","","","0.5726390237","0.5979125128","0.3076421025","0.3574217595","","","","","","","","75","K","2","","","218","main_expt",""
"","bandit","298","882325","0.0-259.0-0.0","82147769","wem/bandit_either_3","A2QCHFSNUU7Y1F","either","7","260","","","","","","","0","0","1","","0.5321687475","0.8","0.2","0.6","0.4","0.5179196303","0.5321687475","0.3488941347","0.3862686792","","","","","","","","","","","","74","J","1","","","219","main_expt",""
"","bandit","299","884120","0.0-260.0-0.0","82147769","wem/bandit_either_3","A2QCHFSNUU7Y1F","either","7","273","","","","","","","0","0","1","0.4432846828","","0.8","0.2","0.6","0.4","","","","","0.5578222379","0.6053830099","0.306784001","0.4432846828","","","","","","","","76","L","3","","","220","main_expt",""
"","bandit","300","886147","0.0-261.0-0.0","82147769","wem/bandit_either_3","A2QCHFSNUU7Y1F","either","7","500","","","","","","","0","1","0","","0.6640911266","0.8","0.2","0.6","0.4","0.6640911266","0.69383498","0.3786925452","0.432499938","","","","","","","","","","","","72","H","0","img/none_selected.jpg","","221","main_expt",""
"","bandit","301","888155","0.0-262.0-0.0","82147769","wem/bandit_either_3","A2QCHFSNUU7Y1F","either","7","446","","","","","","","0","0","1","0.7340686256","","0.8","0.2","0.6","0.4","","","","","0.7340686256","0.783375317","0.5014801557","0.4050903391","","","","","","","","72","H","0","img/none_selected.jpg","","222","main_expt",""
"","bandit","302","889950","0.0-263.0-0.0","82147769","wem/bandit_either_3","A2QCHFSNUU7Y1F","either","7","258","","","","","","","1","0","0","0.852862777","","0.8","0.2","0.6","0.4","","","","","0.852862777","0.8374489269","0.4081704387","0.3282593462","","","","","","","","72","H","0","img/none_selected.jpg","","223","main_expt",""
"","bandit","303","892022","0.0-264.0-0.0","82147769","wem/bandit_either_3","A2QCHFSNUU7Y1F","either","7","540","","","","","","","1","0","0","0.7830506485","","0.8","0.2","0.6","0.4","","","","","0.7830506485","0.7801262993","0.422296693","0.2465370002","","","","","","","","72","H","0","img/none_selected.jpg","","224","main_expt",""
"","bandit","304","893979","0.0-265.0-0.0","82147769","wem/bandit_either_3","A2QCHFSNUU7Y1F","either","7","272","","","","","","","0","1","0","","0.7447555501","0.8","0.2","0.6","0.4","0.7447555501","0.7438235551","0.3998144739","0.2260872052","","","","","","","","","","","","72","H","0","img/none_selected.jpg","","225","main_expt",""
"","bandit","305","895785","0.0-266.0-0.0","82147769","wem/bandit_either_3","A2QCHFSNUU7Y1F","either","7","268","","","","","","","1","0","0","0.7331719472","","0.8","0.2","0.6","0.4","","","","","0.7331719472","0.7561714458","0.2692780115","0.2573895518","","","","","","","","72","H","0","img/none_selected.jpg","","226","main_expt",""
"","bandit","306","897958","0.0-267.0-0.0","82147769","wem/bandit_either_3","A2QCHFSNUU7Y1F","either","7","500","","","","","","","0","0","1","0.6417259928","","0.8","0.2","0.6","0.4","","","","","0.6417259928","0.7527106072","0.268728261","0.2134597582","","","","","","","","72","H","0","img/none_selected.jpg","","227","main_expt",""
"","bandit","307","899701","0.0-268.0-0.0","82147769","wem/bandit_either_3","A2QCHFSNUU7Y1F","either","7","219","","","","","","","1","0","0","0.6050549784","","0.8","0.2","0.6","0.4","","","","","0.6050549784","0.6315627418","0.2211951924","0.348479141","","","","","","","","72","H","0","img/none_selected.jpg","","228","main_expt",""
"","bandit","308","901631","0.0-269.0-0.0","82147769","wem/bandit_either_3","A2QCHFSNUU7Y1F","either","7","392","","","","","","","1","0","0","0.5962230341","","0.8","0.2","0.6","0.4","","","","","0.5962230341","0.5564086662","0.219241791","0.3250735223","","","","","","","","72","H","0","img/none_selected.jpg","","229","main_expt",""
"","bandit","309","903596","0.0-270.0-0.0","82147769","wem/bandit_either_3","A2QCHFSNUU7Y1F","either","7","437","","","","","","","1","0","0","0.5594933722","","0.8","0.2","0.6","0.4","","","","","0.5594933722","0.5895813861","0.291585141","0.3395219718","","","","","","","","72","H","0","img/none_selected.jpg","","230","main_expt",""
"","bandit","310","905491","0.0-271.0-0.0","82147769","wem/bandit_either_3","A2QCHFSNUU7Y1F","either","7","372","","","","","","","0","0","1","0.6411036761","","0.8","0.2","0.6","0.4","","","","","0.6411036761","0.6148213975","0.2754541949","0.3315483329","","","","","","","","72","H","0","img/none_selected.jpg","","231","main_expt",""
"","bandit","311","907387","0.0-272.0-0.0","82147769","wem/bandit_either_3","A2QCHFSNUU7Y1F","either","7","368","","","","","","","0","1","0","","0.6653930637","0.8","0.2","0.6","0.4","0.6653930637","0.5176988489","0.3055336503","0.3876030756","","","","","","","","","","","","72","H","0","img/none_selected.jpg","","232","main_expt",""
"","bandit","312","909485","0.0-273.0-0.0","82147769","wem/bandit_either_3","A2QCHFSNUU7Y1F","either","7","459","","","","","","","1","0","0","0.5426719569","","0.8","0.2","0.6","0.4","","","","","0.5426719569","0.4505666118","0.3390100853","0.3696248546","","","","","","","","72","H","0","img/none_selected.jpg","","233","main_expt",""
"","bandit","313","911323","0.0-274.0-0.0","82147769","wem/bandit_either_3","A2QCHFSNUU7Y1F","either","7","312","","","","","","","1","0","0","0.5581360181","","0.8","0.2","0.6","0.4","","","","","0.5581360181","0.4393496879","0.3165323161","0.3927474605","","","","","","","","72","H","0","img/none_selected.jpg","","234","main_expt",""
"","bandit","314","913364","0.0-275.0-0.0","82147769","wem/bandit_either_3","A2QCHFSNUU7Y1F","either","7","332","","","","","","","1","0","0","0.5299247183","","0.8","0.2","0.6","0.4","","","","","0.5299247183","0.3542725407","0.2944333127","0.4734072524","","","","","","","","72","H","0","img/none_selected.jpg","","235","main_expt",""
"","bandit","315","915144","0.0-276.0-0.0","82147769","wem/bandit_either_3","A2QCHFSNUU7Y1F","either","7","248","","","","","","","0","0","1","0.4709954077","","0.8","0.2","0.6","0.4","","","","","0.4709954077","0.452511288","0.4127469632","0.5857320117","","","","","","","","72","H","0","img/none_selected.jpg","","236","main_expt",""
"","bandit","316","916685","0.0-277.0-0.0","82147769","wem/bandit_either_3","A2QCHFSNUU7Y1F","either","7","9","","","","","","","0","0","1","0.4171051322","","0.8","0.2","0.6","0.4","","","","","0.4171051322","0.4743784035","0.4353664578","0.5208556897","","","","","","","","72","H","0","img/none_selected.jpg","","237","main_expt",""
"","bandit","317","918476","0.0-278.0-0.0","82147769","wem/bandit_either_3","A2QCHFSNUU7Y1F","either","7","262","","","","","","","0","0","1","0.3871798792","","0.8","0.2","0.6","0.4","","","","","0.40722148","0.4666998134","0.3871798792","0.4551370454","","","","","","","","75","K","2","","","238","main_expt",""
"","bandit","318","920260","0.0-279.0-0.0","82147769","wem/bandit_either_3","A2QCHFSNUU7Y1F","either","7","260","","","","","","","1","0","0","0.4916456171","","0.8","0.2","0.6","0.4","","","","","0.3113271407","0.4916456171","0.3244704863","0.2979137516","","","","","","","","74","J","1","","","239","main_expt",""
"","bandit","319","922140","0.0-280.0-0.0","82147769","wem/bandit_either_3","A2QCHFSNUU7Y1F","either","7","357","","","","","","","0","0","1","0.7128417261","","0.8","0.2","0.6","0.4","","","","","0.2505753432","0.7128417261","0.3606581002","0.2453134511","","","","","","","","74","J","1","","","240","main_expt",""
"","bandit","320","924039","0.0-281.0-0.0","82147769","wem/bandit_either_3","A2QCHFSNUU7Y1F","either","7","273","","","","","","","0","1","0","","0.7711562233","0.8","0.2","0.6","0.4","0.2015136922","0.7711562233","0.3524522155","0.1984184333","","","","","","","","","","","","74","J","1","","","241","main_expt",""
