"consent","trial_type","trial_index","time_elapsed","internal_node_id","subjID","study","MID","cond","drift","rt","responses","key_press","expt_phase","like","value","connected","gems","bombs","no_reward","GemPrChosen","BombPrChosen","GainOverPainPr_0","GainOverPainPr_1","GainOverPainPr_2","GainOverPainPr_3","LosePr_0","LosePr_1","LosePr_2","LosePr_3","WinPr_0","WinPr_1","WinPr_2","WinPr_3","Q0","Q1","Q2","gender","age","ethnicity","target","respCharCode","respKey","respChoiceNum","respChoice","practice","trial_counter","trial_label","button_pressed"
"INL_behavioral_consent_30min_online.html","consent","0","54197","0.0-0.0","82185087","wem/bandit_either_3","A13WFFPE9L1QAB","either","6","","","","","","","","","","","","","","","","","","","","","","","","","","","","","","","","","","","","","","",""
"","survey-text","1","77779","0.0-1.0","82185087","wem/bandit_either_3","A13WFFPE9L1QAB","either","6","22559","{""Q0"":""A13WFFPE9L1QAB""}","","","","","","","","","","","","","","","","","","","","","","","","","","","","","","","","","","","","",""
"","text","2","112730","0.0-2.0","82185087","wem/bandit_either_3","A13WFFPE9L1QAB","either","6","33939","","32","","","","","","","","","","","","","","","","","","","","","","","","","","","","","","","","","","","",""
"","text","3","136049","0.0-3.0","82185087","wem/bandit_either_3","A13WFFPE9L1QAB","either","6","23317","","32","","","","","","","","","","","","","","","","","","","","","","","","","","","","","","","","","","","",""
"","text","4","254302","0.0-4.0","82185087","wem/bandit_either_3","A13WFFPE9L1QAB","either","6","118248","","32","","","","","","","","","","","","","","","","","","","","","","","","","","","","","","","","","","","",""
"","text","5","295233","0.0-5.0","82185087","wem/bandit_either_3","A13WFFPE9L1QAB","either","6","40929","","32","","","","","","","","","","","","","","","","","","","","","","","","","","","","","","","","","","","",""
"","text","6","348192","0.0-6.0","82185087","wem/bandit_either_3","A13WFFPE9L1QAB","either","6","52950","","32","","","","","","","","","","","","","","","","","","","","","","","","","","","","","","","","","","","",""
"","text","7","372623","0.0-7.0","82185087","wem/bandit_either_3","A13WFFPE9L1QAB","either","6","24429","","32","","","","","","","","","","","","","","","","","","","","","","","","","","","","","","","","","","","",""
"","text","8","394631","0.0-8.0","82185087","wem/bandit_either_3","A13WFFPE9L1QAB","either","6","22006","","32","","","","","","","","","","","","","","","","","","","","","","","","","","","","","","","","","","","",""
"","identification","9","533291","0.0-9.0-0.0","82185087","wem/bandit_either_3","A13WFFPE9L1QAB","either","6","138618","","","","6","6","6","","","","","","","","","","","","","","","","","","","","","","","","the village of Zur","","","","","","","",""
"","identification","10","560157","0.0-9.0-1.0","82185087","wem/bandit_either_3","A13WFFPE9L1QAB","either","6","25827","","","","0","0","0","","","","","","","","","","","","","","","","","","","","","","","","the village of Nyx","","","","","","","",""
"","text","11","642725","0.0-10.0","82185087","wem/bandit_either_3","A13WFFPE9L1QAB","either","6","81563","","32","","","","","","","","","","","","","","","","","","","","","","","","","","","","","","","","","","","",""
"","text","12","655613","0.0-11.0","82185087","wem/bandit_either_3","A13WFFPE9L1QAB","either","6","12885","","32","","","","","","","","","","","","","","","","","","","","","","","","","","","","","","","","","","","",""
"","text","13","667655","0.0-12.0","82185087","wem/bandit_either_3","A13WFFPE9L1QAB","either","6","12039","","32","","","","","","","","","","","","","","","","","","","","","","","","","","","","","","","","","","","",""
"","text","14","684221","0.0-13.0","82185087","wem/bandit_either_3","A13WFFPE9L1QAB","either","6","16562","","32","","","","","","","","","","","","","","","","","","","","","","","","","","","","","","","","","","","",""
"","bandit","15","690138","0.0-14.0-0.0","82185087","wem/bandit_either_3","A13WFFPE9L1QAB","either","6","4397","","","","","","","0","0","1","0","0","","","","","0","","","","0","","","","","","","","","","","74","J","0","img/none_selected_demo.jpg","true","0","",""
"","bandit","16","694213","0.0-15.0-0.0","82185087","wem/bandit_either_3","A13WFFPE9L1QAB","either","6","2562","","","","","","","0","0","1","0","0","","","","","0","","","","0","","","","","","","","","","","75","K","0","img/none_selected_demo.jpg","true","0","",""
"","text","17","727574","0.0-16.0","82185087","wem/bandit_either_3","A13WFFPE9L1QAB","either","6","33357","","32","","","","","","","","","","","","","","","","","","","","","","","","","","","","","","","","","","","",""
"","text","18","774679","0.0-17.0","82185087","wem/bandit_either_3","A13WFFPE9L1QAB","either","6","47102","","32","","","","","","","","","","","","","","","","","","","","","","","","","","","","","","","","","","","",""
"","text","19","801335","0.0-18.0","82185087","wem/bandit_either_3","A13WFFPE9L1QAB","either","6","26649","","32","","","","","","","","","","","","","","","","","","","","","","","","","","","","","","","","","","","",""
"","text","20","810751","0.0-19.0","82185087","wem/bandit_either_3","A13WFFPE9L1QAB","either","6","9414","","32","","","","","","","","","","","","","","","","","","","","","","","","","","","","","","","","","","","",""
"","bandit","21","813166","0.0-20.0-0.0","82185087","wem/bandit_either_3","A13WFFPE9L1QAB","either","6","903","","","","","","","1","0","0","0.8","","0.5","0.5","","","","","","","0.8","0.2","","","","","","","","","","74","J","0","img/none_selected_demo.jpg","true","0","80_20_practice",""
"","bandit","22","815267","0.0-20.0-1.0","82185087","wem/bandit_either_3","A13WFFPE9L1QAB","either","6","589","","","","","","","0","0","1","","0.2","0.5","0.5","","","0.8","0.2","","","","","","","","","","","","","","75","K","1","","true","0","80_20_practice",""
"","bandit","23","817369","0.0-20.0-2.0","82185087","wem/bandit_either_3","A13WFFPE9L1QAB","either","6","588","","","","","","","1","0","0","0.8","","0.5","0.5","","","","","","","0.8","0.2","","","","","","","","","","74","J","0","img/none_selected_demo.jpg","true","0","80_20_practice",""
"","bandit","24","819237","0.0-20.0-3.0","82185087","wem/bandit_either_3","A13WFFPE9L1QAB","either","6","336","","","","","","","0","0","1","0.2","","0.5","0.5","","","","","","","0.8","0.2","","","","","","","","","","75","K","1","","true","0","80_20_practice",""
"","bandit","25","821046","0.0-20.0-4.0","82185087","wem/bandit_either_3","A13WFFPE9L1QAB","either","6","297","","","","","","","0","0","1","0.8","","0.5","0.5","","","","","","","0.8","0.2","","","","","","","","","","74","J","0","img/none_selected_demo.jpg","true","0","80_20_practice",""
"","bandit","26","823179","0.0-20.0-5.0","82185087","wem/bandit_either_3","A13WFFPE9L1QAB","either","6","622","","","","","","","1","0","0","0.8","","0.5","0.5","","","","","","","0.8","0.2","","","","","","","","","","74","J","0","img/none_selected_demo.jpg","true","0","80_20_practice",""
"","bandit","27","825588","0.0-20.0-6.0","82185087","wem/bandit_either_3","A13WFFPE9L1QAB","either","6","895","","","","","","","0","1","0","","0.8","0.5","0.5","","","0.8","0.2","","","","","","","","","","","","","","74","J","0","img/none_selected_demo.jpg","true","0","80_20_practice",""
"","bandit","28","827509","0.0-20.0-7.0","82185087","wem/bandit_either_3","A13WFFPE9L1QAB","either","6","406","","","","","","","1","0","0","0.8","","0.5","0.5","","","","","","","0.8","0.2","","","","","","","","","","74","J","0","img/none_selected_demo.jpg","true","0","80_20_practice",""
"","bandit","29","829323","0.0-20.0-8.0","82185087","wem/bandit_either_3","A13WFFPE9L1QAB","either","6","300","","","","","","","0","0","1","","0.2","0.5","0.5","","","0.8","0.2","","","","","","","","","","","","","","75","K","1","","true","0","80_20_practice",""
"","bandit","30","831289","0.0-20.0-9.0","82185087","wem/bandit_either_3","A13WFFPE9L1QAB","either","6","449","","","","","","","0","0","1","","0.2","0.5","0.5","","","0.8","0.2","","","","","","","","","","","","","","75","K","1","","true","0","80_20_practice",""
"","bandit","31","832937","0.0-20.0-10.0","82185087","wem/bandit_either_3","A13WFFPE9L1QAB","either","6","135","","","","","","","0","1","0","","0.2","0.5","0.5","","","0.8","0.2","","","","","","","","","","","","","","75","K","1","","true","0","80_20_practice",""
"","bandit","32","834819","0.0-20.0-11.0","82185087","wem/bandit_either_3","A13WFFPE9L1QAB","either","6","368","","","","","","","0","0","1","0.2","","0.5","0.5","","","","","","","0.8","0.2","","","","","","","","","","75","K","1","","true","0","80_20_practice",""
"","bandit","33","836684","0.0-20.0-12.0","82185087","wem/bandit_either_3","A13WFFPE9L1QAB","either","6","346","","","","","","","0","0","1","","0.8","0.5","0.5","","","0.8","0.2","","","","","","","","","","","","","","74","J","0","img/none_selected_demo.jpg","true","0","80_20_practice",""
"","bandit","34","838841","0.0-20.0-13.0","82185087","wem/bandit_either_3","A13WFFPE9L1QAB","either","6","643","","","","","","","0","1","0","","0.8","0.5","0.5","","","0.8","0.2","","","","","","","","","","","","","","74","J","0","img/none_selected_demo.jpg","true","0","80_20_practice",""
"","bandit","35","840772","0.0-20.0-14.0","82185087","wem/bandit_either_3","A13WFFPE9L1QAB","either","6","415","","","","","","","0","1","0","","0.8","0.5","0.5","","","0.8","0.2","","","","","","","","","","","","","","74","J","0","img/none_selected_demo.jpg","true","0","80_20_practice",""
"","bandit","36","842645","0.0-20.0-15.0","82185087","wem/bandit_either_3","A13WFFPE9L1QAB","either","6","361","","","","","","","1","0","0","0.8","","0.5","0.5","","","","","","","0.8","0.2","","","","","","","","","","74","J","0","img/none_selected_demo.jpg","true","0","80_20_practice",""
"","bandit","37","844681","0.0-20.0-16.0","82185087","wem/bandit_either_3","A13WFFPE9L1QAB","either","6","522","","","","","","","0","0","1","","0.2","0.5","0.5","","","0.8","0.2","","","","","","","","","","","","","","75","K","1","","true","0","80_20_practice",""
"","bandit","38","846507","0.0-20.0-17.0","82185087","wem/bandit_either_3","A13WFFPE9L1QAB","either","6","312","","","","","","","0","1","0","","0.8","0.5","0.5","","","0.8","0.2","","","","","","","","","","","","","","74","J","0","img/none_selected_demo.jpg","true","0","80_20_practice",""
"","bandit","39","848310","0.0-20.0-18.0","82185087","wem/bandit_either_3","A13WFFPE9L1QAB","either","6","291","","","","","","","0","0","1","0.2","","0.5","0.5","","","","","","","0.8","0.2","","","","","","","","","","75","K","1","","true","0","80_20_practice",""
"","bandit","40","850201","0.0-20.0-19.0","82185087","wem/bandit_either_3","A13WFFPE9L1QAB","either","6","370","","","","","","","1","0","0","0.8","","0.5","0.5","","","","","","","0.8","0.2","","","","","","","","","","74","J","0","img/none_selected_demo.jpg","true","0","80_20_practice",""
"","text","41","860645","0.0-21.0","82185087","wem/bandit_either_3","A13WFFPE9L1QAB","either","6","10438","","32","","","","","","","","","","","","","","","","","","","","","","","","","","","","","","","","","","","",""
"","bandit","42","867537","0.0-22.0-0.0","82185087","wem/bandit_either_3","A13WFFPE9L1QAB","either","6","5377","","","","","","","1","0","0","1","0","","","","","0","1","","","1","0","","","","","","","","","","74","J","0","img/none_selected_demo.jpg","true","0","",""
"","text","43","897366","0.0-23.0","82185087","wem/bandit_either_3","A13WFFPE9L1QAB","either","6","29824","","74","","","","","","","","","","","","","","","","","","","","","","","","","","","","","","","","","","","",""
"","text","44","903768","0.0-24.0","82185087","wem/bandit_either_3","A13WFFPE9L1QAB","either","6","6399","","32","","","","","","","","","","","","","","","","","","","","","","","","","","","","","","","","","","","",""
"","text","45","919756","0.0-25.0","82185087","wem/bandit_either_3","A13WFFPE9L1QAB","either","6","15984","","32","","","","","","","","","","","","","","","","","","","","","","","","","","","","","","","","","","","",""
"","text","46","941395","0.0-26.0","82185087","wem/bandit_either_3","A13WFFPE9L1QAB","either","6","21634","","32","","","","","","","","","","","","","","","","","","","","","","","","","","","","","","","","","","","",""
"","text","47","990345","0.0-27.0","82185087","wem/bandit_either_3","A13WFFPE9L1QAB","either","6","48944","","32","","","","","","","","","","","","","","","","","","","","","","","","","","","","","","","","","","","",""
"","text","48","1006780","0.0-28.0","82185087","wem/bandit_either_3","A13WFFPE9L1QAB","either","6","16432","","32","","","","","","","","","","","","","","","","","","","","","","","","","","","","","","","","","","","",""
"","text","49","1048479","0.0-29.0","82185087","wem/bandit_either_3","A13WFFPE9L1QAB","either","6","41694","","32","","","","","","","","","","","","","","","","","","","","","","","","","","","","","","","","","","","",""
"","text","50","1062201","0.0-30.0","82185087","wem/bandit_either_3","A13WFFPE9L1QAB","either","6","13719","","32","","","","","","","","","","","","","","","","","","","","","","","","","","","","","","","","","","","",""
"","text","51","1098848","0.0-31.0","82185087","wem/bandit_either_3","A13WFFPE9L1QAB","either","6","36643","","32","","","","","","","","","","","","","","","","","","","","","","","","","","","","","","","","","","","",""
"","text","52","1102087","0.0-32.0","82185087","wem/bandit_either_3","A13WFFPE9L1QAB","either","6","3235","","32","","","","","","","","","","","","","","","","","","","","","","","","","","","","","","","","","","","",""
"","text","53","1119063","0.0-33.0","82185087","wem/bandit_either_3","A13WFFPE9L1QAB","either","6","16970","","32","","","","","","","","","","","","","","","","","","","","","","","","","","","","","","","","","","","",""
"","bandit","54","1121670","0.0-34.0-0.0","82185087","wem/bandit_either_3","A13WFFPE9L1QAB","either","6","1093","","","","","","","0","0","1","0.2","","0.5","0.5","0.5","0.5","","","","","0.8","0.2","0.6","0.2","","","","","","","","74","J","1","","true","0","full_practice",""
"","bandit","55","1123494","0.0-34.0-1.0","82185087","wem/bandit_either_3","A13WFFPE9L1QAB","either","6","309","","","","","","","0","0","1","0.6","","0.5","0.5","0.5","0.5","","","","","0.8","0.2","0.6","0.2","","","","","","","","75","K","2","","true","0","full_practice",""
"","bandit","56","1125275","0.0-34.0-2.0","82185087","wem/bandit_either_3","A13WFFPE9L1QAB","either","6","266","","","","","","","0","1","0","","0.2","0.5","0.5","0.5","0.5","0.8","0.2","0.6","0.2","","","","","","","","","","","","74","J","1","","true","0","full_practice",""
"","bandit","57","1127072","0.0-34.0-3.0","82185087","wem/bandit_either_3","A13WFFPE9L1QAB","either","6","281","","","","","","","0","0","1","0.2","","0.5","0.5","0.5","0.5","","","","","0.8","0.2","0.6","0.2","","","","","","","","74","J","1","","true","0","full_practice",""
"","bandit","58","1128923","0.0-34.0-4.0","82185087","wem/bandit_either_3","A13WFFPE9L1QAB","either","6","335","","","","","","","0","0","1","","0.2","0.5","0.5","0.5","0.5","0.8","0.2","0.6","0.2","","","","","","","","","","","","74","J","1","","true","0","full_practice",""
"","bandit","59","1131117","0.0-34.0-5.0","82185087","wem/bandit_either_3","A13WFFPE9L1QAB","either","6","681","","","","","","","1","0","0","0.8","","0.5","0.5","0.5","0.5","","","","","0.8","0.2","0.6","0.2","","","","","","","","72","H","0","img/none_selected.jpg","true","0","full_practice",""
"","bandit","60","1133021","0.0-34.0-6.0","82185087","wem/bandit_either_3","A13WFFPE9L1QAB","either","6","390","","","","","","","0","1","0","","0.8","0.5","0.5","0.5","0.5","0.8","0.2","0.6","0.2","","","","","","","","","","","","72","H","0","img/none_selected.jpg","true","0","full_practice",""
"","bandit","61","1135210","0.0-34.0-7.0","82185087","wem/bandit_either_3","A13WFFPE9L1QAB","either","6","673","","","","","","","0","0","1","0.8","","0.5","0.5","0.5","0.5","","","","","0.8","0.2","0.6","0.2","","","","","","","","72","H","0","img/none_selected.jpg","true","0","full_practice",""
"","bandit","62","1137057","0.0-34.0-8.0","82185087","wem/bandit_either_3","A13WFFPE9L1QAB","either","6","331","","","","","","","1","0","0","0.8","","0.5","0.5","0.5","0.5","","","","","0.8","0.2","0.6","0.2","","","","","","","","72","H","0","img/none_selected.jpg","true","0","full_practice",""
"","bandit","63","1138938","0.0-34.0-9.0","82185087","wem/bandit_either_3","A13WFFPE9L1QAB","either","6","365","","","","","","","1","0","0","0.8","","0.5","0.5","0.5","0.5","","","","","0.8","0.2","0.6","0.2","","","","","","","","72","H","0","img/none_selected.jpg","true","0","full_practice",""
"","bandit","64","1140764","0.0-34.0-10.0","82185087","wem/bandit_either_3","A13WFFPE9L1QAB","either","6","312","","","","","","","1","0","0","0.8","","0.5","0.5","0.5","0.5","","","","","0.8","0.2","0.6","0.2","","","","","","","","72","H","0","img/none_selected.jpg","true","0","full_practice",""
"","bandit","65","1142639","0.0-34.0-11.0","82185087","wem/bandit_either_3","A13WFFPE9L1QAB","either","6","360","","","","","","","0","0","1","0.8","","0.5","0.5","0.5","0.5","","","","","0.8","0.2","0.6","0.2","","","","","","","","72","H","0","img/none_selected.jpg","true","0","full_practice",""
"","bandit","66","1144756","0.0-34.0-12.0","82185087","wem/bandit_either_3","A13WFFPE9L1QAB","either","6","603","","","","","","","1","0","0","0.8","","0.5","0.5","0.5","0.5","","","","","0.8","0.2","0.6","0.2","","","","","","","","72","H","0","img/none_selected.jpg","true","0","full_practice",""
"","bandit","67","1146617","0.0-34.0-13.0","82185087","wem/bandit_either_3","A13WFFPE9L1QAB","either","6","345","","","","","","","0","1","0","","0.8","0.5","0.5","0.5","0.5","0.8","0.2","0.6","0.2","","","","","","","","","","","","72","H","0","img/none_selected.jpg","true","0","full_practice",""
"","bandit","68","1148470","0.0-34.0-14.0","82185087","wem/bandit_either_3","A13WFFPE9L1QAB","either","6","338","","","","","","","0","0","1","0.8","","0.5","0.5","0.5","0.5","","","","","0.8","0.2","0.6","0.2","","","","","","","","72","H","0","img/none_selected.jpg","true","0","full_practice",""
"","bandit","69","1150110","0.0-34.0-15.0","82185087","wem/bandit_either_3","A13WFFPE9L1QAB","either","6","125","","","","","","","0","1","0","","0.8","0.5","0.5","0.5","0.5","0.8","0.2","0.6","0.2","","","","","","","","","","","","72","H","0","img/none_selected.jpg","true","0","full_practice",""
"","bandit","70","1151877","0.0-34.0-16.0","82185087","wem/bandit_either_3","A13WFFPE9L1QAB","either","6","253","","","","","","","1","0","0","0.8","","0.5","0.5","0.5","0.5","","","","","0.8","0.2","0.6","0.2","","","","","","","","72","H","0","img/none_selected.jpg","true","0","full_practice",""
"","bandit","71","1153478","0.0-34.0-17.0","82185087","wem/bandit_either_3","A13WFFPE9L1QAB","either","6","78","","","","","","","0","0","1","","0.8","0.5","0.5","0.5","0.5","0.8","0.2","0.6","0.2","","","","","","","","","","","","72","H","0","img/none_selected.jpg","true","0","full_practice",""
"","bandit","72","1155327","0.0-34.0-18.0","82185087","wem/bandit_either_3","A13WFFPE9L1QAB","either","6","331","","","","","","","1","0","0","0.8","","0.5","0.5","0.5","0.5","","","","","0.8","0.2","0.6","0.2","","","","","","","","72","H","0","img/none_selected.jpg","true","0","full_practice",""
"","bandit","73","1157294","0.0-34.0-19.0","82185087","wem/bandit_either_3","A13WFFPE9L1QAB","either","6","451","","","","","","","0","1","0","","0.8","0.5","0.5","0.5","0.5","0.8","0.2","0.6","0.2","","","","","","","","","","","","72","H","0","img/none_selected.jpg","true","0","full_practice",""
"","text","74","1160636","0.0-35.0","82185087","wem/bandit_either_3","A13WFFPE9L1QAB","either","6","3325","","32","","","","","","","","","","","","","","","","","","","","","","","","","","","","","","","","","","","",""
"","text","75","1336205","0.0-36.0","82185087","wem/bandit_either_3","A13WFFPE9L1QAB","either","6","174563","","32","","","","","","","","","","","","","","","","","","","","","","","","","","","","","","","","","","","",""
"","text","76","1361107","0.0-37.0","82185087","wem/bandit_either_3","A13WFFPE9L1QAB","either","6","24896","","32","","","","","","","","","","","","","","","","","","","","","","","","","","","","","","","","","","","",""
"","text","77","1390444","0.0-38.0","82185087","wem/bandit_either_3","A13WFFPE9L1QAB","either","6","29331","","32","","","","","","","","","","","","","","","","","","","","","","","","","","","","","","","","","","","",""
"","text","78","1403141","0.0-39.0","82185087","wem/bandit_either_3","A13WFFPE9L1QAB","either","6","12692","","32","","","","","","","","","","","","","","","","","","","","","","","","","","","","","","","","","","","",""
"","text","79","1427453","0.0-40.0","82185087","wem/bandit_either_3","A13WFFPE9L1QAB","either","6","24305","","32","","","","","","","","","","","","","","","","","","","","","","","","","","","","","","","","","","","",""
"","bandit","80","1430956","0.0-41.0-0.0","82185087","wem/bandit_either_3","A13WFFPE9L1QAB","either","6","1988","","","","","","","0","0","1","","0.1947351938","0.2","0.6","0.8","0.4","0.2309914537","0.3049938501","0.7197236342","0.1947351938","","","","","","","","","","","","76","L","3","","","1","main_expt",""
"","bandit","81","1432760","0.0-42.0-0.0","82185087","wem/bandit_either_3","A13WFFPE9L1QAB","either","6","288","","","","","","","0","0","1","0.1865171684","","0.2","0.6","0.8","0.4","","","","","0.2351366282","0.3105507028","0.7453792406","0.1865171684","","","","","","","","76","L","3","","","2","main_expt",""
"","bandit","82","1434702","0.0-43.0-0.0","82185087","wem/bandit_either_3","A13WFFPE9L1QAB","either","6","424","","","","","","","1","0","0","0.7422746785","","0.2","0.6","0.8","0.4","","","","","0.3338792953","0.347932066","0.7422746785","0.1578482069","","","","","","","","75","K","2","","","3","main_expt",""
"","bandit","83","1436483","0.0-44.0-0.0","82185087","wem/bandit_either_3","A13WFFPE9L1QAB","either","6","265","","","","","","","1","0","0","0.8152876082","","0.2","0.6","0.8","0.4","","","","","0.2578124611","0.294099503","0.8152876082","0.1733557992","","","","","","","","75","K","2","","","4","main_expt",""
"","bandit","84","1438096","0.0-45.0-0.0","82185087","wem/bandit_either_3","A13WFFPE9L1QAB","either","6","97","","","","","","","1","0","0","0.8494846052","","0.2","0.6","0.8","0.4","","","","","0.152782507","0.256228135","0.8494846052","0.1275681293","","","","","","","","75","K","2","","","5","main_expt",""
"","bandit","85","1439617","0.0-46.0-0.0","82185087","wem/bandit_either_3","A13WFFPE9L1QAB","either","6","4","","","","","","","0","1","0","","0.8036792828","0.2","0.6","0.8","0.4","0.200224935","0.3142053347","0.8036792828","0.1776351543","","","","","","","","","","","","75","K","2","","","6","main_expt",""
"","bandit","86","1441704","0.0-47.0-0.0","82185087","wem/bandit_either_3","A13WFFPE9L1QAB","either","6","569","","","","","","","1","0","0","0.8659664865","","0.2","0.6","0.8","0.4","","","","","0.2200442108","0.2382568898","0.8659664865","0.1412615145","","","","","","","","75","K","2","","","7","main_expt",""
"","bandit","87","1443700","0.0-48.0-0.0","82185087","wem/bandit_either_3","A13WFFPE9L1QAB","either","6","479","","","","","","","1","0","0","0.8475436228","","0.2","0.6","0.8","0.4","","","","","0.1516915951","0.220471749","0.8475436228","0.1508054742","","","","","","","","75","K","2","","","8","main_expt",""
"","bandit","88","1445790","0.0-49.0-0.0","82185087","wem/bandit_either_3","A13WFFPE9L1QAB","either","6","571","","","","","","","1","0","0","0.8034999265","","0.2","0.6","0.8","0.4","","","","","0.1468829212","0.2842820234","0.8034999265","0.1882404854","","","","","","","","75","K","2","","","9","main_expt",""
"","bandit","89","1447736","0.0-50.0-0.0","82185087","wem/bandit_either_3","A13WFFPE9L1QAB","either","6","428","","","","","","","1","0","0","0.7148412232","","0.2","0.6","0.8","0.4","","","","","0.1507643719","0.3392415315","0.7148412232","0.1731305678","","","","","","","","75","K","2","","","10","main_expt",""
"","bandit","90","1449723","0.0-51.0-0.0","82185087","wem/bandit_either_3","A13WFFPE9L1QAB","either","6","472","","","","","","","0","1","0","","0.7213030285","0.2","0.6","0.8","0.4","0.18301","0.4470346709","0.7213030285","0.2475279461","","","","","","","","","","","","75","K","2","","","11","main_expt",""
"","bandit","91","1451544","0.0-52.0-0.0","82185087","wem/bandit_either_3","A13WFFPE9L1QAB","either","6","304","","","","","","","1","0","0","0.7396148754","","0.2","0.6","0.8","0.4","","","","","0.209562337","0.5143820195","0.7396148754","0.2068792089","","","","","","","","75","K","2","","","12","main_expt",""
"","bandit","92","1453744","0.0-53.0-0.0","82185087","wem/bandit_either_3","A13WFFPE9L1QAB","either","6","680","","","","","","","0","0","1","0.6870781676","","0.2","0.6","0.8","0.4","","","","","0.2133897639","0.4934308908","0.6870781676","0.1594062408","","","","","","","","75","K","2","","","13","main_expt",""
"","bandit","93","1455649","0.0-54.0-0.0","82185087","wem/bandit_either_3","A13WFFPE9L1QAB","either","6","389","","","","","","","0","0","1","0.6561171826","","0.2","0.6","0.8","0.4","","","","","0.1865122749","0.5884397519","0.6561171826","0.1808320347","","","","","","","","75","K","2","","","14","main_expt",""
"","bandit","94","1457462","0.0-55.0-0.0","82185087","wem/bandit_either_3","A13WFFPE9L1QAB","either","6","296","","","","","","","0","0","1","0.6255101569","","0.2","0.6","0.8","0.4","","","","","0.3169691733","0.425765204","0.6255101569","0.2401125286","","","","","","","","75","K","2","","","15","main_expt",""
"","bandit","95","1458984","0.0-56.0-0.0","82185087","wem/bandit_either_3","A13WFFPE9L1QAB","either","6","4","","","","","","","0","0","1","0.6101220295","","0.2","0.6","0.8","0.4","","","","","0.3927767979","0.4458974369","0.6101220295","0.1823220599","","","","","","","","75","K","2","","","16","main_expt",""
"","bandit","96","1460860","0.0-57.0-0.0","82185087","wem/bandit_either_3","A13WFFPE9L1QAB","either","6","359","","","","","","","0","0","1","0.4907358526","","0.2","0.6","0.8","0.4","","","","","0.2882183284","0.4907358526","0.6233337625","0.2076179308","","","","","","","","74","J","1","","","17","main_expt",""
"","bandit","97","1463049","0.0-58.0-0.0","82185087","wem/bandit_either_3","A13WFFPE9L1QAB","either","6","672","","","","","","","0","0","1","0.4895096529","","0.2","0.6","0.8","0.4","","","","","0.3212622409","0.4895096529","0.598865074","0.2310064443","","","","","","","","74","J","1","","","18","main_expt",""
"","bandit","98","1464881","0.0-59.0-0.0","82185087","wem/bandit_either_3","A13WFFPE9L1QAB","either","6","315","","","","","","","0","0","1","","0.3678238944","0.2","0.6","0.8","0.4","0.3678238944","0.5437378015","0.6318918302","0.1919199612","","","","","","","","","","","","72","H","0","img/none_selected.jpg","","19","main_expt",""
"","bandit","99","1466650","0.0-60.0-0.0","82185087","wem/bandit_either_3","A13WFFPE9L1QAB","either","6","242","","","","","","","0","1","0","","0.4357360734","0.2","0.6","0.8","0.4","0.4357360734","0.543071052","0.5667690756","0.2150176637","","","","","","","","","","","","72","H","0","img/none_selected.jpg","","20","main_expt",""
"","bandit","100","1468531","0.0-61.0-0.0","82185087","wem/bandit_either_3","A13WFFPE9L1QAB","either","6","358","","","","","","","1","0","0","0.4486518506","","0.2","0.6","0.8","0.4","","","","","0.4486518506","0.5457928974","0.6364396753","0.2980309021","","","","","","","","72","H","0","img/none_selected.jpg","","21","main_expt",""
"","bandit","101","1470161","0.0-62.0-0.0","82185087","wem/bandit_either_3","A13WFFPE9L1QAB","either","6","112","","","","","","","0","0","1","","0.5145372488","0.2","0.6","0.8","0.4","0.5145372488","0.4531799458","0.5563436533","0.3238742104","","","","","","","","","","","","72","H","0","img/none_selected.jpg","","22","main_expt",""
"","bandit","102","1471686","0.0-63.0-0.0","82185087","wem/bandit_either_3","A13WFFPE9L1QAB","either","6","5","","","","","","","0","0","1","","0.6324996067","0.2","0.6","0.8","0.4","0.6324996067","0.4321579995","0.4555064456","0.4158928209","","","","","","","","","","","","72","H","0","img/none_selected.jpg","","23","main_expt",""
"","bandit","103","1473572","0.0-64.0-0.0","82185087","wem/bandit_either_3","A13WFFPE9L1QAB","either","6","369","","","","","","","0","0","1","","0.6665025749","0.2","0.6","0.8","0.4","0.6665025749","0.3892872195","0.4398961724","0.2798670784","","","","","","","","","","","","72","H","0","img/none_selected.jpg","","24","main_expt",""
"","bandit","104","1475368","0.0-65.0-0.0","82185087","wem/bandit_either_3","A13WFFPE9L1QAB","either","6","279","","","","","","","0","1","0","","0.5316582614","0.2","0.6","0.8","0.4","0.5316582614","0.4322880781","0.3810464824","0.3932164435","","","","","","","","","","","","72","H","0","img/none_selected.jpg","","25","main_expt",""
"","bandit","105","1477046","0.0-66.0-0.0","82185087","wem/bandit_either_3","A13WFFPE9L1QAB","either","6","160","","","","","","","0","0","1","","0.4282094451","0.2","0.6","0.8","0.4","0.4282094451","0.4560392573","0.451695138","0.3243459504","","","","","","","","","","","","72","H","0","img/none_selected.jpg","","26","main_expt",""
"","bandit","106","1479099","0.0-67.0-0.0","82185087","wem/bandit_either_3","A13WFFPE9L1QAB","either","6","536","","","","","","","0","1","0","","0.5372901799","0.2","0.6","0.8","0.4","0.4711380508","0.5372901799","0.4423729324","0.4266302179","","","","","","","","","","","","74","J","1","","","27","main_expt",""
"","bandit","107","1480818","0.0-68.0-0.0","82185087","wem/bandit_either_3","A13WFFPE9L1QAB","either","6","202","","","","","","","1","0","0","0.6619872032","","0.2","0.6","0.8","0.4","","","","","0.4539290932","0.6619872032","0.4221124674","0.4206607535","","","","","","","","74","J","1","","","28","main_expt",""
"","bandit","108","1482429","0.0-69.0-0.0","82185087","wem/bandit_either_3","A13WFFPE9L1QAB","either","6","91","","","","","","","0","0","1","0.5939885142","","0.2","0.6","0.8","0.4","","","","","0.4378511583","0.5939885142","0.489207998","0.440099583","","","","","","","","74","J","1","","","29","main_expt",""
"","bandit","109","1483947","0.0-70.0-0.0","82185087","wem/bandit_either_3","A13WFFPE9L1QAB","either","6","2","","","","","","","1","0","0","0.5602145404","","0.2","0.6","0.8","0.4","","","","","0.3425428874","0.5602145404","0.4406356357","0.3982168329","","","","","","","","74","J","1","","","30","main_expt",""
"","bandit","110","1485662","0.0-71.0-0.0","82185087","wem/bandit_either_3","A13WFFPE9L1QAB","either","6","198","","","","","","","1","0","0","0.5376870091","","0.2","0.6","0.8","0.4","","","","","0.2354865125","0.5376870091","0.484130952","0.3573437221","","","","","","","","74","J","1","","","31","main_expt",""
"","bandit","111","1487475","0.0-72.0-0.0","82185087","wem/bandit_either_3","A13WFFPE9L1QAB","either","6","297","","","","","","","1","0","0","0.6346195819","","0.2","0.6","0.8","0.4","","","","","0.2552437171","0.6346195819","0.432294219","0.3712986889","","","","","","","","74","J","1","","","32","main_expt",""
"","bandit","112","1489020","0.0-73.0-0.0","82185087","wem/bandit_either_3","A13WFFPE9L1QAB","either","6","27","","","","","","","0","0","1","0.7540961955","","0.2","0.6","0.8","0.4","","","","","0.2470382599","0.7540961955","0.4821309474","0.45096985","","","","","","","","74","J","1","","","33","main_expt",""
"","bandit","113","1490799","0.0-74.0-0.0","82185087","wem/bandit_either_3","A13WFFPE9L1QAB","either","6","262","","","","","","","1","0","0","0.699797925","","0.2","0.6","0.8","0.4","","","","","0.2951894024","0.699797925","0.4702474349","0.5559331637","","","","","","","","74","J","1","","","34","main_expt",""
"","bandit","114","1492434","0.0-75.0-0.0","82185087","wem/bandit_either_3","A13WFFPE9L1QAB","either","6","116","","","","","","","1","0","0","0.7410295452","","0.2","0.6","0.8","0.4","","","","","0.2596626779","0.7410295452","0.5363697359","0.7354386419","","","","","","","","74","J","1","","","35","main_expt",""
"","bandit","115","1494263","0.0-76.0-0.0","82185087","wem/bandit_either_3","A13WFFPE9L1QAB","either","6","311","","","","","","","1","0","0","0.7332281969","","0.2","0.6","0.8","0.4","","","","","0.3164764808","0.7332281969","0.602250539","0.6934166837","","","","","","","","74","J","1","","","36","main_expt",""
"","bandit","116","1495915","0.0-77.0-0.0","82185087","wem/bandit_either_3","A13WFFPE9L1QAB","either","6","134","","","","","","","0","1","0","","0.736713329","0.2","0.6","0.8","0.4","0.3672962009","0.736713329","0.5337433964","0.6311869688","","","","","","","","","","","","74","J","1","","","37","main_expt",""
"","bandit","117","1497725","0.0-78.0-0.0","82185087","wem/bandit_either_3","A13WFFPE9L1QAB","either","6","293","","","","","","","1","0","0","0.6860808007","","0.2","0.6","0.8","0.4","","","","","0.4056598401","0.6860808007","0.5970413872","0.6583504975","","","","","","","","74","J","1","","","38","main_expt",""
"","bandit","118","1499448","0.0-79.0-0.0","82185087","wem/bandit_either_3","A13WFFPE9L1QAB","either","6","206","","","","","","","0","0","1","0.7498761973","","0.2","0.6","0.8","0.4","","","","","0.4236995386","0.7498761973","0.6529448079","0.5861321806","","","","","","","","74","J","1","","","39","main_expt",""
"","bandit","119","1501954","0.0-80.0-0.0","82185087","wem/bandit_either_3","A13WFFPE9L1QAB","either","6","979","","","","","","","1","0","0","0.7043283504","","0.2","0.6","0.8","0.4","","","","","0.4365163158","0.7043283504","0.6612991154","0.4892836735","","","","","","","","74","J","1","","","40","main_expt",""
"","bandit","120","1503629","0.0-81.0-0.0","82185087","wem/bandit_either_3","A13WFFPE9L1QAB","either","6","158","","","","","","","0","0","1","0.6469690382","","0.2","0.6","0.8","0.4","","","","","0.4854269132","0.6469690382","0.7390431107","0.3479900608","","","","","","","","74","J","1","","","41","main_expt",""
"","bandit","121","1505217","0.0-82.0-0.0","82185087","wem/bandit_either_3","A13WFFPE9L1QAB","either","6","68","","","","","","","1","0","0","0.6388905256","","0.2","0.6","0.8","0.4","","","","","0.4753587859","0.6388905256","0.7609423287","0.376709287","","","","","","","","74","J","1","","","42","main_expt",""
"","bandit","122","1506867","0.0-83.0-0.0","82185087","wem/bandit_either_3","A13WFFPE9L1QAB","either","6","135","","","","","","","0","0","1","","0.6383372244","0.2","0.6","0.8","0.4","0.452202747","0.6383372244","0.8039673949","0.4319300722","","","","","","","","","","","","74","J","1","","","43","main_expt",""
"","bandit","123","1508405","0.0-84.0-0.0","82185087","wem/bandit_either_3","A13WFFPE9L1QAB","either","6","19","","","","","","","1","0","0","0.6247854939","","0.2","0.6","0.8","0.4","","","","","0.5522191005","0.6247854939","0.8216753652","0.4458636389","","","","","","","","74","J","1","","","44","main_expt",""
"","bandit","124","1510008","0.0-85.0-0.0","82185087","wem/bandit_either_3","A13WFFPE9L1QAB","either","6","85","","","","","","","0","0","1","0.6341880498","","0.2","0.6","0.8","0.4","","","","","0.4878962787","0.6341880498","0.7636866317","0.4323480181","","","","","","","","74","J","1","","","45","main_expt",""
"","bandit","125","1511940","0.0-86.0-0.0","82185087","wem/bandit_either_3","A13WFFPE9L1QAB","either","6","414","","","","","","","0","0","1","0.5081310512","","0.2","0.6","0.8","0.4","","","","","0.487595293","0.5081310512","0.8203755575","0.4348202433","","","","","","","","74","J","1","","","46","main_expt",""
"","bandit","126","1514595","0.0-87.0-0.0","82185087","wem/bandit_either_3","A13WFFPE9L1QAB","either","6","1138","","","","","","","1","0","0","0.3430847618","","0.2","0.6","0.8","0.4","","","","","0.444754188","0.4202927251","0.8706375764","0.3430847618","","","","","","","","76","L","3","","","47","main_expt",""
"","bandit","127","1516444","0.0-88.0-0.0","82185087","wem/bandit_either_3","A13WFFPE9L1QAB","either","6","328","","","","","","","0","0","1","","0.2601977795","0.2","0.6","0.8","0.4","0.5044276746","0.4767868938","0.8019506245","0.2601977795","","","","","","","","","","","","76","L","3","","","48","main_expt",""
"","bandit","128","1518251","0.0-89.0-0.0","82185087","wem/bandit_either_3","A13WFFPE9L1QAB","either","6","288","","","","","","","1","0","0","0.2368144698","","0.2","0.6","0.8","0.4","","","","","0.3766714482","0.3749468019","0.7331224435","0.2368144698","","","","","","","","76","L","3","","","49","main_expt",""
"","bandit","129","1520174","0.0-90.0-0.0","82185087","wem/bandit_either_3","A13WFFPE9L1QAB","either","6","403","","","","","","","0","0","1","0.2484527115","","0.2","0.6","0.8","0.4","","","","","0.406992786","0.3532902347","0.7908344101","0.2484527115","","","","","","","","76","L","3","","","50","main_expt",""
"","bandit","130","1522063","0.0-91.0-0.0","82185087","wem/bandit_either_3","A13WFFPE9L1QAB","either","6","370","","","","","","","0","0","1","","0.230268934","0.2","0.6","0.8","0.4","0.3854505747","0.2413466802","0.7922828235","0.230268934","","","","","","","","","","","","76","L","3","","","51","main_expt",""
"","bandit","131","1523718","0.0-92.0-0.0","82185087","wem/bandit_either_3","A13WFFPE9L1QAB","either","6","135","","","","","","","0","0","1","","0.3429002399","0.2","0.6","0.8","0.4","0.3956915145","0.2673723166","0.7485378942","0.3429002399","","","","","","","","","","","","76","L","3","","","52","main_expt",""
"","bandit","132","1525450","0.0-93.0-0.0","82185087","wem/bandit_either_3","A13WFFPE9L1QAB","either","6","214","","","","","","","0","0","1","","0.2871029552","0.2","0.6","0.8","0.4","0.3062348001","0.2806035608","0.6603794952","0.2871029552","","","","","","","","","","","","76","L","3","","","53","main_expt",""
"","bandit","133","1527329","0.0-94.0-0.0","82185087","wem/bandit_either_3","A13WFFPE9L1QAB","either","6","360","","","","","","","1","0","0","0.6931449795","","0.2","0.6","0.8","0.4","","","","","0.2996500993","0.2544312064","0.6931449795","0.2594444468","","","","","","","","75","K","2","","","54","main_expt",""
"","bandit","134","1528964","0.0-95.0-0.0","82185087","wem/bandit_either_3","A13WFFPE9L1QAB","either","6","118","","","","","","","0","0","1","0.7553272845","","0.2","0.6","0.8","0.4","","","","","0.2518247787","0.3362815808","0.7553272845","0.3333749245","","","","","","","","75","K","2","","","55","main_expt",""
"","bandit","135","1530691","0.0-96.0-0.0","82185087","wem/bandit_either_3","A13WFFPE9L1QAB","either","6","207","","","","","","","1","0","0","0.7231548626","","0.2","0.6","0.8","0.4","","","","","0.3014763065","0.3798256012","0.7231548626","0.3049104067","","","","","","","","75","K","2","","","56","main_expt",""
"","bandit","136","1532548","0.0-97.0-0.0","82185087","wem/bandit_either_3","A13WFFPE9L1QAB","either","6","338","","","","","","","0","0","1","0.7485901337","","0.2","0.6","0.8","0.4","","","","","0.2730843718","0.3989549393","0.7485901337","0.3623273811","","","","","","","","75","K","2","","","57","main_expt",""
"","bandit","137","1534583","0.0-98.0-0.0","82185087","wem/bandit_either_3","A13WFFPE9L1QAB","either","6","517","","","","","","","1","0","0","0.797082508","","0.2","0.6","0.8","0.4","","","","","0.367239041","0.3373398956","0.797082508","0.3621169042","","","","","","","","75","K","2","","","58","main_expt",""
"","bandit","138","1536682","0.0-99.0-0.0","82185087","wem/bandit_either_3","A13WFFPE9L1QAB","either","6","580","","","","","","","0","1","0","","0.7466963627","0.2","0.6","0.8","0.4","0.4005220403","0.3381045731","0.7466963627","0.3672848169","","","","","","","","","","","","75","K","2","","","59","main_expt",""
"","bandit","139","1538423","0.0-100.0-0.0","82185087","wem/bandit_either_3","A13WFFPE9L1QAB","either","6","221","","","","","","","1","0","0","0.6359615323","","0.2","0.6","0.8","0.4","","","","","0.4863912708","0.4838111383","0.6359615323","0.5123874715","","","","","","","","75","K","2","","","60","main_expt",""
"","bandit","140","1540249","0.0-101.0-0.0","82185087","wem/bandit_either_3","A13WFFPE9L1QAB","either","6","307","","","","","","","1","0","0","0.7125939799","","0.2","0.6","0.8","0.4","","","","","0.5220595343","0.4290776342","0.7125939799","0.5218319631","","","","","","","","75","K","2","","","61","main_expt",""
"","bandit","141","1541864","0.0-102.0-0.0","82185087","wem/bandit_either_3","A13WFFPE9L1QAB","either","6","97","","","","","","","0","0","1","","0.5978650666","0.2","0.6","0.8","0.4","0.5447889898","0.4387439774","0.5978650666","0.6482151027","","","","","","","","","","","","75","K","2","","","62","main_expt",""
"","bandit","142","1543386","0.0-103.0-0.0","82185087","wem/bandit_either_3","A13WFFPE9L1QAB","either","6","2","","","","","","","0","0","1","0.5166338879","","0.2","0.6","0.8","0.4","","","","","0.5517390004","0.3670418014","0.5166338879","0.6966290852","","","","","","","","75","K","2","","","63","main_expt",""
"","bandit","143","1545031","0.0-104.0-0.0","82185087","wem/bandit_either_3","A13WFFPE9L1QAB","either","6","126","","","","","","","0","1","0","","0.4901650138","0.2","0.6","0.8","0.4","0.6576188384","0.3470393933","0.4901650138","0.6497033777","","","","","","","","","","","","75","K","2","","","64","main_expt",""
"","bandit","144","1546938","0.0-105.0-0.0","82185087","wem/bandit_either_3","A13WFFPE9L1QAB","either","6","387","","","","","","","0","0","1","0.459365688","","0.2","0.6","0.8","0.4","","","","","0.5156176703","0.3361574661","0.459365688","0.6925184903","","","","","","","","75","K","2","","","65","main_expt",""
"","bandit","145","1548585","0.0-106.0-0.0","82185087","wem/bandit_either_3","A13WFFPE9L1QAB","either","6","129","","","","","","","0","0","1","0.4666104807","","0.2","0.6","0.8","0.4","","","","","0.3851410914","0.34308242","0.4666104807","0.8298767513","","","","","","","","75","K","2","","","66","main_expt",""
"","bandit","146","1550413","0.0-107.0-0.0","82185087","wem/bandit_either_3","A13WFFPE9L1QAB","either","6","307","","","","","","","0","0","1","0.5547259005","","0.2","0.6","0.8","0.4","","","","","0.3925250542","0.3730603492","0.5547259005","0.8506596021","","","","","","","","75","K","2","","","67","main_expt",""
"","bandit","147","1551981","0.0-108.0-0.0","82185087","wem/bandit_either_3","A13WFFPE9L1QAB","either","6","49","","","","","","","0","1","0","","0.8536910832","0.2","0.6","0.8","0.4","0.3884113518","0.4089949532","0.6038719492","0.8536910832","","","","","","","","","","","","76","L","3","","","68","main_expt",""
"","bandit","148","1553871","0.0-109.0-0.0","82185087","wem/bandit_either_3","A13WFFPE9L1QAB","either","6","370","","","","","","","0","1","0","","0.8642538991","0.2","0.6","0.8","0.4","0.3434478979","0.3749002533","0.6148283845","0.8642538991","","","","","","","","","","","","76","L","3","","","69","main_expt",""
"","bandit","149","1555423","0.0-110.0-0.0","82185087","wem/bandit_either_3","A13WFFPE9L1QAB","either","6","32","","","","","","","0","1","0","","0.8073802352","0.2","0.6","0.8","0.4","0.4426642051","0.4133869845","0.6683283761","0.8073802352","","","","","","","","","","","","76","L","3","","","70","main_expt",""
"","bandit","150","1556975","0.0-111.0-0.0","82185087","wem/bandit_either_3","A13WFFPE9L1QAB","either","6","33","","","","","","","0","0","1","","0.8059201048","0.2","0.6","0.8","0.4","0.4518046004","0.3302164541","0.738459761","0.8059201048","","","","","","","","","","","","76","L","3","","","71","main_expt",""
"","bandit","151","1558881","0.0-112.0-0.0","82185087","wem/bandit_either_3","A13WFFPE9L1QAB","either","6","384","","","","","","","1","0","0","0.8262275011","","0.2","0.6","0.8","0.4","","","","","0.4903223245","0.2570952275","0.6525166508","0.8262275011","","","","","","","","76","L","3","","","72","main_expt",""
"","bandit","152","1560843","0.0-113.0-0.0","82185087","wem/bandit_either_3","A13WFFPE9L1QAB","either","6","443","","","","","","","0","0","1","0.7334390718","","0.2","0.6","0.8","0.4","","","","","0.5296083002","0.2042885023","0.5715134512","0.7334390718","","","","","","","","76","L","3","","","73","main_expt",""
"","bandit","153","1562364","0.0-114.0-0.0","82185087","wem/bandit_either_3","A13WFFPE9L1QAB","either","6","2","","","","","","","1","0","0","0.7490977197","","0.2","0.6","0.8","0.4","","","","","0.4883026933","0.2152837516","0.6228045854","0.7490977197","","","","","","","","76","L","3","","","74","main_expt",""
"","bandit","154","1563883","0.0-115.0-0.0","82185087","wem/bandit_either_3","A13WFFPE9L1QAB","either","6","2","","","","","","","0","1","0","","0.7554087461","0.2","0.6","0.8","0.4","0.4914171484","0.2044775694","0.613630376","0.7554087461","","","","","","","","","","","","76","L","3","","","75","main_expt",""
"","bandit","155","1565840","0.0-116.0-0.0","82185087","wem/bandit_either_3","A13WFFPE9L1QAB","either","6","440","","","","","","","1","0","0","0.804443878","","0.2","0.6","0.8","0.4","","","","","0.6059218973","0.2247613499","0.7047266053","0.804443878","","","","","","","","76","L","3","","","76","main_expt",""
"","bandit","156","1567886","0.0-117.0-0.0","82185087","wem/bandit_either_3","A13WFFPE9L1QAB","either","6","526","","","","","","","0","1","0","","0.6656620098","0.2","0.6","0.8","0.4","0.553792366","0.2266335256","0.6910360943","0.6656620098","","","","","","","","","","","","76","L","3","","","77","main_expt",""
"","bandit","157","1569478","0.0-118.0-0.0","82185087","wem/bandit_either_3","A13WFFPE9L1QAB","either","6","70","","","","","","","1","0","0","0.5898140708","","0.2","0.6","0.8","0.4","","","","","0.6884193839","0.1659731505","0.5515992215","0.5898140708","","","","","","","","76","L","3","","","78","main_expt",""
"","bandit","158","1571125","0.0-119.0-0.0","82185087","wem/bandit_either_3","A13WFFPE9L1QAB","either","6","128","","","","","","","0","0","1","","0.613215191","0.2","0.6","0.8","0.4","0.7214277645","0.2343921172","0.6448399581","0.613215191","","","","","","","","","","","","76","L","3","","","79","main_expt",""
"","bandit","159","1572672","0.0-120.0-0.0","82185087","wem/bandit_either_3","A13WFFPE9L1QAB","either","6","25","","","","","","","0","0","1","","0.4605925783","0.2","0.6","0.8","0.4","0.7328142644","0.2164054515","0.739479497","0.4605925783","","","","","","","","","","","","76","L","3","","","80","main_expt",""
"","bandit","160","1574515","0.0-121.0-0.0","82185087","wem/bandit_either_3","A13WFFPE9L1QAB","either","6","319","","","","","","","0","1","0","","0.5390789087","0.2","0.6","0.8","0.4","0.7101675561","0.1361232007","0.6956071838","0.5390789087","","","","","","","","","","","","76","L","3","","","81","main_expt",""
"","bandit","161","1576505","0.0-122.0-0.0","82185087","wem/bandit_either_3","A13WFFPE9L1QAB","either","6","467","","","","","","","1","0","0","0.621290364","","0.2","0.6","0.8","0.4","","","","","0.6984384541","0.2275447725","0.5886517937","0.621290364","","","","","","","","76","L","3","","","82","main_expt",""
"","bandit","162","1578733","0.0-123.0-0.0","82185087","wem/bandit_either_3","A13WFFPE9L1QAB","either","6","707","","","","","","","1","0","0","0.6359424421","","0.2","0.6","0.8","0.4","","","","","0.7447883659","0.1900607051","0.4764182235","0.6359424421","","","","","","","","76","L","3","","","83","main_expt",""
"","bandit","163","1581385","0.0-124.0-0.0","82185087","wem/bandit_either_3","A13WFFPE9L1QAB","either","6","1111","","","","","","","0","1","0","","0.6133664729","0.2","0.6","0.8","0.4","0.6900592863","0.1306868958","0.5149027494","0.6133664729","","","","","","","","","","","","76","L","3","","","84","main_expt",""
"","bandit","164","1593108","0.0-125.0-0.0","82185087","wem/bandit_either_3","A13WFFPE9L1QAB","either","6","10202","","","","","","","0","0","1","","0.7815463305","0.2","0.6","0.8","0.4","0.7010597455","0.1683201849","0.4908067213","0.7815463305","","","","","","","","","","","","76","L","3","","","85","main_expt",""
"","bandit","165","1595130","0.0-126.0-0.0","82185087","wem/bandit_either_3","A13WFFPE9L1QAB","either","6","501","","","","","","","1","0","0","0.7355789231","","0.2","0.6","0.8","0.4","","","","","0.6171062652","0.1290314955","0.4139472458","0.7355789231","","","","","","","","76","L","3","","","86","main_expt",""
"","bandit","166","1597107","0.0-127.0-0.0","82185087","wem/bandit_either_3","A13WFFPE9L1QAB","either","6","457","","","","","","","0","1","0","","0.7267399876","0.2","0.6","0.8","0.4","0.5629375242","0.2297537383","0.4253818619","0.7267399876","","","","","","","","","","","","76","L","3","","","87","main_expt",""
"","bandit","167","1598885","0.0-128.0-0.0","82185087","wem/bandit_either_3","A13WFFPE9L1QAB","either","6","255","","","","","","","1","0","0","0.7703195612","","0.2","0.6","0.8","0.4","","","","","0.6434443074","0.1878263516","0.4448862761","0.7703195612","","","","","","","","76","L","3","","","88","main_expt",""
"","bandit","168","1600713","0.0-129.0-0.0","82185087","wem/bandit_either_3","A13WFFPE9L1QAB","either","6","307","","","","","","","0","0","1","0.81872988","","0.2","0.6","0.8","0.4","","","","","0.7296698787","0.1896964823","0.4295642349","0.81872988","","","","","","","","76","L","3","","","89","main_expt",""
"","bandit","169","1602698","0.0-130.0-0.0","82185087","wem/bandit_either_3","A13WFFPE9L1QAB","either","6","465","","","","","","","1","0","0","0.8032570632","","0.2","0.6","0.8","0.4","","","","","0.7042864347","0.1614970172","0.3655203192","0.8032570632","","","","","","","","76","L","3","","","90","main_expt",""
"","bandit","170","1604738","0.0-131.0-0.0","82185087","wem/bandit_either_3","A13WFFPE9L1QAB","either","6","505","","","","","","","1","0","0","0.8257352781","","0.2","0.6","0.8","0.4","","","","","0.7606559624","0.2107705911","0.402428746","0.8257352781","","","","","","","","76","L","3","","","91","main_expt",""
"","bandit","171","1606602","0.0-132.0-0.0","82185087","wem/bandit_either_3","A13WFFPE9L1QAB","either","6","345","","","","","","","1","0","0","0.7762210657","","0.2","0.6","0.8","0.4","","","","","0.8466818248","0.1317951273","0.452733603","0.7762210657","","","","","","","","76","L","3","","","92","main_expt",""
"","bandit","172","1608295","0.0-133.0-0.0","82185087","wem/bandit_either_3","A13WFFPE9L1QAB","either","6","168","","","","","","","0","1","0","","0.8293629201","0.2","0.6","0.8","0.4","0.8181600593","0.09268613222","0.5416456901","0.8293629201","","","","","","","","","","","","76","L","3","","","93","main_expt",""
"","bandit","173","1610133","0.0-134.0-0.0","82185087","wem/bandit_either_3","A13WFFPE9L1QAB","either","6","311","","","","","","","0","1","0","","0.7849393417","0.2","0.6","0.8","0.4","0.7259749053","0.06418168538","0.5246039132","0.7849393417","","","","","","","","","","","","76","L","3","","","94","main_expt",""
"","bandit","174","1612122","0.0-135.0-0.0","82185087","wem/bandit_either_3","A13WFFPE9L1QAB","either","6","469","","","","","","","1","0","0","0.7850226125","","0.2","0.6","0.8","0.4","","","","","0.6538641892","0.100072779","0.606801291","0.7850226125","","","","","","","","76","L","3","","","95","main_expt",""
"","bandit","175","1614351","0.0-136.0-0.0","82185087","wem/bandit_either_3","A13WFFPE9L1QAB","either","6","704","","","","","","","0","0","1","0.8013150942","","0.2","0.6","0.8","0.4","","","","","0.6384360591","0.09628221604","0.7175242067","0.8013150942","","","","","","","","76","L","3","","","96","main_expt",""
"","bandit","176","1616431","0.0-137.0-0.0","82185087","wem/bandit_either_3","A13WFFPE9L1QAB","either","6","559","","","","","","","1","0","0","0.70340399","","0.2","0.6","0.8","0.4","","","","","0.6836118029","0.1335622201","0.7706560561","0.70340399","","","","","","","","76","L","3","","","97","main_expt",""
"","bandit","177","1618283","0.0-138.0-0.0","82185087","wem/bandit_either_3","A13WFFPE9L1QAB","either","6","328","","","","","","","0","1","0","","0.7562517051","0.2","0.6","0.8","0.4","0.659457158","0.167202632","0.7234704616","0.7562517051","","","","","","","","","","","","76","L","3","","","98","main_expt",""
"","bandit","178","1620355","0.0-139.0-0.0","82185087","wem/bandit_either_3","A13WFFPE9L1QAB","either","6","551","","","","","","","0","1","0","","0.6514659141","0.2","0.6","0.8","0.4","0.7726162223","0.1216125457","0.6582042781","0.6514659141","","","","","","","","","","","","76","L","3","","","99","main_expt",""
"","bandit","179","1622384","0.0-140.0-0.0","82185087","wem/bandit_either_3","A13WFFPE9L1QAB","either","6","508","","","","","","","1","0","0","0.7112237606","","0.2","0.6","0.8","0.4","","","","","0.8446518706","0.1163239148","0.6530973887","0.7112237606","","","","","","","","76","L","3","","","100","main_expt",""
"","bandit","180","1623925","0.0-141.0-0.0","82185087","wem/bandit_either_3","A13WFFPE9L1QAB","either","6","22","","","","","","","0","0","1","","0.6865981462","0.2","0.6","0.8","0.4","0.8784151442","0.1037928869","0.6690961394","0.6865981462","","","","","","","","","","","","76","L","3","","","101","main_expt",""
"","bandit","181","1625917","0.0-142.0-0.0","82185087","wem/bandit_either_3","A13WFFPE9L1QAB","either","6","462","","","","","","","0","1","0","","0.6663704066","0.2","0.6","0.8","0.4","0.8781202538","0.0991068806","0.6268844929","0.6663704066","","","","","","","","","","","","76","L","3","","","102","main_expt",""
"","bandit","182","1628150","0.0-143.0-0.0","82185087","wem/bandit_either_3","A13WFFPE9L1QAB","either","6","709","","","","","","","0","0","1","","0.6006744832","0.2","0.6","0.8","0.4","0.8123732176","0.1226752409","0.6657789595","0.6006744832","","","","","","","","","","","","76","L","3","","","103","main_expt",""
"","bandit","183","1630115","0.0-144.0-0.0","82185087","wem/bandit_either_3","A13WFFPE9L1QAB","either","6","444","","","","","","","1","0","0","0.518723913","","0.2","0.6","0.8","0.4","","","","","0.8461937008","0.1552466415","0.6951589836","0.518723913","","","","","","","","76","L","3","","","104","main_expt",""
"","bandit","184","1632070","0.0-145.0-0.0","82185087","wem/bandit_either_3","A13WFFPE9L1QAB","either","6","432","","","","","","","0","1","0","","0.5343999165","0.2","0.6","0.8","0.4","0.8664825842","0.1702138509","0.6382729445","0.5343999165","","","","","","","","","","","","76","L","3","","","105","main_expt",""
"","bandit","185","1633749","0.0-146.0-0.0","82185087","wem/bandit_either_3","A13WFFPE9L1QAB","either","6","158","","","","","","","0","0","1","","0.4959998489","0.2","0.6","0.8","0.4","0.8703997655","0.2021425125","0.7139624249","0.4959998489","","","","","","","","","","","","76","L","3","","","106","main_expt",""
"","bandit","186","1635302","0.0-147.0-0.0","82185087","wem/bandit_either_3","A13WFFPE9L1QAB","either","6","32","","","","","","","0","1","0","","0.5052663648","0.2","0.6","0.8","0.4","0.8964314806","0.2196373816","0.7718136471","0.5052663648","","","","","","","","","","","","76","L","3","","","107","main_expt",""
"","bandit","187","1637927","0.0-148.0-0.0","82185087","wem/bandit_either_3","A13WFFPE9L1QAB","either","6","1096","","","","","","","0","1","0","","0.4859582203","0.2","0.6","0.8","0.4","0.9080126319","0.2393661099","0.8818715302","0.4859582203","","","","","","","","","","","","76","L","3","","","108","main_expt",""
"","bandit","188","1640012","0.0-149.0-0.0","82185087","wem/bandit_either_3","A13WFFPE9L1QAB","either","6","564","","","","","","","1","0","0","0.523617738","","0.2","0.6","0.8","0.4","","","","","0.8880845243","0.2516352594","0.8757741924","0.523617738","","","","","","","","76","L","3","","","109","main_expt",""
"","bandit","189","1641930","0.0-150.0-0.0","82185087","wem/bandit_either_3","A13WFFPE9L1QAB","either","6","380","","","","","","","0","1","0","","0.5492010791","0.2","0.6","0.8","0.4","0.899251136","0.2424291788","0.8657151097","0.5492010791","","","","","","","","","","","","76","L","3","","","110","main_expt",""
"","bandit","190","1643859","0.0-151.0-0.0","82185087","wem/bandit_either_3","A13WFFPE9L1QAB","either","6","408","","","","","","","0","0","1","0.5467154696","","0.2","0.6","0.8","0.4","","","","","0.9019514556","0.2033086481","0.8457624762","0.5467154696","","","","","","","","76","L","3","","","111","main_expt",""
"","bandit","191","1645597","0.0-152.0-0.0","82185087","wem/bandit_either_3","A13WFFPE9L1QAB","either","6","217","","","","","","","0","0","1","0.5396215981","","0.2","0.6","0.8","0.4","","","","","0.9315537639","0.208613213","0.8756116827","0.5396215981","","","","","","","","76","L","3","","","112","main_expt",""
"","bandit","192","1647961","0.0-153.0-0.0","82185087","wem/bandit_either_3","A13WFFPE9L1QAB","either","6","844","","","","","","","0","1","0","","0.5542875214","0.2","0.6","0.8","0.4","0.9254394702","0.2743958833","0.8773181328","0.5542875214","","","","","","","","","","","","76","L","3","","","113","main_expt",""
"","bandit","193","1649785","0.0-154.0-0.0","82185087","wem/bandit_either_3","A13WFFPE9L1QAB","either","6","303","","","","","","","0","1","0","","0.6411428718","0.2","0.6","0.8","0.4","0.9394904604","0.2657329006","0.8842236373","0.6411428718","","","","","","","","","","","","76","L","3","","","114","main_expt",""
"","bandit","194","1651878","0.0-155.0-0.0","82185087","wem/bandit_either_3","A13WFFPE9L1QAB","either","6","546","","","","","","","0","1","0","","0.7261400339","0.2","0.6","0.8","0.4","0.9533355239","0.3234316928","0.8499121835","0.7261400339","","","","","","","","","","","","76","L","3","","","115","main_expt",""
"","bandit","195","1654014","0.0-156.0-0.0","82185087","wem/bandit_either_3","A13WFFPE9L1QAB","either","6","615","","","","","","","0","1","0","","0.7395407697","0.2","0.6","0.8","0.4","0.960842596","0.3625587123","0.7890056153","0.7395407697","","","","","","","","","","","","76","L","3","","","116","main_expt",""
"","bandit","196","1656118","0.0-157.0-0.0","82185087","wem/bandit_either_3","A13WFFPE9L1QAB","either","6","571","","","","","","","1","0","0","0.8231731708","","0.2","0.6","0.8","0.4","","","","","0.937733065","0.4946904956","0.7709890197","0.8231731708","","","","","","","","76","L","3","","","117","main_expt",""
"","bandit","197","1657847","0.0-158.0-0.0","82185087","wem/bandit_either_3","A13WFFPE9L1QAB","either","6","198","","","","","","","0","1","0","","0.8278750807","0.2","0.6","0.8","0.4","0.9561499645","0.6246330079","0.7459937787","0.8278750807","","","","","","","","","","","","76","L","3","","","118","main_expt",""
"","bandit","198","1660048","0.0-159.0-0.0","82185087","wem/bandit_either_3","A13WFFPE9L1QAB","either","6","678","","","","","","","1","0","0","0.8715827524","","0.2","0.6","0.8","0.4","","","","","0.9595118281","0.5818097722","0.716881491","0.8715827524","","","","","","","","76","L","3","","","119","main_expt",""
"","bandit","199","1662263","0.0-160.0-0.0","82185087","wem/bandit_either_3","A13WFFPE9L1QAB","either","6","692","","","","","","","1","0","0","0.8522670476","","0.2","0.6","0.8","0.4","","","","","0.9548463758","0.5990025551","0.6595649419","0.8522670476","","","","","","","","76","L","3","","","120","main_expt",""
"","bandit","200","1664404","0.0-161.0-0.0","82185087","wem/bandit_either_3","A13WFFPE9L1QAB","either","6","618","","","","","","","0","1","0","","0.8266542562","0.2","0.6","0.8","0.4","0.958085665","0.6534424477","0.6576447048","0.8266542562","","","","","","","","","","","","76","L","3","","","121","main_expt",""
"","bandit","201","1666896","0.0-162.0-0.0","82185087","wem/bandit_either_3","A13WFFPE9L1QAB","either","6","967","","","","","","","1","0","0","0.81688531","","0.2","0.6","0.8","0.4","","","","","0.9630601427","0.5952731017","0.6391957719","0.81688531","","","","","","","","76","L","3","","","122","main_expt",""
"","bandit","202","1669071","0.0-163.0-0.0","82185087","wem/bandit_either_3","A13WFFPE9L1QAB","either","6","648","","","","","","","0","0","1","0.8307363081","","0.2","0.6","0.8","0.4","","","","","0.9790283764","0.6469086187","0.5873908865","0.8307363081","","","","","","","","76","L","3","","","123","main_expt",""
"","bandit","203","1670610","0.0-164.0-0.0","82185087","wem/bandit_either_3","A13WFFPE9L1QAB","either","6","17","","","","","","","0","1","0","","0.6943824695","0.2","0.6","0.8","0.4","0.9718765302","0.6911454426","0.6592760984","0.6943824695","","","","","","","","","","","","76","L","3","","","124","main_expt",""
"","bandit","204","1674573","0.0-165.0-0.0","82185087","wem/bandit_either_3","A13WFFPE9L1QAB","either","6","2441","","","","","","","0","1","0","","0.7137568944","0.2","0.6","0.8","0.4","0.9845173964","0.750572215","0.6012083746","0.7137568944","","","","","","","","","","","","76","L","3","","","125","main_expt",""
"","bandit","205","1676518","0.0-166.0-0.0","82185087","wem/bandit_either_3","A13WFFPE9L1QAB","either","6","423","","","","","","","0","1","0","","0.6878742658","0.2","0.6","0.8","0.4","0.9804670004","0.8108432581","0.6043440275","0.6878742658","","","","","","","","","","","","76","L","3","","","126","main_expt",""
"","bandit","206","1678734","0.0-167.0-0.0","82185087","wem/bandit_either_3","A13WFFPE9L1QAB","either","6","693","","","","","","","0","1","0","","0.6175454059","0.2","0.6","0.8","0.4","0.9792667249","0.8338196277","0.5043142332","0.6175454059","","","","","","","","","","","","76","L","3","","","127","main_expt",""
"","bandit","207","1680707","0.0-168.0-0.0","82185087","wem/bandit_either_3","A13WFFPE9L1QAB","either","6","450","","","","","","","0","0","1","","0.5556505876","0.2","0.6","0.8","0.4","0.9853815399","0.8624128669","0.5778209799","0.5556505876","","","","","","","","","","","","76","L","3","","","128","main_expt",""
"","bandit","208","1682411","0.0-169.0-0.0","82185087","wem/bandit_either_3","A13WFFPE9L1QAB","either","6","179","","","","","","","0","0","1","","0.5948532478","0.2","0.6","0.8","0.4","0.9838319732","0.9026068167","0.5806273004","0.5948532478","","","","","","","","","","","","76","L","3","","","129","main_expt",""
"","bandit","209","1684313","0.0-170.0-0.0","82185087","wem/bandit_either_3","A13WFFPE9L1QAB","either","6","379","","","","","","","0","0","1","0.6646968067","","0.2","0.6","0.8","0.4","","","","","0.9798768453","0.8983636673","0.4152233618","0.6646968067","","","","","","","","76","L","3","","","130","main_expt",""
"","bandit","210","1686009","0.0-171.0-0.0","82185087","wem/bandit_either_3","A13WFFPE9L1QAB","either","6","171","","","","","","","0","0","1","0.6676177377","","0.2","0.6","0.8","0.4","","","","","0.9628017066","0.888478962","0.4527057242","0.6676177377","","","","","","","","76","L","3","","","131","main_expt",""
"","bandit","211","1688138","0.0-172.0-0.0","82185087","wem/bandit_either_3","A13WFFPE9L1QAB","either","6","604","","","","","","","0","0","1","0.5185753891","","0.2","0.6","0.8","0.4","","","","","0.9723970119","0.8470567254","0.5185753891","0.7638630926","","","","","","","","75","K","2","","","132","main_expt",""
"","bandit","212","1690125","0.0-173.0-0.0","82185087","wem/bandit_either_3","A13WFFPE9L1QAB","either","6","464","","","","","","","0","0","1","0.4567386081","","0.2","0.6","0.8","0.4","","","","","0.9754432393","0.8852081265","0.4567386081","0.726350598","","","","","","","","75","K","2","","","133","main_expt",""
"","bandit","213","1691989","0.0-174.0-0.0","82185087","wem/bandit_either_3","A13WFFPE9L1QAB","either","6","341","","","","","","","0","1","0","","0.8317422298","0.2","0.6","0.8","0.4","0.9635376407","0.8317422298","0.4494056808","0.7638059904","","","","","","","","","","","","74","J","1","","","134","main_expt",""
"","bandit","214","1694033","0.0-175.0-0.0","82185087","wem/bandit_either_3","A13WFFPE9L1QAB","either","6","520","","","","","","","0","0","1","0.8121858422","","0.2","0.6","0.8","0.4","","","","","0.9304273523","0.8121858422","0.4608562393","0.7337835984","","","","","","","","74","J","1","","","135","main_expt",""
"","bandit","215","1695878","0.0-176.0-0.0","82185087","wem/bandit_either_3","A13WFFPE9L1QAB","either","6","323","","","","","","","0","1","0","","0.8473276522","0.2","0.6","0.8","0.4","0.9295592062","0.8473276522","0.6684020244","0.7869055623","","","","","","","","","","","","74","J","1","","","136","main_expt",""
"","bandit","216","1697999","0.0-177.0-0.0","82185087","wem/bandit_either_3","A13WFFPE9L1QAB","either","6","598","","","","","","","1","0","0","0.8251243182","","0.2","0.6","0.8","0.4","","","","","0.9343332129","0.8251243182","0.614137061","0.8033651193","","","","","","","","74","J","1","","","137","main_expt",""
"","bandit","217","1720183","0.0-178.0-0.0","82185087","wem/bandit_either_3","A13WFFPE9L1QAB","either","6","20665","","","","","","","0","1","0","","0.7892590299","0.2","0.6","0.8","0.4","0.9325781127","0.7892590299","0.711021659","0.7620089345","","","","","","","","","","","","74","J","1","","","138","main_expt",""
"","bandit","218","1722205","0.0-179.0-0.0","82185087","wem/bandit_either_3","A13WFFPE9L1QAB","either","6","499","","","","","","","0","1","0","","0.753698647","0.2","0.6","0.8","0.4","0.9687763229","0.753698647","0.5731932267","0.8098853196","","","","","","","","","","","","74","J","1","","","139","main_expt",""
"","bandit","219","1724754","0.0-180.0-0.0","82185087","wem/bandit_either_3","A13WFFPE9L1QAB","either","6","1013","","","","","","","1","0","0","0.7281837229","","0.2","0.6","0.8","0.4","","","","","0.9520204639","0.7281837229","0.6553783698","0.8737133651","","","","","","","","74","J","1","","","140","main_expt",""
"","bandit","220","1726709","0.0-181.0-0.0","82185087","wem/bandit_either_3","A13WFFPE9L1QAB","either","6","432","","","","","","","1","0","0","0.7913145473","","0.2","0.6","0.8","0.4","","","","","0.9615613541","0.7913145473","0.5665224918","0.8464817719","","","","","","","","74","J","1","","","141","main_expt",""
"","bandit","221","1728600","0.0-182.0-0.0","82185087","wem/bandit_either_3","A13WFFPE9L1QAB","either","6","368","","","","","","","1","0","0","0.7498898283","","0.2","0.6","0.8","0.4","","","","","0.9438722422","0.7498898283","0.5230460729","0.8457688645","","","","","","","","74","J","1","","","142","main_expt",""
"","bandit","222","1730494","0.0-183.0-0.0","82185087","wem/bandit_either_3","A13WFFPE9L1QAB","either","6","371","","","","","","","1","0","0","0.723110339","","0.2","0.6","0.8","0.4","","","","","0.9419241064","0.723110339","0.5401897842","0.8801682128","","","","","","","","74","J","1","","","143","main_expt",""
"","bandit","223","1732413","0.0-184.0-0.0","82185087","wem/bandit_either_3","A13WFFPE9L1QAB","either","6","394","","","","","","","1","0","0","0.7697142539","","0.2","0.6","0.8","0.4","","","","","0.9383966058","0.7697142539","0.5495292383","0.7806105972","","","","","","","","74","J","1","","","144","main_expt",""
"","bandit","224","1734636","0.0-185.0-0.0","82185087","wem/bandit_either_3","A13WFFPE9L1QAB","either","6","698","","","","","","","0","0","1","","0.8279494337","0.2","0.6","0.8","0.4","0.9442204223","0.8279494337","0.4718854897","0.7384744451","","","","","","","","","","","","74","J","1","","","145","main_expt",""
"","bandit","225","1736404","0.0-186.0-0.0","82185087","wem/bandit_either_3","A13WFFPE9L1QAB","either","6","245","","","","","","","0","1","0","","0.747104877","0.2","0.6","0.8","0.4","0.9461270134","0.747104877","0.3790577705","0.7078417075","","","","","","","","","","","","74","J","1","","","146","main_expt",""
"","bandit","226","1738699","0.0-187.0-0.0","82185087","wem/bandit_either_3","A13WFFPE9L1QAB","either","6","772","","","","","","","1","0","0","0.7635883185","","0.2","0.6","0.8","0.4","","","","","0.9677113618","0.7635883185","0.3671333747","0.7671729372","","","","","","","","74","J","1","","","147","main_expt",""
"","bandit","227","1740397","0.0-188.0-0.0","82185087","wem/bandit_either_3","A13WFFPE9L1QAB","either","6","172","","","","","","","0","0","1","","0.6650729927","0.2","0.6","0.8","0.4","0.9603287673","0.6650729927","0.4462771912","0.7515071201","","","","","","","","","","","","74","J","1","","","148","main_expt",""
"","bandit","228","1742494","0.0-189.0-0.0","82185087","wem/bandit_either_3","A13WFFPE9L1QAB","either","6","570","","","","","","","0","0","1","0.594527628","","0.2","0.6","0.8","0.4","","","","","0.9256305183","0.594527628","0.3929125452","0.7582160768","","","","","","","","74","J","1","","","149","main_expt",""
"","bandit","229","1744175","0.0-190.0-0.0","82185087","wem/bandit_either_3","A13WFFPE9L1QAB","either","6","160","","","","","","","1","0","0","0.5101412162","","0.2","0.6","0.8","0.4","","","","","0.9222609783","0.5101412162","0.3825194633","0.6843302658","","","","","","","","74","J","1","","","150","main_expt",""
"","bandit","230","1746120","0.0-191.0-0.0","82185087","wem/bandit_either_3","A13WFFPE9L1QAB","either","6","421","","","","","","","0","1","0","","0.5755011036","0.2","0.6","0.8","0.4","0.9522131909","0.5755011036","0.3889652011","0.4980827124","","","","","","","","","","","","74","J","1","","","151","main_expt",""
"","bandit","231","1748044","0.0-192.0-0.0","82185087","wem/bandit_either_3","A13WFFPE9L1QAB","either","6","402","","","","","","","0","0","1","0.5415628766","","0.2","0.6","0.8","0.4","","","","","0.9351777179","0.5415628766","0.372169082","0.5418861514","","","","","","","","74","J","1","","","152","main_expt",""
"","bandit","232","1750185","0.0-193.0-0.0","82185087","wem/bandit_either_3","A13WFFPE9L1QAB","either","6","617","","","","","","","1","0","0","0.6392888902","","0.2","0.6","0.8","0.4","","","","","0.9526549669","0.6392888902","0.4275919172","0.6424708626","","","","","","","","74","J","1","","","153","main_expt",""
"","bandit","233","1753479","0.0-194.0-0.0","82185087","wem/bandit_either_3","A13WFFPE9L1QAB","either","6","1770","","","","","","","0","0","1","","0.6798835142","0.2","0.6","0.8","0.4","0.944677936","0.6798835142","0.3978897223","0.6200403258","","","","","","","","","","","","74","J","1","","","154","main_expt",""
"","bandit","234","1755335","0.0-195.0-0.0","82185087","wem/bandit_either_3","A13WFFPE9L1QAB","either","6","332","","","","","","","0","1","0","","0.7376683638","0.2","0.6","0.8","0.4","0.9443948233","0.7376683638","0.4922143253","0.5087788092","","","","","","","","","","","","74","J","1","","","155","main_expt",""
"","bandit","235","1757210","0.0-196.0-0.0","82185087","wem/bandit_either_3","A13WFFPE9L1QAB","either","6","348","","","","","","","0","0","1","0.7740838489","","0.2","0.6","0.8","0.4","","","","","0.9312029685","0.7740838489","0.5060601407","0.4397360723","","","","","","","","74","J","1","","","156","main_expt",""
"","bandit","236","1759106","0.0-197.0-0.0","82185087","wem/bandit_either_3","A13WFFPE9L1QAB","either","6","373","","","","","","","0","0","1","","0.7526352547","0.2","0.6","0.8","0.4","0.9009413449","0.7526352547","0.56460533","0.4529934193","","","","","","","","","","","","74","J","1","","","157","main_expt",""
"","bandit","237","1761358","0.0-198.0-0.0","82185087","wem/bandit_either_3","A13WFFPE9L1QAB","either","6","729","","","","","","","0","1","0","","0.807066173","0.2","0.6","0.8","0.4","0.8799225656","0.807066173","0.5551408743","0.522014142","","","","","","","","","","","","74","J","1","","","158","main_expt",""
"","bandit","238","1763163","0.0-199.0-0.0","82185087","wem/bandit_either_3","A13WFFPE9L1QAB","either","6","277","","","","","","","0","1","0","","0.8348587906","0.2","0.6","0.8","0.4","0.9103166083","0.8348587906","0.6362487126","0.447178695","","","","","","","","","","","","74","J","1","","","159","main_expt",""
"","bandit","239","1764852","0.0-200.0-0.0","82185087","wem/bandit_either_3","A13WFFPE9L1QAB","either","6","164","","","","","","","1","0","0","0.8054329593","","0.2","0.6","0.8","0.4","","","","","0.9575168601","0.8054329593","0.5818198138","0.4293784973","","","","","","","","74","J","1","","","160","main_expt",""
"","bandit","240","1766806","0.0-201.0-0.0","82185087","wem/bandit_either_3","A13WFFPE9L1QAB","either","6","427","","","","","","","1","0","0","0.8263011938","","0.2","0.6","0.8","0.4","","","","","0.9323430526","0.8263011938","0.5079421761","0.4263694152","","","","","","","","74","J","1","","","161","main_expt",""
"","bandit","241","1768811","0.0-202.0-0.0","82185087","wem/bandit_either_3","A13WFFPE9L1QAB","either","6","482","","","","","","","1","0","0","0.8468561623","","0.2","0.6","0.8","0.4","","","","","0.8731035433","0.8468561623","0.3944353318","0.4394756583","","","","","","","","74","J","1","","","162","main_expt",""
"","bandit","242","1770645","0.0-203.0-0.0","82185087","wem/bandit_either_3","A13WFFPE9L1QAB","either","6","295","","","","","","","0","0","1","","0.866861138","0.2","0.6","0.8","0.4","0.860239847","0.866861138","0.4560534757","0.4632532181","","","","","","","","","","","","74","J","1","","","163","main_expt",""
"","bandit","243","1772261","0.0-204.0-0.0","82185087","wem/bandit_either_3","A13WFFPE9L1QAB","either","6","94","","","","","","","0","1","0","","0.8621839131","0.2","0.6","0.8","0.4","0.8327160304","0.8621839131","0.4338988853","0.469091439","","","","","","","","","","","","74","J","1","","","164","main_expt",""
"","bandit","244","1773890","0.0-205.0-0.0","82185087","wem/bandit_either_3","A13WFFPE9L1QAB","either","6","106","","","","","","","0","0","1","0.8368369455","","0.2","0.6","0.8","0.4","","","","","0.8780399083","0.8368369455","0.3640020004","0.4691854483","","","","","","","","74","J","1","","","165","main_expt",""
"","bandit","245","1775532","0.0-206.0-0.0","82185087","wem/bandit_either_3","A13WFFPE9L1QAB","either","6","116","","","","","","","1","0","0","0.8543831227","","0.2","0.6","0.8","0.4","","","","","0.8659509199","0.8543831227","0.4433911144","0.424594696","","","","","","","","74","J","1","","","166","main_expt",""
"","bandit","246","1777519","0.0-207.0-0.0","82185087","wem/bandit_either_3","A13WFFPE9L1QAB","either","6","461","","","","","","","1","0","0","0.8444257961","","0.2","0.6","0.8","0.4","","","","","0.8458676595","0.8444257961","0.4852122499","0.4691217736","","","","","","","","74","J","1","","","167","main_expt",""
"","bandit","247","1779609","0.0-208.0-0.0","82185087","wem/bandit_either_3","A13WFFPE9L1QAB","either","6","567","","","","","","","0","1","0","","0.8895061166","0.2","0.6","0.8","0.4","0.7368025647","0.8895061166","0.4829488348","0.4605946041","","","","","","","","","","","","74","J","1","","","168","main_expt",""
"","bandit","248","1781683","0.0-209.0-0.0","82185087","wem/bandit_either_3","A13WFFPE9L1QAB","either","6","548","","","","","","","0","1","0","","0.8980662015","0.2","0.6","0.8","0.4","0.6811301937","0.8980662015","0.467087579","0.4302520818","","","","","","","","","","","","74","J","1","","","169","main_expt",""
"","bandit","249","1783230","0.0-210.0-0.0","82185087","wem/bandit_either_3","A13WFFPE9L1QAB","either","6","23","","","","","","","0","1","0","","0.9399190154","0.2","0.6","0.8","0.4","0.6781719117","0.9399190154","0.3575164989","0.3846086554","","","","","","","","","","","","74","J","1","","","170","main_expt",""
"","bandit","250","1785179","0.0-211.0-0.0","82185087","wem/bandit_either_3","A13WFFPE9L1QAB","either","6","425","","","","","","","1","0","0","0.9199626721","","0.2","0.6","0.8","0.4","","","","","0.5779776893","0.9199626721","0.3433755155","0.4938912128","","","","","","","","74","J","1","","","171","main_expt",""
"","bandit","251","1787945","0.0-212.0-0.0","82185087","wem/bandit_either_3","A13WFFPE9L1QAB","either","6","1242","","","","","","","1","0","0","0.8885959212","","0.2","0.6","0.8","0.4","","","","","0.5461867433","0.8885959212","0.2921203137","0.5409242696","","","","","","","","74","J","1","","","172","main_expt",""
"","bandit","252","1791094","0.0-213.0-0.0","82185087","wem/bandit_either_3","A13WFFPE9L1QAB","either","6","1624","","","","","","","0","0","1","","0.8502068985","0.2","0.6","0.8","0.4","0.5898781272","0.8502068985","0.3237382503","0.4899310385","","","","","","","","","","","","74","J","1","","","173","main_expt",""
"","bandit","253","1793597","0.0-214.0-0.0","82185087","wem/bandit_either_3","A13WFFPE9L1QAB","either","6","977","","","","","","","1","0","0","0.9054067092","","0.2","0.6","0.8","0.4","","","","","0.5990225055","0.9054067092","0.2935635685","0.4464532747","","","","","","","","74","J","1","","","174","main_expt",""
"","bandit","254","1795490","0.0-215.0-0.0","82185087","wem/bandit_either_3","A13WFFPE9L1QAB","either","6","365","","","","","","","1","0","0","0.9096893241","","0.2","0.6","0.8","0.4","","","","","0.6129624105","0.9096893241","0.2797951809","0.4363040476","","","","","","","","74","J","1","","","175","main_expt",""
"","bandit","255","1797792","0.0-216.0-0.0","82185087","wem/bandit_either_3","A13WFFPE9L1QAB","either","6","777","","","","","","","1","0","0","0.9081003197","","0.2","0.6","0.8","0.4","","","","","0.5434192492","0.9081003197","0.2067270565","0.4198776974","","","","","","","","74","J","1","","","176","main_expt",""
"","bandit","256","1799881","0.0-217.0-0.0","82185087","wem/bandit_either_3","A13WFFPE9L1QAB","either","6","564","","","","","","","1","0","0","0.8417535431","","0.2","0.6","0.8","0.4","","","","","0.5893108522","0.8417535431","0.19266164","0.4001478854","","","","","","","","74","J","1","","","177","main_expt",""
"","bandit","257","1801656","0.0-218.0-0.0","82185087","wem/bandit_either_3","A13WFFPE9L1QAB","either","6","250","","","","","","","1","0","0","0.8045518304","","0.2","0.6","0.8","0.4","","","","","0.4862463398","0.8045518304","0.1393448617","0.3015477047","","","","","","","","74","J","1","","","178","main_expt",""
"","bandit","258","1803451","0.0-219.0-0.0","82185087","wem/bandit_either_3","A13WFFPE9L1QAB","either","6","269","","","","","","","1","0","0","0.8250115846","","0.2","0.6","0.8","0.4","","","","","0.4227787996","0.8250115846","0.1149816072","0.2700131006","","","","","","","","74","J","1","","","179","main_expt",""
"","bandit","259","1805381","0.0-220.0-0.0","82185087","wem/bandit_either_3","A13WFFPE9L1QAB","either","6","404","","","","","","","1","0","0","0.7418096358","","0.2","0.6","0.8","0.4","","","","","0.3583368423","0.7418096358","0.1231561222","0.3473069","","","","","","","","74","J","1","","","180","main_expt",""
"","bandit","260","1807402","0.0-221.0-0.0","82185087","wem/bandit_either_3","A13WFFPE9L1QAB","either","6","496","","","","","","","0","0","1","","0.7180260456","0.2","0.6","0.8","0.4","0.3820052134","0.7180260456","0.1134989143","0.3478804011","","","","","","","","","","","","74","J","1","","","181","main_expt",""
"","bandit","261","1809186","0.0-222.0-0.0","82185087","wem/bandit_either_3","A13WFFPE9L1QAB","either","6","258","","","","","","","0","0","1","","0.6777378447","0.2","0.6","0.8","0.4","0.437769555","0.6777378447","0.07317944644","0.3304981007","","","","","","","","","","","","74","J","1","","","182","main_expt",""
"","bandit","262","1811123","0.0-223.0-0.0","82185087","wem/bandit_either_3","A13WFFPE9L1QAB","either","6","410","","","","","","","0","1","0","","0.6331465848","0.2","0.6","0.8","0.4","0.3951330089","0.6331465848","0.05085611098","0.2578466268","","","","","","","","","","","","74","J","1","","","183","main_expt",""
"","bandit","263","1813075","0.0-224.0-0.0","82185087","wem/bandit_either_3","A13WFFPE9L1QAB","either","6","427","","","","","","","0","0","1","","0.6578519513","0.2","0.6","0.8","0.4","0.4062376343","0.6578519513","0.07152820202","0.3550464129","","","","","","","","","","","","74","J","1","","","184","main_expt",""
"","bandit","264","1814914","0.0-225.0-0.0","82185087","wem/bandit_either_3","A13WFFPE9L1QAB","either","6","312","","","","","","","0","0","1","0.7160298793","","0.2","0.6","0.8","0.4","","","","","0.4035727276","0.7160298793","0.08814522307","0.2993299556","","","","","","","","74","J","1","","","185","main_expt",""
"","bandit","265","1817918","0.0-226.0-0.0","82185087","wem/bandit_either_3","A13WFFPE9L1QAB","either","6","1474","","","","","","","1","0","0","0.7081703269","","0.2","0.6","0.8","0.4","","","","","0.4595565904","0.7081703269","0.0931487442","0.3985972224","","","","","","","","74","J","1","","","186","main_expt",""
"","bandit","266","1819544","0.0-227.0-0.0","82185087","wem/bandit_either_3","A13WFFPE9L1QAB","either","6","102","","","","","","","0","0","1","0.7670757258","","0.2","0.6","0.8","0.4","","","","","0.4956959756","0.7670757258","0.05847154344","0.4563810555","","","","","","","","74","J","1","","","187","main_expt",""
"","bandit","267","1821456","0.0-228.0-0.0","82185087","wem/bandit_either_3","A13WFFPE9L1QAB","either","6","385","","","","","","","0","0","1","0.7986884496","","0.2","0.6","0.8","0.4","","","","","0.4295585103","0.7986884496","0.05005107021","0.4621092719","","","","","","","","74","J","1","","","188","main_expt",""
"","bandit","268","1824455","0.0-229.0-0.0","82185087","wem/bandit_either_3","A13WFFPE9L1QAB","either","6","1474","","","","","","","0","0","1","","0.4121259827","0.2","0.6","0.8","0.4","0.4121259827","0.8113194514","0.05158958255","0.4214675273","","","","","","","","","","","","72","H","0","img/none_selected.jpg","","189","main_expt",""
"","bandit","269","1826620","0.0-230.0-0.0","82185087","wem/bandit_either_3","A13WFFPE9L1QAB","either","6","634","","","","","","","0","0","1","0.0530996007","","0.2","0.6","0.8","0.4","","","","","0.40505342","0.8311477635","0.0530996007","0.4445162903","","","","","","","","75","K","2","","","190","main_expt",""
"","bandit","270","1828526","0.0-231.0-0.0","82185087","wem/bandit_either_3","A13WFFPE9L1QAB","either","6","380","","","","","","","0","0","1","","0.4077799102","0.2","0.6","0.8","0.4","0.3671493273","0.7941336253","0.05342003941","0.4077799102","","","","","","","","","","","","76","L","3","","","191","main_expt",""
"","bandit","271","1830056","0.0-232.0-0.0","82185087","wem/bandit_either_3","A13WFFPE9L1QAB","either","6","2","","","","","","","0","0","1","","0.413117206","0.2","0.6","0.8","0.4","0.3367263454","0.841847859","0.05264216412","0.413117206","","","","","","","","","","","","76","L","3","","","192","main_expt",""
"","bandit","272","1832075","0.0-233.0-0.0","82185087","wem/bandit_either_3","A13WFFPE9L1QAB","either","6","490","","","","","","","0","0","1","0.07418965368","","0.2","0.6","0.8","0.4","","","","","0.2587514209","0.865127625","0.07418965368","0.374663265","","","","","","","","75","K","2","","","193","main_expt",""
"","bandit","273","1833741","0.0-234.0-0.0","82185087","wem/bandit_either_3","A13WFFPE9L1QAB","either","6","139","","","","","","","0","0","1","0.1148515542","","0.2","0.6","0.8","0.4","","","","","0.2123696513","0.8369883383","0.1148515542","0.2792309937","","","","","","","","75","K","2","","","194","main_expt",""
"","bandit","274","1836045","0.0-235.0-0.0","82185087","wem/bandit_either_3","A13WFFPE9L1QAB","either","6","778","","","","","","","1","0","0","0.8226177272","","0.2","0.6","0.8","0.4","","","","","0.2551117677","0.8226177272","0.1102075851","0.3090424304","","","","","","","","74","J","1","","","195","main_expt",""
"","bandit","275","1838123","0.0-236.0-0.0","82185087","wem/bandit_either_3","A13WFFPE9L1QAB","either","6","555","","","","","","","0","0","1","0.8759919892","","0.2","0.6","0.8","0.4","","","","","0.2948177706","0.8759919892","0.09307195637","0.2254203465","","","","","","","","74","J","1","","","196","main_expt",""
"","bandit","276","1839953","0.0-237.0-0.0","82185087","wem/bandit_either_3","A13WFFPE9L1QAB","either","6","303","","","","","","","0","1","0","","0.9413038234","0.2","0.6","0.8","0.4","0.2864074111","0.9413038234","0.08341332984","0.2104085952","","","","","","","","","","","","74","J","1","","","197","main_expt",""
"","bandit","277","1841862","0.0-238.0-0.0","82185087","wem/bandit_either_3","A13WFFPE9L1QAB","either","6","382","","","","","","","0","1","0","","0.9384937307","0.2","0.6","0.8","0.4","0.3044962429","0.9384937307","0.06206278739","0.1686499416","","","","","","","","","","","","74","J","1","","","198","main_expt",""
"","bandit","278","1843611","0.0-239.0-0.0","82185087","wem/bandit_either_3","A13WFFPE9L1QAB","either","6","221","","","","","","","0","1","0","","0.927250614","0.2","0.6","0.8","0.4","0.2804127106","0.927250614","0.1015706687","0.1696058054","","","","","","","","","","","","74","J","1","","","199","main_expt",""
"","bandit","279","1845241","0.0-240.0-0.0","82185087","wem/bandit_either_3","A13WFFPE9L1QAB","either","6","103","","","","","","","0","1","0","","0.8840406778","0.2","0.6","0.8","0.4","0.3151112274","0.8840406778","0.07348353789","0.1940139532","","","","","","","","","","","","74","J","1","","","200","main_expt",""
"","bandit","280","1847116","0.0-241.0-0.0","82185087","wem/bandit_either_3","A13WFFPE9L1QAB","either","6","348","","","","","","","1","0","0","0.8866639954","","0.2","0.6","0.8","0.4","","","","","0.3124471347","0.8866639954","0.09218994405","0.2384341862","","","","","","","","74","J","1","","","201","main_expt",""
"","bandit","281","1848767","0.0-242.0-0.0","82185087","wem/bandit_either_3","A13WFFPE9L1QAB","either","6","123","","","","","","","1","0","0","0.8188103646","","0.2","0.6","0.8","0.4","","","","","0.3418115628","0.8188103646","0.1662378481","0.2069173963","","","","","","","","74","J","1","","","202","main_expt",""
"","bandit","282","1850473","0.0-243.0-0.0","82185087","wem/bandit_either_3","A13WFFPE9L1QAB","either","6","179","","","","","","","0","1","0","","0.8026106274","0.2","0.6","0.8","0.4","0.2676578736","0.8026106274","0.1808123801","0.2502389624","","","","","","","","","","","","74","J","1","","","203","main_expt",""
"","bandit","283","1852302","0.0-244.0-0.0","82185087","wem/bandit_either_3","A13WFFPE9L1QAB","either","6","302","","","","","","","1","0","0","0.6613987003","","0.2","0.6","0.8","0.4","","","","","0.2513587973","0.6613987003","0.2011980288","0.2226806","","","","","","","","74","J","1","","","204","main_expt",""
"","bandit","284","1853976","0.0-245.0-0.0","82185087","wem/bandit_either_3","A13WFFPE9L1QAB","either","6","147","","","","","","","1","0","0","0.7402115251","","0.2","0.6","0.8","0.4","","","","","0.2733703365","0.7402115251","0.1877492959","0.2327973494","","","","","","","","74","J","1","","","205","main_expt",""
"","bandit","285","1855561","0.0-246.0-0.0","82185087","wem/bandit_either_3","A13WFFPE9L1QAB","either","6","54","","","","","","","0","1","0","","0.6792505986","0.2","0.6","0.8","0.4","0.3212331514","0.6792505986","0.1891298069","0.3134624789","","","","","","","","","","","","74","J","1","","","206","main_expt",""
"","bandit","286","1857501","0.0-247.0-0.0","82185087","wem/bandit_either_3","A13WFFPE9L1QAB","either","6","412","","","","","","","1","0","0","0.6510378203","","0.2","0.6","0.8","0.4","","","","","0.3381772831","0.6510378203","0.2092890992","0.3808856429","","","","","","","","74","J","1","","","207","main_expt",""
"","bandit","287","1859369","0.0-248.0-0.0","82185087","wem/bandit_either_3","A13WFFPE9L1QAB","either","6","337","","","","","","","1","0","0","0.5971377862","","0.2","0.6","0.8","0.4","","","","","0.2370260631","0.5971377862","0.2563161799","0.318509643","","","","","","","","74","J","1","","","208","main_expt",""
"","bandit","288","1861968","0.0-249.0-0.0","82185087","wem/bandit_either_3","A13WFFPE9L1QAB","either","6","1071","","","","","","","1","0","0","0.6040603887","","0.2","0.6","0.8","0.4","","","","","0.2157004535","0.6040603887","0.2643940457","0.2932847295","","","","","","","","74","J","1","","","209","main_expt",""
"","bandit","289","1864007","0.0-250.0-0.0","82185087","wem/bandit_either_3","A13WFFPE9L1QAB","either","6","513","","","","","","","1","0","0","0.7794442159","","0.2","0.6","0.8","0.4","","","","","0.2655169153","0.7794442159","0.2710870001","0.2230023122","","","","","","","","74","J","1","","","210","main_expt",""
"","bandit","290","1865837","0.0-251.0-0.0","82185087","wem/bandit_either_3","A13WFFPE9L1QAB","either","6","305","","","","","","","0","1","0","","0.8397026392","0.2","0.6","0.8","0.4","0.2359505063","0.8397026392","0.2056380183","0.1899351836","","","","","","","","","","","","74","J","1","","","211","main_expt",""
"","bandit","291","1867983","0.0-252.0-0.0","82185087","wem/bandit_either_3","A13WFFPE9L1QAB","either","6","618","","","","","","","1","0","0","0.7883870126","","0.2","0.6","0.8","0.4","","","","","0.2431981852","0.7883870126","0.2487045614","0.2593929449","","","","","","","","74","J","1","","","212","main_expt",""
"","bandit","292","1870125","0.0-253.0-0.0","82185087","wem/bandit_either_3","A13WFFPE9L1QAB","either","6","612","","","","","","","1","0","0","0.7160446845","","0.2","0.6","0.8","0.4","","","","","0.3385658967","0.7160446845","0.3520378668","0.2304425673","","","","","","","","74","J","1","","","213","main_expt",""
"","bandit","293","1872317","0.0-254.0-0.0","82185087","wem/bandit_either_3","A13WFFPE9L1QAB","either","6","664","","","","","","","0","1","0","","0.7501162241","0.2","0.6","0.8","0.4","0.445002088","0.7501162241","0.3455661114","0.2849244028","","","","","","","","","","","","74","J","1","","","214","main_expt",""
"","bandit","294","1875024","0.0-255.0-0.0","82185087","wem/bandit_either_3","A13WFFPE9L1QAB","either","6","1180","","","","","","","1","0","0","0.7574589115","","0.2","0.6","0.8","0.4","","","","","0.4340580748","0.7574589115","0.3290646698","0.3184819088","","","","","","","","74","J","1","","","215","main_expt",""
"","bandit","295","1877073","0.0-256.0-0.0","82185087","wem/bandit_either_3","A13WFFPE9L1QAB","either","6","522","","","","","","","1","0","0","0.7376674805","","0.2","0.6","0.8","0.4","","","","","0.3996931216","0.7376674805","0.2737258078","0.2989728513","","","","","","","","74","J","1","","","216","main_expt",""
"","bandit","296","1879087","0.0-257.0-0.0","82185087","wem/bandit_either_3","A13WFFPE9L1QAB","either","6","486","","","","","","","1","0","0","0.67262171","","0.2","0.6","0.8","0.4","","","","","0.453570069","0.67262171","0.2401291484","0.5538830624","","","","","","","","74","J","1","","","217","main_expt",""
"","bandit","297","1881064","0.0-258.0-0.0","82185087","wem/bandit_either_3","A13WFFPE9L1QAB","either","6","449","","","","","","","1","0","0","0.6309662891","","0.2","0.6","0.8","0.4","","","","","0.3566620654","0.6309662891","0.2395298113","0.5331458927","","","","","","","","74","J","1","","","218","main_expt",""
"","bandit","298","1883291","0.0-259.0-0.0","82185087","wem/bandit_either_3","A13WFFPE9L1QAB","either","6","699","","","","","","","0","1","0","","0.610488243","0.2","0.6","0.8","0.4","0.3114207129","0.610488243","0.2333127667","0.409279481","","","","","","","","","","","","74","J","1","","","219","main_expt",""
"","bandit","299","1885630","0.0-260.0-0.0","82185087","wem/bandit_either_3","A13WFFPE9L1QAB","either","6","811","","","","","","","1","0","0","0.6741838821","","0.2","0.6","0.8","0.4","","","","","0.348491043","0.6741838821","0.2097963002","0.3910907299","","","","","","","","74","J","1","","","220","main_expt",""
"","bandit","300","1887726","0.0-261.0-0.0","82185087","wem/bandit_either_3","A13WFFPE9L1QAB","either","6","568","","","","","","","0","1","0","","0.6938787555","0.2","0.6","0.8","0.4","0.325682353","0.6938787555","0.1761429423","0.37386253","","","","","","","","","","","","74","J","1","","","221","main_expt",""
"","bandit","301","1889640","0.0-262.0-0.0","82185087","wem/bandit_either_3","A13WFFPE9L1QAB","either","6","383","","","","","","","0","0","1","","0.622086605","0.2","0.6","0.8","0.4","0.3582518194","0.622086605","0.1770547834","0.5460784034","","","","","","","","","","","","74","J","1","","","222","main_expt",""
"","bandit","302","1891485","0.0-263.0-0.0","82185087","wem/bandit_either_3","A13WFFPE9L1QAB","either","6","298","","","","","","","1","0","0","0.6190419158","","0.2","0.6","0.8","0.4","","","","","0.3596631187","0.6190419158","0.1494166006","0.5484594206","","","","","","","","74","J","1","","","223","main_expt",""
"","bandit","303","1893360","0.0-264.0-0.0","82185087","wem/bandit_either_3","A13WFFPE9L1QAB","either","6","344","","","","","","","1","0","0","0.6525227655","","0.2","0.6","0.8","0.4","","","","","0.4757784632","0.6525227655","0.1444184755","0.5156266917","","","","","","","","74","J","1","","","224","main_expt",""
"","bandit","304","1895522","0.0-265.0-0.0","82185087","wem/bandit_either_3","A13WFFPE9L1QAB","either","6","625","","","","","","","0","1","0","","0.5739960468","0.2","0.6","0.8","0.4","0.5384710229","0.5739960468","0.2381889698","0.5120039273","","","","","","","","","","","","74","J","1","","","225","main_expt",""
"","bandit","305","1897955","0.0-266.0-0.0","82185087","wem/bandit_either_3","A13WFFPE9L1QAB","either","6","905","","","","","","","0","1","0","","0.6038380469","0.2","0.6","0.8","0.4","0.5308581489","0.6038380469","0.1429230379","0.5568413113","","","","","","","","","","","","74","J","1","","","226","main_expt",""
"","bandit","306","1899935","0.0-267.0-0.0","82185087","wem/bandit_either_3","A13WFFPE9L1QAB","either","6","452","","","","","","","1","0","0","0.5203417309","","0.2","0.6","0.8","0.4","","","","","0.488482713","0.5203417309","0.124100867","0.5277183188","","","","","","","","74","J","1","","","227","main_expt",""
"","bandit","307","1902665","0.0-268.0-0.0","82185087","wem/bandit_either_3","A13WFFPE9L1QAB","either","6","1201","","","","","","","0","0","1","0.4263922038","","0.2","0.6","0.8","0.4","","","","","0.4406219513","0.4263922038","0.1762219884","0.5041270258","","","","","","","","74","J","1","","","228","main_expt",""
"","bandit","308","1904725","0.0-269.0-0.0","82185087","wem/bandit_either_3","A13WFFPE9L1QAB","either","6","531","","","","","","","1","0","0","0.3475105047","","0.2","0.6","0.8","0.4","","","","","0.4892119921","0.3475105047","0.1910325121","0.4541369304","","","","","","","","74","J","1","","","229","main_expt",""
"","bandit","309","1907276","0.0-270.0-0.0","82185087","wem/bandit_either_3","A13WFFPE9L1QAB","either","6","1021","","","","","","","0","0","1","0.3353007417","","0.2","0.6","0.8","0.4","","","","","0.5129573662","0.3353007417","0.2571549068","0.4504381994","","","","","","","","74","J","1","","","230","main_expt",""
"","bandit","310","1909394","0.0-271.0-0.0","82185087","wem/bandit_either_3","A13WFFPE9L1QAB","either","6","588","","","","","","","0","0","1","","0.2870546929","0.2","0.6","0.8","0.4","0.4382888871","0.2870546929","0.1781345747","0.4698668598","","","","","","","","","","","","74","J","1","","","231","main_expt",""
"","bandit","311","1911489","0.0-272.0-0.0","82185087","wem/bandit_either_3","A13WFFPE9L1QAB","either","6","563","","","","","","","0","0","1","0.3092655517","","0.2","0.6","0.8","0.4","","","","","0.42174841","0.3092655517","0.1748933913","0.5460008395","","","","","","","","74","J","1","","","232","main_expt",""
"","bandit","312","1913287","0.0-273.0-0.0","82185087","wem/bandit_either_3","A13WFFPE9L1QAB","either","6","269","","","","","","","0","0","1","","0.4231157335","0.2","0.6","0.8","0.4","0.4297142637","0.4231157335","0.2196371411","0.5345299581","","","","","","","","","","","","74","J","1","","","233","main_expt",""
"","bandit","313","1915250","0.0-274.0-0.0","82185087","wem/bandit_either_3","A13WFFPE9L1QAB","either","6","434","","","","","","","0","0","1","0.5525929145","","0.2","0.6","0.8","0.4","","","","","0.3016140143","0.5525929145","0.2052749597","0.508060833","","","","","","","","74","J","1","","","234","main_expt",""
"","bandit","314","1916946","0.0-275.0-0.0","82185087","wem/bandit_either_3","A13WFFPE9L1QAB","either","6","167","","","","","","","0","1","0","","0.2735586703","0.2","0.6","0.8","0.4","0.2735586703","0.7239072418","0.3158924645","0.4956589368","","","","","","","","","","","","72","H","0","img/none_selected.jpg","","235","main_expt",""
"","bandit","315","1918647","0.0-276.0-0.0","82185087","wem/bandit_either_3","A13WFFPE9L1QAB","either","6","174","","","","","","","0","0","1","0.2536827631","","0.2","0.6","0.8","0.4","","","","","0.2536827631","0.8076920848","0.3668106878","0.5514737959","","","","","","","","72","H","0","img/none_selected.jpg","","236","main_expt",""
"","bandit","316","1920178","0.0-277.0-0.0","82185087","wem/bandit_either_3","A13WFFPE9L1QAB","either","6","2","","","","","","","0","0","1","","0.2478783488","0.2","0.6","0.8","0.4","0.2478783488","0.7703095863","0.3866395083","0.5183580196","","","","","","","","","","","","72","H","0","img/none_selected.jpg","","237","main_expt",""
"","bandit","317","1921709","0.0-278.0-0.0","82185087","wem/bandit_either_3","A13WFFPE9L1QAB","either","6","2","","","","","","","0","0","1","0.1688186905","","0.2","0.6","0.8","0.4","","","","","0.1688186905","0.6485929649","0.4108821033","0.5320509842","","","","","","","","72","H","0","img/none_selected.jpg","","238","main_expt",""
"","bandit","318","1923898","0.0-279.0-0.0","82185087","wem/bandit_either_3","A13WFFPE9L1QAB","either","6","658","","","","","","","1","0","0","0.7028133827","","0.2","0.6","0.8","0.4","","","","","0.1232648298","0.7028133827","0.4384900471","0.46832295","","","","","","","","74","J","1","","","239","main_expt",""
"","bandit","319","1926336","0.0-280.0-0.0","82185087","wem/bandit_either_3","A13WFFPE9L1QAB","either","6","911","","","","","","","0","0","1","0.6620055833","","0.2","0.6","0.8","0.4","","","","","0.1720424997","0.6620055833","0.4246438665","0.5024711131","","","","","","","","74","J","1","","","240","main_expt",""
"","bandit","320","1929032","0.0-281.0-0.0","82185087","wem/bandit_either_3","A13WFFPE9L1QAB","either","6","1155","","","","","","","0","1","0","","0.6925250702","0.2","0.6","0.8","0.4","0.1045812876","0.6925250702","0.3783755671","0.6092933485","","","","","","","","","","","","74","J","1","","","241","main_expt",""
"","bandit","321","1930795","0.0-282.0-0.0","82185087","wem/bandit_either_3","A13WFFPE9L1QAB","either","6","233","","","","","","","0","1","0","","0.7076428944","0.2","0.6","0.8","0.4","0.08136382084","0.7076428944","0.3619864671","0.5812412386","","","","","","","","","","","","74","J","1","","","242","main_expt",""
"","bandit","322","1932917","0.0-283.0-0.0","82185087","wem/bandit_either_3","A13WFFPE9L1QAB","either","6","588","","","","","","","0","0","1","0.6671697692","","0.2","0.6","0.8","0.4","","","","","0.08711917736","0.6671697692","0.4143237557","0.5582769518","","","","","","","","74","J","1","","","243","main_expt",""
"","bandit","323","1934619","0.0-284.0-0.0","82185087","wem/bandit_either_3","A13WFFPE9L1QAB","either","6","172","","","","","","","0","0","1","0.6829807443","","0.2","0.6","0.8","0.4","","","","","0.07033008343","0.6829807443","0.3883911391","0.5728611736","","","","","","","","74","J","1","","","244","main_expt",""
"","bandit","324","1936197","0.0-285.0-0.0","82185087","wem/bandit_either_3","A13WFFPE9L1QAB","either","6","11","","","","","","","0","0","1","","0.6068076256","0.2","0.6","0.8","0.4","0.04273118291","0.6068076256","0.3724790504","0.4821733131","","","","","","","","","","","","74","J","1","","","245","main_expt",""
"","bandit","325","1938031","0.0-286.0-0.0","82185087","wem/bandit_either_3","A13WFFPE9L1QAB","either","6","305","","","","","","","0","0","1","0.4537085426","","0.2","0.6","0.8","0.4","","","","","0.04042754574","0.5724816315","0.4537085426","0.4114560805","","","","","","","","75","K","2","","","246","main_expt",""
"","bandit","326","1939712","0.0-287.0-0.0","82185087","wem/bandit_either_3","A13WFFPE9L1QAB","either","6","152","","","","","","","0","0","1","0.425160092","","0.2","0.6","0.8","0.4","","","","","0.03215760721","0.4878211017","0.4976516822","0.425160092","","","","","","","","76","L","3","","","247","main_expt",""
