"consent","trial_type","trial_index","time_elapsed","internal_node_id","subjID","study","MID","cond","drift","rt","responses","key_press","expt_phase","like","value","connected","gems","bombs","no_reward","GemPrChosen","BombPrChosen","GainOverPainPr_0","GainOverPainPr_1","GainOverPainPr_2","GainOverPainPr_3","LosePr_0","LosePr_1","LosePr_2","LosePr_3","WinPr_0","WinPr_1","WinPr_2","WinPr_3","Q0","Q1","Q2","gender","age","ethnicity","target","respCharCode","respKey","respChoiceNum","respChoice","practice","trial_counter","trial_label","button_pressed"
"INL_behavioral_consent_30min_online.html","consent","0","17160","0.0-0.0","86050768","wem/bandit_either_3","A13FUEPWBCLBUY","either","6","","","","","","","","","","","","","","","","","","","","","","","","","","","","","","","","","","","","","","",""
"","survey-text","1","20873","0.0-1.0","86050768","wem/bandit_either_3","A13FUEPWBCLBUY","either","6","2697","{""Q0"":""A13FUEPWBCLBUY""}","","","","","","","","","","","","","","","","","","","","","","","","","","","","","","","","","","","","",""
"","text","2","33285","0.0-2.0","86050768","wem/bandit_either_3","A13FUEPWBCLBUY","either","6","11407","","32","","","","","","","","","","","","","","","","","","","","","","","","","","","","","","","","","","","",""
"","text","3","41178","0.0-3.0","86050768","wem/bandit_either_3","A13FUEPWBCLBUY","either","6","7890","","32","","","","","","","","","","","","","","","","","","","","","","","","","","","","","","","","","","","",""
"","text","4","63272","0.0-4.0","86050768","wem/bandit_either_3","A13FUEPWBCLBUY","either","6","22092","","32","","","","","","","","","","","","","","","","","","","","","","","","","","","","","","","","","","","",""
"","text","5","77998","0.0-5.0","86050768","wem/bandit_either_3","A13FUEPWBCLBUY","either","6","14724","","32","","","","","","","","","","","","","","","","","","","","","","","","","","","","","","","","","","","",""
"","text","6","92499","0.0-6.0","86050768","wem/bandit_either_3","A13FUEPWBCLBUY","either","6","14498","","32","","","","","","","","","","","","","","","","","","","","","","","","","","","","","","","","","","","",""
"","text","7","99221","0.0-7.0","86050768","wem/bandit_either_3","A13FUEPWBCLBUY","either","6","6720","","32","","","","","","","","","","","","","","","","","","","","","","","","","","","","","","","","","","","",""
"","text","8","104580","0.0-8.0","86050768","wem/bandit_either_3","A13FUEPWBCLBUY","either","6","5357","","32","","","","","","","","","","","","","","","","","","","","","","","","","","","","","","","","","","","",""
"","identification","9","111951","0.0-9.0-0.0","86050768","wem/bandit_either_3","A13FUEPWBCLBUY","either","6","7344","","","","6","6","6","","","","","","","","","","","","","","","","","","","","","","","","the village of Zur","","","","","","","",""
"","identification","10","116815","0.0-9.0-1.0","86050768","wem/bandit_either_3","A13FUEPWBCLBUY","either","6","3849","","","","0","0","0","","","","","","","","","","","","","","","","","","","","","","","","the village of Nyx","","","","","","","",""
"","text","11","124090","0.0-10.0","86050768","wem/bandit_either_3","A13FUEPWBCLBUY","either","6","6272","","32","","","","","","","","","","","","","","","","","","","","","","","","","","","","","","","","","","","",""
"","text","12","126622","0.0-11.0","86050768","wem/bandit_either_3","A13FUEPWBCLBUY","either","6","2530","","32","","","","","","","","","","","","","","","","","","","","","","","","","","","","","","","","","","","",""
"","text","13","129192","0.0-12.0","86050768","wem/bandit_either_3","A13FUEPWBCLBUY","either","6","2568","","32","","","","","","","","","","","","","","","","","","","","","","","","","","","","","","","","","","","",""
"","text","14","134188","0.0-13.0","86050768","wem/bandit_either_3","A13FUEPWBCLBUY","either","6","4994","","32","","","","","","","","","","","","","","","","","","","","","","","","","","","","","","","","","","","",""
"","bandit","15","137572","0.0-14.0-0.0","86050768","wem/bandit_either_3","A13FUEPWBCLBUY","either","6","1870","","","","","","","0","0","1","0","0","","","","","0","","","","0","","","","","","","","","","","74","J","0","img/none_selected_demo.jpg","true","0","",""
"","bandit","16","143809","0.0-15.0-0.0","86050768","wem/bandit_either_3","A13FUEPWBCLBUY","either","6","4727","","","","","","","0","0","1","0","0","","","","","0","","","","0","","","","","","","","","","","75","K","0","img/none_selected_demo.jpg","true","0","",""
"","text","17","148801","0.0-16.0","86050768","wem/bandit_either_3","A13FUEPWBCLBUY","either","6","4990","","32","","","","","","","","","","","","","","","","","","","","","","","","","","","","","","","","","","","",""
"","text","18","153656","0.0-17.0","86050768","wem/bandit_either_3","A13FUEPWBCLBUY","either","6","4853","","32","","","","","","","","","","","","","","","","","","","","","","","","","","","","","","","","","","","",""
"","text","19","158686","0.0-18.0","86050768","wem/bandit_either_3","A13FUEPWBCLBUY","either","6","5027","","32","","","","","","","","","","","","","","","","","","","","","","","","","","","","","","","","","","","",""
"","text","20","161490","0.0-19.0","86050768","wem/bandit_either_3","A13FUEPWBCLBUY","either","6","2803","","32","","","","","","","","","","","","","","","","","","","","","","","","","","","","","","","","","","","",""
"","bandit","21","164597","0.0-20.0-0.0","86050768","wem/bandit_either_3","A13FUEPWBCLBUY","either","6","1599","","","","","","","0","1","0","","0.8","0.5","0.5","","","0.8","0.2","","","","","","","","","","","","","","74","J","0","img/none_selected_demo.jpg","true","0","80_20_practice",""
"","bandit","22","167099","0.0-20.0-1.0","86050768","wem/bandit_either_3","A13FUEPWBCLBUY","either","6","994","","","","","","","0","0","1","0.2","","0.5","0.5","","","","","","","0.8","0.2","","","","","","","","","","75","K","1","","true","0","80_20_practice",""
"","bandit","23","168922","0.0-20.0-2.0","86050768","wem/bandit_either_3","A13FUEPWBCLBUY","either","6","313","","","","","","","0","1","0","","0.2","0.5","0.5","","","0.8","0.2","","","","","","","","","","","","","","75","K","1","","true","0","80_20_practice",""
"","bandit","24","170967","0.0-20.0-3.0","86050768","wem/bandit_either_3","A13FUEPWBCLBUY","either","6","539","","","","","","","1","0","0","0.8","","0.5","0.5","","","","","","","0.8","0.2","","","","","","","","","","74","J","0","img/none_selected_demo.jpg","true","0","80_20_practice",""
"","bandit","25","172784","0.0-20.0-4.0","86050768","wem/bandit_either_3","A13FUEPWBCLBUY","either","6","309","","","","","","","0","0","1","","0.8","0.5","0.5","","","0.8","0.2","","","","","","","","","","","","","","74","J","0","img/none_selected_demo.jpg","true","0","80_20_practice",""
"","bandit","26","174566","0.0-20.0-5.0","86050768","wem/bandit_either_3","A13FUEPWBCLBUY","either","6","275","","","","","","","1","0","0","0.8","","0.5","0.5","","","","","","","0.8","0.2","","","","","","","","","","74","J","0","img/none_selected_demo.jpg","true","0","80_20_practice",""
"","bandit","27","176355","0.0-20.0-6.0","86050768","wem/bandit_either_3","A13FUEPWBCLBUY","either","6","281","","","","","","","1","0","0","0.8","","0.5","0.5","","","","","","","0.8","0.2","","","","","","","","","","74","J","0","img/none_selected_demo.jpg","true","0","80_20_practice",""
"","bandit","28","178122","0.0-20.0-7.0","86050768","wem/bandit_either_3","A13FUEPWBCLBUY","either","6","259","","","","","","","1","0","0","0.8","","0.5","0.5","","","","","","","0.8","0.2","","","","","","","","","","74","J","0","img/none_selected_demo.jpg","true","0","80_20_practice",""
"","bandit","29","179937","0.0-20.0-8.0","86050768","wem/bandit_either_3","A13FUEPWBCLBUY","either","6","307","","","","","","","1","0","0","0.8","","0.5","0.5","","","","","","","0.8","0.2","","","","","","","","","","74","J","0","img/none_selected_demo.jpg","true","0","80_20_practice",""
"","bandit","30","181899","0.0-20.0-9.0","86050768","wem/bandit_either_3","A13FUEPWBCLBUY","either","6","454","","","","","","","0","1","0","","0.8","0.5","0.5","","","0.8","0.2","","","","","","","","","","","","","","74","J","0","img/none_selected_demo.jpg","true","0","80_20_practice",""
"","bandit","31","183771","0.0-20.0-10.0","86050768","wem/bandit_either_3","A13FUEPWBCLBUY","either","6","365","","","","","","","0","1","0","","0.8","0.5","0.5","","","0.8","0.2","","","","","","","","","","","","","","74","J","0","img/none_selected_demo.jpg","true","0","80_20_practice",""
"","bandit","32","186301","0.0-20.0-11.0","86050768","wem/bandit_either_3","A13FUEPWBCLBUY","either","6","1021","","","","","","","1","0","0","0.8","","0.5","0.5","","","","","","","0.8","0.2","","","","","","","","","","74","J","0","img/none_selected_demo.jpg","true","0","80_20_practice",""
"","bandit","33","188192","0.0-20.0-12.0","86050768","wem/bandit_either_3","A13FUEPWBCLBUY","either","6","384","","","","","","","1","0","0","0.8","","0.5","0.5","","","","","","","0.8","0.2","","","","","","","","","","74","J","0","img/none_selected_demo.jpg","true","0","80_20_practice",""
"","bandit","34","189958","0.0-20.0-13.0","86050768","wem/bandit_either_3","A13FUEPWBCLBUY","either","6","258","","","","","","","1","0","0","0.8","","0.5","0.5","","","","","","","0.8","0.2","","","","","","","","","","74","J","0","img/none_selected_demo.jpg","true","0","80_20_practice",""
"","bandit","35","191746","0.0-20.0-14.0","86050768","wem/bandit_either_3","A13FUEPWBCLBUY","either","6","280","","","","","","","0","0","1","","0.8","0.5","0.5","","","0.8","0.2","","","","","","","","","","","","","","74","J","0","img/none_selected_demo.jpg","true","0","80_20_practice",""
"","bandit","36","193784","0.0-20.0-15.0","86050768","wem/bandit_either_3","A13FUEPWBCLBUY","either","6","531","","","","","","","0","1","0","","0.8","0.5","0.5","","","0.8","0.2","","","","","","","","","","","","","","74","J","0","img/none_selected_demo.jpg","true","0","80_20_practice",""
"","bandit","37","195591","0.0-20.0-16.0","86050768","wem/bandit_either_3","A13FUEPWBCLBUY","either","6","297","","","","","","","1","0","0","0.8","","0.5","0.5","","","","","","","0.8","0.2","","","","","","","","","","74","J","0","img/none_selected_demo.jpg","true","0","80_20_practice",""
"","bandit","38","197445","0.0-20.0-17.0","86050768","wem/bandit_either_3","A13FUEPWBCLBUY","either","6","342","","","","","","","1","0","0","0.8","","0.5","0.5","","","","","","","0.8","0.2","","","","","","","","","","74","J","0","img/none_selected_demo.jpg","true","0","80_20_practice",""
"","bandit","39","199347","0.0-20.0-18.0","86050768","wem/bandit_either_3","A13FUEPWBCLBUY","either","6","390","","","","","","","0","1","0","","0.8","0.5","0.5","","","0.8","0.2","","","","","","","","","","","","","","74","J","0","img/none_selected_demo.jpg","true","0","80_20_practice",""
"","bandit","40","201825","0.0-20.0-19.0","86050768","wem/bandit_either_3","A13FUEPWBCLBUY","either","6","970","","","","","","","0","1","0","","0.8","0.5","0.5","","","0.8","0.2","","","","","","","","","","","","","","74","J","0","img/none_selected_demo.jpg","true","0","80_20_practice",""
"","text","41","207898","0.0-21.0","86050768","wem/bandit_either_3","A13FUEPWBCLBUY","either","6","6070","","32","","","","","","","","","","","","","","","","","","","","","","","","","","","","","","","","","","","",""
"","bandit","42","210881","0.0-22.0-0.0","86050768","wem/bandit_either_3","A13FUEPWBCLBUY","either","6","1474","","","","","","","1","0","0","1","0","","","","","0","1","","","1","0","","","","","","","","","","74","J","0","img/none_selected_demo.jpg","true","0","",""
"","text","43","214621","0.0-23.0","86050768","wem/bandit_either_3","A13FUEPWBCLBUY","either","6","3736","","32","","","","","","","","","","","","","","","","","","","","","","","","","","","","","","","","","","","",""
"","text","44","219732","0.0-24.0","86050768","wem/bandit_either_3","A13FUEPWBCLBUY","either","6","5108","","32","","","","","","","","","","","","","","","","","","","","","","","","","","","","","","","","","","","",""
"","text","45","222350","0.0-25.0","86050768","wem/bandit_either_3","A13FUEPWBCLBUY","either","6","2615","","32","","","","","","","","","","","","","","","","","","","","","","","","","","","","","","","","","","","",""
"","text","46","225519","0.0-26.0","86050768","wem/bandit_either_3","A13FUEPWBCLBUY","either","6","3165","","32","","","","","","","","","","","","","","","","","","","","","","","","","","","","","","","","","","","",""
"","text","47","229440","0.0-27.0","86050768","wem/bandit_either_3","A13FUEPWBCLBUY","either","6","3918","","32","","","","","","","","","","","","","","","","","","","","","","","","","","","","","","","","","","","",""
"","text","48","230591","0.0-28.0","86050768","wem/bandit_either_3","A13FUEPWBCLBUY","either","6","1148","","32","","","","","","","","","","","","","","","","","","","","","","","","","","","","","","","","","","","",""
"","text","49","231691","0.0-29.0","86050768","wem/bandit_either_3","A13FUEPWBCLBUY","either","6","1097","","32","","","","","","","","","","","","","","","","","","","","","","","","","","","","","","","","","","","",""
"","text","50","235607","0.0-30.0","86050768","wem/bandit_either_3","A13FUEPWBCLBUY","either","6","3913","","32","","","","","","","","","","","","","","","","","","","","","","","","","","","","","","","","","","","",""
"","text","51","242611","0.0-31.0","86050768","wem/bandit_either_3","A13FUEPWBCLBUY","either","6","7001","","32","","","","","","","","","","","","","","","","","","","","","","","","","","","","","","","","","","","",""
"","text","52","244035","0.0-32.0","86050768","wem/bandit_either_3","A13FUEPWBCLBUY","either","6","1421","","32","","","","","","","","","","","","","","","","","","","","","","","","","","","","","","","","","","","",""
"","text","53","247530","0.0-33.0","86050768","wem/bandit_either_3","A13FUEPWBCLBUY","either","6","3492","","32","","","","","","","","","","","","","","","","","","","","","","","","","","","","","","","","","","","",""
"","bandit","54","249858","0.0-34.0-0.0","86050768","wem/bandit_either_3","A13FUEPWBCLBUY","either","6","820","","","","","","","0","1","0","","0.8","0.5","0.5","0.5","0.5","0.8","0.2","0.6","0.2","","","","","","","","","","","","72","H","0","img/none_selected.jpg","true","0","full_practice",""
"","bandit","55","252192","0.0-34.0-1.0","86050768","wem/bandit_either_3","A13FUEPWBCLBUY","either","6","824","","","","","","","0","1","0","","0.8","0.5","0.5","0.5","0.5","0.8","0.2","0.6","0.2","","","","","","","","","","","","72","H","0","img/none_selected.jpg","true","0","full_practice",""
"","bandit","56","254112","0.0-34.0-2.0","86050768","wem/bandit_either_3","A13FUEPWBCLBUY","either","6","412","","","","","","","0","0","1","","0.2","0.5","0.5","0.5","0.5","0.8","0.2","0.6","0.2","","","","","","","","","","","","74","J","1","","true","0","full_practice",""
"","bandit","57","255965","0.0-34.0-3.0","86050768","wem/bandit_either_3","A13FUEPWBCLBUY","either","6","337","","","","","","","0","0","1","0.2","","0.5","0.5","0.5","0.5","","","","","0.8","0.2","0.6","0.2","","","","","","","","74","J","1","","true","0","full_practice",""
"","bandit","58","257938","0.0-34.0-4.0","86050768","wem/bandit_either_3","A13FUEPWBCLBUY","either","6","464","","","","","","","1","0","0","0.2","","0.5","0.5","0.5","0.5","","","","","0.8","0.2","0.6","0.2","","","","","","","","74","J","1","","true","0","full_practice",""
"","bandit","59","259784","0.0-34.0-5.0","86050768","wem/bandit_either_3","A13FUEPWBCLBUY","either","6","337","","","","","","","0","0","1","","0.2","0.5","0.5","0.5","0.5","0.8","0.2","0.6","0.2","","","","","","","","","","","","74","J","1","","true","0","full_practice",""
"","bandit","60","261576","0.0-34.0-6.0","86050768","wem/bandit_either_3","A13FUEPWBCLBUY","either","6","283","","","","","","","1","0","0","0.2","","0.5","0.5","0.5","0.5","","","","","0.8","0.2","0.6","0.2","","","","","","","","74","J","1","","true","0","full_practice",""
"","bandit","61","263393","0.0-34.0-7.0","86050768","wem/bandit_either_3","A13FUEPWBCLBUY","either","6","308","","","","","","","0","0","1","0.2","","0.5","0.5","0.5","0.5","","","","","0.8","0.2","0.6","0.2","","","","","","","","74","J","1","","true","0","full_practice",""
"","bandit","62","265299","0.0-34.0-8.0","86050768","wem/bandit_either_3","A13FUEPWBCLBUY","either","6","397","","","","","","","0","0","1","0.2","","0.5","0.5","0.5","0.5","","","","","0.8","0.2","0.6","0.2","","","","","","","","74","J","1","","true","0","full_practice",""
"","bandit","63","267073","0.0-34.0-9.0","86050768","wem/bandit_either_3","A13FUEPWBCLBUY","either","6","265","","","","","","","0","0","1","0.2","","0.5","0.5","0.5","0.5","","","","","0.8","0.2","0.6","0.2","","","","","","","","74","J","1","","true","0","full_practice",""
"","bandit","64","268725","0.0-34.0-10.0","86050768","wem/bandit_either_3","A13FUEPWBCLBUY","either","6","142","","","","","","","0","1","0","","0.6","0.5","0.5","0.5","0.5","0.8","0.2","0.6","0.2","","","","","","","","","","","","75","K","2","","true","0","full_practice",""
"","bandit","65","270615","0.0-34.0-11.0","86050768","wem/bandit_either_3","A13FUEPWBCLBUY","either","6","381","","","","","","","1","0","0","0.6","","0.5","0.5","0.5","0.5","","","","","0.8","0.2","0.6","0.2","","","","","","","","75","K","2","","true","0","full_practice",""
"","bandit","66","272459","0.0-34.0-12.0","86050768","wem/bandit_either_3","A13FUEPWBCLBUY","either","6","334","","","","","","","0","1","0","","0.6","0.5","0.5","0.5","0.5","0.8","0.2","0.6","0.2","","","","","","","","","","","","75","K","2","","true","0","full_practice",""
"","bandit","67","274608","0.0-34.0-13.0","86050768","wem/bandit_either_3","A13FUEPWBCLBUY","either","6","640","","","","","","","0","0","1","0.2","","0.5","0.5","0.5","0.5","","","","","0.8","0.2","0.6","0.2","","","","","","","","76","L","3","","true","0","full_practice",""
"","bandit","68","276332","0.0-34.0-14.0","86050768","wem/bandit_either_3","A13FUEPWBCLBUY","either","6","213","","","","","","","0","0","1","","0.2","0.5","0.5","0.5","0.5","0.8","0.2","0.6","0.2","","","","","","","","","","","","76","L","3","","true","0","full_practice",""
"","bandit","69","277886","0.0-34.0-15.0","86050768","wem/bandit_either_3","A13FUEPWBCLBUY","either","6","44","","","","","","","0","0","1","","0.2","0.5","0.5","0.5","0.5","0.8","0.2","0.6","0.2","","","","","","","","","","","","76","L","3","","true","0","full_practice",""
"","bandit","70","279518","0.0-34.0-16.0","86050768","wem/bandit_either_3","A13FUEPWBCLBUY","either","6","122","","","","","","","0","1","0","","0.2","0.5","0.5","0.5","0.5","0.8","0.2","0.6","0.2","","","","","","","","","","","","76","L","3","","true","0","full_practice",""
"","bandit","71","281357","0.0-34.0-17.0","86050768","wem/bandit_either_3","A13FUEPWBCLBUY","either","6","329","","","","","","","0","0","1","","0.2","0.5","0.5","0.5","0.5","0.8","0.2","0.6","0.2","","","","","","","","","","","","76","L","3","","true","0","full_practice",""
"","bandit","72","282974","0.0-34.0-18.0","86050768","wem/bandit_either_3","A13FUEPWBCLBUY","either","6","108","","","","","","","0","0","1","","0.6","0.5","0.5","0.5","0.5","0.8","0.2","0.6","0.2","","","","","","","","","","","","75","K","2","","true","0","full_practice",""
"","bandit","73","285110","0.0-34.0-19.0","86050768","wem/bandit_either_3","A13FUEPWBCLBUY","either","6","630","","","","","","","0","0","1","0.6","","0.5","0.5","0.5","0.5","","","","","0.8","0.2","0.6","0.2","","","","","","","","75","K","2","","true","0","full_practice",""
"","text","74","287385","0.0-35.0","86050768","wem/bandit_either_3","A13FUEPWBCLBUY","either","6","2265","","32","","","","","","","","","","","","","","","","","","","","","","","","","","","","","","","","","","","",""
"","text","75","299288","0.0-36.0","86050768","wem/bandit_either_3","A13FUEPWBCLBUY","either","6","10899","","32","","","","","","","","","","","","","","","","","","","","","","","","","","","","","","","","","","","",""
"","text","76","301462","0.0-37.0","86050768","wem/bandit_either_3","A13FUEPWBCLBUY","either","6","2169","","32","","","","","","","","","","","","","","","","","","","","","","","","","","","","","","","","","","","",""
"","text","77","308903","0.0-38.0","86050768","wem/bandit_either_3","A13FUEPWBCLBUY","either","6","7436","","32","","","","","","","","","","","","","","","","","","","","","","","","","","","","","","","","","","","",""
"","text","78","316101","0.0-39.0","86050768","wem/bandit_either_3","A13FUEPWBCLBUY","either","6","7193","","32","","","","","","","","","","","","","","","","","","","","","","","","","","","","","","","","","","","",""
"","text","79","320575","0.0-40.0","86050768","wem/bandit_either_3","A13FUEPWBCLBUY","either","6","4470","","32","","","","","","","","","","","","","","","","","","","","","","","","","","","","","","","","","","","",""
"","bandit","80","323749","0.0-41.0-0.0","86050768","wem/bandit_either_3","A13FUEPWBCLBUY","either","6","1665","","","","","","","0","1","0","","0.7197236342","0.4","0.6","0.8","0.2","0.7197236342","0.3049938501","0.1947351938","0.2309914537","","","","","","","","","","","","72","H","0","img/none_selected.jpg","","1","main_expt",""
"","bandit","81","325589","0.0-42.0-0.0","86050768","wem/bandit_either_3","A13FUEPWBCLBUY","either","6","329","","","","","","","0","0","1","0.7453792406","","0.4","0.6","0.8","0.2","","","","","0.7453792406","0.3105507028","0.1865171684","0.2351366282","","","","","","","","72","H","0","img/none_selected.jpg","","2","main_expt",""
"","bandit","82","327433","0.0-43.0-0.0","86050768","wem/bandit_either_3","A13FUEPWBCLBUY","either","6","332","","","","","","","0","0","1","","0.7422746785","0.4","0.6","0.8","0.2","0.7422746785","0.347932066","0.1578482069","0.3338792953","","","","","","","","","","","","72","H","0","img/none_selected.jpg","","3","main_expt",""
"","bandit","83","329321","0.0-44.0-0.0","86050768","wem/bandit_either_3","A13FUEPWBCLBUY","either","6","378","","","","","","","0","1","0","","0.294099503","0.4","0.6","0.8","0.2","0.8152876082","0.294099503","0.1733557992","0.2578124611","","","","","","","","","","","","74","J","1","","","4","main_expt",""
"","bandit","84","331123","0.0-45.0-0.0","86050768","wem/bandit_either_3","A13FUEPWBCLBUY","either","6","292","","","","","","","1","0","0","0.256228135","","0.4","0.6","0.8","0.2","","","","","0.8494846052","0.256228135","0.1275681293","0.152782507","","","","","","","","74","J","1","","","5","main_expt",""
"","bandit","85","332939","0.0-46.0-0.0","86050768","wem/bandit_either_3","A13FUEPWBCLBUY","either","6","306","","","","","","","0","0","1","","0.3142053347","0.4","0.6","0.8","0.2","0.8036792828","0.3142053347","0.1776351543","0.200224935","","","","","","","","","","","","74","J","1","","","6","main_expt",""
"","bandit","86","334751","0.0-47.0-0.0","86050768","wem/bandit_either_3","A13FUEPWBCLBUY","either","6","301","","","","","","","0","0","1","","0.2382568898","0.4","0.6","0.8","0.2","0.8659664865","0.2382568898","0.1412615145","0.2200442108","","","","","","","","","","","","74","J","1","","","7","main_expt",""
"","bandit","87","336520","0.0-48.0-0.0","86050768","wem/bandit_either_3","A13FUEPWBCLBUY","either","6","259","","","","","","","1","0","0","0.220471749","","0.4","0.6","0.8","0.2","","","","","0.8475436228","0.220471749","0.1508054742","0.1516915951","","","","","","","","74","J","1","","","8","main_expt",""
"","bandit","88","338321","0.0-49.0-0.0","86050768","wem/bandit_either_3","A13FUEPWBCLBUY","either","6","290","","","","","","","1","0","0","0.2842820234","","0.4","0.6","0.8","0.2","","","","","0.8034999265","0.2842820234","0.1882404854","0.1468829212","","","","","","","","74","J","1","","","9","main_expt",""
"","bandit","89","340114","0.0-50.0-0.0","86050768","wem/bandit_either_3","A13FUEPWBCLBUY","either","6","284","","","","","","","0","0","1","0.3392415315","","0.4","0.6","0.8","0.2","","","","","0.7148412232","0.3392415315","0.1731305678","0.1507643719","","","","","","","","74","J","1","","","10","main_expt",""
"","bandit","90","342330","0.0-51.0-0.0","86050768","wem/bandit_either_3","A13FUEPWBCLBUY","either","6","704","","","","","","","0","0","1","0.4470346709","","0.4","0.6","0.8","0.2","","","","","0.7213030285","0.4470346709","0.2475279461","0.18301","","","","","","","","74","J","1","","","11","main_expt",""
"","bandit","91","344026","0.0-52.0-0.0","86050768","wem/bandit_either_3","A13FUEPWBCLBUY","either","6","183","","","","","","","0","0","1","0.5143820195","","0.4","0.6","0.8","0.2","","","","","0.7396148754","0.5143820195","0.2068792089","0.209562337","","","","","","","","74","J","1","","","12","main_expt",""
"","bandit","92","345813","0.0-53.0-0.0","86050768","wem/bandit_either_3","A13FUEPWBCLBUY","either","6","277","","","","","","","0","0","1","","0.4934308908","0.4","0.6","0.8","0.2","0.6870781676","0.4934308908","0.1594062408","0.2133897639","","","","","","","","","","","","74","J","1","","","13","main_expt",""
"","bandit","93","347573","0.0-54.0-0.0","86050768","wem/bandit_either_3","A13FUEPWBCLBUY","either","6","246","","","","","","","0","0","1","","0.5884397519","0.4","0.6","0.8","0.2","0.6561171826","0.5884397519","0.1808320347","0.1865122749","","","","","","","","","","","","74","J","1","","","14","main_expt",""
"","bandit","94","349336","0.0-55.0-0.0","86050768","wem/bandit_either_3","A13FUEPWBCLBUY","either","6","253","","","","","","","0","0","1","0.2401125286","","0.4","0.6","0.8","0.2","","","","","0.6255101569","0.425765204","0.2401125286","0.3169691733","","","","","","","","75","K","2","","","15","main_expt",""
"","bandit","95","351150","0.0-56.0-0.0","86050768","wem/bandit_either_3","A13FUEPWBCLBUY","either","6","304","","","","","","","0","0","1","","0.1823220599","0.4","0.6","0.8","0.2","0.6101220295","0.4458974369","0.1823220599","0.3927767979","","","","","","","","","","","","75","K","2","","","16","main_expt",""
"","bandit","96","352892","0.0-57.0-0.0","86050768","wem/bandit_either_3","A13FUEPWBCLBUY","either","6","232","","","","","","","1","0","0","0.2076179308","","0.4","0.6","0.8","0.2","","","","","0.6233337625","0.4907358526","0.2076179308","0.2882183284","","","","","","","","75","K","2","","","17","main_expt",""
"","bandit","97","354640","0.0-58.0-0.0","86050768","wem/bandit_either_3","A13FUEPWBCLBUY","either","6","233","","","","","","","1","0","0","0.2310064443","","0.4","0.6","0.8","0.2","","","","","0.598865074","0.4895096529","0.2310064443","0.3212622409","","","","","","","","75","K","2","","","18","main_expt",""
"","bandit","98","356484","0.0-59.0-0.0","86050768","wem/bandit_either_3","A13FUEPWBCLBUY","either","6","327","","","","","","","0","0","1","0.1919199612","","0.4","0.6","0.8","0.2","","","","","0.6318918302","0.5437378015","0.1919199612","0.3678238944","","","","","","","","75","K","2","","","19","main_expt",""
"","bandit","99","358953","0.0-60.0-0.0","86050768","wem/bandit_either_3","A13FUEPWBCLBUY","either","6","952","","","","","","","0","1","0","","0.2150176637","0.4","0.6","0.8","0.2","0.5667690756","0.543071052","0.2150176637","0.4357360734","","","","","","","","","","","","75","K","2","","","20","main_expt",""
"","bandit","100","360777","0.0-61.0-0.0","86050768","wem/bandit_either_3","A13FUEPWBCLBUY","either","6","307","","","","","","","1","0","0","0.2980309021","","0.4","0.6","0.8","0.2","","","","","0.6364396753","0.5457928974","0.2980309021","0.4486518506","","","","","","","","75","K","2","","","21","main_expt",""
"","bandit","101","362615","0.0-62.0-0.0","86050768","wem/bandit_either_3","A13FUEPWBCLBUY","either","6","327","","","","","","","0","0","1","","0.3238742104","0.4","0.6","0.8","0.2","0.5563436533","0.4531799458","0.3238742104","0.5145372488","","","","","","","","","","","","75","K","2","","","22","main_expt",""
"","bandit","102","364545","0.0-63.0-0.0","86050768","wem/bandit_either_3","A13FUEPWBCLBUY","either","6","421","","","","","","","0","0","1","0.4158928209","","0.4","0.6","0.8","0.2","","","","","0.4555064456","0.4321579995","0.4158928209","0.6324996067","","","","","","","","75","K","2","","","23","main_expt",""
"","bandit","103","366439","0.0-64.0-0.0","86050768","wem/bandit_either_3","A13FUEPWBCLBUY","either","6","385","","","","","","","0","0","1","0.2798670784","","0.4","0.6","0.8","0.2","","","","","0.4398961724","0.3892872195","0.2798670784","0.6665025749","","","","","","","","75","K","2","","","24","main_expt",""
"","bandit","104","369038","0.0-65.0-0.0","86050768","wem/bandit_either_3","A13FUEPWBCLBUY","either","6","1090","","","","","","","0","0","1","0.3932164435","","0.4","0.6","0.8","0.2","","","","","0.3810464824","0.4322880781","0.3932164435","0.5316582614","","","","","","","","75","K","2","","","25","main_expt",""
"","bandit","105","372839","0.0-66.0-0.0","86050768","wem/bandit_either_3","A13FUEPWBCLBUY","either","6","2290","","","","","","","1","0","0","0.3243459504","","0.4","0.6","0.8","0.2","","","","","0.451695138","0.4560392573","0.3243459504","0.4282094451","","","","","","","","75","K","2","","","26","main_expt",""
"","bandit","106","375646","0.0-67.0-0.0","86050768","wem/bandit_either_3","A13FUEPWBCLBUY","either","6","1292","","","","","","","0","1","0","","0.4266302179","0.4","0.6","0.8","0.2","0.4423729324","0.5372901799","0.4266302179","0.4711380508","","","","","","","","","","","","75","K","2","","","27","main_expt",""
"","bandit","107","377495","0.0-68.0-0.0","86050768","wem/bandit_either_3","A13FUEPWBCLBUY","either","6","339","","","","","","","0","0","1","0.4206607535","","0.4","0.6","0.8","0.2","","","","","0.4221124674","0.6619872032","0.4206607535","0.4539290932","","","","","","","","75","K","2","","","28","main_expt",""
"","bandit","108","380797","0.0-69.0-0.0","86050768","wem/bandit_either_3","A13FUEPWBCLBUY","either","6","1791","","","","","","","0","0","1","0.440099583","","0.4","0.6","0.8","0.2","","","","","0.489207998","0.5939885142","0.440099583","0.4378511583","","","","","","","","75","K","2","","","29","main_expt",""
"","bandit","109","382700","0.0-70.0-0.0","86050768","wem/bandit_either_3","A13FUEPWBCLBUY","either","6","393","","","","","","","0","0","1","","0.3425428874","0.4","0.6","0.8","0.2","0.4406356357","0.5602145404","0.3982168329","0.3425428874","","","","","","","","","","","","76","L","3","","","30","main_expt",""
"","bandit","110","384580","0.0-71.0-0.0","86050768","wem/bandit_either_3","A13FUEPWBCLBUY","either","6","368","","","","","","","0","1","0","","0.2354865125","0.4","0.6","0.8","0.2","0.484130952","0.5376870091","0.3573437221","0.2354865125","","","","","","","","","","","","76","L","3","","","31","main_expt",""
"","bandit","111","386380","0.0-72.0-0.0","86050768","wem/bandit_either_3","A13FUEPWBCLBUY","either","6","289","","","","","","","0","0","1","","0.2552437171","0.4","0.6","0.8","0.2","0.432294219","0.6346195819","0.3712986889","0.2552437171","","","","","","","","","","","","76","L","3","","","32","main_expt",""
"","bandit","112","388301","0.0-73.0-0.0","86050768","wem/bandit_either_3","A13FUEPWBCLBUY","either","6","411","","","","","","","0","0","1","","0.2470382599","0.4","0.6","0.8","0.2","0.4821309474","0.7540961955","0.45096985","0.2470382599","","","","","","","","","","","","76","L","3","","","33","main_expt",""
"","bandit","113","389917","0.0-74.0-0.0","86050768","wem/bandit_either_3","A13FUEPWBCLBUY","either","6","105","","","","","","","0","0","1","","0.2951894024","0.4","0.6","0.8","0.2","0.4702474349","0.699797925","0.5559331637","0.2951894024","","","","","","","","","","","","76","L","3","","","34","main_expt",""
"","bandit","114","391590","0.0-75.0-0.0","86050768","wem/bandit_either_3","A13FUEPWBCLBUY","either","6","162","","","","","","","0","0","1","","0.2596626779","0.4","0.6","0.8","0.2","0.5363697359","0.7410295452","0.7354386419","0.2596626779","","","","","","","","","","","","76","L","3","","","35","main_expt",""
"","bandit","115","393230","0.0-76.0-0.0","86050768","wem/bandit_either_3","A13FUEPWBCLBUY","either","6","130","","","","","","","0","0","1","","0.6934166837","0.4","0.6","0.8","0.2","0.602250539","0.7332281969","0.6934166837","0.3164764808","","","","","","","","","","","","75","K","2","","","36","main_expt",""
"","bandit","116","394795","0.0-77.0-0.0","86050768","wem/bandit_either_3","A13FUEPWBCLBUY","either","6","51","","","","","","","1","0","0","0.6311869688","","0.4","0.6","0.8","0.2","","","","","0.5337433964","0.736713329","0.6311869688","0.3672962009","","","","","","","","75","K","2","","","37","main_expt",""
"","bandit","117","396569","0.0-78.0-0.0","86050768","wem/bandit_either_3","A13FUEPWBCLBUY","either","6","263","","","","","","","1","0","0","0.6583504975","","0.4","0.6","0.8","0.2","","","","","0.5970413872","0.6860808007","0.6583504975","0.4056598401","","","","","","","","75","K","2","","","38","main_expt",""
"","bandit","118","398100","0.0-79.0-0.0","86050768","wem/bandit_either_3","A13FUEPWBCLBUY","either","6","15","","","","","","","0","0","1","0.5861321806","","0.4","0.6","0.8","0.2","","","","","0.6529448079","0.7498761973","0.5861321806","0.4236995386","","","","","","","","75","K","2","","","39","main_expt",""
"","bandit","119","400536","0.0-80.0-0.0","86050768","wem/bandit_either_3","A13FUEPWBCLBUY","either","6","925","","","","","","","1","0","0","0.4892836735","","0.4","0.6","0.8","0.2","","","","","0.6612991154","0.7043283504","0.4892836735","0.4365163158","","","","","","","","75","K","2","","","40","main_expt",""
"","bandit","120","402715","0.0-81.0-0.0","86050768","wem/bandit_either_3","A13FUEPWBCLBUY","either","6","668","","","","","","","0","0","1","0.3479900608","","0.4","0.6","0.8","0.2","","","","","0.7390431107","0.6469690382","0.3479900608","0.4854269132","","","","","","","","75","K","2","","","41","main_expt",""
"","bandit","121","404723","0.0-82.0-0.0","86050768","wem/bandit_either_3","A13FUEPWBCLBUY","either","6","501","","","","","","","0","1","0","","0.376709287","0.4","0.6","0.8","0.2","0.7609423287","0.6388905256","0.376709287","0.4753587859","","","","","","","","","","","","75","K","2","","","42","main_expt",""
"","bandit","122","406251","0.0-83.0-0.0","86050768","wem/bandit_either_3","A13FUEPWBCLBUY","either","6","18","","","","","","","0","0","1","","0.4319300722","0.4","0.6","0.8","0.2","0.8039673949","0.6383372244","0.4319300722","0.452202747","","","","","","","","","","","","75","K","2","","","43","main_expt",""
"","bandit","123","408504","0.0-84.0-0.0","86050768","wem/bandit_either_3","A13FUEPWBCLBUY","either","6","740","","","","","","","0","0","1","0.4458636389","","0.4","0.6","0.8","0.2","","","","","0.8216753652","0.6247854939","0.4458636389","0.5522191005","","","","","","","","75","K","2","","","44","main_expt",""
"","bandit","124","410641","0.0-85.0-0.0","86050768","wem/bandit_either_3","A13FUEPWBCLBUY","either","6","625","","","","","","","1","0","0","0.4323480181","","0.4","0.6","0.8","0.2","","","","","0.7636866317","0.6341880498","0.4323480181","0.4878962787","","","","","","","","75","K","2","","","45","main_expt",""
"","bandit","125","412597","0.0-86.0-0.0","86050768","wem/bandit_either_3","A13FUEPWBCLBUY","either","6","446","","","","","","","0","0","1","0.4348202433","","0.4","0.6","0.8","0.2","","","","","0.8203755575","0.5081310512","0.4348202433","0.487595293","","","","","","","","75","K","2","","","46","main_expt",""
"","bandit","126","414945","0.0-87.0-0.0","86050768","wem/bandit_either_3","A13FUEPWBCLBUY","either","6","836","","","","","","","0","0","1","0.3430847618","","0.4","0.6","0.8","0.2","","","","","0.8706375764","0.4202927251","0.3430847618","0.444754188","","","","","","","","75","K","2","","","47","main_expt",""
"","bandit","127","416667","0.0-88.0-0.0","86050768","wem/bandit_either_3","A13FUEPWBCLBUY","either","6","210","","","","","","","0","0","1","0.2601977795","","0.4","0.6","0.8","0.2","","","","","0.8019506245","0.4767868938","0.2601977795","0.5044276746","","","","","","","","75","K","2","","","48","main_expt",""
"","bandit","128","418505","0.0-89.0-0.0","86050768","wem/bandit_either_3","A13FUEPWBCLBUY","either","6","325","","","","","","","0","0","1","0.2368144698","","0.4","0.6","0.8","0.2","","","","","0.7331224435","0.3749468019","0.2368144698","0.3766714482","","","","","","","","75","K","2","","","49","main_expt",""
"","bandit","129","420213","0.0-90.0-0.0","86050768","wem/bandit_either_3","A13FUEPWBCLBUY","either","6","196","","","","","","","1","0","0","0.2484527115","","0.4","0.6","0.8","0.2","","","","","0.7908344101","0.3532902347","0.2484527115","0.406992786","","","","","","","","75","K","2","","","50","main_expt",""
"","bandit","130","422008","0.0-91.0-0.0","86050768","wem/bandit_either_3","A13FUEPWBCLBUY","either","6","284","","","","","","","0","0","1","0.230268934","","0.4","0.6","0.8","0.2","","","","","0.7922828235","0.2413466802","0.230268934","0.3854505747","","","","","","","","75","K","2","","","51","main_expt",""
"","bandit","131","423734","0.0-92.0-0.0","86050768","wem/bandit_either_3","A13FUEPWBCLBUY","either","6","212","","","","","","","0","0","1","","0.3429002399","0.4","0.6","0.8","0.2","0.7485378942","0.2673723166","0.3429002399","0.3956915145","","","","","","","","","","","","75","K","2","","","52","main_expt",""
"","bandit","132","425327","0.0-93.0-0.0","86050768","wem/bandit_either_3","A13FUEPWBCLBUY","either","6","80","","","","","","","0","1","0","","0.2806035608","0.4","0.6","0.8","0.2","0.6603794952","0.2806035608","0.2871029552","0.3062348001","","","","","","","","","","","","74","J","1","","","53","main_expt",""
"","bandit","133","427081","0.0-94.0-0.0","86050768","wem/bandit_either_3","A13FUEPWBCLBUY","either","6","242","","","","","","","0","0","1","","0.2544312064","0.4","0.6","0.8","0.2","0.6931449795","0.2544312064","0.2594444468","0.2996500993","","","","","","","","","","","","74","J","1","","","54","main_expt",""
"","bandit","134","428762","0.0-95.0-0.0","86050768","wem/bandit_either_3","A13FUEPWBCLBUY","either","6","170","","","","","","","0","0","1","0.3362815808","","0.4","0.6","0.8","0.2","","","","","0.7553272845","0.3362815808","0.3333749245","0.2518247787","","","","","","","","74","J","1","","","55","main_expt",""
"","bandit","135","430428","0.0-96.0-0.0","86050768","wem/bandit_either_3","A13FUEPWBCLBUY","either","6","151","","","","","","","0","1","0","","0.3798256012","0.4","0.6","0.8","0.2","0.7231548626","0.3798256012","0.3049104067","0.3014763065","","","","","","","","","","","","74","J","1","","","56","main_expt",""
"","bandit","136","432156","0.0-97.0-0.0","86050768","wem/bandit_either_3","A13FUEPWBCLBUY","either","6","215","","","","","","","0","0","1","","0.7485901337","0.4","0.6","0.8","0.2","0.7485901337","0.3989549393","0.3623273811","0.2730843718","","","","","","","","","","","","72","H","0","img/none_selected.jpg","","57","main_expt",""
"","bandit","137","433668","0.0-98.0-0.0","86050768","wem/bandit_either_3","A13FUEPWBCLBUY","either","6","0","","","","","","","0","1","0","","0.797082508","0.4","0.6","0.8","0.2","0.797082508","0.3373398956","0.3621169042","0.367239041","","","","","","","","","","","","72","H","0","img/none_selected.jpg","","58","main_expt",""
"","bandit","138","435238","0.0-99.0-0.0","86050768","wem/bandit_either_3","A13FUEPWBCLBUY","either","6","59","","","","","","","1","0","0","0.7466963627","","0.4","0.6","0.8","0.2","","","","","0.7466963627","0.3381045731","0.3672848169","0.4005220403","","","","","","","","72","H","0","img/none_selected.jpg","","59","main_expt",""
"","bandit","139","436898","0.0-100.0-0.0","86050768","wem/bandit_either_3","A13FUEPWBCLBUY","either","6","147","","","","","","","0","0","1","","0.6359615323","0.4","0.6","0.8","0.2","0.6359615323","0.4838111383","0.5123874715","0.4863912708","","","","","","","","","","","","72","H","0","img/none_selected.jpg","","60","main_expt",""
"","bandit","140","438595","0.0-101.0-0.0","86050768","wem/bandit_either_3","A13FUEPWBCLBUY","either","6","183","","","","","","","0","0","1","0.7125939799","","0.4","0.6","0.8","0.2","","","","","0.7125939799","0.4290776342","0.5218319631","0.5220595343","","","","","","","","72","H","0","img/none_selected.jpg","","61","main_expt",""
"","bandit","141","440107","0.0-102.0-0.0","86050768","wem/bandit_either_3","A13FUEPWBCLBUY","either","6","1","","","","","","","0","0","1","","0.5978650666","0.4","0.6","0.8","0.2","0.5978650666","0.4387439774","0.6482151027","0.5447889898","","","","","","","","","","","","72","H","0","img/none_selected.jpg","","62","main_expt",""
"","bandit","142","441846","0.0-103.0-0.0","86050768","wem/bandit_either_3","A13FUEPWBCLBUY","either","6","228","","","","","","","0","0","1","","0.5166338879","0.4","0.6","0.8","0.2","0.5166338879","0.3670418014","0.6966290852","0.5517390004","","","","","","","","","","","","72","H","0","img/none_selected.jpg","","63","main_expt",""
"","bandit","143","443359","0.0-104.0-0.0","86050768","wem/bandit_either_3","A13FUEPWBCLBUY","either","6","1","","","","","","","0","1","0","","0.6576188384","0.4","0.6","0.8","0.2","0.4901650138","0.3470393933","0.6497033777","0.6576188384","","","","","","","","","","","","76","L","3","","","64","main_expt",""
"","bandit","144","444892","0.0-105.0-0.0","86050768","wem/bandit_either_3","A13FUEPWBCLBUY","either","6","19","","","","","","","0","1","0","","0.5156176703","0.4","0.6","0.8","0.2","0.459365688","0.3361574661","0.6925184903","0.5156176703","","","","","","","","","","","","76","L","3","","","65","main_expt",""
"","bandit","145","446651","0.0-106.0-0.0","86050768","wem/bandit_either_3","A13FUEPWBCLBUY","either","6","246","","","","","","","0","0","1","","0.3851410914","0.4","0.6","0.8","0.2","0.4666104807","0.34308242","0.8298767513","0.3851410914","","","","","","","","","","","","76","L","3","","","66","main_expt",""
"","bandit","146","448350","0.0-107.0-0.0","86050768","wem/bandit_either_3","A13FUEPWBCLBUY","either","6","185","","","","","","","0","1","0","","0.3925250542","0.4","0.6","0.8","0.2","0.5547259005","0.3730603492","0.8506596021","0.3925250542","","","","","","","","","","","","76","L","3","","","67","main_expt",""
"","bandit","147","449894","0.0-108.0-0.0","86050768","wem/bandit_either_3","A13FUEPWBCLBUY","either","6","31","","","","","","","1","0","0","0.8536910832","","0.4","0.6","0.8","0.2","","","","","0.6038719492","0.4089949532","0.8536910832","0.3884113518","","","","","","","","75","K","2","","","68","main_expt",""
"","bandit","148","451601","0.0-109.0-0.0","86050768","wem/bandit_either_3","A13FUEPWBCLBUY","either","6","195","","","","","","","1","0","0","0.8642538991","","0.4","0.6","0.8","0.2","","","","","0.6148283845","0.3749002533","0.8642538991","0.3434478979","","","","","","","","75","K","2","","","69","main_expt",""
"","bandit","149","453172","0.0-110.0-0.0","86050768","wem/bandit_either_3","A13FUEPWBCLBUY","either","6","59","","","","","","","1","0","0","0.8073802352","","0.4","0.6","0.8","0.2","","","","","0.6683283761","0.4133869845","0.8073802352","0.4426642051","","","","","","","","75","K","2","","","70","main_expt",""
"","bandit","150","454928","0.0-111.0-0.0","86050768","wem/bandit_either_3","A13FUEPWBCLBUY","either","6","244","","","","","","","0","1","0","","0.8059201048","0.4","0.6","0.8","0.2","0.738459761","0.3302164541","0.8059201048","0.4518046004","","","","","","","","","","","","75","K","2","","","71","main_expt",""
"","bandit","151","456674","0.0-112.0-0.0","86050768","wem/bandit_either_3","A13FUEPWBCLBUY","either","6","233","","","","","","","1","0","0","0.8262275011","","0.4","0.6","0.8","0.2","","","","","0.6525166508","0.2570952275","0.8262275011","0.4903223245","","","","","","","","75","K","2","","","72","main_expt",""
"","bandit","152","458430","0.0-113.0-0.0","86050768","wem/bandit_either_3","A13FUEPWBCLBUY","either","6","242","","","","","","","0","1","0","","0.7334390718","0.4","0.6","0.8","0.2","0.5715134512","0.2042885023","0.7334390718","0.5296083002","","","","","","","","","","","","75","K","2","","","73","main_expt",""
"","bandit","153","460009","0.0-114.0-0.0","86050768","wem/bandit_either_3","A13FUEPWBCLBUY","either","6","66","","","","","","","1","0","0","0.7490977197","","0.4","0.6","0.8","0.2","","","","","0.6228045854","0.2152837516","0.7490977197","0.4883026933","","","","","","","","75","K","2","","","74","main_expt",""
"","bandit","154","461575","0.0-115.0-0.0","86050768","wem/bandit_either_3","A13FUEPWBCLBUY","either","6","52","","","","","","","0","0","1","","0.7554087461","0.4","0.6","0.8","0.2","0.613630376","0.2044775694","0.7554087461","0.4914171484","","","","","","","","","","","","75","K","2","","","75","main_expt",""
"","bandit","155","463146","0.0-116.0-0.0","86050768","wem/bandit_either_3","A13FUEPWBCLBUY","either","6","57","","","","","","","0","0","1","","0.804443878","0.4","0.6","0.8","0.2","0.7047266053","0.2247613499","0.804443878","0.6059218973","","","","","","","","","","","","75","K","2","","","76","main_expt",""
"","bandit","156","464907","0.0-117.0-0.0","86050768","wem/bandit_either_3","A13FUEPWBCLBUY","either","6","248","","","","","","","1","0","0","0.6656620098","","0.4","0.6","0.8","0.2","","","","","0.6910360943","0.2266335256","0.6656620098","0.553792366","","","","","","","","75","K","2","","","77","main_expt",""
"","bandit","157","467259","0.0-118.0-0.0","86050768","wem/bandit_either_3","A13FUEPWBCLBUY","either","6","836","","","","","","","0","0","1","0.5898140708","","0.4","0.6","0.8","0.2","","","","","0.5515992215","0.1659731505","0.5898140708","0.6884193839","","","","","","","","75","K","2","","","78","main_expt",""
"","bandit","158","469251","0.0-119.0-0.0","86050768","wem/bandit_either_3","A13FUEPWBCLBUY","either","6","479","","","","","","","1","0","0","0.613215191","","0.4","0.6","0.8","0.2","","","","","0.6448399581","0.2343921172","0.613215191","0.7214277645","","","","","","","","75","K","2","","","79","main_expt",""
"","bandit","159","471081","0.0-120.0-0.0","86050768","wem/bandit_either_3","A13FUEPWBCLBUY","either","6","317","","","","","","","0","1","0","","0.4605925783","0.4","0.6","0.8","0.2","0.739479497","0.2164054515","0.4605925783","0.7328142644","","","","","","","","","","","","75","K","2","","","80","main_expt",""
"","bandit","160","472857","0.0-121.0-0.0","86050768","wem/bandit_either_3","A13FUEPWBCLBUY","either","6","262","","","","","","","1","0","0","0.5390789087","","0.4","0.6","0.8","0.2","","","","","0.6956071838","0.1361232007","0.5390789087","0.7101675561","","","","","","","","75","K","2","","","81","main_expt",""
"","bandit","161","474502","0.0-122.0-0.0","86050768","wem/bandit_either_3","A13FUEPWBCLBUY","either","6","131","","","","","","","0","0","1","0.621290364","","0.4","0.6","0.8","0.2","","","","","0.5886517937","0.2275447725","0.621290364","0.6984384541","","","","","","","","75","K","2","","","82","main_expt",""
"","bandit","162","476048","0.0-123.0-0.0","86050768","wem/bandit_either_3","A13FUEPWBCLBUY","either","6","32","","","","","","","1","0","0","0.6359424421","","0.4","0.6","0.8","0.2","","","","","0.4764182235","0.1900607051","0.6359424421","0.7447883659","","","","","","","","75","K","2","","","83","main_expt",""
"","bandit","163","477816","0.0-124.0-0.0","86050768","wem/bandit_either_3","A13FUEPWBCLBUY","either","6","255","","","","","","","0","1","0","","0.6133664729","0.4","0.6","0.8","0.2","0.5149027494","0.1306868958","0.6133664729","0.6900592863","","","","","","","","","","","","75","K","2","","","84","main_expt",""
"","bandit","164","479425","0.0-125.0-0.0","86050768","wem/bandit_either_3","A13FUEPWBCLBUY","either","6","94","","","","","","","1","0","0","0.7815463305","","0.4","0.6","0.8","0.2","","","","","0.4908067213","0.1683201849","0.7815463305","0.7010597455","","","","","","","","75","K","2","","","85","main_expt",""
"","bandit","165","481106","0.0-126.0-0.0","86050768","wem/bandit_either_3","A13FUEPWBCLBUY","either","6","167","","","","","","","1","0","0","0.7355789231","","0.4","0.6","0.8","0.2","","","","","0.4139472458","0.1290314955","0.7355789231","0.6171062652","","","","","","","","75","K","2","","","86","main_expt",""
"","bandit","166","482800","0.0-127.0-0.0","86050768","wem/bandit_either_3","A13FUEPWBCLBUY","either","6","180","","","","","","","0","0","1","0.7267399876","","0.4","0.6","0.8","0.2","","","","","0.4253818619","0.2297537383","0.7267399876","0.5629375242","","","","","","","","75","K","2","","","87","main_expt",""
"","bandit","167","484448","0.0-128.0-0.0","86050768","wem/bandit_either_3","A13FUEPWBCLBUY","either","6","134","","","","","","","1","0","0","0.7703195612","","0.4","0.6","0.8","0.2","","","","","0.4448862761","0.1878263516","0.7703195612","0.6434443074","","","","","","","","75","K","2","","","88","main_expt",""
"","bandit","168","485972","0.0-129.0-0.0","86050768","wem/bandit_either_3","A13FUEPWBCLBUY","either","6","11","","","","","","","1","0","0","0.81872988","","0.4","0.6","0.8","0.2","","","","","0.4295642349","0.1896964823","0.81872988","0.7296698787","","","","","","","","75","K","2","","","89","main_expt",""
"","bandit","169","487629","0.0-130.0-0.0","86050768","wem/bandit_either_3","A13FUEPWBCLBUY","either","6","147","","","","","","","1","0","0","0.8032570632","","0.4","0.6","0.8","0.2","","","","","0.3655203192","0.1614970172","0.8032570632","0.7042864347","","","","","","","","75","K","2","","","90","main_expt",""
"","bandit","170","489351","0.0-131.0-0.0","86050768","wem/bandit_either_3","A13FUEPWBCLBUY","either","6","209","","","","","","","1","0","0","0.8257352781","","0.4","0.6","0.8","0.2","","","","","0.402428746","0.2107705911","0.8257352781","0.7606559624","","","","","","","","75","K","2","","","91","main_expt",""
"","bandit","171","491088","0.0-132.0-0.0","86050768","wem/bandit_either_3","A13FUEPWBCLBUY","either","6","223","","","","","","","1","0","0","0.7762210657","","0.4","0.6","0.8","0.2","","","","","0.452733603","0.1317951273","0.7762210657","0.8466818248","","","","","","","","75","K","2","","","92","main_expt",""
"","bandit","172","492617","0.0-133.0-0.0","86050768","wem/bandit_either_3","A13FUEPWBCLBUY","either","6","17","","","","","","","1","0","0","0.8293629201","","0.4","0.6","0.8","0.2","","","","","0.5416456901","0.09268613222","0.8293629201","0.8181600593","","","","","","","","75","K","2","","","93","main_expt",""
"","bandit","173","494250","0.0-134.0-0.0","86050768","wem/bandit_either_3","A13FUEPWBCLBUY","either","6","119","","","","","","","1","0","0","0.7849393417","","0.4","0.6","0.8","0.2","","","","","0.5246039132","0.06418168538","0.7849393417","0.7259749053","","","","","","","","75","K","2","","","94","main_expt",""
"","bandit","174","495870","0.0-135.0-0.0","86050768","wem/bandit_either_3","A13FUEPWBCLBUY","either","6","108","","","","","","","0","0","1","0.7850226125","","0.4","0.6","0.8","0.2","","","","","0.606801291","0.100072779","0.7850226125","0.6538641892","","","","","","","","75","K","2","","","95","main_expt",""
"","bandit","175","497498","0.0-136.0-0.0","86050768","wem/bandit_either_3","A13FUEPWBCLBUY","either","6","108","","","","","","","1","0","0","0.8013150942","","0.4","0.6","0.8","0.2","","","","","0.7175242067","0.09628221604","0.8013150942","0.6384360591","","","","","","","","75","K","2","","","96","main_expt",""
"","bandit","176","499064","0.0-137.0-0.0","86050768","wem/bandit_either_3","A13FUEPWBCLBUY","either","6","52","","","","","","","1","0","0","0.70340399","","0.4","0.6","0.8","0.2","","","","","0.7706560561","0.1335622201","0.70340399","0.6836118029","","","","","","","","75","K","2","","","97","main_expt",""
"","bandit","177","500679","0.0-138.0-0.0","86050768","wem/bandit_either_3","A13FUEPWBCLBUY","either","6","102","","","","","","","1","0","0","0.7562517051","","0.4","0.6","0.8","0.2","","","","","0.7234704616","0.167202632","0.7562517051","0.659457158","","","","","","","","75","K","2","","","98","main_expt",""
"","bandit","178","502340","0.0-139.0-0.0","86050768","wem/bandit_either_3","A13FUEPWBCLBUY","either","6","147","","","","","","","0","0","1","","0.6514659141","0.4","0.6","0.8","0.2","0.6582042781","0.1216125457","0.6514659141","0.7726162223","","","","","","","","","","","","75","K","2","","","99","main_expt",""
"","bandit","179","504090","0.0-140.0-0.0","86050768","wem/bandit_either_3","A13FUEPWBCLBUY","either","6","238","","","","","","","1","0","0","0.7112237606","","0.4","0.6","0.8","0.2","","","","","0.6530973887","0.1163239148","0.7112237606","0.8446518706","","","","","","","","75","K","2","","","100","main_expt",""
"","bandit","180","505830","0.0-141.0-0.0","86050768","wem/bandit_either_3","A13FUEPWBCLBUY","either","6","227","","","","","","","1","0","0","0.6865981462","","0.4","0.6","0.8","0.2","","","","","0.6690961394","0.1037928869","0.6865981462","0.8784151442","","","","","","","","75","K","2","","","101","main_expt",""
"","bandit","181","507494","0.0-142.0-0.0","86050768","wem/bandit_either_3","A13FUEPWBCLBUY","either","6","152","","","","","","","1","0","0","0.6663704066","","0.4","0.6","0.8","0.2","","","","","0.6268844929","0.0991068806","0.6663704066","0.8781202538","","","","","","","","75","K","2","","","102","main_expt",""
"","bandit","182","509135","0.0-143.0-0.0","86050768","wem/bandit_either_3","A13FUEPWBCLBUY","either","6","130","","","","","","","1","0","0","0.6006744832","","0.4","0.6","0.8","0.2","","","","","0.6657789595","0.1226752409","0.6006744832","0.8123732176","","","","","","","","75","K","2","","","103","main_expt",""
"","bandit","183","510704","0.0-144.0-0.0","86050768","wem/bandit_either_3","A13FUEPWBCLBUY","either","6","56","","","","","","","0","1","0","","0.518723913","0.4","0.6","0.8","0.2","0.6951589836","0.1552466415","0.518723913","0.8461937008","","","","","","","","","","","","75","K","2","","","104","main_expt",""
"","bandit","184","512273","0.0-145.0-0.0","86050768","wem/bandit_either_3","A13FUEPWBCLBUY","either","6","56","","","","","","","1","0","0","0.5343999165","","0.4","0.6","0.8","0.2","","","","","0.6382729445","0.1702138509","0.5343999165","0.8664825842","","","","","","","","75","K","2","","","105","main_expt",""
"","bandit","185","513965","0.0-146.0-0.0","86050768","wem/bandit_either_3","A13FUEPWBCLBUY","either","6","180","","","","","","","1","0","0","0.4959998489","","0.4","0.6","0.8","0.2","","","","","0.7139624249","0.2021425125","0.4959998489","0.8703997655","","","","","","","","75","K","2","","","106","main_expt",""
"","bandit","186","515640","0.0-147.0-0.0","86050768","wem/bandit_either_3","A13FUEPWBCLBUY","either","6","156","","","","","","","1","0","0","0.5052663648","","0.4","0.6","0.8","0.2","","","","","0.7718136471","0.2196373816","0.5052663648","0.8964314806","","","","","","","","75","K","2","","","107","main_expt",""
"","bandit","187","517621","0.0-148.0-0.0","86050768","wem/bandit_either_3","A13FUEPWBCLBUY","either","6","469","","","","","","","0","0","1","0.4859582203","","0.4","0.6","0.8","0.2","","","","","0.8818715302","0.2393661099","0.4859582203","0.9080126319","","","","","","","","75","K","2","","","108","main_expt",""
"","bandit","188","519583","0.0-149.0-0.0","86050768","wem/bandit_either_3","A13FUEPWBCLBUY","either","6","446","","","","","","","0","1","0","","0.523617738","0.4","0.6","0.8","0.2","0.8757741924","0.2516352594","0.523617738","0.8880845243","","","","","","","","","","","","75","K","2","","","109","main_expt",""
"","bandit","189","521239","0.0-150.0-0.0","86050768","wem/bandit_either_3","A13FUEPWBCLBUY","either","6","143","","","","","","","1","0","0","0.5492010791","","0.4","0.6","0.8","0.2","","","","","0.8657151097","0.2424291788","0.5492010791","0.899251136","","","","","","","","75","K","2","","","110","main_expt",""
"","bandit","190","522921","0.0-151.0-0.0","86050768","wem/bandit_either_3","A13FUEPWBCLBUY","either","6","169","","","","","","","0","0","1","","0.5467154696","0.4","0.6","0.8","0.2","0.8457624762","0.2033086481","0.5467154696","0.9019514556","","","","","","","","","","","","75","K","2","","","111","main_expt",""
"","bandit","191","524619","0.0-152.0-0.0","86050768","wem/bandit_either_3","A13FUEPWBCLBUY","either","6","185","","","","","","","0","0","1","0.5396215981","","0.4","0.6","0.8","0.2","","","","","0.8756116827","0.208613213","0.5396215981","0.9315537639","","","","","","","","75","K","2","","","112","main_expt",""
"","bandit","192","526377","0.0-153.0-0.0","86050768","wem/bandit_either_3","A13FUEPWBCLBUY","either","6","251","","","","","","","0","0","1","0.5542875214","","0.4","0.6","0.8","0.2","","","","","0.8773181328","0.2743958833","0.5542875214","0.9254394702","","","","","","","","75","K","2","","","113","main_expt",""
"","bandit","193","528211","0.0-154.0-0.0","86050768","wem/bandit_either_3","A13FUEPWBCLBUY","either","6","323","","","","","","","0","1","0","","0.6411428718","0.4","0.6","0.8","0.2","0.8842236373","0.2657329006","0.6411428718","0.9394904604","","","","","","","","","","","","75","K","2","","","114","main_expt",""
"","bandit","194","529842","0.0-155.0-0.0","86050768","wem/bandit_either_3","A13FUEPWBCLBUY","either","6","123","","","","","","","0","0","1","0.7261400339","","0.4","0.6","0.8","0.2","","","","","0.8499121835","0.3234316928","0.7261400339","0.9533355239","","","","","","","","75","K","2","","","115","main_expt",""
"","bandit","195","531710","0.0-156.0-0.0","86050768","wem/bandit_either_3","A13FUEPWBCLBUY","either","6","357","","","","","","","0","0","1","0.7395407697","","0.4","0.6","0.8","0.2","","","","","0.7890056153","0.3625587123","0.7395407697","0.960842596","","","","","","","","75","K","2","","","116","main_expt",""
"","bandit","196","533261","0.0-157.0-0.0","86050768","wem/bandit_either_3","A13FUEPWBCLBUY","either","6","46","","","","","","","1","0","0","0.4946904956","","0.4","0.6","0.8","0.2","","","","","0.7709890197","0.4946904956","0.8231731708","0.937733065","","","","","","","","74","J","1","","","117","main_expt",""
"","bandit","197","534905","0.0-158.0-0.0","86050768","wem/bandit_either_3","A13FUEPWBCLBUY","either","6","138","","","","","","","0","0","1","0.6246330079","","0.4","0.6","0.8","0.2","","","","","0.7459937787","0.6246330079","0.8278750807","0.9561499645","","","","","","","","74","J","1","","","118","main_expt",""
"","bandit","198","536422","0.0-159.0-0.0","86050768","wem/bandit_either_3","A13FUEPWBCLBUY","either","6","11","","","","","","","0","1","0","","0.5818097722","0.4","0.6","0.8","0.2","0.716881491","0.5818097722","0.8715827524","0.9595118281","","","","","","","","","","","","74","J","1","","","119","main_expt",""
"","bandit","199","538085","0.0-160.0-0.0","86050768","wem/bandit_either_3","A13FUEPWBCLBUY","either","6","157","","","","","","","1","0","0","0.5990025551","","0.4","0.6","0.8","0.2","","","","","0.6595649419","0.5990025551","0.8522670476","0.9548463758","","","","","","","","74","J","1","","","120","main_expt",""
"","bandit","200","553378","0.0-161.0-0.0","86050768","wem/bandit_either_3","A13FUEPWBCLBUY","either","6","13783","","","","","","","0","0","1","0.6534424477","","0.4","0.6","0.8","0.2","","","","","0.6576447048","0.6534424477","0.8266542562","0.958085665","","","","","","","","74","J","1","","","121","main_expt",""
"","bandit","201","555139","0.0-162.0-0.0","86050768","wem/bandit_either_3","A13FUEPWBCLBUY","either","6","247","","","","","","","0","0","1","0.5952731017","","0.4","0.6","0.8","0.2","","","","","0.6391957719","0.5952731017","0.81688531","0.9630601427","","","","","","","","74","J","1","","","122","main_expt",""
"","bandit","202","556850","0.0-163.0-0.0","86050768","wem/bandit_either_3","A13FUEPWBCLBUY","either","6","197","","","","","","","0","1","0","","0.6469086187","0.4","0.6","0.8","0.2","0.5873908865","0.6469086187","0.8307363081","0.9790283764","","","","","","","","","","","","74","J","1","","","123","main_expt",""
"","bandit","203","558468","0.0-164.0-0.0","86050768","wem/bandit_either_3","A13FUEPWBCLBUY","either","6","105","","","","","","","1","0","0","0.6911454426","","0.4","0.6","0.8","0.2","","","","","0.6592760984","0.6911454426","0.6943824695","0.9718765302","","","","","","","","74","J","1","","","124","main_expt",""
"","bandit","204","560219","0.0-165.0-0.0","86050768","wem/bandit_either_3","A13FUEPWBCLBUY","either","6","243","","","","","","","1","0","0","0.750572215","","0.4","0.6","0.8","0.2","","","","","0.6012083746","0.750572215","0.7137568944","0.9845173964","","","","","","","","74","J","1","","","125","main_expt",""
"","bandit","205","561908","0.0-166.0-0.0","86050768","wem/bandit_either_3","A13FUEPWBCLBUY","either","6","177","","","","","","","1","0","0","0.8108432581","","0.4","0.6","0.8","0.2","","","","","0.6043440275","0.8108432581","0.6878742658","0.9804670004","","","","","","","","74","J","1","","","126","main_expt",""
"","bandit","206","563435","0.0-167.0-0.0","86050768","wem/bandit_either_3","A13FUEPWBCLBUY","either","6","13","","","","","","","1","0","0","0.8338196277","","0.4","0.6","0.8","0.2","","","","","0.5043142332","0.8338196277","0.6175454059","0.9792667249","","","","","","","","74","J","1","","","127","main_expt",""
"","bandit","207","564980","0.0-168.0-0.0","86050768","wem/bandit_either_3","A13FUEPWBCLBUY","either","6","31","","","","","","","1","0","0","0.8624128669","","0.4","0.6","0.8","0.2","","","","","0.5778209799","0.8624128669","0.5556505876","0.9853815399","","","","","","","","74","J","1","","","128","main_expt",""
"","bandit","208","566676","0.0-169.0-0.0","86050768","wem/bandit_either_3","A13FUEPWBCLBUY","either","6","181","","","","","","","0","1","0","","0.9026068167","0.4","0.6","0.8","0.2","0.5806273004","0.9026068167","0.5948532478","0.9838319732","","","","","","","","","","","","74","J","1","","","129","main_expt",""
"","bandit","209","568219","0.0-170.0-0.0","86050768","wem/bandit_either_3","A13FUEPWBCLBUY","either","6","23","","","","","","","1","0","0","0.8983636673","","0.4","0.6","0.8","0.2","","","","","0.4152233618","0.8983636673","0.6646968067","0.9798768453","","","","","","","","74","J","1","","","130","main_expt",""
"","bandit","210","569728","0.0-171.0-0.0","86050768","wem/bandit_either_3","A13FUEPWBCLBUY","either","6","2","","","","","","","0","1","0","","0.888478962","0.4","0.6","0.8","0.2","0.4527057242","0.888478962","0.6676177377","0.9628017066","","","","","","","","","","","","74","J","1","","","131","main_expt",""
"","bandit","211","571358","0.0-172.0-0.0","86050768","wem/bandit_either_3","A13FUEPWBCLBUY","either","6","123","","","","","","","1","0","0","0.8470567254","","0.4","0.6","0.8","0.2","","","","","0.5185753891","0.8470567254","0.7638630926","0.9723970119","","","","","","","","74","J","1","","","132","main_expt",""
"","bandit","212","572978","0.0-173.0-0.0","86050768","wem/bandit_either_3","A13FUEPWBCLBUY","either","6","104","","","","","","","1","0","0","0.8852081265","","0.4","0.6","0.8","0.2","","","","","0.4567386081","0.8852081265","0.726350598","0.9754432393","","","","","","","","74","J","1","","","133","main_expt",""
"","bandit","213","574671","0.0-174.0-0.0","86050768","wem/bandit_either_3","A13FUEPWBCLBUY","either","6","176","","","","","","","0","1","0","","0.8317422298","0.4","0.6","0.8","0.2","0.4494056808","0.8317422298","0.7638059904","0.9635376407","","","","","","","","","","","","74","J","1","","","134","main_expt",""
"","bandit","214","576352","0.0-175.0-0.0","86050768","wem/bandit_either_3","A13FUEPWBCLBUY","either","6","165","","","","","","","0","1","0","","0.8121858422","0.4","0.6","0.8","0.2","0.4608562393","0.8121858422","0.7337835984","0.9304273523","","","","","","","","","","","","74","J","1","","","135","main_expt",""
"","bandit","215","578067","0.0-176.0-0.0","86050768","wem/bandit_either_3","A13FUEPWBCLBUY","either","6","200","","","","","","","0","1","0","","0.8473276522","0.4","0.6","0.8","0.2","0.6684020244","0.8473276522","0.7869055623","0.9295592062","","","","","","","","","","","","74","J","1","","","136","main_expt",""
"","bandit","216","579604","0.0-177.0-0.0","86050768","wem/bandit_either_3","A13FUEPWBCLBUY","either","6","22","","","","","","","0","0","1","","0.614137061","0.4","0.6","0.8","0.2","0.614137061","0.8251243182","0.8033651193","0.9343332129","","","","","","","","","","","","72","H","0","img/none_selected.jpg","","137","main_expt",""
"","bandit","217","581150","0.0-178.0-0.0","86050768","wem/bandit_either_3","A13FUEPWBCLBUY","either","6","32","","","","","","","0","1","0","","0.711021659","0.4","0.6","0.8","0.2","0.711021659","0.7892590299","0.7620089345","0.9325781127","","","","","","","","","","","","72","H","0","img/none_selected.jpg","","138","main_expt",""
"","bandit","218","582743","0.0-179.0-0.0","86050768","wem/bandit_either_3","A13FUEPWBCLBUY","either","6","78","","","","","","","0","1","0","","0.5731932267","0.4","0.6","0.8","0.2","0.5731932267","0.753698647","0.8098853196","0.9687763229","","","","","","","","","","","","72","H","0","img/none_selected.jpg","","139","main_expt",""
"","bandit","219","584752","0.0-180.0-0.0","86050768","wem/bandit_either_3","A13FUEPWBCLBUY","either","6","497","","","","","","","1","0","0","0.9520204639","","0.4","0.6","0.8","0.2","","","","","0.6553783698","0.7281837229","0.8737133651","0.9520204639","","","","","","","","76","L","3","","","140","main_expt",""
"","bandit","220","586536","0.0-181.0-0.0","86050768","wem/bandit_either_3","A13FUEPWBCLBUY","either","6","268","","","","","","","1","0","0","0.9615613541","","0.4","0.6","0.8","0.2","","","","","0.5665224918","0.7913145473","0.8464817719","0.9615613541","","","","","","","","76","L","3","","","141","main_expt",""
"","bandit","221","588197","0.0-182.0-0.0","86050768","wem/bandit_either_3","A13FUEPWBCLBUY","either","6","145","","","","","","","1","0","0","0.9438722422","","0.4","0.6","0.8","0.2","","","","","0.5230460729","0.7498898283","0.8457688645","0.9438722422","","","","","","","","76","L","3","","","142","main_expt",""
"","bandit","222","589861","0.0-183.0-0.0","86050768","wem/bandit_either_3","A13FUEPWBCLBUY","either","6","149","","","","","","","1","0","0","0.9419241064","","0.4","0.6","0.8","0.2","","","","","0.5401897842","0.723110339","0.8801682128","0.9419241064","","","","","","","","76","L","3","","","143","main_expt",""
"","bandit","223","591898","0.0-184.0-0.0","86050768","wem/bandit_either_3","A13FUEPWBCLBUY","either","6","520","","","","","","","0","1","0","","0.9383966058","0.4","0.6","0.8","0.2","0.5495292383","0.7697142539","0.7806105972","0.9383966058","","","","","","","","","","","","76","L","3","","","144","main_expt",""
"","bandit","224","598253","0.0-185.0-0.0","86050768","wem/bandit_either_3","A13FUEPWBCLBUY","either","6","4838","","","","","","","0","1","0","","0.9442204223","0.4","0.6","0.8","0.2","0.4718854897","0.8279494337","0.7384744451","0.9442204223","","","","","","","","","","","","76","L","3","","","145","main_expt",""
"","bandit","225","600346","0.0-186.0-0.0","86050768","wem/bandit_either_3","A13FUEPWBCLBUY","either","6","578","","","","","","","1","0","0","0.7078417075","","0.4","0.6","0.8","0.2","","","","","0.3790577705","0.747104877","0.7078417075","0.9461270134","","","","","","","","75","K","2","","","146","main_expt",""
"","bandit","226","602032","0.0-187.0-0.0","86050768","wem/bandit_either_3","A13FUEPWBCLBUY","either","6","172","","","","","","","0","0","1","0.7671729372","","0.4","0.6","0.8","0.2","","","","","0.3671333747","0.7635883185","0.7671729372","0.9677113618","","","","","","","","75","K","2","","","147","main_expt",""
"","bandit","227","603576","0.0-188.0-0.0","86050768","wem/bandit_either_3","A13FUEPWBCLBUY","either","6","29","","","","","","","1","0","0","0.7515071201","","0.4","0.6","0.8","0.2","","","","","0.4462771912","0.6650729927","0.7515071201","0.9603287673","","","","","","","","75","K","2","","","148","main_expt",""
"","bandit","228","606728","0.0-189.0-0.0","86050768","wem/bandit_either_3","A13FUEPWBCLBUY","either","6","1637","","","","","","","1","0","0","0.7582160768","","0.4","0.6","0.8","0.2","","","","","0.3929125452","0.594527628","0.7582160768","0.9256305183","","","","","","","","75","K","2","","","149","main_expt",""
"","bandit","229","608991","0.0-190.0-0.0","86050768","wem/bandit_either_3","A13FUEPWBCLBUY","either","6","748","","","","","","","1","0","0","0.6843302658","","0.4","0.6","0.8","0.2","","","","","0.3825194633","0.5101412162","0.6843302658","0.9222609783","","","","","","","","75","K","2","","","150","main_expt",""
"","bandit","230","610505","0.0-191.0-0.0","86050768","wem/bandit_either_3","A13FUEPWBCLBUY","either","6","1","","","","","","","1","0","0","0.4980827124","","0.4","0.6","0.8","0.2","","","","","0.3889652011","0.5755011036","0.4980827124","0.9522131909","","","","","","","","75","K","2","","","151","main_expt",""
"","bandit","231","612051","0.0-192.0-0.0","86050768","wem/bandit_either_3","A13FUEPWBCLBUY","either","6","31","","","","","","","0","1","0","","0.5418861514","0.4","0.6","0.8","0.2","0.372169082","0.5415628766","0.5418861514","0.9351777179","","","","","","","","","","","","75","K","2","","","152","main_expt",""
"","bandit","232","613682","0.0-193.0-0.0","86050768","wem/bandit_either_3","A13FUEPWBCLBUY","either","6","116","","","","","","","1","0","0","0.6424708626","","0.4","0.6","0.8","0.2","","","","","0.4275919172","0.6392888902","0.6424708626","0.9526549669","","","","","","","","75","K","2","","","153","main_expt",""
"","bandit","233","615191","0.0-194.0-0.0","86050768","wem/bandit_either_3","A13FUEPWBCLBUY","either","6","1","","","","","","","0","1","0","","0.6200403258","0.4","0.6","0.8","0.2","0.3978897223","0.6798835142","0.6200403258","0.944677936","","","","","","","","","","","","75","K","2","","","154","main_expt",""
"","bandit","234","616984","0.0-195.0-0.0","86050768","wem/bandit_either_3","A13FUEPWBCLBUY","either","6","276","","","","","","","0","0","1","0.5087788092","","0.4","0.6","0.8","0.2","","","","","0.4922143253","0.7376683638","0.5087788092","0.9443948233","","","","","","","","75","K","2","","","155","main_expt",""
"","bandit","235","618494","0.0-196.0-0.0","86050768","wem/bandit_either_3","A13FUEPWBCLBUY","either","6","0","","","","","","","0","1","0","","0.4397360723","0.4","0.6","0.8","0.2","0.5060601407","0.7740838489","0.4397360723","0.9312029685","","","","","","","","","","","","75","K","2","","","156","main_expt",""
"","bandit","236","620335","0.0-197.0-0.0","86050768","wem/bandit_either_3","A13FUEPWBCLBUY","either","6","326","","","","","","","1","0","0","0.7526352547","","0.4","0.6","0.8","0.2","","","","","0.56460533","0.7526352547","0.4529934193","0.9009413449","","","","","","","","74","J","1","","","157","main_expt",""
"","bandit","237","621869","0.0-198.0-0.0","86050768","wem/bandit_either_3","A13FUEPWBCLBUY","either","6","20","","","","","","","0","1","0","","0.807066173","0.4","0.6","0.8","0.2","0.5551408743","0.807066173","0.522014142","0.8799225656","","","","","","","","","","","","74","J","1","","","158","main_expt",""
"","bandit","238","623439","0.0-199.0-0.0","86050768","wem/bandit_either_3","A13FUEPWBCLBUY","either","6","55","","","","","","","0","0","1","0.8348587906","","0.4","0.6","0.8","0.2","","","","","0.6362487126","0.8348587906","0.447178695","0.9103166083","","","","","","","","74","J","1","","","159","main_expt",""
"","bandit","239","625114","0.0-200.0-0.0","86050768","wem/bandit_either_3","A13FUEPWBCLBUY","either","6","159","","","","","","","1","0","0","0.8054329593","","0.4","0.6","0.8","0.2","","","","","0.5818198138","0.8054329593","0.4293784973","0.9575168601","","","","","","","","74","J","1","","","160","main_expt",""
"","bandit","240","626865","0.0-201.0-0.0","86050768","wem/bandit_either_3","A13FUEPWBCLBUY","either","6","236","","","","","","","1","0","0","0.8263011938","","0.4","0.6","0.8","0.2","","","","","0.5079421761","0.8263011938","0.4263694152","0.9323430526","","","","","","","","74","J","1","","","161","main_expt",""
"","bandit","241","628567","0.0-202.0-0.0","86050768","wem/bandit_either_3","A13FUEPWBCLBUY","either","6","187","","","","","","","1","0","0","0.8468561623","","0.4","0.6","0.8","0.2","","","","","0.3944353318","0.8468561623","0.4394756583","0.8731035433","","","","","","","","74","J","1","","","162","main_expt",""
"","bandit","242","630506","0.0-203.0-0.0","86050768","wem/bandit_either_3","A13FUEPWBCLBUY","either","6","422","","","","","","","1","0","0","0.866861138","","0.4","0.6","0.8","0.2","","","","","0.4560534757","0.866861138","0.4632532181","0.860239847","","","","","","","","74","J","1","","","163","main_expt",""
"","bandit","243","632277","0.0-204.0-0.0","86050768","wem/bandit_either_3","A13FUEPWBCLBUY","either","6","253","","","","","","","1","0","0","0.8621839131","","0.4","0.6","0.8","0.2","","","","","0.4338988853","0.8621839131","0.469091439","0.8327160304","","","","","","","","74","J","1","","","164","main_expt",""
"","bandit","244","634159","0.0-205.0-0.0","86050768","wem/bandit_either_3","A13FUEPWBCLBUY","either","6","368","","","","","","","0","0","1","","0.8368369455","0.4","0.6","0.8","0.2","0.3640020004","0.8368369455","0.4691854483","0.8780399083","","","","","","","","","","","","74","J","1","","","165","main_expt",""
"","bandit","245","635949","0.0-206.0-0.0","86050768","wem/bandit_either_3","A13FUEPWBCLBUY","either","6","274","","","","","","","1","0","0","0.8543831227","","0.4","0.6","0.8","0.2","","","","","0.4433911144","0.8543831227","0.424594696","0.8659509199","","","","","","","","74","J","1","","","166","main_expt",""
"","bandit","246","637755","0.0-207.0-0.0","86050768","wem/bandit_either_3","A13FUEPWBCLBUY","either","6","289","","","","","","","0","1","0","","0.8444257961","0.4","0.6","0.8","0.2","0.4852122499","0.8444257961","0.4691217736","0.8458676595","","","","","","","","","","","","74","J","1","","","167","main_expt",""
"","bandit","247","639780","0.0-208.0-0.0","86050768","wem/bandit_either_3","A13FUEPWBCLBUY","either","6","511","","","","","","","1","0","0","0.8895061166","","0.4","0.6","0.8","0.2","","","","","0.4829488348","0.8895061166","0.4605946041","0.7368025647","","","","","","","","74","J","1","","","168","main_expt",""
"","bandit","248","642022","0.0-209.0-0.0","86050768","wem/bandit_either_3","A13FUEPWBCLBUY","either","6","723","","","","","","","1","0","0","0.8980662015","","0.4","0.6","0.8","0.2","","","","","0.467087579","0.8980662015","0.4302520818","0.6811301937","","","","","","","","74","J","1","","","169","main_expt",""
"","bandit","249","643714","0.0-210.0-0.0","86050768","wem/bandit_either_3","A13FUEPWBCLBUY","either","6","171","","","","","","","1","0","0","0.9399190154","","0.4","0.6","0.8","0.2","","","","","0.3575164989","0.9399190154","0.3846086554","0.6781719117","","","","","","","","74","J","1","","","170","main_expt",""
"","bandit","250","645436","0.0-211.0-0.0","86050768","wem/bandit_either_3","A13FUEPWBCLBUY","either","6","207","","","","","","","0","1","0","","0.9199626721","0.4","0.6","0.8","0.2","0.3433755155","0.9199626721","0.4938912128","0.5779776893","","","","","","","","","","","","74","J","1","","","171","main_expt",""
"","bandit","251","647169","0.0-212.0-0.0","86050768","wem/bandit_either_3","A13FUEPWBCLBUY","either","6","216","","","","","","","0","1","0","","0.8885959212","0.4","0.6","0.8","0.2","0.2921203137","0.8885959212","0.5409242696","0.5461867433","","","","","","","","","","","","74","J","1","","","172","main_expt",""
"","bandit","252","648881","0.0-213.0-0.0","86050768","wem/bandit_either_3","A13FUEPWBCLBUY","either","6","196","","","","","","","0","1","0","","0.8502068985","0.4","0.6","0.8","0.2","0.3237382503","0.8502068985","0.4899310385","0.5898781272","","","","","","","","","","","","74","J","1","","","173","main_expt",""
"","bandit","253","650399","0.0-214.0-0.0","86050768","wem/bandit_either_3","A13FUEPWBCLBUY","either","6","1","","","","","","","0","0","1","","0.2935635685","0.4","0.6","0.8","0.2","0.2935635685","0.9054067092","0.4464532747","0.5990225055","","","","","","","","","","","","72","H","0","img/none_selected.jpg","","174","main_expt",""
"","bandit","254","651933","0.0-215.0-0.0","86050768","wem/bandit_either_3","A13FUEPWBCLBUY","either","6","18","","","","","","","0","1","0","","0.2797951809","0.4","0.6","0.8","0.2","0.2797951809","0.9096893241","0.4363040476","0.6129624105","","","","","","","","","","","","72","H","0","img/none_selected.jpg","","175","main_expt",""
"","bandit","255","654052","0.0-216.0-0.0","86050768","wem/bandit_either_3","A13FUEPWBCLBUY","either","6","604","","","","","","","0","0","1","","0.5434192492","0.4","0.6","0.8","0.2","0.2067270565","0.9081003197","0.4198776974","0.5434192492","","","","","","","","","","","","76","L","3","","","176","main_expt",""
"","bandit","256","655691","0.0-217.0-0.0","86050768","wem/bandit_either_3","A13FUEPWBCLBUY","either","6","124","","","","","","","0","0","1","","0.5893108522","0.4","0.6","0.8","0.2","0.19266164","0.8417535431","0.4001478854","0.5893108522","","","","","","","","","","","","76","L","3","","","177","main_expt",""
"","bandit","257","657230","0.0-218.0-0.0","86050768","wem/bandit_either_3","A13FUEPWBCLBUY","either","6","21","","","","","","","0","1","0","","0.4862463398","0.4","0.6","0.8","0.2","0.1393448617","0.8045518304","0.3015477047","0.4862463398","","","","","","","","","","","","76","L","3","","","178","main_expt",""
"","bandit","258","658983","0.0-219.0-0.0","86050768","wem/bandit_either_3","A13FUEPWBCLBUY","either","6","231","","","","","","","0","0","1","0.4227787996","","0.4","0.6","0.8","0.2","","","","","0.1149816072","0.8250115846","0.2700131006","0.4227787996","","","","","","","","76","L","3","","","179","main_expt",""
"","bandit","259","660772","0.0-220.0-0.0","86050768","wem/bandit_either_3","A13FUEPWBCLBUY","either","6","274","","","","","","","0","0","1","0.3473069","","0.4","0.6","0.8","0.2","","","","","0.1231561222","0.7418096358","0.3473069","0.3583368423","","","","","","","","75","K","2","","","180","main_expt",""
"","bandit","260","662813","0.0-221.0-0.0","86050768","wem/bandit_either_3","A13FUEPWBCLBUY","either","6","525","","","","","","","0","1","0","","0.3478804011","0.4","0.6","0.8","0.2","0.1134989143","0.7180260456","0.3478804011","0.3820052134","","","","","","","","","","","","75","K","2","","","181","main_expt",""
"","bandit","261","664621","0.0-222.0-0.0","86050768","wem/bandit_either_3","A13FUEPWBCLBUY","either","6","291","","","","","","","0","0","1","0.3304981007","","0.4","0.6","0.8","0.2","","","","","0.07317944644","0.6777378447","0.3304981007","0.437769555","","","","","","","","75","K","2","","","182","main_expt",""
"","bandit","262","666245","0.0-223.0-0.0","86050768","wem/bandit_either_3","A13FUEPWBCLBUY","either","6","106","","","","","","","1","0","0","0.2578466268","","0.4","0.6","0.8","0.2","","","","","0.05085611098","0.6331465848","0.2578466268","0.3951330089","","","","","","","","75","K","2","","","183","main_expt",""
"","bandit","263","667925","0.0-224.0-0.0","86050768","wem/bandit_either_3","A13FUEPWBCLBUY","either","6","163","","","","","","","0","0","1","0.3550464129","","0.4","0.6","0.8","0.2","","","","","0.07152820202","0.6578519513","0.3550464129","0.4062376343","","","","","","","","75","K","2","","","184","main_expt",""
"","bandit","264","669443","0.0-225.0-0.0","86050768","wem/bandit_either_3","A13FUEPWBCLBUY","either","6","1","","","","","","","0","0","1","0.2993299556","","0.4","0.6","0.8","0.2","","","","","0.08814522307","0.7160298793","0.2993299556","0.4035727276","","","","","","","","75","K","2","","","185","main_expt",""
"","bandit","265","671414","0.0-226.0-0.0","86050768","wem/bandit_either_3","A13FUEPWBCLBUY","either","6","455","","","","","","","0","0","1","0.3985972224","","0.4","0.6","0.8","0.2","","","","","0.0931487442","0.7081703269","0.3985972224","0.4595565904","","","","","","","","75","K","2","","","186","main_expt",""
"","bandit","266","673126","0.0-227.0-0.0","86050768","wem/bandit_either_3","A13FUEPWBCLBUY","either","6","190","","","","","","","0","0","1","0.4563810555","","0.4","0.6","0.8","0.2","","","","","0.05847154344","0.7670757258","0.4563810555","0.4956959756","","","","","","","","75","K","2","","","187","main_expt",""
"","bandit","267","674653","0.0-228.0-0.0","86050768","wem/bandit_either_3","A13FUEPWBCLBUY","either","6","8","","","","","","","0","0","1","0.4621092719","","0.4","0.6","0.8","0.2","","","","","0.05005107021","0.7986884496","0.4621092719","0.4295585103","","","","","","","","75","K","2","","","188","main_expt",""
"","bandit","268","676343","0.0-229.0-0.0","86050768","wem/bandit_either_3","A13FUEPWBCLBUY","either","6","173","","","","","","","0","0","1","","0.4121259827","0.4","0.6","0.8","0.2","0.05158958255","0.8113194514","0.4214675273","0.4121259827","","","","","","","","","","","","76","L","3","","","189","main_expt",""
"","bandit","269","678045","0.0-230.0-0.0","86050768","wem/bandit_either_3","A13FUEPWBCLBUY","either","6","181","","","","","","","0","0","1","","0.40505342","0.4","0.6","0.8","0.2","0.0530996007","0.8311477635","0.4445162903","0.40505342","","","","","","","","","","","","76","L","3","","","190","main_expt",""
"","bandit","270","679626","0.0-231.0-0.0","86050768","wem/bandit_either_3","A13FUEPWBCLBUY","either","6","67","","","","","","","0","1","0","","0.3671493273","0.4","0.6","0.8","0.2","0.05342003941","0.7941336253","0.4077799102","0.3671493273","","","","","","","","","","","","76","L","3","","","191","main_expt",""
"","bandit","271","681286","0.0-232.0-0.0","86050768","wem/bandit_either_3","A13FUEPWBCLBUY","either","6","141","","","","","","","0","1","0","","0.841847859","0.4","0.6","0.8","0.2","0.05264216412","0.841847859","0.413117206","0.3367263454","","","","","","","","","","","","74","J","1","","","192","main_expt",""
"","bandit","272","683000","0.0-233.0-0.0","86050768","wem/bandit_either_3","A13FUEPWBCLBUY","either","6","204","","","","","","","1","0","0","0.865127625","","0.4","0.6","0.8","0.2","","","","","0.07418965368","0.865127625","0.374663265","0.2587514209","","","","","","","","74","J","1","","","193","main_expt",""
"","bandit","273","684513","0.0-234.0-0.0","86050768","wem/bandit_either_3","A13FUEPWBCLBUY","either","6","0","","","","","","","0","0","1","0.8369883383","","0.4","0.6","0.8","0.2","","","","","0.1148515542","0.8369883383","0.2792309937","0.2123696513","","","","","","","","74","J","1","","","194","main_expt",""
"","bandit","274","686029","0.0-235.0-0.0","86050768","wem/bandit_either_3","A13FUEPWBCLBUY","either","6","0","","","","","","","1","0","0","0.8226177272","","0.4","0.6","0.8","0.2","","","","","0.1102075851","0.8226177272","0.3090424304","0.2551117677","","","","","","","","74","J","1","","","195","main_expt",""
"","bandit","275","687545","0.0-236.0-0.0","86050768","wem/bandit_either_3","A13FUEPWBCLBUY","either","6","0","","","","","","","1","0","0","0.8759919892","","0.4","0.6","0.8","0.2","","","","","0.09307195637","0.8759919892","0.2254203465","0.2948177706","","","","","","","","74","J","1","","","196","main_expt",""
"","bandit","276","689301","0.0-237.0-0.0","86050768","wem/bandit_either_3","A13FUEPWBCLBUY","either","6","238","","","","","","","1","0","0","0.9413038234","","0.4","0.6","0.8","0.2","","","","","0.08341332984","0.9413038234","0.2104085952","0.2864074111","","","","","","","","74","J","1","","","197","main_expt",""
"","bandit","277","690874","0.0-238.0-0.0","86050768","wem/bandit_either_3","A13FUEPWBCLBUY","either","6","56","","","","","","","0","1","0","","0.9384937307","0.4","0.6","0.8","0.2","0.06206278739","0.9384937307","0.1686499416","0.3044962429","","","","","","","","","","","","74","J","1","","","198","main_expt",""
"","bandit","278","692432","0.0-239.0-0.0","86050768","wem/bandit_either_3","A13FUEPWBCLBUY","either","6","43","","","","","","","1","0","0","0.927250614","","0.4","0.6","0.8","0.2","","","","","0.1015706687","0.927250614","0.1696058054","0.2804127106","","","","","","","","74","J","1","","","199","main_expt",""
"","bandit","279","694107","0.0-240.0-0.0","86050768","wem/bandit_either_3","A13FUEPWBCLBUY","either","6","159","","","","","","","0","1","0","","0.8840406778","0.4","0.6","0.8","0.2","0.07348353789","0.8840406778","0.1940139532","0.3151112274","","","","","","","","","","","","74","J","1","","","200","main_expt",""
"","bandit","280","695775","0.0-241.0-0.0","86050768","wem/bandit_either_3","A13FUEPWBCLBUY","either","6","150","","","","","","","0","1","0","","0.8866639954","0.4","0.6","0.8","0.2","0.09218994405","0.8866639954","0.2384341862","0.3124471347","","","","","","","","","","","","74","J","1","","","201","main_expt",""
"","bandit","281","697332","0.0-242.0-0.0","86050768","wem/bandit_either_3","A13FUEPWBCLBUY","either","6","41","","","","","","","0","0","1","0.2069173963","","0.4","0.6","0.8","0.2","","","","","0.1662378481","0.8188103646","0.2069173963","0.3418115628","","","","","","","","75","K","2","","","202","main_expt",""
"","bandit","282","699011","0.0-243.0-0.0","86050768","wem/bandit_either_3","A13FUEPWBCLBUY","either","6","164","","","","","","","0","0","1","0.2502389624","","0.4","0.6","0.8","0.2","","","","","0.1808123801","0.8026106274","0.2502389624","0.2676578736","","","","","","","","75","K","2","","","203","main_expt",""
"","bandit","283","700676","0.0-244.0-0.0","86050768","wem/bandit_either_3","A13FUEPWBCLBUY","either","6","148","","","","","","","0","1","0","","0.2226806","0.4","0.6","0.8","0.2","0.2011980288","0.6613987003","0.2226806","0.2513587973","","","","","","","","","","","","75","K","2","","","204","main_expt",""
"","bandit","284","702404","0.0-245.0-0.0","86050768","wem/bandit_either_3","A13FUEPWBCLBUY","either","6","212","","","","","","","0","0","1","0.2733703365","","0.4","0.6","0.8","0.2","","","","","0.1877492959","0.7402115251","0.2327973494","0.2733703365","","","","","","","","76","L","3","","","205","main_expt",""
"","bandit","285","703972","0.0-246.0-0.0","86050768","wem/bandit_either_3","A13FUEPWBCLBUY","either","6","47","","","","","","","0","0","1","","0.3212331514","0.4","0.6","0.8","0.2","0.1891298069","0.6792505986","0.3134624789","0.3212331514","","","","","","","","","","","","76","L","3","","","206","main_expt",""
"","bandit","286","705585","0.0-247.0-0.0","86050768","wem/bandit_either_3","A13FUEPWBCLBUY","either","6","105","","","","","","","0","0","1","","0.3381772831","0.4","0.6","0.8","0.2","0.2092890992","0.6510378203","0.3808856429","0.3381772831","","","","","","","","","","","","76","L","3","","","207","main_expt",""
"","bandit","287","707269","0.0-248.0-0.0","86050768","wem/bandit_either_3","A13FUEPWBCLBUY","either","6","166","","","","","","","0","0","1","","0.2370260631","0.4","0.6","0.8","0.2","0.2563161799","0.5971377862","0.318509643","0.2370260631","","","","","","","","","","","","76","L","3","","","208","main_expt",""
"","bandit","288","708822","0.0-249.0-0.0","86050768","wem/bandit_either_3","A13FUEPWBCLBUY","either","6","37","","","","","","","0","0","1","","0.2643940457","0.4","0.6","0.8","0.2","0.2643940457","0.6040603887","0.2932847295","0.2157004535","","","","","","","","","","","","72","H","0","img/none_selected.jpg","","209","main_expt",""
"","bandit","289","710380","0.0-250.0-0.0","86050768","wem/bandit_either_3","A13FUEPWBCLBUY","either","6","37","","","","","","","1","0","0","0.2710870001","","0.4","0.6","0.8","0.2","","","","","0.2710870001","0.7794442159","0.2230023122","0.2655169153","","","","","","","","72","H","0","img/none_selected.jpg","","210","main_expt",""
"","bandit","290","712089","0.0-251.0-0.0","86050768","wem/bandit_either_3","A13FUEPWBCLBUY","either","6","192","","","","","","","1","0","0","0.2056380183","","0.4","0.6","0.8","0.2","","","","","0.2056380183","0.8397026392","0.1899351836","0.2359505063","","","","","","","","72","H","0","img/none_selected.jpg","","211","main_expt",""
"","bandit","291","713737","0.0-252.0-0.0","86050768","wem/bandit_either_3","A13FUEPWBCLBUY","either","6","132","","","","","","","0","0","1","0.2487045614","","0.4","0.6","0.8","0.2","","","","","0.2487045614","0.7883870126","0.2593929449","0.2431981852","","","","","","","","72","H","0","img/none_selected.jpg","","212","main_expt",""
"","bandit","292","721144","0.0-253.0-0.0","86050768","wem/bandit_either_3","A13FUEPWBCLBUY","either","6","5889","","","","","","","0","1","0","","0.3520378668","0.4","0.6","0.8","0.2","0.3520378668","0.7160446845","0.2304425673","0.3385658967","","","","","","","","","","","","72","H","0","img/none_selected.jpg","","213","main_expt",""
"","bandit","293","778949","0.0-254.0-0.0","86050768","wem/bandit_either_3","A13FUEPWBCLBUY","either","6","56288","","","","","","","0","0","1","0.3455661114","","0.4","0.6","0.8","0.2","","","","","0.3455661114","0.7501162241","0.2849244028","0.445002088","","","","","","","","72","H","0","img/none_selected.jpg","","214","main_expt",""
"","bandit","294","780520","0.0-255.0-0.0","86050768","wem/bandit_either_3","A13FUEPWBCLBUY","either","6","54","","","","","","","0","1","0","","0.3290646698","0.4","0.6","0.8","0.2","0.3290646698","0.7574589115","0.3184819088","0.4340580748","","","","","","","","","","","","72","H","0","img/none_selected.jpg","","215","main_expt",""
"","bandit","295","782111","0.0-256.0-0.0","86050768","wem/bandit_either_3","A13FUEPWBCLBUY","either","6","72","","","","","","","0","0","1","","0.2737258078","0.4","0.6","0.8","0.2","0.2737258078","0.7376674805","0.2989728513","0.3996931216","","","","","","","","","","","","72","H","0","img/none_selected.jpg","","216","main_expt",""
"","bandit","296","783814","0.0-257.0-0.0","86050768","wem/bandit_either_3","A13FUEPWBCLBUY","either","6","182","","","","","","","0","0","1","0.2401291484","","0.4","0.6","0.8","0.2","","","","","0.2401291484","0.67262171","0.5538830624","0.453570069","","","","","","","","72","H","0","img/none_selected.jpg","","217","main_expt",""
"","bandit","297","785335","0.0-258.0-0.0","86050768","wem/bandit_either_3","A13FUEPWBCLBUY","either","6","3","","","","","","","0","0","1","","0.2395298113","0.4","0.6","0.8","0.2","0.2395298113","0.6309662891","0.5331458927","0.3566620654","","","","","","","","","","","","72","H","0","img/none_selected.jpg","","218","main_expt",""
"","bandit","298","787073","0.0-259.0-0.0","86050768","wem/bandit_either_3","A13FUEPWBCLBUY","either","6","222","","","","","","","0","0","1","","0.3114207129","0.4","0.6","0.8","0.2","0.2333127667","0.610488243","0.409279481","0.3114207129","","","","","","","","","","","","76","L","3","","","219","main_expt",""
"","bandit","299","788757","0.0-260.0-0.0","86050768","wem/bandit_either_3","A13FUEPWBCLBUY","either","6","173","","","","","","","0","0","1","","0.348491043","0.4","0.6","0.8","0.2","0.2097963002","0.6741838821","0.3910907299","0.348491043","","","","","","","","","","","","76","L","3","","","220","main_expt",""
"","bandit","300","790277","0.0-261.0-0.0","86050768","wem/bandit_either_3","A13FUEPWBCLBUY","either","6","3","","","","","","","0","0","1","0.325682353","","0.4","0.6","0.8","0.2","","","","","0.1761429423","0.6938787555","0.37386253","0.325682353","","","","","","","","76","L","3","","","221","main_expt",""
"","bandit","301","792051","0.0-262.0-0.0","86050768","wem/bandit_either_3","A13FUEPWBCLBUY","either","6","257","","","","","","","0","0","1","0.5460784034","","0.4","0.6","0.8","0.2","","","","","0.1770547834","0.622086605","0.5460784034","0.3582518194","","","","","","","","75","K","2","","","222","main_expt",""
"","bandit","302","793740","0.0-263.0-0.0","86050768","wem/bandit_either_3","A13FUEPWBCLBUY","either","6","171","","","","","","","0","0","1","0.5484594206","","0.4","0.6","0.8","0.2","","","","","0.1494166006","0.6190419158","0.5484594206","0.3596631187","","","","","","","","75","K","2","","","223","main_expt",""
"","bandit","303","795331","0.0-264.0-0.0","86050768","wem/bandit_either_3","A13FUEPWBCLBUY","either","6","74","","","","","","","0","1","0","","0.5156266917","0.4","0.6","0.8","0.2","0.1444184755","0.6525227655","0.5156266917","0.4757784632","","","","","","","","","","","","75","K","2","","","224","main_expt",""
"","bandit","304","796923","0.0-265.0-0.0","86050768","wem/bandit_either_3","A13FUEPWBCLBUY","either","6","76","","","","","","","1","0","0","0.5739960468","","0.4","0.6","0.8","0.2","","","","","0.2381889698","0.5739960468","0.5120039273","0.5384710229","","","","","","","","74","J","1","","","225","main_expt",""
"","bandit","305","798711","0.0-266.0-0.0","86050768","wem/bandit_either_3","A13FUEPWBCLBUY","either","6","271","","","","","","","0","1","0","","0.6038380469","0.4","0.6","0.8","0.2","0.1429230379","0.6038380469","0.5568413113","0.5308581489","","","","","","","","","","","","74","J","1","","","226","main_expt",""
"","bandit","306","800293","0.0-267.0-0.0","86050768","wem/bandit_either_3","A13FUEPWBCLBUY","either","6","62","","","","","","","0","1","0","","0.5203417309","0.4","0.6","0.8","0.2","0.124100867","0.5203417309","0.5277183188","0.488482713","","","","","","","","","","","","74","J","1","","","227","main_expt",""
"","bandit","307","801900","0.0-268.0-0.0","86050768","wem/bandit_either_3","A13FUEPWBCLBUY","either","6","89","","","","","","","0","0","1","0.4263922038","","0.4","0.6","0.8","0.2","","","","","0.1762219884","0.4263922038","0.5041270258","0.4406219513","","","","","","","","74","J","1","","","228","main_expt",""
"","bandit","308","803537","0.0-269.0-0.0","86050768","wem/bandit_either_3","A13FUEPWBCLBUY","either","6","118","","","","","","","0","1","0","","0.3475105047","0.4","0.6","0.8","0.2","0.1910325121","0.3475105047","0.4541369304","0.4892119921","","","","","","","","","","","","74","J","1","","","229","main_expt",""
"","bandit","309","805632","0.0-270.0-0.0","86050768","wem/bandit_either_3","A13FUEPWBCLBUY","either","6","576","","","","","","","1","0","0","0.3353007417","","0.4","0.6","0.8","0.2","","","","","0.2571549068","0.3353007417","0.4504381994","0.5129573662","","","","","","","","74","J","1","","","230","main_expt",""
"","bandit","310","807157","0.0-271.0-0.0","86050768","wem/bandit_either_3","A13FUEPWBCLBUY","either","6","7","","","","","","","0","0","1","0.2870546929","","0.4","0.6","0.8","0.2","","","","","0.1781345747","0.2870546929","0.4698668598","0.4382888871","","","","","","","","74","J","1","","","231","main_expt",""
"","bandit","311","808856","0.0-272.0-0.0","86050768","wem/bandit_either_3","A13FUEPWBCLBUY","either","6","183","","","","","","","0","0","1","0.3092655517","","0.4","0.6","0.8","0.2","","","","","0.1748933913","0.3092655517","0.5460008395","0.42174841","","","","","","","","74","J","1","","","232","main_expt",""
"","bandit","312","810605","0.0-273.0-0.0","86050768","wem/bandit_either_3","A13FUEPWBCLBUY","either","6","232","","","","","","","1","0","0","0.4231157335","","0.4","0.6","0.8","0.2","","","","","0.2196371411","0.4231157335","0.5345299581","0.4297142637","","","","","","","","74","J","1","","","233","main_expt",""
"","bandit","313","812213","0.0-274.0-0.0","86050768","wem/bandit_either_3","A13FUEPWBCLBUY","either","6","90","","","","","","","0","1","0","","0.5525929145","0.4","0.6","0.8","0.2","0.2052749597","0.5525929145","0.508060833","0.3016140143","","","","","","","","","","","","74","J","1","","","234","main_expt",""
"","bandit","314","813861","0.0-275.0-0.0","86050768","wem/bandit_either_3","A13FUEPWBCLBUY","either","6","131","","","","","","","0","0","1","0.7239072418","","0.4","0.6","0.8","0.2","","","","","0.3158924645","0.7239072418","0.4956589368","0.2735586703","","","","","","","","74","J","1","","","235","main_expt",""
"","bandit","315","815520","0.0-276.0-0.0","86050768","wem/bandit_either_3","A13FUEPWBCLBUY","either","6","141","","","","","","","1","0","0","0.8076920848","","0.4","0.6","0.8","0.2","","","","","0.3668106878","0.8076920848","0.5514737959","0.2536827631","","","","","","","","74","J","1","","","236","main_expt",""
"","bandit","316","817033","0.0-277.0-0.0","86050768","wem/bandit_either_3","A13FUEPWBCLBUY","either","6","1","","","","","","","0","1","0","","0.7703095863","0.4","0.6","0.8","0.2","0.3866395083","0.7703095863","0.5183580196","0.2478783488","","","","","","","","","","","","74","J","1","","","237","main_expt",""
"","bandit","317","819152","0.0-278.0-0.0","86050768","wem/bandit_either_3","A13FUEPWBCLBUY","either","6","602","","","","","","","1","0","0","0.5320509842","","0.4","0.6","0.8","0.2","","","","","0.4108821033","0.6485929649","0.5320509842","0.1688186905","","","","","","","","75","K","2","","","238","main_expt",""
"","bandit","318","820771","0.0-279.0-0.0","86050768","wem/bandit_either_3","A13FUEPWBCLBUY","either","6","102","","","","","","","1","0","0","0.46832295","","0.4","0.6","0.8","0.2","","","","","0.4384900471","0.7028133827","0.46832295","0.1232648298","","","","","","","","75","K","2","","","239","main_expt",""
"","bandit","319","822426","0.0-280.0-0.0","86050768","wem/bandit_either_3","A13FUEPWBCLBUY","either","6","135","","","","","","","0","0","1","0.5024711131","","0.4","0.6","0.8","0.2","","","","","0.4246438665","0.6620055833","0.5024711131","0.1720424997","","","","","","","","75","K","2","","","240","main_expt",""
"","bandit","320","823981","0.0-281.0-0.0","86050768","wem/bandit_either_3","A13FUEPWBCLBUY","either","6","32","","","","","","","0","0","1","0.6092933485","","0.4","0.6","0.8","0.2","","","","","0.3783755671","0.6925250702","0.6092933485","0.1045812876","","","","","","","","75","K","2","","","241","main_expt",""
"","bandit","321","828393","0.0-282.0-0.0","86050768","wem/bandit_either_3","A13FUEPWBCLBUY","either","6","2894","","","","","","","0","0","1","","0.5812412386","0.4","0.6","0.8","0.2","0.3619864671","0.7076428944","0.5812412386","0.08136382084","","","","","","","","","","","","75","K","2","","","242","main_expt",""
"","bandit","322","830043","0.0-283.0-0.0","86050768","wem/bandit_either_3","A13FUEPWBCLBUY","either","6","131","","","","","","","1","0","0","0.5582769518","","0.4","0.6","0.8","0.2","","","","","0.4143237557","0.6671697692","0.5582769518","0.08711917736","","","","","","","","75","K","2","","","243","main_expt",""
"","bandit","323","831589","0.0-284.0-0.0","86050768","wem/bandit_either_3","A13FUEPWBCLBUY","either","6","27","","","","","","","0","0","1","0.5728611736","","0.4","0.6","0.8","0.2","","","","","0.3883911391","0.6829807443","0.5728611736","0.07033008343","","","","","","","","75","K","2","","","244","main_expt",""
"","bandit","324","833205","0.0-285.0-0.0","86050768","wem/bandit_either_3","A13FUEPWBCLBUY","either","6","96","","","","","","","1","0","0","0.4821733131","","0.4","0.6","0.8","0.2","","","","","0.3724790504","0.6068076256","0.4821733131","0.04273118291","","","","","","","","75","K","2","","","245","main_expt",""
"","bandit","325","834725","0.0-286.0-0.0","86050768","wem/bandit_either_3","A13FUEPWBCLBUY","either","6","0","","","","","","","0","1","0","","0.4114560805","0.4","0.6","0.8","0.2","0.4537085426","0.5724816315","0.4114560805","0.04042754574","","","","","","","","","","","","75","K","2","","","246","main_expt",""
"","bandit","326","836631","0.0-287.0-0.0","86050768","wem/bandit_either_3","A13FUEPWBCLBUY","either","6","388","","","","","","","1","0","0","0.425160092","","0.4","0.6","0.8","0.2","","","","","0.4976516822","0.4878211017","0.425160092","0.03215760721","","","","","","","","75","K","2","","","247","main_expt",""
