"consent","trial_type","trial_index","time_elapsed","internal_node_id","subjID","study","MID","cond","drift","rt","responses","key_press","expt_phase","like","value","connected","gems","bombs","no_reward","GemPrChosen","BombPrChosen","GainOverPainPr_0","GainOverPainPr_1","GainOverPainPr_2","GainOverPainPr_3","LosePr_0","LosePr_1","LosePr_2","LosePr_3","WinPr_0","WinPr_1","WinPr_2","WinPr_3","Q0","Q1","Q2","gender","age","ethnicity","target","respCharCode","respKey","respChoiceNum","respChoice","practice","trial_counter","trial_label","button_pressed"
"INL_behavioral_consent_30min_online.html","consent","0","9235","0.0-0.0","87508934","wem/bandit_either_3","A24LUXW1DB1QI5","either","8","","","","","","","","","","","","","","","","","","","","","","","","","","","","","","","","","","","","","","",""
"","survey-text","1","12617","0.0-1.0","87508934","wem/bandit_either_3","A24LUXW1DB1QI5","either","8","2354","{""Q0"":""A24LUXW1DB1QI5""}","","","","","","","","","","","","","","","","","","","","","","","","","","","","","","","","","","","","",""
"","text","2","21292","0.0-2.0","87508934","wem/bandit_either_3","A24LUXW1DB1QI5","either","8","7665","","32","","","","","","","","","","","","","","","","","","","","","","","","","","","","","","","","","","","",""
"","text","3","30396","0.0-3.0","87508934","wem/bandit_either_3","A24LUXW1DB1QI5","either","8","9098","","32","","","","","","","","","","","","","","","","","","","","","","","","","","","","","","","","","","","",""
"","text","4","53943","0.0-4.0","87508934","wem/bandit_either_3","A24LUXW1DB1QI5","either","8","23540","","32","","","","","","","","","","","","","","","","","","","","","","","","","","","","","","","","","","","",""
"","text","5","99703","0.0-5.0","87508934","wem/bandit_either_3","A24LUXW1DB1QI5","either","8","45752","","32","","","","","","","","","","","","","","","","","","","","","","","","","","","","","","","","","","","",""
"","text","6","147830","0.0-6.0","87508934","wem/bandit_either_3","A24LUXW1DB1QI5","either","8","48120","","32","","","","","","","","","","","","","","","","","","","","","","","","","","","","","","","","","","","",""
"","text","7","155196","0.0-7.0","87508934","wem/bandit_either_3","A24LUXW1DB1QI5","either","8","7357","","32","","","","","","","","","","","","","","","","","","","","","","","","","","","","","","","","","","","",""
"","text","8","158887","0.0-8.0","87508934","wem/bandit_either_3","A24LUXW1DB1QI5","either","8","3687","","32","","","","","","","","","","","","","","","","","","","","","","","","","","","","","","","","","","","",""
"","identification","9","165228","0.0-9.0-0.0","87508934","wem/bandit_either_3","A24LUXW1DB1QI5","either","8","6284","","","","6","6","6","","","","","","","","","","","","","","","","","","","","","","","","the village of Zur","","","","","","","",""
"","identification","10","171072","0.0-9.0-1.0","87508934","wem/bandit_either_3","A24LUXW1DB1QI5","either","8","4797","","","","0","0","0","","","","","","","","","","","","","","","","","","","","","","","","the village of Nyx","","","","","","","",""
"","text","11","178740","0.0-10.0","87508934","wem/bandit_either_3","A24LUXW1DB1QI5","either","8","6662","","32","","","","","","","","","","","","","","","","","","","","","","","","","","","","","","","","","","","",""
"","text","12","179968","0.0-11.0","87508934","wem/bandit_either_3","A24LUXW1DB1QI5","either","8","1226","","32","","","","","","","","","","","","","","","","","","","","","","","","","","","","","","","","","","","",""
"","text","13","181816","0.0-12.0","87508934","wem/bandit_either_3","A24LUXW1DB1QI5","either","8","1846","","32","","","","","","","","","","","","","","","","","","","","","","","","","","","","","","","","","","","",""
"","text","14","186458","0.0-13.0","87508934","wem/bandit_either_3","A24LUXW1DB1QI5","either","8","4640","","32","","","","","","","","","","","","","","","","","","","","","","","","","","","","","","","","","","","",""
"","bandit","15","190087","0.0-14.0-0.0","87508934","wem/bandit_either_3","A24LUXW1DB1QI5","either","8","2111","","","","","","","0","0","1","0","0","","","","","0","","","","0","","","","","","","","","","","74","J","0","img/none_selected_demo.jpg","true","0","",""
"","bandit","16","192753","0.0-15.0-0.0","87508934","wem/bandit_either_3","A24LUXW1DB1QI5","either","8","1095","","","","","","","0","0","1","0","0","","","","","0","","","","0","","","","","","","","","","","75","K","0","img/none_selected_demo.jpg","true","0","",""
"","text","17","202313","0.0-16.0","87508934","wem/bandit_either_3","A24LUXW1DB1QI5","either","8","9556","","32","","","","","","","","","","","","","","","","","","","","","","","","","","","","","","","","","","","",""
"","text","18","215219","0.0-17.0","87508934","wem/bandit_either_3","A24LUXW1DB1QI5","either","8","12900","","32","","","","","","","","","","","","","","","","","","","","","","","","","","","","","","","","","","","",""
"","text","19","227846","0.0-18.0","87508934","wem/bandit_either_3","A24LUXW1DB1QI5","either","8","12618","","32","","","","","","","","","","","","","","","","","","","","","","","","","","","","","","","","","","","",""
"","text","20","230195","0.0-19.0","87508934","wem/bandit_either_3","A24LUXW1DB1QI5","either","8","2344","","32","","","","","","","","","","","","","","","","","","","","","","","","","","","","","","","","","","","",""
"","bandit","21","233436","0.0-20.0-0.0","87508934","wem/bandit_either_3","A24LUXW1DB1QI5","either","8","1713","","","","","","","0","1","0","","0.8","0.5","0.5","","","0.8","0.2","","","","","","","","","","","","","","74","J","0","img/none_selected_demo.jpg","true","0","80_20_practice",""
"","bandit","22","235653","0.0-20.0-1.0","87508934","wem/bandit_either_3","A24LUXW1DB1QI5","either","8","694","","","","","","","0","1","0","","0.8","0.5","0.5","","","0.8","0.2","","","","","","","","","","","","","","74","J","0","img/none_selected_demo.jpg","true","0","80_20_practice",""
"","bandit","23","237946","0.0-20.0-2.0","87508934","wem/bandit_either_3","A24LUXW1DB1QI5","either","8","774","","","","","","","1","0","0","0.8","","0.5","0.5","","","","","","","0.8","0.2","","","","","","","","","","74","J","0","img/none_selected_demo.jpg","true","0","80_20_practice",""
"","bandit","24","240066","0.0-20.0-3.0","87508934","wem/bandit_either_3","A24LUXW1DB1QI5","either","8","605","","","","","","","1","0","0","0.8","","0.5","0.5","","","","","","","0.8","0.2","","","","","","","","","","74","J","0","img/none_selected_demo.jpg","true","0","80_20_practice",""
"","bandit","25","242521","0.0-20.0-4.0","87508934","wem/bandit_either_3","A24LUXW1DB1QI5","either","8","939","","","","","","","0","0","1","","0.8","0.5","0.5","","","0.8","0.2","","","","","","","","","","","","","","74","J","0","img/none_selected_demo.jpg","true","0","80_20_practice",""
"","bandit","26","244796","0.0-20.0-5.0","87508934","wem/bandit_either_3","A24LUXW1DB1QI5","either","8","759","","","","","","","1","0","0","0.8","","0.5","0.5","","","","","","","0.8","0.2","","","","","","","","","","74","J","0","img/none_selected_demo.jpg","true","0","80_20_practice",""
"","bandit","27","247208","0.0-20.0-6.0","87508934","wem/bandit_either_3","A24LUXW1DB1QI5","either","8","898","","","","","","","0","1","0","","0.8","0.5","0.5","","","0.8","0.2","","","","","","","","","","","","","","74","J","0","img/none_selected_demo.jpg","true","0","80_20_practice",""
"","bandit","28","249534","0.0-20.0-7.0","87508934","wem/bandit_either_3","A24LUXW1DB1QI5","either","8","809","","","","","","","0","1","0","","0.8","0.5","0.5","","","0.8","0.2","","","","","","","","","","","","","","74","J","0","img/none_selected_demo.jpg","true","0","80_20_practice",""
"","bandit","29","251765","0.0-20.0-8.0","87508934","wem/bandit_either_3","A24LUXW1DB1QI5","either","8","712","","","","","","","0","0","1","0.8","","0.5","0.5","","","","","","","0.8","0.2","","","","","","","","","","74","J","0","img/none_selected_demo.jpg","true","0","80_20_practice",""
"","bandit","30","253786","0.0-20.0-9.0","87508934","wem/bandit_either_3","A24LUXW1DB1QI5","either","8","503","","","","","","","0","1","0","","0.8","0.5","0.5","","","0.8","0.2","","","","","","","","","","","","","","74","J","0","img/none_selected_demo.jpg","true","0","80_20_practice",""
"","bandit","31","255861","0.0-20.0-10.0","87508934","wem/bandit_either_3","A24LUXW1DB1QI5","either","8","554","","","","","","","0","0","1","","0.2","0.5","0.5","","","0.8","0.2","","","","","","","","","","","","","","75","K","1","","true","0","80_20_practice",""
"","bandit","32","257640","0.0-20.0-11.0","87508934","wem/bandit_either_3","A24LUXW1DB1QI5","either","8","262","","","","","","","1","0","0","0.2","","0.5","0.5","","","","","","","0.8","0.2","","","","","","","","","","75","K","1","","true","0","80_20_practice",""
"","bandit","33","259494","0.0-20.0-12.0","87508934","wem/bandit_either_3","A24LUXW1DB1QI5","either","8","337","","","","","","","0","0","1","","0.2","0.5","0.5","","","0.8","0.2","","","","","","","","","","","","","","75","K","1","","true","0","80_20_practice",""
"","bandit","34","261135","0.0-20.0-13.0","87508934","wem/bandit_either_3","A24LUXW1DB1QI5","either","8","126","","","","","","","0","1","0","","0.8","0.5","0.5","","","0.8","0.2","","","","","","","","","","","","","","74","J","0","img/none_selected_demo.jpg","true","0","80_20_practice",""
"","bandit","35","263226","0.0-20.0-14.0","87508934","wem/bandit_either_3","A24LUXW1DB1QI5","either","8","573","","","","","","","1","0","0","0.8","","0.5","0.5","","","","","","","0.8","0.2","","","","","","","","","","74","J","0","img/none_selected_demo.jpg","true","0","80_20_practice",""
"","bandit","36","265054","0.0-20.0-15.0","87508934","wem/bandit_either_3","A24LUXW1DB1QI5","either","8","311","","","","","","","0","1","0","","0.8","0.5","0.5","","","0.8","0.2","","","","","","","","","","","","","","74","J","0","img/none_selected_demo.jpg","true","0","80_20_practice",""
"","bandit","37","266824","0.0-20.0-16.0","87508934","wem/bandit_either_3","A24LUXW1DB1QI5","either","8","256","","","","","","","0","1","0","","0.8","0.5","0.5","","","0.8","0.2","","","","","","","","","","","","","","74","J","0","img/none_selected_demo.jpg","true","0","80_20_practice",""
"","bandit","38","268624","0.0-20.0-17.0","87508934","wem/bandit_either_3","A24LUXW1DB1QI5","either","8","284","","","","","","","0","1","0","","0.8","0.5","0.5","","","0.8","0.2","","","","","","","","","","","","","","74","J","0","img/none_selected_demo.jpg","true","0","80_20_practice",""
"","bandit","39","270499","0.0-20.0-18.0","87508934","wem/bandit_either_3","A24LUXW1DB1QI5","either","8","359","","","","","","","0","1","0","","0.8","0.5","0.5","","","0.8","0.2","","","","","","","","","","","","","","74","J","0","img/none_selected_demo.jpg","true","0","80_20_practice",""
"","bandit","40","272111","0.0-20.0-19.0","87508934","wem/bandit_either_3","A24LUXW1DB1QI5","either","8","86","","","","","","","0","1","0","","0.8","0.5","0.5","","","0.8","0.2","","","","","","","","","","","","","","74","J","0","img/none_selected_demo.jpg","true","0","80_20_practice",""
"","text","41","275609","0.0-21.0","87508934","wem/bandit_either_3","A24LUXW1DB1QI5","either","8","3484","","32","","","","","","","","","","","","","","","","","","","","","","","","","","","","","","","","","","","",""
"","bandit","42","277895","0.0-22.0-0.0","87508934","wem/bandit_either_3","A24LUXW1DB1QI5","either","8","746","","","","","","","1","0","0","1","0","","","","","0","1","","","1","0","","","","","","","","","","74","J","0","img/none_selected_demo.jpg","true","0","",""
"","text","43","283887","0.0-23.0","87508934","wem/bandit_either_3","A24LUXW1DB1QI5","either","8","5978","","32","","","","","","","","","","","","","","","","","","","","","","","","","","","","","","","","","","","",""
"","text","44","286786","0.0-24.0","87508934","wem/bandit_either_3","A24LUXW1DB1QI5","either","8","2889","","32","","","","","","","","","","","","","","","","","","","","","","","","","","","","","","","","","","","",""
"","text","45","293200","0.0-25.0","87508934","wem/bandit_either_3","A24LUXW1DB1QI5","either","8","6406","","32","","","","","","","","","","","","","","","","","","","","","","","","","","","","","","","","","","","",""
"","text","46","297258","0.0-26.0","87508934","wem/bandit_either_3","A24LUXW1DB1QI5","either","8","4052","","32","","","","","","","","","","","","","","","","","","","","","","","","","","","","","","","","","","","",""
"","text","47","308647","0.0-27.0","87508934","wem/bandit_either_3","A24LUXW1DB1QI5","either","8","11376","","32","","","","","","","","","","","","","","","","","","","","","","","","","","","","","","","","","","","",""
"","text","48","311143","0.0-28.0","87508934","wem/bandit_either_3","A24LUXW1DB1QI5","either","8","2488","","32","","","","","","","","","","","","","","","","","","","","","","","","","","","","","","","","","","","",""
"","text","49","314574","0.0-29.0","87508934","wem/bandit_either_3","A24LUXW1DB1QI5","either","8","3425","","32","","","","","","","","","","","","","","","","","","","","","","","","","","","","","","","","","","","",""
"","text","50","317307","0.0-30.0","87508934","wem/bandit_either_3","A24LUXW1DB1QI5","either","8","2729","","32","","","","","","","","","","","","","","","","","","","","","","","","","","","","","","","","","","","",""
"","text","51","322878","0.0-31.0","87508934","wem/bandit_either_3","A24LUXW1DB1QI5","either","8","5567","","32","","","","","","","","","","","","","","","","","","","","","","","","","","","","","","","","","","","",""
"","text","52","325014","0.0-32.0","87508934","wem/bandit_either_3","A24LUXW1DB1QI5","either","8","2131","","32","","","","","","","","","","","","","","","","","","","","","","","","","","","","","","","","","","","",""
"","text","53","327182","0.0-33.0","87508934","wem/bandit_either_3","A24LUXW1DB1QI5","either","8","2164","","32","","","","","","","","","","","","","","","","","","","","","","","","","","","","","","","","","","","",""
"","bandit","54","329400","0.0-34.0-0.0","87508934","wem/bandit_either_3","A24LUXW1DB1QI5","either","8","693","","","","","","","0","1","0","","0.8","0.5","0.5","0.5","0.5","0.8","0.2","0.6","0.2","","","","","","","","","","","","72","H","0","img/none_selected.jpg","true","0","full_practice",""
"","bandit","55","331283","0.0-34.0-1.0","87508934","wem/bandit_either_3","A24LUXW1DB1QI5","either","8","352","","","","","","","0","1","0","","0.8","0.5","0.5","0.5","0.5","0.8","0.2","0.6","0.2","","","","","","","","","","","","72","H","0","img/none_selected.jpg","true","0","full_practice",""
"","bandit","56","333049","0.0-34.0-2.0","87508934","wem/bandit_either_3","A24LUXW1DB1QI5","either","8","247","","","","","","","0","1","0","","0.8","0.5","0.5","0.5","0.5","0.8","0.2","0.6","0.2","","","","","","","","","","","","72","H","0","img/none_selected.jpg","true","0","full_practice",""
"","bandit","57","335109","0.0-34.0-3.0","87508934","wem/bandit_either_3","A24LUXW1DB1QI5","either","8","540","","","","","","","0","1","0","","0.8","0.5","0.5","0.5","0.5","0.8","0.2","0.6","0.2","","","","","","","","","","","","72","H","0","img/none_selected.jpg","true","0","full_practice",""
"","bandit","58","336966","0.0-34.0-4.0","87508934","wem/bandit_either_3","A24LUXW1DB1QI5","either","8","342","","","","","","","0","1","0","","0.8","0.5","0.5","0.5","0.5","0.8","0.2","0.6","0.2","","","","","","","","","","","","72","H","0","img/none_selected.jpg","true","0","full_practice",""
"","bandit","59","338773","0.0-34.0-5.0","87508934","wem/bandit_either_3","A24LUXW1DB1QI5","either","8","286","","","","","","","0","1","0","","0.8","0.5","0.5","0.5","0.5","0.8","0.2","0.6","0.2","","","","","","","","","","","","72","H","0","img/none_selected.jpg","true","0","full_practice",""
"","bandit","60","340578","0.0-34.0-6.0","87508934","wem/bandit_either_3","A24LUXW1DB1QI5","either","8","266","","","","","","","0","1","0","","0.8","0.5","0.5","0.5","0.5","0.8","0.2","0.6","0.2","","","","","","","","","","","","72","H","0","img/none_selected.jpg","true","0","full_practice",""
"","bandit","61","342449","0.0-34.0-7.0","87508934","wem/bandit_either_3","A24LUXW1DB1QI5","either","8","343","","","","","","","1","0","0","0.8","","0.5","0.5","0.5","0.5","","","","","0.8","0.2","0.6","0.2","","","","","","","","72","H","0","img/none_selected.jpg","true","0","full_practice",""
"","bandit","62","344367","0.0-34.0-8.0","87508934","wem/bandit_either_3","A24LUXW1DB1QI5","either","8","397","","","","","","","0","1","0","","0.8","0.5","0.5","0.5","0.5","0.8","0.2","0.6","0.2","","","","","","","","","","","","72","H","0","img/none_selected.jpg","true","0","full_practice",""
"","bandit","63","346171","0.0-34.0-9.0","87508934","wem/bandit_either_3","A24LUXW1DB1QI5","either","8","285","","","","","","","0","0","1","0.8","","0.5","0.5","0.5","0.5","","","","","0.8","0.2","0.6","0.2","","","","","","","","72","H","0","img/none_selected.jpg","true","0","full_practice",""
"","bandit","64","347895","0.0-34.0-10.0","87508934","wem/bandit_either_3","A24LUXW1DB1QI5","either","8","205","","","","","","","0","0","1","","0.2","0.5","0.5","0.5","0.5","0.8","0.2","0.6","0.2","","","","","","","","","","","","74","J","1","","true","0","full_practice",""
"","bandit","65","349660","0.0-34.0-11.0","87508934","wem/bandit_either_3","A24LUXW1DB1QI5","either","8","222","","","","","","","0","1","0","","0.6","0.5","0.5","0.5","0.5","0.8","0.2","0.6","0.2","","","","","","","","","","","","75","K","2","","true","0","full_practice",""
"","bandit","66","351222","0.0-34.0-12.0","87508934","wem/bandit_either_3","A24LUXW1DB1QI5","either","8","21","","","","","","","0","1","0","","0.6","0.5","0.5","0.5","0.5","0.8","0.2","0.6","0.2","","","","","","","","","","","","75","K","2","","true","0","full_practice",""
"","bandit","67","353137","0.0-34.0-13.0","87508934","wem/bandit_either_3","A24LUXW1DB1QI5","either","8","391","","","","","","","0","1","0","","0.6","0.5","0.5","0.5","0.5","0.8","0.2","0.6","0.2","","","","","","","","","","","","75","K","2","","true","0","full_practice",""
"","bandit","68","354830","0.0-34.0-14.0","87508934","wem/bandit_either_3","A24LUXW1DB1QI5","either","8","154","","","","","","","1","0","0","0.6","","0.5","0.5","0.5","0.5","","","","","0.8","0.2","0.6","0.2","","","","","","","","75","K","2","","true","0","full_practice",""
"","bandit","69","356585","0.0-34.0-15.0","87508934","wem/bandit_either_3","A24LUXW1DB1QI5","either","8","237","","","","","","","0","1","0","","0.6","0.5","0.5","0.5","0.5","0.8","0.2","0.6","0.2","","","","","","","","","","","","75","K","2","","true","0","full_practice",""
"","bandit","70","358935","0.0-34.0-16.0","87508934","wem/bandit_either_3","A24LUXW1DB1QI5","either","8","811","","","","","","","1","0","0","0.6","","0.5","0.5","0.5","0.5","","","","","0.8","0.2","0.6","0.2","","","","","","","","75","K","2","","true","0","full_practice",""
"","bandit","71","360925","0.0-34.0-17.0","87508934","wem/bandit_either_3","A24LUXW1DB1QI5","either","8","467","","","","","","","0","1","0","","0.6","0.5","0.5","0.5","0.5","0.8","0.2","0.6","0.2","","","","","","","","","","","","75","K","2","","true","0","full_practice",""
"","bandit","72","363077","0.0-34.0-18.0","87508934","wem/bandit_either_3","A24LUXW1DB1QI5","either","8","631","","","","","","","0","1","0","","0.6","0.5","0.5","0.5","0.5","0.8","0.2","0.6","0.2","","","","","","","","","","","","75","K","2","","true","0","full_practice",""
"","bandit","73","364773","0.0-34.0-19.0","87508934","wem/bandit_either_3","A24LUXW1DB1QI5","either","8","179","","","","","","","0","0","1","","0.6","0.5","0.5","0.5","0.5","0.8","0.2","0.6","0.2","","","","","","","","","","","","75","K","2","","true","0","full_practice",""
"","text","74","367542","0.0-35.0","87508934","wem/bandit_either_3","A24LUXW1DB1QI5","either","8","2759","","32","","","","","","","","","","","","","","","","","","","","","","","","","","","","","","","","","","","",""
"","text","75","385083","0.0-36.0","87508934","wem/bandit_either_3","A24LUXW1DB1QI5","either","8","16535","","32","","","","","","","","","","","","","","","","","","","","","","","","","","","","","","","","","","","",""
"","text","76","390378","0.0-37.0","87508934","wem/bandit_either_3","A24LUXW1DB1QI5","either","8","5284","","32","","","","","","","","","","","","","","","","","","","","","","","","","","","","","","","","","","","",""
"","text","77","397878","0.0-38.0","87508934","wem/bandit_either_3","A24LUXW1DB1QI5","either","8","7486","","32","","","","","","","","","","","","","","","","","","","","","","","","","","","","","","","","","","","",""
"","text","78","401761","0.0-39.0","87508934","wem/bandit_either_3","A24LUXW1DB1QI5","either","8","3869","","32","","","","","","","","","","","","","","","","","","","","","","","","","","","","","","","","","","","",""
"","text","79","405436","0.0-40.0","87508934","wem/bandit_either_3","A24LUXW1DB1QI5","either","8","3666","","32","","","","","","","","","","","","","","","","","","","","","","","","","","","","","","","","","","","",""
"","bandit","80","408497","0.0-41.0-0.0","87508934","wem/bandit_either_3","A24LUXW1DB1QI5","either","8","1527","","","","","","","0","0","1","","0.3040937467","0.6","0.2","0.8","0.4","0.6337563202","0.2428949588","0.4468950172","0.3040937467","","","","","","","","","","","","76","L","3","","","1","main_expt",""
"","bandit","81","410158","0.0-42.0-0.0","87508934","wem/bandit_either_3","A24LUXW1DB1QI5","either","8","95","","","","","","","1","0","0","0.3846124694","","0.6","0.2","0.8","0.4","","","","","0.7380673114","0.248961424","0.3846124694","0.2687625136","","","","","","","","75","K","2","","","2","main_expt",""
"","bandit","82","412246","0.0-43.0-0.0","87508934","wem/bandit_either_3","A24LUXW1DB1QI5","either","8","545","","","","","","","0","0","1","","0.3885967974","0.6","0.2","0.8","0.4","0.7715549737","0.1878604038","0.3885967974","0.3017919557","","","","","","","","","","","","75","K","2","","","3","main_expt",""
"","bandit","83","414302","0.0-44.0-0.0","87508934","wem/bandit_either_3","A24LUXW1DB1QI5","either","8","531","","","","","","","0","1","0","","0.1194049449","0.6","0.2","0.8","0.4","0.8257013646","0.1194049449","0.2891644394","0.3388517529","","","","","","","","","","","","74","J","1","","","4","main_expt",""
"","bandit","84","416267","0.0-45.0-0.0","87508934","wem/bandit_either_3","A24LUXW1DB1QI5","either","8","438","","","","","","","0","0","1","","0.197046458","0.6","0.2","0.8","0.4","0.8617886559","0.197046458","0.2654579937","0.389096829","","","","","","","","","","","","74","J","1","","","5","main_expt",""
"","bandit","85","418316","0.0-46.0-0.0","87508934","wem/bandit_either_3","A24LUXW1DB1QI5","either","8","528","","","","","","","0","0","1","0.8452125903","","0.6","0.2","0.8","0.4","","","","","0.8452125903","0.2312720201","0.355160999","0.4799636182","","","","","","","","72","H","0","img/none_selected.jpg","","6","main_expt",""
"","bandit","86","420119","0.0-47.0-0.0","87508934","wem/bandit_either_3","A24LUXW1DB1QI5","either","8","282","","","","","","","1","0","0","0.4733904832","","0.6","0.2","0.8","0.4","","","","","0.8765288384","0.3255591742","0.4733904832","0.5316557606","","","","","","","","75","K","2","","","7","main_expt",""
"","bandit","87","421878","0.0-48.0-0.0","87508934","wem/bandit_either_3","A24LUXW1DB1QI5","either","8","239","","","","","","","1","0","0","0.4900136729","","0.6","0.2","0.8","0.4","","","","","0.8625068071","0.163151729","0.4900136729","0.4935712437","","","","","","","","75","K","2","","","8","main_expt",""
"","bandit","88","423695","0.0-49.0-0.0","87508934","wem/bandit_either_3","A24LUXW1DB1QI5","either","8","299","","","","","","","1","0","0","0.4543552171","","0.6","0.2","0.8","0.4","","","","","0.8385781597","0.1671639775","0.4543552171","0.5400450001","","","","","","","","75","K","2","","","9","main_expt",""
"","bandit","89","425574","0.0-50.0-0.0","87508934","wem/bandit_either_3","A24LUXW1DB1QI5","either","8","362","","","","","","","0","0","1","","0.4523920981","0.6","0.2","0.8","0.4","0.833356221","0.1315225434","0.4523920981","0.6510952772","","","","","","","","","","","","75","K","2","","","10","main_expt",""
"","bandit","90","427477","0.0-51.0-0.0","87508934","wem/bandit_either_3","A24LUXW1DB1QI5","either","8","385","","","","","","","1","0","0","0.4053083118","","0.6","0.2","0.8","0.4","","","","","0.9030756702","0.1287002637","0.4053083118","0.6117649901","","","","","","","","75","K","2","","","11","main_expt",""
"","bandit","91","429579","0.0-52.0-0.0","87508934","wem/bandit_either_3","A24LUXW1DB1QI5","either","8","583","","","","","","","1","0","0","0.4059907931","","0.6","0.2","0.8","0.4","","","","","0.9129290363","0.1026596936","0.4059907931","0.6360746298","","","","","","","","75","K","2","","","12","main_expt",""
"","bandit","92","431444","0.0-53.0-0.0","87508934","wem/bandit_either_3","A24LUXW1DB1QI5","either","8","345","","","","","","","0","1","0","","0.2934167972","0.6","0.2","0.8","0.4","0.8638417716","0.1287514256","0.2934167972","0.5673960652","","","","","","","","","","","","75","K","2","","","13","main_expt",""
"","bandit","93","433366","0.0-54.0-0.0","87508934","wem/bandit_either_3","A24LUXW1DB1QI5","either","8","405","","","","","","","0","0","1","0.3260927596","","0.6","0.2","0.8","0.4","","","","","0.787806988","0.1786171179","0.3260927596","0.6747725803","","","","","","","","75","K","2","","","14","main_expt",""
"","bandit","94","434904","0.0-55.0-0.0","87508934","wem/bandit_either_3","A24LUXW1DB1QI5","either","8","6","","","","","","","0","0","1","0.3355382734","","0.6","0.2","0.8","0.4","","","","","0.7254212376","0.1459410532","0.3355382734","0.6277188345","","","","","","","","75","K","2","","","15","main_expt",""
"","bandit","95","436884","0.0-56.0-0.0","87508934","wem/bandit_either_3","A24LUXW1DB1QI5","either","8","462","","","","","","","0","1","0","","0.7238415528","0.6","0.2","0.8","0.4","0.7238415528","0.2255600906","0.3040928121","0.5435568235","","","","","","","","","","","","72","H","0","img/none_selected.jpg","","16","main_expt",""
"","bandit","96","438724","0.0-57.0-0.0","87508934","wem/bandit_either_3","A24LUXW1DB1QI5","either","8","322","","","","","","","0","0","1","0.7796243455","","0.6","0.2","0.8","0.4","","","","","0.7796243455","0.2052013943","0.2730366263","0.4180161478","","","","","","","","72","H","0","img/none_selected.jpg","","17","main_expt",""
"","bandit","97","440934","0.0-58.0-0.0","87508934","wem/bandit_either_3","A24LUXW1DB1QI5","either","8","692","","","","","","","0","0","1","","0.1780354615","0.6","0.2","0.8","0.4","0.6928902724","0.1780354615","0.4105298721","0.4961111773","","","","","","","","","","","","74","J","1","","","18","main_expt",""
"","bandit","98","442810","0.0-59.0-0.0","87508934","wem/bandit_either_3","A24LUXW1DB1QI5","either","8","358","","","","","","","0","0","1","","0.445530788","0.6","0.2","0.8","0.4","0.7658630901","0.1576496117","0.3586923344","0.445530788","","","","","","","","","","","","76","L","3","","","19","main_expt",""
"","bandit","99","444643","0.0-60.0-0.0","87508934","wem/bandit_either_3","A24LUXW1DB1QI5","either","8","315","","","","","","","0","1","0","","0.7584200513","0.6","0.2","0.8","0.4","0.7584200513","0.1618752313","0.3220075653","0.3443163705","","","","","","","","","","","","72","H","0","img/none_selected.jpg","","20","main_expt",""
"","bandit","100","446514","0.0-61.0-0.0","87508934","wem/bandit_either_3","A24LUXW1DB1QI5","either","8","352","","","","","","","0","0","1","0.7727038765","","0.6","0.2","0.8","0.4","","","","","0.7727038765","0.2152187387","0.2729660799","0.3012808647","","","","","","","","72","H","0","img/none_selected.jpg","","21","main_expt",""
"","bandit","101","448364","0.0-62.0-0.0","87508934","wem/bandit_either_3","A24LUXW1DB1QI5","either","8","323","","","","","","","0","0","1","","0.8152565923","0.6","0.2","0.8","0.4","0.8152565923","0.3547982299","0.2712352107","0.2882062485","","","","","","","","","","","","72","H","0","img/none_selected.jpg","","22","main_expt",""
"","bandit","102","449962","0.0-63.0-0.0","87508934","wem/bandit_either_3","A24LUXW1DB1QI5","either","8","77","","","","","","","0","0","1","","0.323805638","0.6","0.2","0.8","0.4","0.7537075358","0.323805638","0.3390855774","0.2113421372","","","","","","","","","","","","74","J","1","","","23","main_expt",""
"","bandit","103","451954","0.0-64.0-0.0","87508934","wem/bandit_either_3","A24LUXW1DB1QI5","either","8","476","","","","","","","0","1","0","","0.2201805416","0.6","0.2","0.8","0.4","0.7108822858","0.3588909826","0.3483259141","0.2201805416","","","","","","","","","","","","76","L","3","","","24","main_expt",""
"","bandit","104","453981","0.0-65.0-0.0","87508934","wem/bandit_either_3","A24LUXW1DB1QI5","either","8","510","","","","","","","0","0","1","0.2580956466","","0.6","0.2","0.8","0.4","","","","","0.6930515954","0.3885553436","0.3416976173","0.2580956466","","","","","","","","76","L","3","","","25","main_expt",""
"","bandit","105","455893","0.0-66.0-0.0","87508934","wem/bandit_either_3","A24LUXW1DB1QI5","either","8","390","","","","","","","0","0","1","0.4243476322","","0.6","0.2","0.8","0.4","","","","","0.6905393417","0.4871556374","0.4243476322","0.2153432854","","","","","","","","75","K","2","","","26","main_expt",""
"","bandit","106","457762","0.0-67.0-0.0","87508934","wem/bandit_either_3","A24LUXW1DB1QI5","either","8","350","","","","","","","0","0","1","","0.4934119911","0.6","0.2","0.8","0.4","0.7531652131","0.4934119911","0.5257754898","0.1727955236","","","","","","","","","","","","74","J","1","","","27","main_expt",""
"","bandit","107","459697","0.0-68.0-0.0","87508934","wem/bandit_either_3","A24LUXW1DB1QI5","either","8","415","","","","","","","0","0","1","","0.1894296703","0.6","0.2","0.8","0.4","0.8001777041","0.4322092846","0.5246232361","0.1894296703","","","","","","","","","","","","76","L","3","","","28","main_expt",""
"","bandit","108","461495","0.0-69.0-0.0","87508934","wem/bandit_either_3","A24LUXW1DB1QI5","either","8","279","","","","","","","1","0","0","0.8118404327","","0.6","0.2","0.8","0.4","","","","","0.8118404327","0.3459113699","0.375994784","0.2128919211","","","","","","","","72","H","0","img/none_selected.jpg","","29","main_expt",""
"","bandit","109","463275","0.0-70.0-0.0","87508934","wem/bandit_either_3","A24LUXW1DB1QI5","either","8","263","","","","","","","1","0","0","0.7839534503","","0.6","0.2","0.8","0.4","","","","","0.7839534503","0.280789843","0.2936890161","0.206056468","","","","","","","","72","H","0","img/none_selected.jpg","","30","main_expt",""
"","bandit","110","465147","0.0-71.0-0.0","87508934","wem/bandit_either_3","A24LUXW1DB1QI5","either","8","354","","","","","","","0","0","1","","0.8066372971","0.6","0.2","0.8","0.4","0.8066372971","0.2613810438","0.2878812258","0.1725623241","","","","","","","","","","","","72","H","0","img/none_selected.jpg","","31","main_expt",""
"","bandit","111","466940","0.0-72.0-0.0","87508934","wem/bandit_either_3","A24LUXW1DB1QI5","either","8","275","","","","","","","1","0","0","0.8049259064","","0.6","0.2","0.8","0.4","","","","","0.8049259064","0.3821585683","0.2451492808","0.1629883914","","","","","","","","72","H","0","img/none_selected.jpg","","32","main_expt",""
"","bandit","112","468754","0.0-73.0-0.0","87508934","wem/bandit_either_3","A24LUXW1DB1QI5","either","8","297","","","","","","","1","0","0","0.7891664673","","0.6","0.2","0.8","0.4","","","","","0.7891664673","0.2714925976","0.2802113289","0.2107911223","","","","","","","","72","H","0","img/none_selected.jpg","","33","main_expt",""
"","bandit","113","470643","0.0-74.0-0.0","87508934","wem/bandit_either_3","A24LUXW1DB1QI5","either","8","372","","","","","","","1","0","0","0.7854278051","","0.6","0.2","0.8","0.4","","","","","0.7854278051","0.2755575364","0.2892342718","0.1025901997","","","","","","","","72","H","0","img/none_selected.jpg","","34","main_expt",""
"","bandit","114","472535","0.0-75.0-0.0","87508934","wem/bandit_either_3","A24LUXW1DB1QI5","either","8","375","","","","","","","0","1","0","","0.7260182018","0.6","0.2","0.8","0.4","0.7260182018","0.2697856654","0.2486893666","0.1289879153","","","","","","","","","","","","72","H","0","img/none_selected.jpg","","35","main_expt",""
"","bandit","115","474474","0.0-76.0-0.0","87508934","wem/bandit_either_3","A24LUXW1DB1QI5","either","8","421","","","","","","","0","1","0","","0.7910957192","0.6","0.2","0.8","0.4","0.7910957192","0.2483646443","0.3536408983","0.1645491317","","","","","","","","","","","","72","H","0","img/none_selected.jpg","","36","main_expt",""
"","bandit","116","476336","0.0-77.0-0.0","87508934","wem/bandit_either_3","A24LUXW1DB1QI5","either","8","308","","","","","","","0","1","0","","0.7996551039","0.6","0.2","0.8","0.4","0.7996551039","0.2103950957","0.2493566902","0.1698046746","","","","","","","","","","","","72","H","0","img/none_selected.jpg","","37","main_expt",""
"","bandit","117","478204","0.0-78.0-0.0","87508934","wem/bandit_either_3","A24LUXW1DB1QI5","either","8","325","","","","","","","1","0","0","0.6717479894","","0.6","0.2","0.8","0.4","","","","","0.6717479894","0.2128944509","0.2948354516","0.2281502886","","","","","","","","72","H","0","img/none_selected.jpg","","38","main_expt",""
"","bandit","118","480080","0.0-79.0-0.0","87508934","wem/bandit_either_3","A24LUXW1DB1QI5","either","8","347","","","","","","","1","0","0","0.7121128808","","0.6","0.2","0.8","0.4","","","","","0.7121128808","0.2965153327","0.3373274679","0.1561271762","","","","","","","","72","H","0","img/none_selected.jpg","","39","main_expt",""
"","bandit","119","482047","0.0-80.0-0.0","87508934","wem/bandit_either_3","A24LUXW1DB1QI5","either","8","426","","","","","","","1","0","0","0.7157410044","","0.6","0.2","0.8","0.4","","","","","0.7157410044","0.4447532253","0.4138768052","0.1543620621","","","","","","","","72","H","0","img/none_selected.jpg","","40","main_expt",""
"","bandit","120","483957","0.0-81.0-0.0","87508934","wem/bandit_either_3","A24LUXW1DB1QI5","either","8","370","","","","","","","0","0","1","0.681196038","","0.6","0.2","0.8","0.4","","","","","0.681196038","0.5330008696","0.438096834","0.2271499981","","","","","","","","72","H","0","img/none_selected.jpg","","41","main_expt",""
"","bandit","121","485884","0.0-82.0-0.0","87508934","wem/bandit_either_3","A24LUXW1DB1QI5","either","8","400","","","","","","","0","1","0","","0.6504320647","0.6","0.2","0.8","0.4","0.6504320647","0.573861049","0.4185173612","0.2882452936","","","","","","","","","","","","72","H","0","img/none_selected.jpg","","42","main_expt",""
"","bandit","122","487717","0.0-83.0-0.0","87508934","wem/bandit_either_3","A24LUXW1DB1QI5","either","8","311","","","","","","","0","0","1","0.7369830744","","0.6","0.2","0.8","0.4","","","","","0.7369830744","0.6654349765","0.3796335567","0.298522686","","","","","","","","72","H","0","img/none_selected.jpg","","43","main_expt",""
"","bandit","123","489541","0.0-84.0-0.0","87508934","wem/bandit_either_3","A24LUXW1DB1QI5","either","8","275","","","","","","","0","1","0","","0.691198465","0.6","0.2","0.8","0.4","0.6797935378","0.691198465","0.31766129","0.3188886026","","","","","","","","","","","","74","J","1","","","44","main_expt",""
"","bandit","124","491296","0.0-85.0-0.0","87508934","wem/bandit_either_3","A24LUXW1DB1QI5","either","8","215","","","","","","","0","1","0","","0.7652674903","0.6","0.2","0.8","0.4","0.6507473666","0.7652674903","0.4047397141","0.2705760174","","","","","","","","","","","","74","J","1","","","45","main_expt",""
"","bandit","125","493121","0.0-86.0-0.0","87508934","wem/bandit_either_3","A24LUXW1DB1QI5","either","8","297","","","","","","","0","0","1","","0.8065230058","0.6","0.2","0.8","0.4","0.6334510787","0.8065230058","0.4961613307","0.2506880939","","","","","","","","","","","","74","J","1","","","46","main_expt",""
"","bandit","126","494941","0.0-87.0-0.0","87508934","wem/bandit_either_3","A24LUXW1DB1QI5","either","8","284","","","","","","","0","1","0","","0.7774474893","0.6","0.2","0.8","0.4","0.6143175143","0.7774474893","0.4624468315","0.2491585872","","","","","","","","","","","","74","J","1","","","47","main_expt",""
"","bandit","127","496734","0.0-88.0-0.0","87508934","wem/bandit_either_3","A24LUXW1DB1QI5","either","8","270","","","","","","","0","1","0","","0.7693176975","0.6","0.2","0.8","0.4","0.6404512611","0.7693176975","0.4886537242","0.1997021219","","","","","","","","","","","","74","J","1","","","48","main_expt",""
"","bandit","128","498495","0.0-89.0-0.0","87508934","wem/bandit_either_3","A24LUXW1DB1QI5","either","8","235","","","","","","","0","0","1","","0.807419373","0.6","0.2","0.8","0.4","0.6758621215","0.807419373","0.4270302022","0.2119577724","","","","","","","","","","","","74","J","1","","","49","main_expt",""
"","bandit","129","500300","0.0-90.0-0.0","87508934","wem/bandit_either_3","A24LUXW1DB1QI5","either","8","287","","","","","","","0","1","0","","0.8562769227","0.6","0.2","0.8","0.4","0.6873234502","0.8562769227","0.5151345658","0.2615271711","","","","","","","","","","","","74","J","1","","","50","main_expt",""
"","bandit","130","502105","0.0-91.0-0.0","87508934","wem/bandit_either_3","A24LUXW1DB1QI5","either","8","286","","","","","","","0","1","0","","0.8705114925","0.6","0.2","0.8","0.4","0.7776044395","0.8705114925","0.5134524181","0.2764427577","","","","","","","","","","","","74","J","1","","","51","main_expt",""
"","bandit","131","503981","0.0-92.0-0.0","87508934","wem/bandit_either_3","A24LUXW1DB1QI5","either","8","357","","","","","","","1","0","0","0.9310361031","","0.6","0.2","0.8","0.4","","","","","0.8403410939","0.9310361031","0.4842684999","0.3833776697","","","","","","","","74","J","1","","","52","main_expt",""
"","bandit","132","505830","0.0-93.0-0.0","87508934","wem/bandit_either_3","A24LUXW1DB1QI5","either","8","329","","","","","","","0","1","0","","0.905794742","0.6","0.2","0.8","0.4","0.8151983534","0.905794742","0.4412850773","0.4356502318","","","","","","","","","","","","74","J","1","","","53","main_expt",""
"","bandit","133","507696","0.0-94.0-0.0","87508934","wem/bandit_either_3","A24LUXW1DB1QI5","either","8","345","","","","","","","1","0","0","0.9391541593","","0.6","0.2","0.8","0.4","","","","","0.8081222638","0.9391541593","0.4397693946","0.4120588364","","","","","","","","74","J","1","","","54","main_expt",""
"","bandit","134","509524","0.0-95.0-0.0","87508934","wem/bandit_either_3","A24LUXW1DB1QI5","either","8","306","","","","","","","0","1","0","","0.9596285882","0.6","0.2","0.8","0.4","0.742009976","0.9596285882","0.3928202278","0.2714296105","","","","","","","","","","","","74","J","1","","","55","main_expt",""
"","bandit","135","511329","0.0-96.0-0.0","87508934","wem/bandit_either_3","A24LUXW1DB1QI5","either","8","283","","","","","","","0","1","0","","0.9565658233","0.6","0.2","0.8","0.4","0.7065076074","0.9565658233","0.4593665993","0.2122311877","","","","","","","","","","","","74","J","1","","","56","main_expt",""
"","bandit","136","513205","0.0-97.0-0.0","87508934","wem/bandit_either_3","A24LUXW1DB1QI5","either","8","358","","","","","","","0","1","0","","0.9681540372","0.6","0.2","0.8","0.4","0.6860695476","0.9681540372","0.4006145211","0.2282278588","","","","","","","","","","","","74","J","1","","","57","main_expt",""
"","bandit","137","514786","0.0-98.0-0.0","87508934","wem/bandit_either_3","A24LUXW1DB1QI5","either","8","60","","","","","","","1","0","0","0.9207083952","","0.6","0.2","0.8","0.4","","","","","0.742301155","0.9207083952","0.4597890412","0.1392076118","","","","","","","","74","J","1","","","58","main_expt",""
"","bandit","138","516648","0.0-99.0-0.0","87508934","wem/bandit_either_3","A24LUXW1DB1QI5","either","8","331","","","","","","","0","1","0","","0.9178227258","0.6","0.2","0.8","0.4","0.5291004622","0.9178227258","0.4232266093","0.1706239206","","","","","","","","","","","","74","J","1","","","59","main_expt",""
"","bandit","139","518592","0.0-100.0-0.0","87508934","wem/bandit_either_3","A24LUXW1DB1QI5","either","8","426","","","","","","","0","1","0","","0.8951285427","0.6","0.2","0.8","0.4","0.6348838793","0.8951285427","0.3565880291","0.1674269281","","","","","","","","","","","","74","J","1","","","60","main_expt",""
"","bandit","140","520489","0.0-101.0-0.0","87508934","wem/bandit_either_3","A24LUXW1DB1QI5","either","8","374","","","","","","","0","1","0","","0.8506814954","0.6","0.2","0.8","0.4","0.6796423313","0.8506814954","0.3663276413","0.2182313474","","","","","","","","","","","","74","J","1","","","61","main_expt",""
"","bandit","141","522424","0.0-102.0-0.0","87508934","wem/bandit_either_3","A24LUXW1DB1QI5","either","8","415","","","","","","","0","0","1","","0.8513854559","0.6","0.2","0.8","0.4","0.6928172916","0.8513854559","0.3193005293","0.2949218256","","","","","","","","","","","","74","J","1","","","62","main_expt",""
"","bandit","142","524206","0.0-103.0-0.0","87508934","wem/bandit_either_3","A24LUXW1DB1QI5","either","8","261","","","","","","","0","1","0","","0.8927579502","0.6","0.2","0.8","0.4","0.6996506825","0.8927579502","0.1562068481","0.3170222383","","","","","","","","","","","","74","J","1","","","63","main_expt",""
"","bandit","143","526032","0.0-104.0-0.0","87508934","wem/bandit_either_3","A24LUXW1DB1QI5","either","8","298","","","","","","","0","1","0","","0.9217936765","0.6","0.2","0.8","0.4","0.7294442249","0.9217936765","0.2300477965","0.3033511374","","","","","","","","","","","","74","J","1","","","64","main_expt",""
"","bandit","144","527964","0.0-105.0-0.0","87508934","wem/bandit_either_3","A24LUXW1DB1QI5","either","8","414","","","","","","","0","1","0","","0.9357047413","0.6","0.2","0.8","0.4","0.6605354899","0.9357047413","0.2869838185","0.3973690147","","","","","","","","","","","","74","J","1","","","65","main_expt",""
"","bandit","145","529801","0.0-106.0-0.0","87508934","wem/bandit_either_3","A24LUXW1DB1QI5","either","8","319","","","","","","","1","0","0","0.910343843","","0.6","0.2","0.8","0.4","","","","","0.6959621059","0.910343843","0.3287476356","0.4320294497","","","","","","","","74","J","1","","","66","main_expt",""
"","bandit","146","531723","0.0-107.0-0.0","87508934","wem/bandit_either_3","A24LUXW1DB1QI5","either","8","403","","","","","","","0","1","0","","0.9022080512","0.6","0.2","0.8","0.4","0.653899752","0.9022080512","0.3018365728","0.3208465419","","","","","","","","","","","","74","J","1","","","67","main_expt",""
"","bandit","147","533681","0.0-108.0-0.0","87508934","wem/bandit_either_3","A24LUXW1DB1QI5","either","8","435","","","","","","","0","1","0","","0.8492414063","0.6","0.2","0.8","0.4","0.6517851336","0.8492414063","0.3208616414","0.3570730799","","","","","","","","","","","","74","J","1","","","68","main_expt",""
"","bandit","148","535523","0.0-109.0-0.0","87508934","wem/bandit_either_3","A24LUXW1DB1QI5","either","8","324","","","","","","","0","1","0","","0.768219052","0.6","0.2","0.8","0.4","0.7011615004","0.768219052","0.386863802","0.3451514791","","","","","","","","","","","","74","J","1","","","69","main_expt",""
"","bandit","149","537054","0.0-110.0-0.0","87508934","wem/bandit_either_3","A24LUXW1DB1QI5","either","8","10","","","","","","","0","0","1","","0.7996218848","0.6","0.2","0.8","0.4","0.6278947594","0.7996218848","0.3628244161","0.3127714871","","","","","","","","","","","","74","J","1","","","70","main_expt",""
"","bandit","150","538982","0.0-111.0-0.0","87508934","wem/bandit_either_3","A24LUXW1DB1QI5","either","8","390","","","","","","","0","1","0","","0.9130189757","0.6","0.2","0.8","0.4","0.688517509","0.9130189757","0.2969295023","0.3855297895","","","","","","","","","","","","74","J","1","","","71","main_expt",""
"","bandit","151","540913","0.0-112.0-0.0","87508934","wem/bandit_either_3","A24LUXW1DB1QI5","either","8","391","","","","","","","0","1","0","","0.9016843832","0.6","0.2","0.8","0.4","0.6125440106","0.9016843832","0.3512325323","0.3555010044","","","","","","","","","","","","74","J","1","","","72","main_expt",""
"","bandit","152","543002","0.0-113.0-0.0","87508934","wem/bandit_either_3","A24LUXW1DB1QI5","either","8","539","","","","","","","0","1","0","","0.9166584401","0.6","0.2","0.8","0.4","0.4884410468","0.9166584401","0.3845321254","0.3278360739","","","","","","","","","","","","74","J","1","","","73","main_expt",""
"","bandit","153","545012","0.0-114.0-0.0","87508934","wem/bandit_either_3","A24LUXW1DB1QI5","either","8","468","","","","","","","0","1","0","","0.8699410266","0.6","0.2","0.8","0.4","0.5800760741","0.8699410266","0.3760614253","0.3275161349","","","","","","","","","","","","74","J","1","","","74","main_expt",""
"","bandit","154","546874","0.0-115.0-0.0","87508934","wem/bandit_either_3","A24LUXW1DB1QI5","either","8","326","","","","","","","0","1","0","","0.8192171788","0.6","0.2","0.8","0.4","0.6614390465","0.8192171788","0.370831352","0.3454333807","","","","","","","","","","","","74","J","1","","","75","main_expt",""
"","bandit","155","548844","0.0-116.0-0.0","87508934","wem/bandit_either_3","A24LUXW1DB1QI5","either","8","444","","","","","","","0","1","0","","0.8990587115","0.6","0.2","0.8","0.4","0.6861570843","0.8990587115","0.4008199491","0.4213924804","","","","","","","","","","","","74","J","1","","","76","main_expt",""
"","bandit","156","550781","0.0-117.0-0.0","87508934","wem/bandit_either_3","A24LUXW1DB1QI5","either","8","409","","","","","","","1","0","0","0.9062137116","","0.6","0.2","0.8","0.4","","","","","0.5980737028","0.9062137116","0.3928984844","0.439510692","","","","","","","","74","J","1","","","77","main_expt",""
"","bandit","157","552764","0.0-118.0-0.0","87508934","wem/bandit_either_3","A24LUXW1DB1QI5","either","8","440","","","","","","","0","1","0","","0.9215914722","0.6","0.2","0.8","0.4","0.6754083514","0.9215914722","0.4709058574","0.4419424199","","","","","","","","","","","","74","J","1","","","78","main_expt",""
"","bandit","158","554715","0.0-119.0-0.0","87508934","wem/bandit_either_3","A24LUXW1DB1QI5","either","8","419","","","","","","","0","0","1","","0.895443078","0.6","0.2","0.8","0.4","0.7012934339","0.895443078","0.4971614577","0.5056762283","","","","","","","","","","","","74","J","1","","","79","main_expt",""
"","bandit","159","556556","0.0-120.0-0.0","87508934","wem/bandit_either_3","A24LUXW1DB1QI5","either","8","318","","","","","","","1","0","0","0.7789772955","","0.6","0.2","0.8","0.4","","","","","0.7067798052","0.7789772955","0.4828267768","0.4558190996","","","","","","","","74","J","1","","","80","main_expt",""
"","bandit","160","558740","0.0-121.0-0.0","87508934","wem/bandit_either_3","A24LUXW1DB1QI5","either","8","661","","","","","","","0","0","1","","0.755426824","0.6","0.2","0.8","0.4","0.7259433061","0.755426824","0.4280570329","0.4774921548","","","","","","","","","","","","74","J","1","","","81","main_expt",""
"","bandit","161","560537","0.0-122.0-0.0","87508934","wem/bandit_either_3","A24LUXW1DB1QI5","either","8","275","","","","","","","0","0","1","0.486136241","","0.6","0.2","0.8","0.4","","","","","0.7022130872","0.8356426425","0.486136241","0.3611036613","","","","","","","","75","K","2","","","82","main_expt",""
"","bandit","162","562341","0.0-123.0-0.0","87508934","wem/bandit_either_3","A24LUXW1DB1QI5","either","8","282","","","","","","","0","0","1","0.3539143083","","0.6","0.2","0.8","0.4","","","","","0.75927227","0.8783145762","0.3539143083","0.3341354767","","","","","","","","75","K","2","","","83","main_expt",""
"","bandit","163","564248","0.0-124.0-0.0","87508934","wem/bandit_either_3","A24LUXW1DB1QI5","either","8","387","","","","","","","0","0","1","","0.288479151","0.6","0.2","0.8","0.4","0.8556046088","0.9087743635","0.374811954","0.288479151","","","","","","","","","","","","76","L","3","","","84","main_expt",""
"","bandit","164","566069","0.0-125.0-0.0","87508934","wem/bandit_either_3","A24LUXW1DB1QI5","either","8","300","","","","","","","0","0","1","0.3061923995","","0.6","0.2","0.8","0.4","","","","","0.7835234447","0.8632011641","0.4518264681","0.3061923995","","","","","","","","76","L","3","","","85","main_expt",""
"","bandit","165","567876","0.0-126.0-0.0","87508934","wem/bandit_either_3","A24LUXW1DB1QI5","either","8","285","","","","","","","1","0","0","0.7037548709","","0.6","0.2","0.8","0.4","","","","","0.7037548709","0.8341253046","0.461936863","0.3370204437","","","","","","","","72","H","0","img/none_selected.jpg","","86","main_expt",""
"","bandit","166","569672","0.0-127.0-0.0","87508934","wem/bandit_either_3","A24LUXW1DB1QI5","either","8","274","","","","","","","1","0","0","0.6903674631","","0.6","0.2","0.8","0.4","","","","","0.6903674631","0.8728746981","0.3681660755","0.3900809043","","","","","","","","72","H","0","img/none_selected.jpg","","87","main_expt",""
"","bandit","167","571625","0.0-128.0-0.0","87508934","wem/bandit_either_3","A24LUXW1DB1QI5","either","8","427","","","","","","","0","0","1","0.5883284312","","0.6","0.2","0.8","0.4","","","","","0.5883284312","0.8408980459","0.3788462328","0.4296615172","","","","","","","","72","H","0","img/none_selected.jpg","","88","main_expt",""
"","bandit","168","573502","0.0-129.0-0.0","87508934","wem/bandit_either_3","A24LUXW1DB1QI5","either","8","356","","","","","","","1","0","0","0.5258490985","","0.6","0.2","0.8","0.4","","","","","0.5258490985","0.8585781628","0.3316952272","0.4636560077","","","","","","","","72","H","0","img/none_selected.jpg","","89","main_expt",""
"","bandit","169","575330","0.0-130.0-0.0","87508934","wem/bandit_either_3","A24LUXW1DB1QI5","either","8","308","","","","","","","0","0","1","0.6395041767","","0.6","0.2","0.8","0.4","","","","","0.6395041767","0.925840658","0.438068917","0.4463585346","","","","","","","","72","H","0","img/none_selected.jpg","","90","main_expt",""
"","bandit","170","577239","0.0-131.0-0.0","87508934","wem/bandit_either_3","A24LUXW1DB1QI5","either","8","387","","","","","","","1","0","0","0.6931091445","","0.6","0.2","0.8","0.4","","","","","0.6931091445","0.9201841885","0.5158843935","0.4734463503","","","","","","","","72","H","0","img/none_selected.jpg","","91","main_expt",""
"","bandit","171","579142","0.0-132.0-0.0","87508934","wem/bandit_either_3","A24LUXW1DB1QI5","either","8","383","","","","","","","1","0","0","0.6725373887","","0.6","0.2","0.8","0.4","","","","","0.6725373887","0.8508076908","0.5182757575","0.5248255385","","","","","","","","72","H","0","img/none_selected.jpg","","92","main_expt",""
"","bandit","172","580972","0.0-133.0-0.0","87508934","wem/bandit_either_3","A24LUXW1DB1QI5","either","8","311","","","","","","","0","1","0","","0.7388835399","0.6","0.2","0.8","0.4","0.7388835399","0.8106711147","0.5498130742","0.3386726181","","","","","","","","","","","","72","H","0","img/none_selected.jpg","","93","main_expt",""
"","bandit","173","582793","0.0-134.0-0.0","87508934","wem/bandit_either_3","A24LUXW1DB1QI5","either","8","299","","","","","","","1","0","0","0.697373586","","0.6","0.2","0.8","0.4","","","","","0.697373586","0.8543263914","0.6049407638","0.3718894848","","","","","","","","72","H","0","img/none_selected.jpg","","94","main_expt",""
"","bandit","174","584694","0.0-135.0-0.0","87508934","wem/bandit_either_3","A24LUXW1DB1QI5","either","8","355","","","","","","","0","0","1","0.7550322224","","0.6","0.2","0.8","0.4","","","","","0.7550322224","0.8387782901","0.6604115927","0.4005278521","","","","","","","","72","H","0","img/none_selected.jpg","","95","main_expt",""
"","bandit","175","586496","0.0-136.0-0.0","87508934","wem/bandit_either_3","A24LUXW1DB1QI5","either","8","258","","","","","","","0","1","0","","0.6576962358","0.6","0.2","0.8","0.4","0.6576962358","0.8208071174","0.7003847986","0.3694595514","","","","","","","","","","","","72","H","0","img/none_selected.jpg","","96","main_expt",""
"","bandit","176","588314","0.0-137.0-0.0","87508934","wem/bandit_either_3","A24LUXW1DB1QI5","either","8","288","","","","","","","0","0","1","0.6802484638","","0.6","0.2","0.8","0.4","","","","","0.6802484638","0.765358829","0.6793148949","0.3186037095","","","","","","","","72","H","0","img/none_selected.jpg","","97","main_expt",""
"","bandit","177","590052","0.0-138.0-0.0","87508934","wem/bandit_either_3","A24LUXW1DB1QI5","either","8","210","","","","","","","0","1","0","","0.7823463211","0.6","0.2","0.8","0.4","0.7042077447","0.7823463211","0.6204607354","0.2786717818","","","","","","","","","","","","74","J","1","","","98","main_expt",""
"","bandit","178","591913","0.0-139.0-0.0","87508934","wem/bandit_either_3","A24LUXW1DB1QI5","either","8","335","","","","","","","0","0","1","0.7523003034","","0.6","0.2","0.8","0.4","","","","","0.7355617892","0.7523003034","0.6166262367","0.32929866","","","","","","","","74","J","1","","","99","main_expt",""
"","bandit","179","593763","0.0-140.0-0.0","87508934","wem/bandit_either_3","A24LUXW1DB1QI5","either","8","326","","","","","","","0","1","0","","0.7174790615","0.6","0.2","0.8","0.4","0.7117411671","0.7174790615","0.5347115766","0.3115323478","","","","","","","","","","","","74","J","1","","","100","main_expt",""
"","bandit","180","595613","0.0-141.0-0.0","87508934","wem/bandit_either_3","A24LUXW1DB1QI5","either","8","324","","","","","","","0","0","1","","0.7660578318","0.6","0.2","0.8","0.4","0.7263903312","0.7660578318","0.3418016043","0.4221749579","","","","","","","","","","","","74","J","1","","","101","main_expt",""
"","bandit","181","597485","0.0-142.0-0.0","87508934","wem/bandit_either_3","A24LUXW1DB1QI5","either","8","351","","","","","","","1","0","0","0.2550922237","","0.6","0.2","0.8","0.4","","","","","0.7357346189","0.7201180075","0.2550922237","0.2718078598","","","","","","","","75","K","2","","","102","main_expt",""
"","bandit","182","599300","0.0-143.0-0.0","87508934","wem/bandit_either_3","A24LUXW1DB1QI5","either","8","294","","","","","","","0","0","1","0.3181696353","","0.6","0.2","0.8","0.4","","","","","0.7026134783","0.8452780714","0.3181696353","0.3011307106","","","","","","","","75","K","2","","","103","main_expt",""
"","bandit","183","601004","0.0-144.0-0.0","87508934","wem/bandit_either_3","A24LUXW1DB1QI5","either","8","180","","","","","","","1","0","0","0.3383579412","","0.6","0.2","0.8","0.4","","","","","0.8073666152","0.7236924273","0.3383579412","0.3659291838","","","","","","","","75","K","2","","","104","main_expt",""
"","bandit","184","603024","0.0-145.0-0.0","87508934","wem/bandit_either_3","A24LUXW1DB1QI5","either","8","498","","","","","","","0","0","1","0.2354673658","","0.6","0.2","0.8","0.4","","","","","0.824483439","0.743719778","0.2354673658","0.3499435223","","","","","","","","75","K","2","","","105","main_expt",""
"","bandit","185","604887","0.0-146.0-0.0","87508934","wem/bandit_either_3","A24LUXW1DB1QI5","either","8","341","","","","","","","0","0","1","0.159398249","","0.6","0.2","0.8","0.4","","","","","0.9208810438","0.7985687284","0.159398249","0.3602262465","","","","","","","","75","K","2","","","106","main_expt",""
"","bandit","186","606690","0.0-147.0-0.0","87508934","wem/bandit_either_3","A24LUXW1DB1QI5","either","8","280","","","","","","","0","0","1","","0.3252215163","0.6","0.2","0.8","0.4","0.8911910097","0.799345197","0.1295169146","0.3252215163","","","","","","","","","","","","76","L","3","","","107","main_expt",""
"","bandit","187","608500","0.0-148.0-0.0","87508934","wem/bandit_either_3","A24LUXW1DB1QI5","either","8","287","","","","","","","0","0","1","","0.2812406992","0.6","0.2","0.8","0.4","0.8450149587","0.8681690713","0.07754053308","0.2812406992","","","","","","","","","","","","76","L","3","","","108","main_expt",""
"","bandit","188","610313","0.0-149.0-0.0","87508934","wem/bandit_either_3","A24LUXW1DB1QI5","either","8","288","","","","","","","0","0","1","","0.868327257","0.6","0.2","0.8","0.4","0.868327257","0.8556732204","0.06591215473","0.2559497519","","","","","","","","","","","","72","H","0","img/none_selected.jpg","","109","main_expt",""
"","bandit","189","612220","0.0-150.0-0.0","87508934","wem/bandit_either_3","A24LUXW1DB1QI5","either","8","361","","","","","","","1","0","0","0.8868335222","","0.6","0.2","0.8","0.4","","","","","0.8868335222","0.8669893864","0.1189546392","0.2817400418","","","","","","","","72","H","0","img/none_selected.jpg","","110","main_expt",""
"","bandit","190","614051","0.0-151.0-0.0","87508934","wem/bandit_either_3","A24LUXW1DB1QI5","either","8","290","","","","","","","0","1","0","","0.8770728171","0.6","0.2","0.8","0.4","0.8770728171","0.799383849","0.09523351692","0.2773620367","","","","","","","","","","","","72","H","0","img/none_selected.jpg","","111","main_expt",""
"","bandit","191","615958","0.0-152.0-0.0","87508934","wem/bandit_either_3","A24LUXW1DB1QI5","either","8","376","","","","","","","0","0","1","","0.8481710002","0.6","0.2","0.8","0.4","0.8481710002","0.859799476","0.107489667","0.2833316415","","","","","","","","","","","","72","H","0","img/none_selected.jpg","","112","main_expt",""
"","bandit","192","617964","0.0-153.0-0.0","87508934","wem/bandit_either_3","A24LUXW1DB1QI5","either","8","460","","","","","","","0","0","1","0.8573528835","","0.6","0.2","0.8","0.4","","","","","0.8573528835","0.7932436089","0.1026187258","0.3433702059","","","","","","","","72","H","0","img/none_selected.jpg","","113","main_expt",""
"","bandit","193","619726","0.0-154.0-0.0","87508934","wem/bandit_either_3","A24LUXW1DB1QI5","either","8","219","","","","","","","0","1","0","","0.849407262","0.6","0.2","0.8","0.4","0.8291807482","0.849407262","0.1044839951","0.4828882278","","","","","","","","","","","","74","J","1","","","114","main_expt",""
"","bandit","194","621424","0.0-155.0-0.0","87508934","wem/bandit_either_3","A24LUXW1DB1QI5","either","8","172","","","","","","","0","1","0","","0.8882716547","0.6","0.2","0.8","0.4","0.761972944","0.8882716547","0.1213931844","0.54932579","","","","","","","","","","","","74","J","1","","","115","main_expt",""
"","bandit","195","623225","0.0-156.0-0.0","87508934","wem/bandit_either_3","A24LUXW1DB1QI5","either","8","274","","","","","","","0","1","0","","0.8741354715","0.6","0.2","0.8","0.4","0.786197192","0.8741354715","0.1184144227","0.6971345968","","","","","","","","","","","","74","J","1","","","116","main_expt",""
"","bandit","196","625074","0.0-157.0-0.0","87508934","wem/bandit_either_3","A24LUXW1DB1QI5","either","8","326","","","","","","","1","0","0","0.8083823922","","0.6","0.2","0.8","0.4","","","","","0.7834453561","0.8083823922","0.1983931569","0.5396272374","","","","","","","","74","J","1","","","117","main_expt",""
"","bandit","197","626871","0.0-158.0-0.0","87508934","wem/bandit_either_3","A24LUXW1DB1QI5","either","8","275","","","","","","","0","1","0","","0.868525306","0.6","0.2","0.8","0.4","0.6742380839","0.868525306","0.2840039584","0.5544567993","","","","","","","","","","","","74","J","1","","","118","main_expt",""
"","bandit","198","628733","0.0-159.0-0.0","87508934","wem/bandit_either_3","A24LUXW1DB1QI5","either","8","340","","","","","","","0","1","0","","0.8386471998","0.6","0.2","0.8","0.4","0.7350700153","0.8386471998","0.3563325119","0.5504896642","","","","","","","","","","","","74","J","1","","","119","main_expt",""
"","bandit","199","630559","0.0-160.0-0.0","87508934","wem/bandit_either_3","A24LUXW1DB1QI5","either","8","306","","","","","","","0","1","0","","0.8103559508","0.6","0.2","0.8","0.4","0.70601835","0.8103559508","0.5682387565","0.5812137135","","","","","","","","","","","","74","J","1","","","120","main_expt",""
"","bandit","200","632395","0.0-161.0-0.0","87508934","wem/bandit_either_3","A24LUXW1DB1QI5","either","8","314","","","","","","","0","0","1","","0.8193015173","0.6","0.2","0.8","0.4","0.7347719752","0.8193015173","0.5189107771","0.6033058466","","","","","","","","","","","","74","J","1","","","121","main_expt",""
"","bandit","201","634206","0.0-162.0-0.0","87508934","wem/bandit_either_3","A24LUXW1DB1QI5","either","8","290","","","","","","","0","1","0","","0.8025146027","0.6","0.2","0.8","0.4","0.8270923978","0.8025146027","0.4428493372","0.6102220397","","","","","","","","","","","","74","J","1","","","122","main_expt",""
"","bandit","202","636126","0.0-163.0-0.0","87508934","wem/bandit_either_3","A24LUXW1DB1QI5","either","8","396","","","","","","","0","0","1","","0.8121847492","0.6","0.2","0.8","0.4","0.7980631313","0.8121847492","0.472724465","0.6108151959","","","","","","","","","","","","74","J","1","","","123","main_expt",""
"","bandit","203","638007","0.0-164.0-0.0","87508934","wem/bandit_either_3","A24LUXW1DB1QI5","either","8","359","","","","","","","1","0","0","0.8299418439","","0.6","0.2","0.8","0.4","","","","","0.7369852887","0.8299418439","0.4799585558","0.7117385939","","","","","","","","74","J","1","","","124","main_expt",""
"","bandit","204","639891","0.0-165.0-0.0","87508934","wem/bandit_either_3","A24LUXW1DB1QI5","either","8","299","","","","","","","0","0","1","","0.825688343","0.6","0.2","0.8","0.4","0.7465944313","0.825688343","0.5080184993","0.7554186078","","","","","","","","","","","","74","J","1","","","125","main_expt",""
"","bandit","205","641706","0.0-166.0-0.0","87508934","wem/bandit_either_3","A24LUXW1DB1QI5","either","8","284","","","","","","","1","0","0","0.8372054396","","0.6","0.2","0.8","0.4","","","","","0.7596834852","0.8372054396","0.4555098289","0.8855751833","","","","","","","","74","J","1","","","126","main_expt",""
"","bandit","206","643558","0.0-167.0-0.0","87508934","wem/bandit_either_3","A24LUXW1DB1QI5","either","8","332","","","","","","","1","0","0","0.7906689898","","0.6","0.2","0.8","0.4","","","","","0.7398299979","0.7906689898","0.5475411796","0.8003015049","","","","","","","","74","J","1","","","127","main_expt",""
"","bandit","207","645366","0.0-168.0-0.0","87508934","wem/bandit_either_3","A24LUXW1DB1QI5","either","8","284","","","","","","","0","1","0","","0.8008571507","0.6","0.2","0.8","0.4","0.7764866849","0.8008571507","0.612647382","0.8403113951","","","","","","","","","","","","74","J","1","","","128","main_expt",""
"","bandit","208","647204","0.0-169.0-0.0","87508934","wem/bandit_either_3","A24LUXW1DB1QI5","either","8","317","","","","","","","0","0","1","0.7829297973","","0.6","0.2","0.8","0.4","","","","","0.6435675963","0.7829297973","0.7128970287","0.8826872071","","","","","","","","74","J","1","","","129","main_expt",""
"","bandit","209","648951","0.0-170.0-0.0","87508934","wem/bandit_either_3","A24LUXW1DB1QI5","either","8","226","","","","","","","0","1","0","","0.6898445721","0.6","0.2","0.8","0.4","0.7030252038","0.6898445721","0.7309911721","0.8641000085","","","","","","","","","","","","74","J","1","","","130","main_expt",""
"","bandit","210","650909","0.0-171.0-0.0","87508934","wem/bandit_either_3","A24LUXW1DB1QI5","either","8","437","","","","","","","1","0","0","0.5864867529","","0.6","0.2","0.8","0.4","","","","","0.6829232191","0.5864867529","0.73180147","0.8752037592","","","","","","","","74","J","1","","","131","main_expt",""
"","bandit","211","652775","0.0-172.0-0.0","87508934","wem/bandit_either_3","A24LUXW1DB1QI5","either","8","339","","","","","","","0","1","0","","0.560122833","0.6","0.2","0.8","0.4","0.7406452387","0.560122833","0.8467134838","0.8279556795","","","","","","","","","","","","74","J","1","","","132","main_expt",""
"","bandit","212","654651","0.0-173.0-0.0","87508934","wem/bandit_either_3","A24LUXW1DB1QI5","either","8","349","","","","","","","1","0","0","0.48439517","","0.6","0.2","0.8","0.4","","","","","0.6666234363","0.48439517","0.8481264083","0.8194722428","","","","","","","","74","J","1","","","133","main_expt",""
"","bandit","213","656462","0.0-174.0-0.0","87508934","wem/bandit_either_3","A24LUXW1DB1QI5","either","8","288","","","","","","","0","0","1","","0.3919863126","0.6","0.2","0.8","0.4","0.680542061","0.3919863126","0.8771050955","0.8037084922","","","","","","","","","","","","74","J","1","","","134","main_expt",""
"","bandit","214","658275","0.0-175.0-0.0","87508934","wem/bandit_either_3","A24LUXW1DB1QI5","either","8","292","","","","","","","0","1","0","","0.5174750093","0.6","0.2","0.8","0.4","0.7006187635","0.5174750093","0.9103241533","0.8155916457","","","","","","","","","","","","74","J","1","","","135","main_expt",""
"","bandit","215","660101","0.0-176.0-0.0","87508934","wem/bandit_either_3","A24LUXW1DB1QI5","either","8","303","","","","","","","1","0","0","0.4264762493","","0.6","0.2","0.8","0.4","","","","","0.6936815578","0.4264762493","0.9126032517","0.8281957705","","","","","","","","74","J","1","","","136","main_expt",""
"","bandit","216","661790","0.0-177.0-0.0","87508934","wem/bandit_either_3","A24LUXW1DB1QI5","either","8","160","","","","","","","0","1","0","","0.5351999402","0.6","0.2","0.8","0.4","0.6531428085","0.5351999402","0.8983360858","0.7055403129","","","","","","","","","","","","74","J","1","","","137","main_expt",""
"","bandit","217","663610","0.0-178.0-0.0","87508934","wem/bandit_either_3","A24LUXW1DB1QI5","either","8","298","","","","","","","0","0","1","","0.4758748922","0.6","0.2","0.8","0.4","0.6769758131","0.4758748922","0.8851370462","0.6884351598","","","","","","","","","","","","74","J","1","","","138","main_expt",""
"","bandit","218","665432","0.0-179.0-0.0","87508934","wem/bandit_either_3","A24LUXW1DB1QI5","either","8","300","","","","","","","0","0","1","","0.4039793023","0.6","0.2","0.8","0.4","0.7649589049","0.4039793023","0.8662270416","0.6090423031","","","","","","","","","","","","74","J","1","","","139","main_expt",""
"","bandit","219","667302","0.0-180.0-0.0","87508934","wem/bandit_either_3","A24LUXW1DB1QI5","either","8","349","","","","","","","0","1","0","","0.384774136","0.6","0.2","0.8","0.4","0.7674202191","0.384774136","0.8345767194","0.7000077187","","","","","","","","","","","","74","J","1","","","140","main_expt",""
"","bandit","220","669152","0.0-181.0-0.0","87508934","wem/bandit_either_3","A24LUXW1DB1QI5","either","8","327","","","","","","","0","0","1","","0.327254859","0.6","0.2","0.8","0.4","0.8575114448","0.327254859","0.8783670964","0.6643185619","","","","","","","","","","","","74","J","1","","","141","main_expt",""
"","bandit","221","670850","0.0-182.0-0.0","87508934","wem/bandit_either_3","A24LUXW1DB1QI5","either","8","173","","","","","","","1","0","0","0.8895828315","","0.6","0.2","0.8","0.4","","","","","0.8134430427","0.4536641492","0.8895828315","0.7079845674","","","","","","","","75","K","2","","","142","main_expt",""
"","bandit","222","672806","0.0-183.0-0.0","87508934","wem/bandit_either_3","A24LUXW1DB1QI5","either","8","434","","","","","","","0","1","0","","0.9053928798","0.6","0.2","0.8","0.4","0.8345505038","0.4348486293","0.9053928798","0.6624187643","","","","","","","","","","","","75","K","2","","","143","main_expt",""
"","bandit","223","674681","0.0-184.0-0.0","87508934","wem/bandit_either_3","A24LUXW1DB1QI5","either","8","352","","","","","","","0","1","0","","0.9033088386","0.6","0.2","0.8","0.4","0.7482817554","0.4086594597","0.9033088386","0.6779247185","","","","","","","","","","","","75","K","2","","","144","main_expt",""
"","bandit","224","676355","0.0-185.0-0.0","87508934","wem/bandit_either_3","A24LUXW1DB1QI5","either","8","152","","","","","","","1","0","0","0.8572864227","","0.6","0.2","0.8","0.4","","","","","0.7400387939","0.4420772456","0.8572864227","0.7216102374","","","","","","","","75","K","2","","","145","main_expt",""
"","bandit","225","678185","0.0-186.0-0.0","87508934","wem/bandit_either_3","A24LUXW1DB1QI5","either","8","248","","","","","","","0","0","1","","0.8687508917","0.6","0.2","0.8","0.4","0.795971973","0.508741462","0.8687508917","0.7837267619","","","","","","","","","","","","75","K","2","","","146","main_expt",""
"","bandit","226","679817","0.0-187.0-0.0","87508934","wem/bandit_either_3","A24LUXW1DB1QI5","either","8","83","","","","","","","1","0","0","0.8657621525","","0.6","0.2","0.8","0.4","","","","","0.7503502301","0.4624398998","0.8657621525","0.7652264833","","","","","","","","75","K","2","","","147","main_expt",""
"","bandit","227","681595","0.0-188.0-0.0","87508934","wem/bandit_either_3","A24LUXW1DB1QI5","either","8","242","","","","","","","0","1","0","","0.8362891365","0.6","0.2","0.8","0.4","0.8200474043","0.4062589849","0.8362891365","0.7358716413","","","","","","","","","","","","75","K","2","","","148","main_expt",""
"","bandit","228","683641","0.0-189.0-0.0","87508934","wem/bandit_either_3","A24LUXW1DB1QI5","either","8","505","","","","","","","0","0","1","0.8144386017","","0.6","0.2","0.8","0.4","","","","","0.8509010271","0.4895331913","0.8144386017","0.7129200786","","","","","","","","75","K","2","","","149","main_expt",""
"","bandit","229","685417","0.0-190.0-0.0","87508934","wem/bandit_either_3","A24LUXW1DB1QI5","either","8","226","","","","","","","1","0","0","0.6948055455","","0.6","0.2","0.8","0.4","","","","","0.8298908313","0.4704746919","0.6948055455","0.705531668","","","","","","","","75","K","2","","","150","main_expt",""
"","bandit","230","687226","0.0-191.0-0.0","87508934","wem/bandit_either_3","A24LUXW1DB1QI5","either","8","276","","","","","","","1","0","0","0.6231991314","","0.6","0.2","0.8","0.4","","","","","0.7362749002","0.4725745774","0.6231991314","0.5744604188","","","","","","","","75","K","2","","","151","main_expt",""
"","bandit","231","689267","0.0-192.0-0.0","87508934","wem/bandit_either_3","A24LUXW1DB1QI5","either","8","513","","","","","","","1","0","0","0.7045057733","","0.6","0.2","0.8","0.4","","","","","0.7601791643","0.4943906398","0.7045057733","0.5372669321","","","","","","","","75","K","2","","","152","main_expt",""
"","bandit","232","690976","0.0-193.0-0.0","87508934","wem/bandit_either_3","A24LUXW1DB1QI5","either","8","184","","","","","","","0","0","1","0.5331338622","","0.6","0.2","0.8","0.4","","","","","0.7590648118","0.4639524782","0.5331338622","0.5447545218","","","","","","","","75","K","2","","","153","main_expt",""
"","bandit","233","692534","0.0-194.0-0.0","87508934","wem/bandit_either_3","A24LUXW1DB1QI5","either","8","32","","","","","","","0","0","1","0.5096720896","","0.6","0.2","0.8","0.4","","","","","0.7805387907","0.3935792086","0.5096720896","0.4191749193","","","","","","","","75","K","2","","","154","main_expt",""
"","bandit","234","694216","0.0-195.0-0.0","87508934","wem/bandit_either_3","A24LUXW1DB1QI5","either","8","157","","","","","","","0","0","1","0.4719011365","","0.6","0.2","0.8","0.4","","","","","0.8450805748","0.4127348605","0.4719011365","0.4269770229","","","","","","","","75","K","2","","","155","main_expt",""
"","bandit","235","696133","0.0-196.0-0.0","87508934","wem/bandit_either_3","A24LUXW1DB1QI5","either","8","395","","","","","","","1","0","0","0.4589862704","","0.6","0.2","0.8","0.4","","","","","0.8513110265","0.3697675558","0.5818713095","0.4589862704","","","","","","","","76","L","3","","","156","main_expt",""
"","bandit","236","697990","0.0-197.0-0.0","87508934","wem/bandit_either_3","A24LUXW1DB1QI5","either","8","334","","","","","","","0","1","0","","0.5370818316","0.6","0.2","0.8","0.4","0.8226236001","0.3604398023","0.5804022203","0.5370818316","","","","","","","","","","","","76","L","3","","","157","main_expt",""
"","bandit","237","699886","0.0-198.0-0.0","87508934","wem/bandit_either_3","A24LUXW1DB1QI5","either","8","374","","","","","","","0","0","1","","0.4757376888","0.6","0.2","0.8","0.4","0.8843141367","0.4061750625","0.4773166223","0.4757376888","","","","","","","","","","","","76","L","3","","","158","main_expt",""
"","bandit","238","701742","0.0-199.0-0.0","87508934","wem/bandit_either_3","A24LUXW1DB1QI5","either","8","307","","","","","","","1","0","0","0.4887287223","","0.6","0.2","0.8","0.4","","","","","0.8078798749","0.4696417586","0.419048585","0.4887287223","","","","","","","","76","L","3","","","159","main_expt",""
"","bandit","239","703598","0.0-200.0-0.0","87508934","wem/bandit_either_3","A24LUXW1DB1QI5","either","8","310","","","","","","","0","0","1","","0.4588489809","0.6","0.2","0.8","0.4","0.7689164465","0.4659569923","0.4672574386","0.4588489809","","","","","","","","","","","","76","L","3","","","160","main_expt",""
"","bandit","240","705481","0.0-201.0-0.0","87508934","wem/bandit_either_3","A24LUXW1DB1QI5","either","8","351","","","","","","","0","0","1","","0.4920004413","0.6","0.2","0.8","0.4","0.7863156869","0.3947207546","0.5612985374","0.4920004413","","","","","","","","","","","","76","L","3","","","161","main_expt",""
"","bandit","241","707295","0.0-202.0-0.0","87508934","wem/bandit_either_3","A24LUXW1DB1QI5","either","8","287","","","","","","","1","0","0","0.8098475403","","0.6","0.2","0.8","0.4","","","","","0.8098475403","0.2460097942","0.5288680036","0.5389881207","","","","","","","","72","H","0","img/none_selected.jpg","","162","main_expt",""
"","bandit","242","709125","0.0-203.0-0.0","87508934","wem/bandit_either_3","A24LUXW1DB1QI5","either","8","307","","","","","","","0","1","0","","0.8222712862","0.6","0.2","0.8","0.4","0.8222712862","0.3603606056","0.6096883849","0.6040136001","","","","","","","","","","","","72","H","0","img/none_selected.jpg","","163","main_expt",""
"","bandit","243","710969","0.0-204.0-0.0","87508934","wem/bandit_either_3","A24LUXW1DB1QI5","either","8","322","","","","","","","1","0","0","0.7876031225","","0.6","0.2","0.8","0.4","","","","","0.7876031225","0.2507209727","0.4868922288","0.623756827","","","","","","","","72","H","0","img/none_selected.jpg","","164","main_expt",""
"","bandit","244","713185","0.0-205.0-0.0","87508934","wem/bandit_either_3","A24LUXW1DB1QI5","either","8","693","","","","","","","0","0","1","","0.7435052823","0.6","0.2","0.8","0.4","0.7435052823","0.2162043423","0.4055552053","0.6164515281","","","","","","","","","","","","72","H","0","img/none_selected.jpg","","165","main_expt",""
"","bandit","245","715194","0.0-206.0-0.0","87508934","wem/bandit_either_3","A24LUXW1DB1QI5","either","8","488","","","","","","","1","0","0","0.6545739251","","0.6","0.2","0.8","0.4","","","","","0.6545739251","0.2573409732","0.4748236382","0.4660222187","","","","","","","","72","H","0","img/none_selected.jpg","","166","main_expt",""
"","bandit","246","717354","0.0-207.0-0.0","87508934","wem/bandit_either_3","A24LUXW1DB1QI5","either","8","639","","","","","","","1","0","0","0.6645907447","","0.6","0.2","0.8","0.4","","","","","0.6645907447","0.4016088623","0.4725242185","0.3336058786","","","","","","","","72","H","0","img/none_selected.jpg","","167","main_expt",""
"","bandit","247","719171","0.0-208.0-0.0","87508934","wem/bandit_either_3","A24LUXW1DB1QI5","either","8","294","","","","","","","0","1","0","","0.7243751722","0.6","0.2","0.8","0.4","0.7243751722","0.5522858252","0.4775208721","0.2887723434","","","","","","","","","","","","72","H","0","img/none_selected.jpg","","168","main_expt",""
"","bandit","248","721049","0.0-209.0-0.0","87508934","wem/bandit_either_3","A24LUXW1DB1QI5","either","8","351","","","","","","","1","0","0","0.6453105543","","0.6","0.2","0.8","0.4","","","","","0.6453105543","0.5461138513","0.4682732781","0.3357056981","","","","","","","","72","H","0","img/none_selected.jpg","","169","main_expt",""
"","bandit","249","722925","0.0-210.0-0.0","87508934","wem/bandit_either_3","A24LUXW1DB1QI5","either","8","326","","","","","","","1","0","0","0.5334010147","","0.6","0.2","0.8","0.4","","","","","0.5334010147","0.4402798015","0.4246621539","0.4179693295","","","","","","","","72","H","0","img/none_selected.jpg","","170","main_expt",""
"","bandit","250","724740","0.0-211.0-0.0","87508934","wem/bandit_either_3","A24LUXW1DB1QI5","either","8","262","","","","","","","0","1","0","","0.498122785","0.6","0.2","0.8","0.4","0.498122785","0.450294849","0.2843380906","0.3050406521","","","","","","","","","","","","72","H","0","img/none_selected.jpg","","171","main_expt",""
"","bandit","251","726590","0.0-212.0-0.0","87508934","wem/bandit_either_3","A24LUXW1DB1QI5","either","8","324","","","","","","","0","0","1","","0.4356988635","0.6","0.2","0.8","0.4","0.4356988635","0.6475755847","0.2668952485","0.3364500029","","","","","","","","","","","","72","H","0","img/none_selected.jpg","","172","main_expt",""
"","bandit","252","728352","0.0-213.0-0.0","87508934","wem/bandit_either_3","A24LUXW1DB1QI5","either","8","234","","","","","","","0","1","0","","0.3964199688","0.6","0.2","0.8","0.4","0.3964199688","0.6095255177","0.3802819164","0.421339117","","","","","","","","","","","","72","H","0","img/none_selected.jpg","","173","main_expt",""
"","bandit","253","730218","0.0-214.0-0.0","87508934","wem/bandit_either_3","A24LUXW1DB1QI5","either","8","313","","","","","","","0","1","0","","0.3194345802","0.6","0.2","0.8","0.4","0.3194345802","0.5003628493","0.4042455133","0.4913704717","","","","","","","","","","","","72","H","0","img/none_selected.jpg","","174","main_expt",""
"","bandit","254","732184","0.0-215.0-0.0","87508934","wem/bandit_either_3","A24LUXW1DB1QI5","either","8","425","","","","","","","0","0","1","0.2865230234","","0.6","0.2","0.8","0.4","","","","","0.2865230234","0.5576212716","0.4393989914","0.5882611891","","","","","","","","72","H","0","img/none_selected.jpg","","175","main_expt",""
"","bandit","255","733996","0.0-216.0-0.0","87508934","wem/bandit_either_3","A24LUXW1DB1QI5","either","8","287","","","","","","","0","0","1","0.3352692614","","0.6","0.2","0.8","0.4","","","","","0.3352692614","0.6230679906","0.4705173801","0.6313830356","","","","","","","","72","H","0","img/none_selected.jpg","","176","main_expt",""
"","bandit","256","735742","0.0-217.0-0.0","87508934","wem/bandit_either_3","A24LUXW1DB1QI5","either","8","213","","","","","","","1","0","0","0.6501784685","","0.6","0.2","0.8","0.4","","","","","0.3389264817","0.6501784685","0.4698597734","0.5531265137","","","","","","","","74","J","1","","","177","main_expt",""
"","bandit","257","737524","0.0-218.0-0.0","87508934","wem/bandit_either_3","A24LUXW1DB1QI5","either","8","257","","","","","","","1","0","0","0.6334155083","","0.6","0.2","0.8","0.4","","","","","0.3709673039","0.6334155083","0.3570804947","0.4621004187","","","","","","","","74","J","1","","","178","main_expt",""
"","bandit","258","739325","0.0-219.0-0.0","87508934","wem/bandit_either_3","A24LUXW1DB1QI5","either","8","279","","","","","","","1","0","0","0.7548338289","","0.6","0.2","0.8","0.4","","","","","0.2940579202","0.7548338289","0.3441184995","0.512884041","","","","","","","","74","J","1","","","179","main_expt",""
"","bandit","259","741229","0.0-220.0-0.0","87508934","wem/bandit_either_3","A24LUXW1DB1QI5","either","8","380","","","","","","","0","0","1","","0.8074073351","0.6","0.2","0.8","0.4","0.3218724025","0.8074073351","0.3646136501","0.506744284","","","","","","","","","","","","74","J","1","","","180","main_expt",""
"","bandit","260","743060","0.0-221.0-0.0","87508934","wem/bandit_either_3","A24LUXW1DB1QI5","either","8","308","","","","","","","0","1","0","","0.780721516","0.6","0.2","0.8","0.4","0.3633286182","0.780721516","0.3777688814","0.4556494723","","","","","","","","","","","","74","J","1","","","181","main_expt",""
"","bandit","261","744918","0.0-222.0-0.0","87508934","wem/bandit_either_3","A24LUXW1DB1QI5","either","8","306","","","","","","","0","0","1","0.7647415088","","0.6","0.2","0.8","0.4","","","","","0.3324048704","0.7647415088","0.4578236703","0.4494525508","","","","","","","","74","J","1","","","182","main_expt",""
"","bandit","262","746780","0.0-223.0-0.0","87508934","wem/bandit_either_3","A24LUXW1DB1QI5","either","8","294","","","","","","","0","0","1","","0.7349307529","0.6","0.2","0.8","0.4","0.3092830871","0.7349307529","0.4244895098","0.5189143621","","","","","","","","","","","","74","J","1","","","183","main_expt",""
"","bandit","263","748568","0.0-224.0-0.0","87508934","wem/bandit_either_3","A24LUXW1DB1QI5","either","8","253","","","","","","","0","1","0","","0.3566779322","0.6","0.2","0.8","0.4","0.3905692936","0.8298088288","0.3566779322","0.5167606333","","","","","","","","","","","","75","K","2","","","184","main_expt",""
"","bandit","264","750542","0.0-225.0-0.0","87508934","wem/bandit_either_3","A24LUXW1DB1QI5","either","8","437","","","","","","","0","1","0","","0.3737416658","0.6","0.2","0.8","0.4","0.4626192444","0.7894193193","0.3737416658","0.5270237034","","","","","","","","","","","","75","K","2","","","185","main_expt",""
"","bandit","265","752447","0.0-226.0-0.0","87508934","wem/bandit_either_3","A24LUXW1DB1QI5","either","8","376","","","","","","","0","0","1","0.3120176694","","0.6","0.2","0.8","0.4","","","","","0.6061762586","0.7665022487","0.3120176694","0.5556036571","","","","","","","","75","K","2","","","186","main_expt",""
"","bandit","266","754236","0.0-227.0-0.0","87508934","wem/bandit_either_3","A24LUXW1DB1QI5","either","8","235","","","","","","","1","0","0","0.4134691065","","0.6","0.2","0.8","0.4","","","","","0.530958695","0.7394266891","0.4134691065","0.5865134094","","","","","","","","75","K","2","","","187","main_expt",""
"","bandit","267","756071","0.0-228.0-0.0","87508934","wem/bandit_either_3","A24LUXW1DB1QI5","either","8","297","","","","","","","0","1","0","","0.4637770407","0.6","0.2","0.8","0.4","0.380024655","0.6567361442","0.4637770407","0.5034866795","","","","","","","","","","","","75","K","2","","","188","main_expt",""
"","bandit","268","757868","0.0-229.0-0.0","87508934","wem/bandit_either_3","A24LUXW1DB1QI5","either","8","268","","","","","","","0","0","1","0.5739034088","","0.6","0.2","0.8","0.4","","","","","0.4563575644","0.6572443956","0.5739034088","0.5761715841","","","","","","","","75","K","2","","","189","main_expt",""
"","bandit","269","759643","0.0-230.0-0.0","87508934","wem/bandit_either_3","A24LUXW1DB1QI5","either","8","249","","","","","","","0","0","1","0.5859504021","","0.6","0.2","0.8","0.4","","","","","0.4540853102","0.6735764162","0.5859504021","0.5325489933","","","","","","","","75","K","2","","","190","main_expt",""
"","bandit","270","761394","0.0-231.0-0.0","87508934","wem/bandit_either_3","A24LUXW1DB1QI5","either","8","222","","","","","","","1","0","0","0.5614919892","","0.6","0.2","0.8","0.4","","","","","0.4328006462","0.5997518312","0.5325822721","0.5614919892","","","","","","","","76","L","3","","","191","main_expt",""
"","bandit","271","763105","0.0-232.0-0.0","87508934","wem/bandit_either_3","A24LUXW1DB1QI5","either","8","187","","","","","","","1","0","0","0.5972832049","","0.6","0.2","0.8","0.4","","","","","0.4979354652","0.6582178794","0.4622441745","0.5972832049","","","","","","","","76","L","3","","","192","main_expt",""
"","bandit","272","764779","0.0-233.0-0.0","87508934","wem/bandit_either_3","A24LUXW1DB1QI5","either","8","151","","","","","","","0","1","0","","0.6997951875","0.6","0.2","0.8","0.4","0.4887187701","0.7246172867","0.4765036663","0.6997951875","","","","","","","","","","","","76","L","3","","","193","main_expt",""
"","bandit","273","766671","0.0-234.0-0.0","87508934","wem/bandit_either_3","A24LUXW1DB1QI5","either","8","368","","","","","","","0","1","0","","0.7511051992","0.6","0.2","0.8","0.4","0.4993882896","0.7721250451","0.4504155567","0.7511051992","","","","","","","","","","","","76","L","3","","","194","main_expt",""
"","bandit","274","768487","0.0-235.0-0.0","87508934","wem/bandit_either_3","A24LUXW1DB1QI5","either","8","292","","","","","","","1","0","0","0.8281457055","","0.6","0.2","0.8","0.4","","","","","0.5011331455","0.8366496483","0.4354252764","0.8281457055","","","","","","","","76","L","3","","","195","main_expt",""
"","bandit","275","770306","0.0-236.0-0.0","87508934","wem/bandit_either_3","A24LUXW1DB1QI5","either","8","294","","","","","","","1","0","0","0.8248544968","","0.6","0.2","0.8","0.4","","","","","0.4487960683","0.8484646997","0.4170899215","0.8248544968","","","","","","","","76","L","3","","","196","main_expt",""
"","bandit","276","772051","0.0-237.0-0.0","87508934","wem/bandit_either_3","A24LUXW1DB1QI5","either","8","217","","","","","","","1","0","0","0.8532714289","","0.6","0.2","0.8","0.4","","","","","0.3975590019","0.8734060335","0.4149059055","0.8532714289","","","","","","","","76","L","3","","","197","main_expt",""
"","bandit","277","773652","0.0-238.0-0.0","87508934","wem/bandit_either_3","A24LUXW1DB1QI5","either","8","76","","","","","","","0","1","0","","0.7587337752","0.6","0.2","0.8","0.4","0.4161601929","0.8515360685","0.4737306044","0.7587337752","","","","","","","","","","","","76","L","3","","","198","main_expt",""
"","bandit","278","775552","0.0-239.0-0.0","87508934","wem/bandit_either_3","A24LUXW1DB1QI5","either","8","372","","","","","","","0","1","0","","0.8124408481","0.6","0.2","0.8","0.4","0.4483979408","0.8805923715","0.4541760911","0.8124408481","","","","","","","","","","","","76","L","3","","","199","main_expt",""
"","bandit","279","777338","0.0-240.0-0.0","87508934","wem/bandit_either_3","A24LUXW1DB1QI5","either","8","262","","","","","","","0","1","0","","0.7935778268","0.6","0.2","0.8","0.4","0.5303380975","0.9645818821","0.3964714959","0.7935778268","","","","","","","","","","","","76","L","3","","","200","main_expt",""
"","bandit","280","779212","0.0-241.0-0.0","87508934","wem/bandit_either_3","A24LUXW1DB1QI5","either","8","350","","","","","","","0","1","0","","0.736942723","0.6","0.2","0.8","0.4","0.4014045657","0.9689478708","0.3815447649","0.736942723","","","","","","","","","","","","76","L","3","","","201","main_expt",""
"","bandit","281","780903","0.0-242.0-0.0","87508934","wem/bandit_either_3","A24LUXW1DB1QI5","either","8","165","","","","","","","0","1","0","","0.7001951276","0.6","0.2","0.8","0.4","0.5115169607","0.9678291885","0.3726367513","0.7001951276","","","","","","","","","","","","76","L","3","","","202","main_expt",""
"","bandit","282","782632","0.0-243.0-0.0","87508934","wem/bandit_either_3","A24LUXW1DB1QI5","either","8","205","","","","","","","0","0","1","0.7209300446","","0.6","0.2","0.8","0.4","","","","","0.5026191452","0.9633244117","0.3062653216","0.7209300446","","","","","","","","76","L","3","","","203","main_expt",""
"","bandit","283","784437","0.0-244.0-0.0","87508934","wem/bandit_either_3","A24LUXW1DB1QI5","either","8","277","","","","","","","0","1","0","","0.8574132932","0.6","0.2","0.8","0.4","0.4736298566","0.9730812582","0.2848501254","0.8574132932","","","","","","","","","","","","76","L","3","","","204","main_expt",""
"","bandit","284","786275","0.0-245.0-0.0","87508934","wem/bandit_either_3","A24LUXW1DB1QI5","either","8","313","","","","","","","0","1","0","","0.9038760074","0.6","0.2","0.8","0.4","0.6121858428","0.9521206422","0.3457586416","0.9038760074","","","","","","","","","","","","76","L","3","","","205","main_expt",""
"","bandit","285","788080","0.0-246.0-0.0","87508934","wem/bandit_either_3","A24LUXW1DB1QI5","either","8","280","","","","","","","0","1","0","","0.9273356803","0.6","0.2","0.8","0.4","0.6377028942","0.9614764056","0.4609097875","0.9273356803","","","","","","","","","","","","76","L","3","","","206","main_expt",""
"","bandit","286","789958","0.0-247.0-0.0","87508934","wem/bandit_either_3","A24LUXW1DB1QI5","either","8","334","","","","","","","1","0","0","0.9502037039","","0.6","0.2","0.8","0.4","","","","","0.5700483165","0.9625830716","0.4980316736","0.9502037039","","","","","","","","76","L","3","","","207","main_expt",""
"","bandit","287","791881","0.0-248.0-0.0","87508934","wem/bandit_either_3","A24LUXW1DB1QI5","either","8","398","","","","","","","1","0","0","0.944094639","","0.6","0.2","0.8","0.4","","","","","0.624428721","0.9359306517","0.4537691537","0.944094639","","","","","","","","76","L","3","","","208","main_expt",""
"","bandit","288","793739","0.0-249.0-0.0","87508934","wem/bandit_either_3","A24LUXW1DB1QI5","either","8","284","","","","","","","0","1","0","","0.9070839441","0.6","0.2","0.8","0.4","0.4861871301","0.9632917203","0.4475842875","0.9070839441","","","","","","","","","","","","76","L","3","","","209","main_expt",""
"","bandit","289","795574","0.0-250.0-0.0","87508934","wem/bandit_either_3","A24LUXW1DB1QI5","either","8","308","","","","","","","1","0","0","0.8960653589","","0.6","0.2","0.8","0.4","","","","","0.3956361612","0.9633226214","0.4803454055","0.8960653589","","","","","","","","76","L","3","","","210","main_expt",""
"","bandit","290","797452","0.0-251.0-0.0","87508934","wem/bandit_either_3","A24LUXW1DB1QI5","either","8","327","","","","","","","0","1","0","","0.9155455821","0.6","0.2","0.8","0.4","0.3599204452","0.9719781217","0.4126443349","0.9155455821","","","","","","","","","","","","76","L","3","","","211","main_expt",""
"","bandit","291","800096","0.0-252.0-0.0","87508934","wem/bandit_either_3","A24LUXW1DB1QI5","either","8","1101","","","","","","","0","1","0","","0.9087954588","0.6","0.2","0.8","0.4","0.3349000901","0.9700781686","0.3384802849","0.9087954588","","","","","","","","","","","","76","L","3","","","212","main_expt",""
"","bandit","292","802270","0.0-253.0-0.0","87508934","wem/bandit_either_3","A24LUXW1DB1QI5","either","8","638","","","","","","","0","1","0","","0.8528540962","0.6","0.2","0.8","0.4","0.3183344176","0.971165811","0.3039242722","0.8528540962","","","","","","","","","","","","76","L","3","","","213","main_expt",""
"","bandit","293","803833","0.0-254.0-0.0","87508934","wem/bandit_either_3","A24LUXW1DB1QI5","either","8","10","","","","","","","1","0","0","0.8506041988","","0.6","0.2","0.8","0.4","","","","","0.2390758011","0.9627117","0.4541530846","0.8506041988","","","","","","","","76","L","3","","","214","main_expt",""
"","bandit","294","805971","0.0-255.0-0.0","87508934","wem/bandit_either_3","A24LUXW1DB1QI5","either","8","591","","","","","","","1","0","0","0.8001829978","","0.6","0.2","0.8","0.4","","","","","0.1997060473","0.9552130497","0.5101749692","0.8001829978","","","","","","","","76","L","3","","","215","main_expt",""
"","bandit","295","807865","0.0-256.0-0.0","87508934","wem/bandit_either_3","A24LUXW1DB1QI5","either","8","356","","","","","","","1","0","0","0.733614842","","0.6","0.2","0.8","0.4","","","","","0.2326539104","0.9220350188","0.5580520347","0.733614842","","","","","","","","76","L","3","","","216","main_expt",""
"","bandit","296","809741","0.0-257.0-0.0","87508934","wem/bandit_either_3","A24LUXW1DB1QI5","either","8","346","","","","","","","0","0","1","","0.7479737912","0.6","0.2","0.8","0.4","0.2319826337","0.8736667029","0.4368451062","0.7479737912","","","","","","","","","","","","76","L","3","","","217","main_expt",""
"","bandit","297","811793","0.0-258.0-0.0","87508934","wem/bandit_either_3","A24LUXW1DB1QI5","either","8","520","","","","","","","1","0","0","0.7713398237","","0.6","0.2","0.8","0.4","","","","","0.3143382807","0.7602784417","0.3963441813","0.7713398237","","","","","","","","76","L","3","","","218","main_expt",""
"","bandit","298","813692","0.0-259.0-0.0","87508934","wem/bandit_either_3","A24LUXW1DB1QI5","either","8","368","","","","","","","1","0","0","0.8077055691","","0.6","0.2","0.8","0.4","","","","","0.3304972923","0.7643050859","0.4809426617","0.8077055691","","","","","","","","76","L","3","","","219","main_expt",""
"","bandit","299","815625","0.0-260.0-0.0","87508934","wem/bandit_either_3","A24LUXW1DB1QI5","either","8","383","","","","","","","1","0","0","0.7778114837","","0.6","0.2","0.8","0.4","","","","","0.2866104843","0.7793587236","0.397759556","0.7778114837","","","","","","","","76","L","3","","","220","main_expt",""
"","bandit","300","817384","0.0-261.0-0.0","87508934","wem/bandit_either_3","A24LUXW1DB1QI5","either","8","221","","","","","","","0","1","0","","0.7214198583","0.6","0.2","0.8","0.4","0.3602561646","0.82086311","0.4087677593","0.7214198583","","","","","","","","","","","","76","L","3","","","221","main_expt",""
"","bandit","301","819843","0.0-262.0-0.0","87508934","wem/bandit_either_3","A24LUXW1DB1QI5","either","8","930","","","","","","","0","1","0","","0.8091526303","0.6","0.2","0.8","0.4","0.3228749062","0.8543662658","0.4561280915","0.8091526303","","","","","","","","","","","","76","L","3","","","222","main_expt",""
"","bandit","302","821859","0.0-263.0-0.0","87508934","wem/bandit_either_3","A24LUXW1DB1QI5","either","8","489","","","","","","","1","0","0","0.8240838469","","0.6","0.2","0.8","0.4","","","","","0.2549485676","0.8599459829","0.4419858618","0.8240838469","","","","","","","","76","L","3","","","223","main_expt",""
"","bandit","303","823865","0.0-264.0-0.0","87508934","wem/bandit_either_3","A24LUXW1DB1QI5","either","8","480","","","","","","","0","0","1","","0.7670685714","0.6","0.2","0.8","0.4","0.2389333491","0.8747991669","0.494409337","0.7670685714","","","","","","","","","","","","76","L","3","","","224","main_expt",""
"","bandit","304","825751","0.0-265.0-0.0","87508934","wem/bandit_either_3","A24LUXW1DB1QI5","either","8","361","","","","","","","0","1","0","","0.8775689376","0.6","0.2","0.8","0.4","0.1517307125","0.7910409491","0.3713348049","0.8775689376","","","","","","","","","","","","76","L","3","","","225","main_expt",""
"","bandit","305","827788","0.0-266.0-0.0","87508934","wem/bandit_either_3","A24LUXW1DB1QI5","either","8","514","","","","","","","0","1","0","","0.8846504348","0.6","0.2","0.8","0.4","0.1002450003","0.7212928749","0.4013452417","0.8846504348","","","","","","","","","","","","76","L","3","","","226","main_expt",""
"","bandit","306","829801","0.0-267.0-0.0","87508934","wem/bandit_either_3","A24LUXW1DB1QI5","either","8","489","","","","","","","0","0","1","0.851087938","","0.6","0.2","0.8","0.4","","","","","0.1049945928","0.7090989562","0.393451628","0.851087938","","","","","","","","76","L","3","","","227","main_expt",""
"","bandit","307","831910","0.0-268.0-0.0","87508934","wem/bandit_either_3","A24LUXW1DB1QI5","either","8","586","","","","","","","0","1","0","","0.9074720337","0.6","0.2","0.8","0.4","0.03915988122","0.6606736223","0.4175844788","0.9074720337","","","","","","","","","","","","76","L","3","","","228","main_expt",""
"","bandit","308","833831","0.0-269.0-0.0","87508934","wem/bandit_either_3","A24LUXW1DB1QI5","either","8","388","","","","","","","0","1","0","","0.872332114","0.6","0.2","0.8","0.4","0.03767516843","0.6893924153","0.408368909","0.872332114","","","","","","","","","","","","76","L","3","","","229","main_expt",""
"","bandit","309","835745","0.0-270.0-0.0","87508934","wem/bandit_either_3","A24LUXW1DB1QI5","either","8","360","","","","","","","0","1","0","","0.7967167456","0.6","0.2","0.8","0.4","0.05804790214","0.6067604319","0.4777699032","0.7967167456","","","","","","","","","","","","76","L","3","","","230","main_expt",""
"","bandit","310","837818","0.0-271.0-0.0","87508934","wem/bandit_either_3","A24LUXW1DB1QI5","either","8","503","","","","","","","0","1","0","","0.7760618079","0.6","0.2","0.8","0.4","0.04963095007","0.5037419277","0.4935442242","0.7760618079","","","","","","","","","","","","76","L","3","","","231","main_expt",""
"","bandit","311","839647","0.0-272.0-0.0","87508934","wem/bandit_either_3","A24LUXW1DB1QI5","either","8","299","","","","","","","0","1","0","","0.7765467853","0.6","0.2","0.8","0.4","0.03759782928","0.4339479185","0.4889590317","0.7765467853","","","","","","","","","","","","76","L","3","","","232","main_expt",""
"","bandit","312","841405","0.0-273.0-0.0","87508934","wem/bandit_either_3","A24LUXW1DB1QI5","either","8","179","","","","","","","0","0","1","","0.7895219362","0.6","0.2","0.8","0.4","0.03147013274","0.4525546635","0.5212294662","0.7895219362","","","","","","","","","","","","76","L","3","","","233","main_expt",""
"","bandit","313","843074","0.0-274.0-0.0","87508934","wem/bandit_either_3","A24LUXW1DB1QI5","either","8","133","","","","","","","0","0","1","","0.7491899586","0.6","0.2","0.8","0.4","0.03547440544","0.3680080929","0.4420617392","0.7491899586","","","","","","","","","","","","76","L","3","","","234","main_expt",""
"","bandit","314","844930","0.0-275.0-0.0","87508934","wem/bandit_either_3","A24LUXW1DB1QI5","either","8","330","","","","","","","0","0","1","0.04486782706","","0.6","0.2","0.8","0.4","","","","","0.04486782706","0.3416373547","0.4816955248","0.7397351474","","","","","","","","72","H","0","img/none_selected.jpg","","235","main_expt",""
"","bandit","315","846863","0.0-276.0-0.0","87508934","wem/bandit_either_3","A24LUXW1DB1QI5","either","8","403","","","","","","","0","0","1","","0.3722877153","0.6","0.2","0.8","0.4","0.03122339122","0.3722877153","0.3028121716","0.6587673302","","","","","","","","","","","","74","J","1","","","236","main_expt",""
"","bandit","316","848588","0.0-277.0-0.0","87508934","wem/bandit_either_3","A24LUXW1DB1QI5","either","8","169","","","","","","","0","0","1","0.3802502189","","0.6","0.2","0.8","0.4","","","","","0.04191117605","0.3081002542","0.3802502189","0.7534934878","","","","","","","","75","K","2","","","237","main_expt",""
"","bandit","317","850391","0.0-278.0-0.0","87508934","wem/bandit_either_3","A24LUXW1DB1QI5","either","8","260","","","","","","","1","0","0","0.8023031038","","0.6","0.2","0.8","0.4","","","","","0.06367740527","0.2546656634","0.4160754302","0.8023031038","","","","","","","","76","L","3","","","238","main_expt",""
"","bandit","318","852242","0.0-279.0-0.0","87508934","wem/bandit_either_3","A24LUXW1DB1QI5","either","8","324","","","","","","","0","1","0","","0.8333986962","0.6","0.2","0.8","0.4","0.06315957527","0.3038323055","0.3510440385","0.8333986962","","","","","","","","","","","","76","L","3","","","239","main_expt",""
"","bandit","319","854268","0.0-280.0-0.0","87508934","wem/bandit_either_3","A24LUXW1DB1QI5","either","8","492","","","","","","","0","1","0","","0.840768508","0.6","0.2","0.8","0.4","0.05324295338","0.291884511","0.4182550587","0.840768508","","","","","","","","","","","","76","L","3","","","240","main_expt",""
"","bandit","320","855886","0.0-281.0-0.0","87508934","wem/bandit_either_3","A24LUXW1DB1QI5","either","8","67","","","","","","","0","1","0","","0.823006268","0.6","0.2","0.8","0.4","0.04641095239","0.3124975621","0.5037088371","0.823006268","","","","","","","","","","","","76","L","3","","","241","main_expt",""
"","bandit","321","857765","0.0-282.0-0.0","87508934","wem/bandit_either_3","A24LUXW1DB1QI5","either","8","341","","","","","","","0","1","0","","0.8152254121","0.6","0.2","0.8","0.4","0.04954190216","0.3637146884","0.4877747003","0.8152254121","","","","","","","","","","","","76","L","3","","","242","main_expt",""
"","bandit","322","859420","0.0-283.0-0.0","87508934","wem/bandit_either_3","A24LUXW1DB1QI5","either","8","126","","","","","","","0","1","0","","0.8377493118","0.6","0.2","0.8","0.4","0.05592390002","0.3304840913","0.5007011316","0.8377493118","","","","","","","","","","","","76","L","3","","","243","main_expt",""
"","bandit","323","861863","0.0-284.0-0.0","87508934","wem/bandit_either_3","A24LUXW1DB1QI5","either","8","914","","","","","","","1","0","0","0.8258586067","","0.6","0.2","0.8","0.4","","","","","0.03808637997","0.4067767971","0.5730304632","0.8258586067","","","","","","","","76","L","3","","","244","main_expt",""
"","bandit","324","863801","0.0-285.0-0.0","87508934","wem/bandit_either_3","A24LUXW1DB1QI5","either","8","412","","","","","","","0","1","0","","0.7889424323","0.6","0.2","0.8","0.4","0.02077199453","0.4091901929","0.6096531262","0.7889424323","","","","","","","","","","","","76","L","3","","","245","main_expt",""
