"consent","trial_type","trial_index","time_elapsed","internal_node_id","subjID","study","MID","cond","drift","rt","responses","key_press","expt_phase","like","value","connected","gems","bombs","no_reward","GemPrChosen","BombPrChosen","GainOverPainPr_0","GainOverPainPr_1","GainOverPainPr_2","GainOverPainPr_3","LosePr_0","LosePr_1","LosePr_2","LosePr_3","WinPr_0","WinPr_1","WinPr_2","WinPr_3","Q0","Q1","Q2","gender","age","ethnicity","target","respCharCode","respKey","respChoiceNum","respChoice","practice","trial_counter","trial_label","button_pressed"
"INL_behavioral_consent_30min_online.html","consent","0","26892","0.0-0.0","88263244","wem/bandit_either_3","A2JHQ75Q7Z0KBH","either","2","","","","","","","","","","","","","","","","","","","","","","","","","","","","","","","","","","","","","","",""
"","survey-text","1","36309","0.0-1.0","88263244","wem/bandit_either_3","A2JHQ75Q7Z0KBH","either","2","8398","{""Q0"":""A2JHQ75Q7Z0KBH""}","","","","","","","","","","","","","","","","","","","","","","","","","","","","","","","","","","","","",""
"","text","2","51235","0.0-2.0","88263244","wem/bandit_either_3","A2JHQ75Q7Z0KBH","either","2","13910","","32","","","","","","","","","","","","","","","","","","","","","","","","","","","","","","","","","","","",""
"","text","3","59306","0.0-3.0","88263244","wem/bandit_either_3","A2JHQ75Q7Z0KBH","either","2","8069","","32","","","","","","","","","","","","","","","","","","","","","","","","","","","","","","","","","","","",""
"","text","4","81980","0.0-4.0","88263244","wem/bandit_either_3","A2JHQ75Q7Z0KBH","either","2","22672","","32","","","","","","","","","","","","","","","","","","","","","","","","","","","","","","","","","","","",""
"","text","5","96299","0.0-5.0","88263244","wem/bandit_either_3","A2JHQ75Q7Z0KBH","either","2","14315","","32","","","","","","","","","","","","","","","","","","","","","","","","","","","","","","","","","","","",""
"","text","6","121814","0.0-6.0","88263244","wem/bandit_either_3","A2JHQ75Q7Z0KBH","either","2","25512","","32","","","","","","","","","","","","","","","","","","","","","","","","","","","","","","","","","","","",""
"","text","7","128629","0.0-7.0","88263244","wem/bandit_either_3","A2JHQ75Q7Z0KBH","either","2","6812","","32","","","","","","","","","","","","","","","","","","","","","","","","","","","","","","","","","","","",""
"","text","8","132579","0.0-8.0","88263244","wem/bandit_either_3","A2JHQ75Q7Z0KBH","either","2","3947","","32","","","","","","","","","","","","","","","","","","","","","","","","","","","","","","","","","","","",""
"","identification","9","149093","0.0-9.0-0.0","88263244","wem/bandit_either_3","A2JHQ75Q7Z0KBH","either","2","16476","","","","4","5","5","","","","","","","","","","","","","","","","","","","","","","","","the village of Zur","","","","","","","",""
"","identification","10","157950","0.0-9.0-1.0","88263244","wem/bandit_either_3","A2JHQ75Q7Z0KBH","either","2","7819","","","","3","5","1","","","","","","","","","","","","","","","","","","","","","","","","the village of Nyx","","","","","","","",""
"","text","11","162328","0.0-10.0","88263244","wem/bandit_either_3","A2JHQ75Q7Z0KBH","either","2","3365","","32","","","","","","","","","","","","","","","","","","","","","","","","","","","","","","","","","","","",""
"","text","12","162423","0.0-11.0","88263244","wem/bandit_either_3","A2JHQ75Q7Z0KBH","either","2","94","","32","","","","","","","","","","","","","","","","","","","","","","","","","","","","","","","","","","","",""
"","text","13","165187","0.0-12.0","88263244","wem/bandit_either_3","A2JHQ75Q7Z0KBH","either","2","2761","","32","","","","","","","","","","","","","","","","","","","","","","","","","","","","","","","","","","","",""
"","text","14","169119","0.0-13.0","88263244","wem/bandit_either_3","A2JHQ75Q7Z0KBH","either","2","3929","","32","","","","","","","","","","","","","","","","","","","","","","","","","","","","","","","","","","","",""
"","bandit","15","173184","0.0-14.0-0.0","88263244","wem/bandit_either_3","A2JHQ75Q7Z0KBH","either","2","2550","","","","","","","0","0","1","0","0","","","","","0","","","","0","","","","","","","","","","","74","J","0","img/none_selected_demo.jpg","true","0","",""
"","bandit","16","176337","0.0-15.0-0.0","88263244","wem/bandit_either_3","A2JHQ75Q7Z0KBH","either","2","1631","","","","","","","0","0","1","0","0","","","","","0","","","","0","","","","","","","","","","","75","K","0","img/none_selected_demo.jpg","true","0","",""
"","text","17","186204","0.0-16.0","88263244","wem/bandit_either_3","A2JHQ75Q7Z0KBH","either","2","9865","","32","","","","","","","","","","","","","","","","","","","","","","","","","","","","","","","","","","","",""
"","text","18","195012","0.0-17.0","88263244","wem/bandit_either_3","A2JHQ75Q7Z0KBH","either","2","8805","","32","","","","","","","","","","","","","","","","","","","","","","","","","","","","","","","","","","","",""
"","text","19","201244","0.0-18.0","88263244","wem/bandit_either_3","A2JHQ75Q7Z0KBH","either","2","6229","","32","","","","","","","","","","","","","","","","","","","","","","","","","","","","","","","","","","","",""
"","text","20","204641","0.0-19.0","88263244","wem/bandit_either_3","A2JHQ75Q7Z0KBH","either","2","3394","","32","","","","","","","","","","","","","","","","","","","","","","","","","","","","","","","","","","","",""
"","bandit","21","207676","0.0-20.0-0.0","88263244","wem/bandit_either_3","A2JHQ75Q7Z0KBH","either","2","1524","","","","","","","0","1","0","","0.8","0.5","0.5","","","0.8","0.2","","","","","","","","","","","","","","74","J","0","img/none_selected_demo.jpg","true","0","80_20_practice",""
"","bandit","22","210388","0.0-20.0-1.0","88263244","wem/bandit_either_3","A2JHQ75Q7Z0KBH","either","2","1191","","","","","","","0","0","1","","0.2","0.5","0.5","","","0.8","0.2","","","","","","","","","","","","","","75","K","1","","true","0","80_20_practice",""
"","bandit","23","212325","0.0-20.0-2.0","88263244","wem/bandit_either_3","A2JHQ75Q7Z0KBH","either","2","413","","","","","","","0","0","1","0.2","","0.5","0.5","","","","","","","0.8","0.2","","","","","","","","","","75","K","1","","true","0","80_20_practice",""
"","bandit","24","214126","0.0-20.0-3.0","88263244","wem/bandit_either_3","A2JHQ75Q7Z0KBH","either","2","280","","","","","","","1","0","0","0.8","","0.5","0.5","","","","","","","0.8","0.2","","","","","","","","","","74","J","0","img/none_selected_demo.jpg","true","0","80_20_practice",""
"","bandit","25","215955","0.0-20.0-4.0","88263244","wem/bandit_either_3","A2JHQ75Q7Z0KBH","either","2","296","","","","","","","0","1","0","","0.8","0.5","0.5","","","0.8","0.2","","","","","","","","","","","","","","74","J","0","img/none_selected_demo.jpg","true","0","80_20_practice",""
"","bandit","26","217929","0.0-20.0-5.0","88263244","wem/bandit_either_3","A2JHQ75Q7Z0KBH","either","2","447","","","","","","","0","1","0","","0.8","0.5","0.5","","","0.8","0.2","","","","","","","","","","","","","","74","J","0","img/none_selected_demo.jpg","true","0","80_20_practice",""
"","bandit","27","219822","0.0-20.0-6.0","88263244","wem/bandit_either_3","A2JHQ75Q7Z0KBH","either","2","373","","","","","","","0","0","1","0.2","","0.5","0.5","","","","","","","0.8","0.2","","","","","","","","","","75","K","1","","true","0","80_20_practice",""
"","bandit","28","221591","0.0-20.0-7.0","88263244","wem/bandit_either_3","A2JHQ75Q7Z0KBH","either","2","247","","","","","","","0","0","1","","0.2","0.5","0.5","","","0.8","0.2","","","","","","","","","","","","","","75","K","1","","true","0","80_20_practice",""
"","bandit","29","223357","0.0-20.0-8.0","88263244","wem/bandit_either_3","A2JHQ75Q7Z0KBH","either","2","251","","","","","","","0","0","1","0.2","","0.5","0.5","","","","","","","0.8","0.2","","","","","","","","","","75","K","1","","true","0","80_20_practice",""
"","bandit","30","225122","0.0-20.0-9.0","88263244","wem/bandit_either_3","A2JHQ75Q7Z0KBH","either","2","245","","","","","","","0","0","1","0.2","","0.5","0.5","","","","","","","0.8","0.2","","","","","","","","","","75","K","1","","true","0","80_20_practice",""
"","bandit","31","226887","0.0-20.0-10.0","88263244","wem/bandit_either_3","A2JHQ75Q7Z0KBH","either","2","251","","","","","","","0","0","1","0.2","","0.5","0.5","","","","","","","0.8","0.2","","","","","","","","","","75","K","1","","true","0","80_20_practice",""
"","bandit","32","228635","0.0-20.0-11.0","88263244","wem/bandit_either_3","A2JHQ75Q7Z0KBH","either","2","238","","","","","","","1","0","0","0.8","","0.5","0.5","","","","","","","0.8","0.2","","","","","","","","","","74","J","0","img/none_selected_demo.jpg","true","0","80_20_practice",""
"","bandit","33","230414","0.0-20.0-12.0","88263244","wem/bandit_either_3","A2JHQ75Q7Z0KBH","either","2","265","","","","","","","0","0","1","","0.8","0.5","0.5","","","0.8","0.2","","","","","","","","","","","","","","74","J","0","img/none_selected_demo.jpg","true","0","80_20_practice",""
"","bandit","34","231994","0.0-20.0-13.0","88263244","wem/bandit_either_3","A2JHQ75Q7Z0KBH","either","2","70","","","","","","","0","0","1","","0.8","0.5","0.5","","","0.8","0.2","","","","","","","","","","","","","","74","J","0","img/none_selected_demo.jpg","true","0","80_20_practice",""
"","bandit","35","233916","0.0-20.0-14.0","88263244","wem/bandit_either_3","A2JHQ75Q7Z0KBH","either","2","401","","","","","","","1","0","0","0.8","","0.5","0.5","","","","","","","0.8","0.2","","","","","","","","","","74","J","0","img/none_selected_demo.jpg","true","0","80_20_practice",""
"","bandit","36","235703","0.0-20.0-15.0","88263244","wem/bandit_either_3","A2JHQ75Q7Z0KBH","either","2","269","","","","","","","0","1","0","","0.8","0.5","0.5","","","0.8","0.2","","","","","","","","","","","","","","74","J","0","img/none_selected_demo.jpg","true","0","80_20_practice",""
"","bandit","37","237523","0.0-20.0-16.0","88263244","wem/bandit_either_3","A2JHQ75Q7Z0KBH","either","2","291","","","","","","","0","0","1","","0.8","0.5","0.5","","","0.8","0.2","","","","","","","","","","","","","","74","J","0","img/none_selected_demo.jpg","true","0","80_20_practice",""
"","bandit","38","239338","0.0-20.0-17.0","88263244","wem/bandit_either_3","A2JHQ75Q7Z0KBH","either","2","297","","","","","","","1","0","0","0.8","","0.5","0.5","","","","","","","0.8","0.2","","","","","","","","","","74","J","0","img/none_selected_demo.jpg","true","0","80_20_practice",""
"","bandit","39","241137","0.0-20.0-18.0","88263244","wem/bandit_either_3","A2JHQ75Q7Z0KBH","either","2","281","","","","","","","1","0","0","0.8","","0.5","0.5","","","","","","","0.8","0.2","","","","","","","","","","74","J","0","img/none_selected_demo.jpg","true","0","80_20_practice",""
"","bandit","40","243041","0.0-20.0-19.0","88263244","wem/bandit_either_3","A2JHQ75Q7Z0KBH","either","2","381","","","","","","","1","0","0","0.8","","0.5","0.5","","","","","","","0.8","0.2","","","","","","","","","","74","J","0","img/none_selected_demo.jpg","true","0","80_20_practice",""
"","text","41","249938","0.0-21.0","88263244","wem/bandit_either_3","A2JHQ75Q7Z0KBH","either","2","6892","","32","","","","","","","","","","","","","","","","","","","","","","","","","","","","","","","","","","","",""
"","bandit","42","252138","0.0-22.0-0.0","88263244","wem/bandit_either_3","A2JHQ75Q7Z0KBH","either","2","676","","","","","","","1","0","0","1","0","","","","","0","1","","","1","0","","","","","","","","","","74","J","0","img/none_selected_demo.jpg","true","0","",""
"","text","43","256371","0.0-23.0","88263244","wem/bandit_either_3","A2JHQ75Q7Z0KBH","either","2","4229","","32","","","","","","","","","","","","","","","","","","","","","","","","","","","","","","","","","","","",""
"","text","44","260048","0.0-24.0","88263244","wem/bandit_either_3","A2JHQ75Q7Z0KBH","either","2","3674","","32","","","","","","","","","","","","","","","","","","","","","","","","","","","","","","","","","","","",""
"","text","45","261753","0.0-25.0","88263244","wem/bandit_either_3","A2JHQ75Q7Z0KBH","either","2","1702","","32","","","","","","","","","","","","","","","","","","","","","","","","","","","","","","","","","","","",""
"","text","46","264557","0.0-26.0","88263244","wem/bandit_either_3","A2JHQ75Q7Z0KBH","either","2","2800","","32","","","","","","","","","","","","","","","","","","","","","","","","","","","","","","","","","","","",""
"","text","47","269033","0.0-27.0","88263244","wem/bandit_either_3","A2JHQ75Q7Z0KBH","either","2","4474","","32","","","","","","","","","","","","","","","","","","","","","","","","","","","","","","","","","","","",""
"","text","48","270883","0.0-28.0","88263244","wem/bandit_either_3","A2JHQ75Q7Z0KBH","either","2","1847","","32","","","","","","","","","","","","","","","","","","","","","","","","","","","","","","","","","","","",""
"","text","49","276284","0.0-29.0","88263244","wem/bandit_either_3","A2JHQ75Q7Z0KBH","either","2","5398","","32","","","","","","","","","","","","","","","","","","","","","","","","","","","","","","","","","","","",""
"","text","50","279474","0.0-30.0","88263244","wem/bandit_either_3","A2JHQ75Q7Z0KBH","either","2","3185","","32","","","","","","","","","","","","","","","","","","","","","","","","","","","","","","","","","","","",""
"","text","51","283441","0.0-31.0","88263244","wem/bandit_either_3","A2JHQ75Q7Z0KBH","either","2","3964","","32","","","","","","","","","","","","","","","","","","","","","","","","","","","","","","","","","","","",""
"","text","52","286482","0.0-32.0","88263244","wem/bandit_either_3","A2JHQ75Q7Z0KBH","either","2","3037","","32","","","","","","","","","","","","","","","","","","","","","","","","","","","","","","","","","","","",""
"","text","53","291379","0.0-33.0","88263244","wem/bandit_either_3","A2JHQ75Q7Z0KBH","either","2","4892","","32","","","","","","","","","","","","","","","","","","","","","","","","","","","","","","","","","","","",""
"","bandit","54","293362","0.0-34.0-0.0","88263244","wem/bandit_either_3","A2JHQ75Q7Z0KBH","either","2","458","","","","","","","0","0","1","0.2","","0.5","0.5","0.5","0.5","","","","","0.8","0.2","0.6","0.2","","","","","","","","76","L","3","","true","0","full_practice",""
"","bandit","55","295342","0.0-34.0-1.0","88263244","wem/bandit_either_3","A2JHQ75Q7Z0KBH","either","2","466","","","","","","","1","0","0","0.6","","0.5","0.5","0.5","0.5","","","","","0.8","0.2","0.6","0.2","","","","","","","","75","K","2","","true","0","full_practice",""
"","bandit","56","297161","0.0-34.0-2.0","88263244","wem/bandit_either_3","A2JHQ75Q7Z0KBH","either","2","294","","","","","","","0","1","0","","0.6","0.5","0.5","0.5","0.5","0.8","0.2","0.6","0.2","","","","","","","","","","","","75","K","2","","true","0","full_practice",""
"","bandit","57","298996","0.0-34.0-3.0","88263244","wem/bandit_either_3","A2JHQ75Q7Z0KBH","either","2","313","","","","","","","0","1","0","","0.6","0.5","0.5","0.5","0.5","0.8","0.2","0.6","0.2","","","","","","","","","","","","75","K","2","","true","0","full_practice",""
"","bandit","58","300818","0.0-34.0-4.0","88263244","wem/bandit_either_3","A2JHQ75Q7Z0KBH","either","2","305","","","","","","","0","0","1","","0.2","0.5","0.5","0.5","0.5","0.8","0.2","0.6","0.2","","","","","","","","","","","","74","J","1","","true","0","full_practice",""
"","bandit","59","302634","0.0-34.0-5.0","88263244","wem/bandit_either_3","A2JHQ75Q7Z0KBH","either","2","289","","","","","","","0","0","1","0.8","","0.5","0.5","0.5","0.5","","","","","0.8","0.2","0.6","0.2","","","","","","","","72","H","0","img/none_selected.jpg","true","0","full_practice",""
"","bandit","60","304429","0.0-34.0-6.0","88263244","wem/bandit_either_3","A2JHQ75Q7Z0KBH","either","2","269","","","","","","","1","0","0","0.8","","0.5","0.5","0.5","0.5","","","","","0.8","0.2","0.6","0.2","","","","","","","","72","H","0","img/none_selected.jpg","true","0","full_practice",""
"","bandit","61","306275","0.0-34.0-7.0","88263244","wem/bandit_either_3","A2JHQ75Q7Z0KBH","either","2","314","","","","","","","0","1","0","","0.8","0.5","0.5","0.5","0.5","0.8","0.2","0.6","0.2","","","","","","","","","","","","72","H","0","img/none_selected.jpg","true","0","full_practice",""
"","bandit","62","308070","0.0-34.0-8.0","88263244","wem/bandit_either_3","A2JHQ75Q7Z0KBH","either","2","268","","","","","","","1","0","0","0.8","","0.5","0.5","0.5","0.5","","","","","0.8","0.2","0.6","0.2","","","","","","","","72","H","0","img/none_selected.jpg","true","0","full_practice",""
"","bandit","63","309876","0.0-34.0-9.0","88263244","wem/bandit_either_3","A2JHQ75Q7Z0KBH","either","2","284","","","","","","","0","1","0","","0.8","0.5","0.5","0.5","0.5","0.8","0.2","0.6","0.2","","","","","","","","","","","","72","H","0","img/none_selected.jpg","true","0","full_practice",""
"","bandit","64","311704","0.0-34.0-10.0","88263244","wem/bandit_either_3","A2JHQ75Q7Z0KBH","either","2","294","","","","","","","0","0","1","0.8","","0.5","0.5","0.5","0.5","","","","","0.8","0.2","0.6","0.2","","","","","","","","72","H","0","img/none_selected.jpg","true","0","full_practice",""
"","bandit","65","313856","0.0-34.0-11.0","88263244","wem/bandit_either_3","A2JHQ75Q7Z0KBH","either","2","628","","","","","","","1","0","0","0.8","","0.5","0.5","0.5","0.5","","","","","0.8","0.2","0.6","0.2","","","","","","","","72","H","0","img/none_selected.jpg","true","0","full_practice",""
"","bandit","66","316023","0.0-34.0-12.0","88263244","wem/bandit_either_3","A2JHQ75Q7Z0KBH","either","2","641","","","","","","","0","0","1","0.8","","0.5","0.5","0.5","0.5","","","","","0.8","0.2","0.6","0.2","","","","","","","","72","H","0","img/none_selected.jpg","true","0","full_practice",""
"","bandit","67","317707","0.0-34.0-13.0","88263244","wem/bandit_either_3","A2JHQ75Q7Z0KBH","either","2","160","","","","","","","1","0","0","0.8","","0.5","0.5","0.5","0.5","","","","","0.8","0.2","0.6","0.2","","","","","","","","72","H","0","img/none_selected.jpg","true","0","full_practice",""
"","bandit","68","319574","0.0-34.0-14.0","88263244","wem/bandit_either_3","A2JHQ75Q7Z0KBH","either","2","361","","","","","","","1","0","0","0.8","","0.5","0.5","0.5","0.5","","","","","0.8","0.2","0.6","0.2","","","","","","","","72","H","0","img/none_selected.jpg","true","0","full_practice",""
"","bandit","69","321385","0.0-34.0-15.0","88263244","wem/bandit_either_3","A2JHQ75Q7Z0KBH","either","2","301","","","","","","","1","0","0","0.8","","0.5","0.5","0.5","0.5","","","","","0.8","0.2","0.6","0.2","","","","","","","","72","H","0","img/none_selected.jpg","true","0","full_practice",""
"","bandit","70","323337","0.0-34.0-16.0","88263244","wem/bandit_either_3","A2JHQ75Q7Z0KBH","either","2","411","","","","","","","0","0","1","0.8","","0.5","0.5","0.5","0.5","","","","","0.8","0.2","0.6","0.2","","","","","","","","72","H","0","img/none_selected.jpg","true","0","full_practice",""
"","bandit","71","325108","0.0-34.0-17.0","88263244","wem/bandit_either_3","A2JHQ75Q7Z0KBH","either","2","254","","","","","","","1","0","0","0.8","","0.5","0.5","0.5","0.5","","","","","0.8","0.2","0.6","0.2","","","","","","","","72","H","0","img/none_selected.jpg","true","0","full_practice",""
"","bandit","72","326957","0.0-34.0-18.0","88263244","wem/bandit_either_3","A2JHQ75Q7Z0KBH","either","2","339","","","","","","","1","0","0","0.8","","0.5","0.5","0.5","0.5","","","","","0.8","0.2","0.6","0.2","","","","","","","","72","H","0","img/none_selected.jpg","true","0","full_practice",""
"","bandit","73","328808","0.0-34.0-19.0","88263244","wem/bandit_either_3","A2JHQ75Q7Z0KBH","either","2","331","","","","","","","1","0","0","0.8","","0.5","0.5","0.5","0.5","","","","","0.8","0.2","0.6","0.2","","","","","","","","72","H","0","img/none_selected.jpg","true","0","full_practice",""
"","text","74","331556","0.0-35.0","88263244","wem/bandit_either_3","A2JHQ75Q7Z0KBH","either","2","2738","","32","","","","","","","","","","","","","","","","","","","","","","","","","","","","","","","","","","","",""
"","text","75","340377","0.0-36.0","88263244","wem/bandit_either_3","A2JHQ75Q7Z0KBH","either","2","7800","","32","","","","","","","","","","","","","","","","","","","","","","","","","","","","","","","","","","","",""
"","text","76","352505","0.0-37.0","88263244","wem/bandit_either_3","A2JHQ75Q7Z0KBH","either","2","12123","","32","","","","","","","","","","","","","","","","","","","","","","","","","","","","","","","","","","","",""
"","text","77","356012","0.0-38.0","88263244","wem/bandit_either_3","A2JHQ75Q7Z0KBH","either","2","3504","","32","","","","","","","","","","","","","","","","","","","","","","","","","","","","","","","","","","","",""
"","text","78","360593","0.0-39.0","88263244","wem/bandit_either_3","A2JHQ75Q7Z0KBH","either","2","4578","","32","","","","","","","","","","","","","","","","","","","","","","","","","","","","","","","","","","","",""
"","text","79","376238","0.0-40.0","88263244","wem/bandit_either_3","A2JHQ75Q7Z0KBH","either","2","15639","","32","","","","","","","","","","","","","","","","","","","","","","","","","","","","","","","","","","","",""
"","bandit","80","380002","0.0-41.0-0.0","88263244","wem/bandit_either_3","A2JHQ75Q7Z0KBH","either","2","2243","","","","","","","0","0","1","0.7092854079","","0.8","0.6","0.2","0.4","","","","","0.7092854079","0.9925337928","0.7961415707","0.4841938304","","","","","","","","72","H","0","img/none_selected.jpg","","1","main_expt",""
"","bandit","81","382521","0.0-42.0-0.0","88263244","wem/bandit_either_3","A2JHQ75Q7Z0KBH","either","2","999","","","","","","","0","1","0","","0.9909612399","0.8","0.6","0.2","0.4","0.7343230146","0.9909612399","0.7739630809","0.5300888233","","","","","","","","","","","","74","J","1","","","2","main_expt",""
"","bandit","82","384540","0.0-43.0-0.0","88263244","wem/bandit_either_3","A2JHQ75Q7Z0KBH","either","2","499","","","","","","","1","0","0","0.9875934203","","0.8","0.6","0.2","0.4","","","","","0.7616266478","0.9875934203","0.807852523","0.4747636274","","","","","","","","74","J","1","","","3","main_expt",""
"","bandit","83","386397","0.0-44.0-0.0","88263244","wem/bandit_either_3","A2JHQ75Q7Z0KBH","either","2","324","","","","","","","1","0","0","0.9782241123","","0.8","0.6","0.2","0.4","","","","","0.7555889459","0.9782241123","0.7922386472","0.4841015375","","","","","","","","74","J","1","","","4","main_expt",""
"","bandit","84","388179","0.0-45.0-0.0","88263244","wem/bandit_either_3","A2JHQ75Q7Z0KBH","either","2","254","","","","","","","0","1","0","","0.9756627961","0.8","0.6","0.2","0.4","0.733520678","0.9756627961","0.865094385","0.5545204825","","","","","","","","","","","","74","J","1","","","5","main_expt",""
"","bandit","85","389949","0.0-46.0-0.0","88263244","wem/bandit_either_3","A2JHQ75Q7Z0KBH","either","2","249","","","","","","","1","0","0","0.967089612","","0.8","0.6","0.2","0.4","","","","","0.6705264102","0.967089612","0.800956518","0.6032406034","","","","","","","","74","J","1","","","6","main_expt",""
"","bandit","86","391764","0.0-47.0-0.0","88263244","wem/bandit_either_3","A2JHQ75Q7Z0KBH","either","2","289","","","","","","","1","0","0","0.9581374084","","0.8","0.6","0.2","0.4","","","","","0.6395389268","0.9581374084","0.826484282","0.6629125932","","","","","","","","74","J","1","","","7","main_expt",""
"","bandit","87","393572","0.0-48.0-0.0","88263244","wem/bandit_either_3","A2JHQ75Q7Z0KBH","either","2","288","","","","","","","0","1","0","","0.9470057872","0.8","0.6","0.2","0.4","0.6463283336","0.9470057872","0.8721258401","0.6179372523","","","","","","","","","","","","74","J","1","","","8","main_expt",""
"","bandit","88","395413","0.0-49.0-0.0","88263244","wem/bandit_either_3","A2JHQ75Q7Z0KBH","either","2","317","","","","","","","1","0","0","0.9776699295","","0.8","0.6","0.2","0.4","","","","","0.5257156782","0.9776699295","0.9123847657","0.7126464358","","","","","","","","74","J","1","","","9","main_expt",""
"","bandit","89","397196","0.0-50.0-0.0","88263244","wem/bandit_either_3","A2JHQ75Q7Z0KBH","either","2","270","","","","","","","1","0","0","0.9728878591","","0.8","0.6","0.2","0.4","","","","","0.4763364632","0.9728878591","0.8996742502","0.7356985298","","","","","","","","74","J","1","","","10","main_expt",""
"","bandit","90","398959","0.0-51.0-0.0","88263244","wem/bandit_either_3","A2JHQ75Q7Z0KBH","either","2","232","","","","","","","1","0","0","0.9593139104","","0.8","0.6","0.2","0.4","","","","","0.4284616273","0.9593139104","0.9131723876","0.768711937","","","","","","","","74","J","1","","","11","main_expt",""
"","bandit","91","400786","0.0-52.0-0.0","88263244","wem/bandit_either_3","A2JHQ75Q7Z0KBH","either","2","304","","","","","","","0","1","0","","0.9498917819","0.8","0.6","0.2","0.4","0.3846657661","0.9498917819","0.8766857583","0.775032537","","","","","","","","","","","","74","J","1","","","12","main_expt",""
"","bandit","92","402584","0.0-53.0-0.0","88263244","wem/bandit_either_3","A2JHQ75Q7Z0KBH","either","2","267","","","","","","","1","0","0","0.9541602679","","0.8","0.6","0.2","0.4","","","","","0.4534267517","0.9541602679","0.8395211377","0.8005481332","","","","","","","","74","J","1","","","13","main_expt",""
"","bandit","93","404430","0.0-54.0-0.0","88263244","wem/bandit_either_3","A2JHQ75Q7Z0KBH","either","2","324","","","","","","","1","0","0","0.9457654821","","0.8","0.6","0.2","0.4","","","","","0.5781166702","0.9457654821","0.8716273459","0.8437703121","","","","","","","","74","J","1","","","14","main_expt",""
"","bandit","94","406200","0.0-55.0-0.0","88263244","wem/bandit_either_3","A2JHQ75Q7Z0KBH","either","2","260","","","","","","","0","1","0","","0.961431504","0.8","0.6","0.2","0.4","0.6683268695","0.961431504","0.8884181174","0.7878475566","","","","","","","","","","","","74","J","1","","","15","main_expt",""
"","bandit","95","407997","0.0-56.0-0.0","88263244","wem/bandit_either_3","A2JHQ75Q7Z0KBH","either","2","274","","","","","","","1","0","0","0.9614480804","","0.8","0.6","0.2","0.4","","","","","0.6948649322","0.9614480804","0.9144873871","0.7873795395","","","","","","","","74","J","1","","","16","main_expt",""
"","bandit","96","409793","0.0-57.0-0.0","88263244","wem/bandit_either_3","A2JHQ75Q7Z0KBH","either","2","272","","","","","","","1","0","0","0.981184269","","0.8","0.6","0.2","0.4","","","","","0.7674725463","0.981184269","0.915766025","0.8084550093","","","","","","","","74","J","1","","","17","main_expt",""
"","bandit","97","411588","0.0-58.0-0.0","88263244","wem/bandit_either_3","A2JHQ75Q7Z0KBH","either","2","282","","","","","","","0","1","0","","0.9861919244","0.8","0.6","0.2","0.4","0.7706733977","0.9861919244","0.9357816117","0.8436933745","","","","","","","","","","","","74","J","1","","","18","main_expt",""
"","bandit","98","413368","0.0-59.0-0.0","88263244","wem/bandit_either_3","A2JHQ75Q7Z0KBH","either","2","243","","","","","","","0","1","0","","0.986789567","0.8","0.6","0.2","0.4","0.7396491891","0.986789567","0.9482019282","0.8059530903","","","","","","","","","","","","74","J","1","","","19","main_expt",""
"","bandit","99","415169","0.0-60.0-0.0","88263244","wem/bandit_either_3","A2JHQ75Q7Z0KBH","either","2","264","","","","","","","0","1","0","","0.986183881","0.8","0.6","0.2","0.4","0.6712916173","0.986183881","0.9433726768","0.7839513496","","","","","","","","","","","","74","J","1","","","20","main_expt",""
"","bandit","100","416972","0.0-61.0-0.0","88263244","wem/bandit_either_3","A2JHQ75Q7Z0KBH","either","2","270","","","","","","","1","0","0","0.9887099493","","0.8","0.6","0.2","0.4","","","","","0.6728887443","0.9887099493","0.9488284628","0.7841815244","","","","","","","","74","J","1","","","21","main_expt",""
"","bandit","101","418774","0.0-62.0-0.0","88263244","wem/bandit_either_3","A2JHQ75Q7Z0KBH","either","2","282","","","","","","","0","1","0","","0.992558567","0.8","0.6","0.2","0.4","0.7838502077","0.992558567","0.9500515088","0.8256278583","","","","","","","","","","","","74","J","1","","","22","main_expt",""
"","bandit","102","420633","0.0-63.0-0.0","88263244","wem/bandit_either_3","A2JHQ75Q7Z0KBH","either","2","329","","","","","","","0","1","0","","0.9906074595","0.8","0.6","0.2","0.4","0.8711917965","0.9906074595","0.9645760881","0.7043778873","","","","","","","","","","","","74","J","1","","","23","main_expt",""
"","bandit","103","422482","0.0-64.0-0.0","88263244","wem/bandit_either_3","A2JHQ75Q7Z0KBH","either","2","324","","","","","","","1","0","0","0.9828703082","","0.8","0.6","0.2","0.4","","","","","0.861124964","0.9828703082","0.946785539","0.7662705475","","","","","","","","74","J","1","","","24","main_expt",""
"","bandit","104","424341","0.0-65.0-0.0","88263244","wem/bandit_either_3","A2JHQ75Q7Z0KBH","either","2","336","","","","","","","1","0","0","0.984618899","","0.8","0.6","0.2","0.4","","","","","0.8551403996","0.984618899","0.9229473608","0.6915147264","","","","","","","","74","J","1","","","25","main_expt",""
"","bandit","105","426163","0.0-66.0-0.0","88263244","wem/bandit_either_3","A2JHQ75Q7Z0KBH","either","2","309","","","","","","","0","1","0","","0.9780938917","0.8","0.6","0.2","0.4","0.8959771014","0.9780938917","0.8729820127","0.6844606422","","","","","","","","","","","","74","J","1","","","26","main_expt",""
"","bandit","106","428017","0.0-67.0-0.0","88263244","wem/bandit_either_3","A2JHQ75Q7Z0KBH","either","2","317","","","","","","","0","0","1","","0.9634866904","0.8","0.6","0.2","0.4","0.8786292531","0.9634866904","0.859067388","0.7953701942","","","","","","","","","","","","74","J","1","","","27","main_expt",""
"","bandit","107","431724","0.0-68.0-0.0","88263244","wem/bandit_either_3","A2JHQ75Q7Z0KBH","either","2","2192","","","","","","","0","1","0","","0.946494378","0.8","0.6","0.2","0.4","0.8920593834","0.946494378","0.836267867","0.622657036","","","","","","","","","","","","74","J","1","","","28","main_expt",""
"","bandit","108","433703","0.0-69.0-0.0","88263244","wem/bandit_either_3","A2JHQ75Q7Z0KBH","either","2","448","","","","","","","0","1","0","","0.9338647731","0.8","0.6","0.2","0.4","0.8234517222","0.9338647731","0.7158546556","0.5757463716","","","","","","","","","","","","74","J","1","","","29","main_expt",""
"","bandit","109","435603","0.0-70.0-0.0","88263244","wem/bandit_either_3","A2JHQ75Q7Z0KBH","either","2","367","","","","","","","0","1","0","","0.9354801528","0.8","0.6","0.2","0.4","0.7963444676","0.9354801528","0.7262950886","0.6048158844","","","","","","","","","","","","74","J","1","","","30","main_expt",""
"","bandit","110","437399","0.0-71.0-0.0","88263244","wem/bandit_either_3","A2JHQ75Q7Z0KBH","either","2","282","","","","","","","1","0","0","0.9323861487","","0.8","0.6","0.2","0.4","","","","","0.6847131082","0.9323861487","0.7049485024","0.4831208743","","","","","","","","74","J","1","","","31","main_expt",""
"","bandit","111","439281","0.0-72.0-0.0","88263244","wem/bandit_either_3","A2JHQ75Q7Z0KBH","either","2","370","","","","","","","1","0","0","0.9159531952","","0.8","0.6","0.2","0.4","","","","","0.7745616343","0.9159531952","0.6294605358","0.4413454117","","","","","","","","74","J","1","","","32","main_expt",""
"","bandit","112","441113","0.0-73.0-0.0","88263244","wem/bandit_either_3","A2JHQ75Q7Z0KBH","either","2","303","","","","","","","0","1","0","","0.9501333659","0.8","0.6","0.2","0.4","0.8111568365","0.9501333659","0.7097184707","0.589686364","","","","","","","","","","","","74","J","1","","","33","main_expt",""
"","bandit","113","442926","0.0-74.0-0.0","88263244","wem/bandit_either_3","A2JHQ75Q7Z0KBH","either","2","284","","","","","","","0","0","1","0.6324728327","","0.8","0.6","0.2","0.4","","","","","0.7291364049","0.9485118263","0.6324728327","0.5789977489","","","","","","","","75","K","2","","","34","main_expt",""
"","bandit","114","444753","0.0-75.0-0.0","88263244","wem/bandit_either_3","A2JHQ75Q7Z0KBH","either","2","301","","","","","","","1","0","0","0.5605822786","","0.8","0.6","0.2","0.4","","","","","0.7920219322","0.959491173","0.6809104991","0.5605822786","","","","","","","","76","L","3","","","35","main_expt",""
"","bandit","115","446582","0.0-76.0-0.0","88263244","wem/bandit_either_3","A2JHQ75Q7Z0KBH","either","2","296","","","","","","","1","0","0","0.3330948712","","0.8","0.6","0.2","0.4","","","","","0.7889809596","0.9523687656","0.5745256001","0.3330948712","","","","","","","","76","L","3","","","36","main_expt",""
"","bandit","116","448393","0.0-77.0-0.0","88263244","wem/bandit_either_3","A2JHQ75Q7Z0KBH","either","2","280","","","","","","","0","0","1","0.2430176499","","0.8","0.6","0.2","0.4","","","","","0.8060385269","0.9504344127","0.6249275122","0.2430176499","","","","","","","","76","L","3","","","37","main_expt",""
"","bandit","117","450199","0.0-78.0-0.0","88263244","wem/bandit_either_3","A2JHQ75Q7Z0KBH","either","2","293","","","","","","","1","0","0","0.3106083343","","0.8","0.6","0.2","0.4","","","","","0.7188782676","0.9321408283","0.5582777804","0.3106083343","","","","","","","","76","L","3","","","38","main_expt",""
"","bandit","118","452018","0.0-79.0-0.0","88263244","wem/bandit_either_3","A2JHQ75Q7Z0KBH","either","2","291","","","","","","","0","1","0","","0.3239447463","0.8","0.6","0.2","0.4","0.7387945131","0.9135525369","0.6619895395","0.3239447463","","","","","","","","","","","","76","L","3","","","39","main_expt",""
"","bandit","119","453895","0.0-80.0-0.0","88263244","wem/bandit_either_3","A2JHQ75Q7Z0KBH","either","2","342","","","","","","","0","0","1","","0.2946631509","0.8","0.6","0.2","0.4","0.7478035428","0.8840916364","0.6522152691","0.2946631509","","","","","","","","","","","","76","L","3","","","40","main_expt",""
"","bandit","120","455712","0.0-81.0-0.0","88263244","wem/bandit_either_3","A2JHQ75Q7Z0KBH","either","2","296","","","","","","","0","0","1","0.193597671","","0.8","0.6","0.2","0.4","","","","","0.7802386085","0.8747037504","0.6714070371","0.193597671","","","","","","","","76","L","3","","","41","main_expt",""
"","bandit","121","457527","0.0-82.0-0.0","88263244","wem/bandit_either_3","A2JHQ75Q7Z0KBH","either","2","281","","","","","","","0","0","1","0.1834529884","","0.8","0.6","0.2","0.4","","","","","0.7994277013","0.826315498","0.6390104416","0.1834529884","","","","","","","","76","L","3","","","42","main_expt",""
"","bandit","122","459343","0.0-83.0-0.0","88263244","wem/bandit_either_3","A2JHQ75Q7Z0KBH","either","2","293","","","","","","","0","0","1","0.1558663495","","0.8","0.6","0.2","0.4","","","","","0.8718069658","0.7681371561","0.6318841448","0.1558663495","","","","","","","","76","L","3","","","43","main_expt",""
"","bandit","123","461927","0.0-84.0-0.0","88263244","wem/bandit_either_3","A2JHQ75Q7Z0KBH","either","2","1051","","","","","","","0","0","1","0.7584360225","","0.8","0.6","0.2","0.4","","","","","0.7725207311","0.7584360225","0.5708139437","0.1573065196","","","","","","","","74","J","1","","","44","main_expt",""
"","bandit","124","463726","0.0-85.0-0.0","88263244","wem/bandit_either_3","A2JHQ75Q7Z0KBH","either","2","272","","","","","","","0","1","0","","0.5703812278","0.8","0.6","0.2","0.4","0.8399140445","0.816959585","0.5703812278","0.1743203636","","","","","","","","","","","","75","K","2","","","45","main_expt",""
"","bandit","125","465595","0.0-86.0-0.0","88263244","wem/bandit_either_3","A2JHQ75Q7Z0KBH","either","2","357","","","","","","","0","1","0","","0.4520700595","0.8","0.6","0.2","0.4","0.7830678696","0.7571269921","0.4520700595","0.1234040722","","","","","","","","","","","","75","K","2","","","46","main_expt",""
"","bandit","126","467415","0.0-87.0-0.0","88263244","wem/bandit_either_3","A2JHQ75Q7Z0KBH","either","2","300","","","","","","","0","1","0","","0.4953600952","0.8","0.6","0.2","0.4","0.8255209912","0.7086567283","0.4953600952","0.1592846429","","","","","","","","","","","","75","K","2","","","47","main_expt",""
"","bandit","127","469269","0.0-88.0-0.0","88263244","wem/bandit_either_3","A2JHQ75Q7Z0KBH","either","2","332","","","","","","","0","1","0","","0.4912921637","0.8","0.6","0.2","0.4","0.7728754614","0.6428227569","0.4912921637","0.1880090658","","","","","","","","","","","","75","K","2","","","48","main_expt",""
"","bandit","128","471102","0.0-89.0-0.0","88263244","wem/bandit_either_3","A2JHQ75Q7Z0KBH","either","2","314","","","","","","","0","1","0","","0.4694413912","0.8","0.6","0.2","0.4","0.8607162984","0.7004196772","0.4694413912","0.3190576765","","","","","","","","","","","","75","K","2","","","49","main_expt",""
"","bandit","129","472942","0.0-90.0-0.0","88263244","wem/bandit_either_3","A2JHQ75Q7Z0KBH","either","2","322","","","","","","","0","0","1","","0.5835687148","0.8","0.6","0.2","0.4","0.8526113732","0.6418514465","0.5835687148","0.277770718","","","","","","","","","","","","75","K","2","","","50","main_expt",""
"","bandit","130","474731","0.0-91.0-0.0","88263244","wem/bandit_either_3","A2JHQ75Q7Z0KBH","either","2","262","","","","","","","0","1","0","","0.581499138","0.8","0.6","0.2","0.4","0.8630835666","0.6322169777","0.581499138","0.3304163056","","","","","","","","","","","","75","K","2","","","51","main_expt",""
"","bandit","131","476537","0.0-92.0-0.0","88263244","wem/bandit_either_3","A2JHQ75Q7Z0KBH","either","2","279","","","","","","","0","0","1","0.6521379128","","0.8","0.6","0.2","0.4","","","","","0.8689990829","0.6160259873","0.6521379128","0.3074301744","","","","","","","","75","K","2","","","52","main_expt",""
"","bandit","132","478326","0.0-93.0-0.0","88263244","wem/bandit_either_3","A2JHQ75Q7Z0KBH","either","2","263","","","","","","","0","1","0","","0.5743957808","0.8","0.6","0.2","0.4","0.8829627288","0.6635838846","0.5743957808","0.3292402402","","","","","","","","","","","","75","K","2","","","53","main_expt",""
"","bandit","133","480353","0.0-94.0-0.0","88263244","wem/bandit_either_3","A2JHQ75Q7Z0KBH","either","2","500","","","","","","","1","0","0","0.8577096669","","0.8","0.6","0.2","0.4","","","","","0.8577096669","0.7334380463","0.4765250731","0.3701383524","","","","","","","","72","H","0","img/none_selected.jpg","","54","main_expt",""
"","bandit","134","482147","0.0-95.0-0.0","88263244","wem/bandit_either_3","A2JHQ75Q7Z0KBH","either","2","271","","","","","","","1","0","0","0.7951355038","","0.8","0.6","0.2","0.4","","","","","0.7951355038","0.6625049704","0.472038817","0.4023440482","","","","","","","","72","H","0","img/none_selected.jpg","","55","main_expt",""
"","bandit","135","484013","0.0-96.0-0.0","88263244","wem/bandit_either_3","A2JHQ75Q7Z0KBH","either","2","340","","","","","","","1","0","0","0.7832403428","","0.8","0.6","0.2","0.4","","","","","0.7832403428","0.6244126183","0.6060805283","0.3320470731","","","","","","","","72","H","0","img/none_selected.jpg","","56","main_expt",""
"","bandit","136","485818","0.0-97.0-0.0","88263244","wem/bandit_either_3","A2JHQ75Q7Z0KBH","either","2","288","","","","","","","0","0","1","","0.7165346004","0.8","0.6","0.2","0.4","0.7165346004","0.693445159","0.5733746242","0.3398704556","","","","","","","","","","","","72","H","0","img/none_selected.jpg","","57","main_expt",""
"","bandit","137","488628","0.0-98.0-0.0","88263244","wem/bandit_either_3","A2JHQ75Q7Z0KBH","either","2","1286","","","","","","","1","0","0","0.7840704931","","0.8","0.6","0.2","0.4","","","","","0.7840704931","0.6603141298","0.5268086549","0.3171476707","","","","","","","","72","H","0","img/none_selected.jpg","","58","main_expt",""
"","bandit","138","490609","0.0-99.0-0.0","88263244","wem/bandit_either_3","A2JHQ75Q7Z0KBH","either","2","467","","","","","","","1","0","0","0.7166558068","","0.8","0.6","0.2","0.4","","","","","0.7166558068","0.6435133917","0.5298916697","0.1868584885","","","","","","","","72","H","0","img/none_selected.jpg","","59","main_expt",""
"","bandit","139","492426","0.0-100.0-0.0","88263244","wem/bandit_either_3","A2JHQ75Q7Z0KBH","either","2","295","","","","","","","1","0","0","0.6505055492","","0.8","0.6","0.2","0.4","","","","","0.6505055492","0.6720075741","0.5547432704","0.2163153633","","","","","","","","72","H","0","img/none_selected.jpg","","60","main_expt",""
"","bandit","140","494471","0.0-101.0-0.0","88263244","wem/bandit_either_3","A2JHQ75Q7Z0KBH","either","2","523","","","","","","","0","0","1","0.6465946667","","0.8","0.6","0.2","0.4","","","","","0.6465946667","0.6703611074","0.5407031957","0.2086512551","","","","","","","","72","H","0","img/none_selected.jpg","","61","main_expt",""
"","bandit","141","496354","0.0-102.0-0.0","88263244","wem/bandit_either_3","A2JHQ75Q7Z0KBH","either","2","344","","","","","","","1","0","0","0.709990362","","0.8","0.6","0.2","0.4","","","","","0.709990362","0.64477312","0.6993449034","0.2250062338","","","","","","","","72","H","0","img/none_selected.jpg","","62","main_expt",""
"","bandit","142","498718","0.0-103.0-0.0","88263244","wem/bandit_either_3","A2JHQ75Q7Z0KBH","either","2","829","","","","","","","1","0","0","0.7542168012","","0.8","0.6","0.2","0.4","","","","","0.7542168012","0.509049177","0.6342967703","0.2739380208","","","","","","","","72","H","0","img/none_selected.jpg","","63","main_expt",""
"","bandit","143","500758","0.0-104.0-0.0","88263244","wem/bandit_either_3","A2JHQ75Q7Z0KBH","either","2","507","","","","","","","1","0","0","0.7660604158","","0.8","0.6","0.2","0.4","","","","","0.7660604158","0.5535424332","0.5961490325","0.3449536465","","","","","","","","72","H","0","img/none_selected.jpg","","64","main_expt",""
"","bandit","144","502755","0.0-105.0-0.0","88263244","wem/bandit_either_3","A2JHQ75Q7Z0KBH","either","2","463","","","","","","","1","0","0","0.7572602099","","0.8","0.6","0.2","0.4","","","","","0.7572602099","0.6608621899","0.5771190674","0.34640195","","","","","","","","72","H","0","img/none_selected.jpg","","65","main_expt",""
"","bandit","145","504916","0.0-106.0-0.0","88263244","wem/bandit_either_3","A2JHQ75Q7Z0KBH","either","2","633","","","","","","","1","0","0","0.686926195","","0.8","0.6","0.2","0.4","","","","","0.686926195","0.6535341977","0.4765921407","0.5266288285","","","","","","","","72","H","0","img/none_selected.jpg","","66","main_expt",""
"","bandit","146","506898","0.0-107.0-0.0","88263244","wem/bandit_either_3","A2JHQ75Q7Z0KBH","either","2","440","","","","","","","1","0","0","0.7334195653","","0.8","0.6","0.2","0.4","","","","","0.7334195653","0.6592628399","0.5714361875","0.5588671697","","","","","","","","72","H","0","img/none_selected.jpg","","67","main_expt",""
"","bandit","147","508818","0.0-108.0-0.0","88263244","wem/bandit_either_3","A2JHQ75Q7Z0KBH","either","2","391","","","","","","","0","1","0","","0.6114245881","0.8","0.6","0.2","0.4","0.6114245881","0.6735013879","0.6231829193","0.6097536784","","","","","","","","","","","","72","H","0","img/none_selected.jpg","","68","main_expt",""
"","bandit","148","510674","0.0-109.0-0.0","88263244","wem/bandit_either_3","A2JHQ75Q7Z0KBH","either","2","333","","","","","","","0","0","1","0.6460921668","","0.8","0.6","0.2","0.4","","","","","0.6460921668","0.7209687993","0.5130256365","0.533457584","","","","","","","","72","H","0","img/none_selected.jpg","","69","main_expt",""
"","bandit","149","512523","0.0-110.0-0.0","88263244","wem/bandit_either_3","A2JHQ75Q7Z0KBH","either","2","335","","","","","","","1","0","0","0.6700702736","","0.8","0.6","0.2","0.4","","","","","0.6700702736","0.690528825","0.5167166","0.4124750721","","","","","","","","72","H","0","img/none_selected.jpg","","70","main_expt",""
"","bandit","150","514390","0.0-111.0-0.0","88263244","wem/bandit_either_3","A2JHQ75Q7Z0KBH","either","2","337","","","","","","","0","1","0","","0.6388012411","0.8","0.6","0.2","0.4","0.6388012411","0.6453310316","0.6448170737","0.4486526525","","","","","","","","","","","","72","H","0","img/none_selected.jpg","","71","main_expt",""
"","bandit","151","516294","0.0-112.0-0.0","88263244","wem/bandit_either_3","A2JHQ75Q7Z0KBH","either","2","377","","","","","","","0","0","1","0.6046900378","","0.8","0.6","0.2","0.4","","","","","0.6046900378","0.8140348339","0.5640434706","0.4313602212","","","","","","","","72","H","0","img/none_selected.jpg","","72","main_expt",""
"","bandit","152","518174","0.0-113.0-0.0","88263244","wem/bandit_either_3","A2JHQ75Q7Z0KBH","either","2","342","","","","","","","0","0","1","0.6062428704","","0.8","0.6","0.2","0.4","","","","","0.6062428704","0.820931829","0.6296110197","0.3639072561","","","","","","","","72","H","0","img/none_selected.jpg","","73","main_expt",""
"","bandit","153","520037","0.0-114.0-0.0","88263244","wem/bandit_either_3","A2JHQ75Q7Z0KBH","either","2","343","","","","","","","0","0","1","0.6237194739","","0.8","0.6","0.2","0.4","","","","","0.6237194739","0.8096233945","0.6730210969","0.2882181569","","","","","","","","72","H","0","img/none_selected.jpg","","74","main_expt",""
"","bandit","154","522077","0.0-115.0-0.0","88263244","wem/bandit_either_3","A2JHQ75Q7Z0KBH","either","2","506","","","","","","","0","0","1","0.5971007372","","0.8","0.6","0.2","0.4","","","","","0.5971007372","0.7615001707","0.5720403827","0.3561187133","","","","","","","","72","H","0","img/none_selected.jpg","","75","main_expt",""
"","bandit","155","523875","0.0-116.0-0.0","88263244","wem/bandit_either_3","A2JHQ75Q7Z0KBH","either","2","274","","","","","","","0","0","1","0.8147365981","","0.8","0.6","0.2","0.4","","","","","0.5810032438","0.8147365981","0.6303512149","0.4480894403","","","","","","","","74","J","1","","","76","main_expt",""
"","bandit","156","525709","0.0-117.0-0.0","88263244","wem/bandit_either_3","A2JHQ75Q7Z0KBH","either","2","299","","","","","","","1","0","0","0.8926338818","","0.8","0.6","0.2","0.4","","","","","0.5792233978","0.8926338818","0.5531797874","0.3220850356","","","","","","","","74","J","1","","","77","main_expt",""
"","bandit","157","527613","0.0-118.0-0.0","88263244","wem/bandit_either_3","A2JHQ75Q7Z0KBH","either","2","378","","","","","","","0","0","1","0.8669072201","","0.8","0.6","0.2","0.4","","","","","0.692511921","0.8669072201","0.5449672882","0.3281133775","","","","","","","","74","J","1","","","78","main_expt",""
"","bandit","158","529480","0.0-119.0-0.0","88263244","wem/bandit_either_3","A2JHQ75Q7Z0KBH","either","2","337","","","","","","","1","0","0","0.9114006046","","0.8","0.6","0.2","0.4","","","","","0.7019625083","0.9114006046","0.4484013318","0.3814329202","","","","","","","","74","J","1","","","79","main_expt",""
"","bandit","159","531706","0.0-120.0-0.0","88263244","wem/bandit_either_3","A2JHQ75Q7Z0KBH","either","2","708","","","","","","","0","0","1","","0.9268398106","0.8","0.6","0.2","0.4","0.6785675641","0.9268398106","0.5041425745","0.3512572076","","","","","","","","","","","","74","J","1","","","80","main_expt",""
"","bandit","160","533591","0.0-121.0-0.0","88263244","wem/bandit_either_3","A2JHQ75Q7Z0KBH","either","2","354","","","","","","","0","1","0","","0.9582858862","0.8","0.6","0.2","0.4","0.7101061672","0.9582858862","0.3462078978","0.3624285329","","","","","","","","","","","","74","J","1","","","81","main_expt",""
"","bandit","161","535471","0.0-122.0-0.0","88263244","wem/bandit_either_3","A2JHQ75Q7Z0KBH","either","2","359","","","","","","","0","1","0","","0.9590071975","0.8","0.6","0.2","0.4","0.7217376576","0.9590071975","0.3226795418","0.3111883408","","","","","","","","","","","","74","J","1","","","82","main_expt",""
"","bandit","162","537516","0.0-123.0-0.0","88263244","wem/bandit_either_3","A2JHQ75Q7Z0KBH","either","2","526","","","","","","","0","0","1","","0.3023868023","0.8","0.6","0.2","0.4","0.6437777395","0.9379973093","0.3023868023","0.243162563","","","","","","","","","","","","75","K","2","","","83","main_expt",""
"","bandit","163","539605","0.0-124.0-0.0","88263244","wem/bandit_either_3","A2JHQ75Q7Z0KBH","either","2","562","","","","","","","0","0","1","","0.4040419094","0.8","0.6","0.2","0.4","0.6533183273","0.9411979228","0.4040419094","0.347146949","","","","","","","","","","","","75","K","2","","","84","main_expt",""
"","bandit","164","541565","0.0-125.0-0.0","88263244","wem/bandit_either_3","A2JHQ75Q7Z0KBH","either","2","422","","","","","","","0","0","1","","0.4716136817","0.8","0.6","0.2","0.4","0.7469548387","0.9441700551","0.4716136817","0.4416309426","","","","","","","","","","","","75","K","2","","","85","main_expt",""
"","bandit","165","543462","0.0-126.0-0.0","88263244","wem/bandit_either_3","A2JHQ75Q7Z0KBH","either","2","362","","","","","","","0","1","0","","0.4523797492","0.8","0.6","0.2","0.4","0.7366570046","0.9323605113","0.4455883603","0.4523797492","","","","","","","","","","","","76","L","3","","","86","main_expt",""
"","bandit","166","545258","0.0-127.0-0.0","88263244","wem/bandit_either_3","A2JHQ75Q7Z0KBH","either","2","268","","","","","","","0","1","0","","0.4621103264","0.8","0.6","0.2","0.4","0.7142428019","0.8871332711","0.5952575165","0.4621103264","","","","","","","","","","","","76","L","3","","","87","main_expt",""
"","bandit","167","547115","0.0-128.0-0.0","88263244","wem/bandit_either_3","A2JHQ75Q7Z0KBH","either","2","323","","","","","","","0","1","0","","0.3800084876","0.8","0.6","0.2","0.4","0.7057172343","0.8520973281","0.5333825583","0.3800084876","","","","","","","","","","","","76","L","3","","","88","main_expt",""
"","bandit","168","548819","0.0-129.0-0.0","88263244","wem/bandit_either_3","A2JHQ75Q7Z0KBH","either","2","161","","","","","","","1","0","0","0.7882210871","","0.8","0.6","0.2","0.4","","","","","0.7289934888","0.7882210871","0.4583166828","0.2354372355","","","","","","","","74","J","1","","","89","main_expt",""
"","bandit","169","551077","0.0-130.0-0.0","88263244","wem/bandit_either_3","A2JHQ75Q7Z0KBH","either","2","739","","","","","","","1","0","0","0.720110267","","0.8","0.6","0.2","0.4","","","","","0.7475354559","0.720110267","0.4782349553","0.2978482647","","","","","","","","74","J","1","","","90","main_expt",""
"","bandit","170","553109","0.0-131.0-0.0","88263244","wem/bandit_either_3","A2JHQ75Q7Z0KBH","either","2","494","","","","","","","0","1","0","","0.7390342074","0.8","0.6","0.2","0.4","0.6316706059","0.7390342074","0.464138054","0.3723871884","","","","","","","","","","","","74","J","1","","","91","main_expt",""
"","bandit","171","555135","0.0-132.0-0.0","88263244","wem/bandit_either_3","A2JHQ75Q7Z0KBH","either","2","500","","","","","","","0","1","0","","0.8135224625","0.8","0.6","0.2","0.4","0.6957908828","0.8135224625","0.5084128334","0.5400298203","","","","","","","","","","","","74","J","1","","","92","main_expt",""
"","bandit","172","557325","0.0-133.0-0.0","88263244","wem/bandit_either_3","A2JHQ75Q7Z0KBH","either","2","663","","","","","","","0","0","1","","0.7814404678","0.8","0.6","0.2","0.4","0.6812665662","0.7814404678","0.5211356389","0.5134744583","","","","","","","","","","","","74","J","1","","","93","main_expt",""
"","bandit","173","559173","0.0-134.0-0.0","88263244","wem/bandit_either_3","A2JHQ75Q7Z0KBH","either","2","330","","","","","","","1","0","0","0.7672416568","","0.8","0.6","0.2","0.4","","","","","0.6412933588","0.7672416568","0.4554037602","0.4101580275","","","","","","","","74","J","1","","","94","main_expt",""
"","bandit","174","561061","0.0-135.0-0.0","88263244","wem/bandit_either_3","A2JHQ75Q7Z0KBH","either","2","356","","","","","","","0","0","1","0.7573973965","","0.8","0.6","0.2","0.4","","","","","0.5696630174","0.7573973965","0.4195046205","0.2995167601","","","","","","","","74","J","1","","","95","main_expt",""
"","bandit","175","563010","0.0-136.0-0.0","88263244","wem/bandit_either_3","A2JHQ75Q7Z0KBH","either","2","423","","","","","","","1","0","0","0.8177369732","","0.8","0.6","0.2","0.4","","","","","0.6076398096","0.8177369732","0.3638478563","0.2934894425","","","","","","","","74","J","1","","","96","main_expt",""
"","bandit","176","565398","0.0-137.0-0.0","88263244","wem/bandit_either_3","A2JHQ75Q7Z0KBH","either","2","850","","","","","","","1","0","0","0.8124666872","","0.8","0.6","0.2","0.4","","","","","0.5551612935","0.8124666872","0.2839735208","0.2802715202","","","","","","","","74","J","1","","","97","main_expt",""
"","bandit","177","567602","0.0-138.0-0.0","88263244","wem/bandit_either_3","A2JHQ75Q7Z0KBH","either","2","679","","","","","","","1","0","0","0.881496875","","0.8","0.6","0.2","0.4","","","","","0.6354974245","0.881496875","0.2109275999","0.2703087955","","","","","","","","74","J","1","","","98","main_expt",""
"","bandit","178","569568","0.0-139.0-0.0","88263244","wem/bandit_either_3","A2JHQ75Q7Z0KBH","either","2","435","","","","","","","1","0","0","0.8785981907","","0.8","0.6","0.2","0.4","","","","","0.5945745664","0.8785981907","0.1531506719","0.3027543159","","","","","","","","74","J","1","","","99","main_expt",""
"","bandit","179","571461","0.0-140.0-0.0","88263244","wem/bandit_either_3","A2JHQ75Q7Z0KBH","either","2","364","","","","","","","1","0","0","0.8494581726","","0.8","0.6","0.2","0.4","","","","","0.5679097985","0.8494581726","0.1262108991","0.3645318829","","","","","","","","74","J","1","","","100","main_expt",""
"","bandit","180","573321","0.0-141.0-0.0","88263244","wem/bandit_either_3","A2JHQ75Q7Z0KBH","either","2","327","","","","","","","1","0","0","0.7754784616","","0.8","0.6","0.2","0.4","","","","","0.6430580454","0.7754784616","0.1340220502","0.4315832637","","","","","","","","74","J","1","","","101","main_expt",""
"","bandit","181","575135","0.0-142.0-0.0","88263244","wem/bandit_either_3","A2JHQ75Q7Z0KBH","either","2","299","","","","","","","0","1","0","","0.7626736499","0.8","0.6","0.2","0.4","0.6340200926","0.7626736499","0.2167126086","0.3608531129","","","","","","","","","","","","74","J","1","","","102","main_expt",""
"","bandit","182","576965","0.0-143.0-0.0","88263244","wem/bandit_either_3","A2JHQ75Q7Z0KBH","either","2","311","","","","","","","1","0","0","0.7329996306","","0.8","0.6","0.2","0.4","","","","","0.6377668076","0.7329996306","0.2796352144","0.3688981903","","","","","","","","74","J","1","","","103","main_expt",""
"","bandit","183","578876","0.0-144.0-0.0","88263244","wem/bandit_either_3","A2JHQ75Q7Z0KBH","either","2","382","","","","","","","0","1","0","","0.7467689404","0.8","0.6","0.2","0.4","0.6578341575","0.7467689404","0.3556406549","0.3758155051","","","","","","","","","","","","74","J","1","","","104","main_expt",""
"","bandit","184","580766","0.0-145.0-0.0","88263244","wem/bandit_either_3","A2JHQ75Q7Z0KBH","either","2","370","","","","","","","0","1","0","","0.737018723","0.8","0.6","0.2","0.4","0.6727034752","0.737018723","0.3233911601","0.4508947075","","","","","","","","","","","","74","J","1","","","105","main_expt",""
"","bandit","185","582667","0.0-146.0-0.0","88263244","wem/bandit_either_3","A2JHQ75Q7Z0KBH","either","2","362","","","","","","","0","1","0","","0.655194185","0.8","0.6","0.2","0.4","0.6386482702","0.655194185","0.2024631506","0.4132181144","","","","","","","","","","","","74","J","1","","","106","main_expt",""
"","bandit","186","584491","0.0-147.0-0.0","88263244","wem/bandit_either_3","A2JHQ75Q7Z0KBH","either","2","297","","","","","","","1","0","0","0.7122819559","","0.8","0.6","0.2","0.4","","","","","0.6788938686","0.7122819559","0.2290393164","0.4393512677","","","","","","","","74","J","1","","","107","main_expt",""
"","bandit","187","586424","0.0-148.0-0.0","88263244","wem/bandit_either_3","A2JHQ75Q7Z0KBH","either","2","402","","","","","","","0","1","0","","0.7326995505","0.8","0.6","0.2","0.4","0.7076498576","0.7326995505","0.2217712157","0.4964319729","","","","","","","","","","","","74","J","1","","","108","main_expt",""
"","bandit","188","588232","0.0-149.0-0.0","88263244","wem/bandit_either_3","A2JHQ75Q7Z0KBH","either","2","296","","","","","","","1","0","0","0.7165499475","","0.8","0.6","0.2","0.4","","","","","0.6932550908","0.7165499475","0.1566860935","0.4790921069","","","","","","","","74","J","1","","","109","main_expt",""
"","bandit","189","590052","0.0-150.0-0.0","88263244","wem/bandit_either_3","A2JHQ75Q7Z0KBH","either","2","292","","","","","","","0","1","0","","0.6058017554","0.8","0.6","0.2","0.4","0.7436061547","0.6058017554","0.1083987113","0.5856434505","","","","","","","","","","","","74","J","1","","","110","main_expt",""
"","bandit","190","591858","0.0-151.0-0.0","88263244","wem/bandit_either_3","A2JHQ75Q7Z0KBH","either","2","280","","","","","","","1","0","0","0.5476823758","","0.8","0.6","0.2","0.4","","","","","0.657194241","0.5476823758","0.217828795","0.6444230696","","","","","","","","74","J","1","","","111","main_expt",""
"","bandit","191","594139","0.0-152.0-0.0","88263244","wem/bandit_either_3","A2JHQ75Q7Z0KBH","either","2","750","","","","","","","1","0","0","0.6317228327","","0.8","0.6","0.2","0.4","","","","","0.6317228327","0.5688313193","0.2212119155","0.603417252","","","","","","","","72","H","0","img/none_selected.jpg","","112","main_expt",""
"","bandit","192","595916","0.0-153.0-0.0","88263244","wem/bandit_either_3","A2JHQ75Q7Z0KBH","either","2","251","","","","","","","1","0","0","0.4985892417","","0.8","0.6","0.2","0.4","","","","","0.4985892417","0.50852785","0.2374112476","0.420613871","","","","","","","","72","H","0","img/none_selected.jpg","","113","main_expt",""
"","bandit","193","597731","0.0-154.0-0.0","88263244","wem/bandit_either_3","A2JHQ75Q7Z0KBH","either","2","294","","","","","","","0","0","1","","0.579071345","0.8","0.6","0.2","0.4","0.579071345","0.5711084253","0.2703699348","0.2851569533","","","","","","","","","","","","72","H","0","img/none_selected.jpg","","114","main_expt",""
"","bandit","194","599553","0.0-155.0-0.0","88263244","wem/bandit_either_3","A2JHQ75Q7Z0KBH","either","2","304","","","","","","","0","0","1","","0.4595939904","0.8","0.6","0.2","0.4","0.4595939904","0.4177754351","0.1928485376","0.3166589884","","","","","","","","","","","","72","H","0","img/none_selected.jpg","","115","main_expt",""
"","bandit","195","601086","0.0-156.0-0.0","88263244","wem/bandit_either_3","A2JHQ75Q7Z0KBH","either","2","1","","","","","","","0","1","0","","0.3744567546","0.8","0.6","0.2","0.4","0.3744567546","0.387840809","0.136356343","0.3928451607","","","","","","","","","","","","72","H","0","img/none_selected.jpg","","116","main_expt",""
"","bandit","196","602974","0.0-157.0-0.0","88263244","wem/bandit_either_3","A2JHQ75Q7Z0KBH","either","2","359","","","","","","","1","0","0","0.302145019","","0.8","0.6","0.2","0.4","","","","","0.302145019","0.4456731606","0.2193113504","0.560845346","","","","","","","","72","H","0","img/none_selected.jpg","","117","main_expt",""
"","bandit","197","604856","0.0-158.0-0.0","88263244","wem/bandit_either_3","A2JHQ75Q7Z0KBH","either","2","355","","","","","","","0","0","1","0.3522466686","","0.8","0.6","0.2","0.4","","","","","0.3522466686","0.3045880574","0.2686792008","0.5536818424","","","","","","","","72","H","0","img/none_selected.jpg","","118","main_expt",""
"","bandit","198","606671","0.0-159.0-0.0","88263244","wem/bandit_either_3","A2JHQ75Q7Z0KBH","either","2","296","","","","","","","1","0","0","0.4425542362","","0.8","0.6","0.2","0.4","","","","","0.4425542362","0.3994134075","0.2668270476","0.3617659687","","","","","","","","72","H","0","img/none_selected.jpg","","119","main_expt",""
"","bandit","199","608646","0.0-160.0-0.0","88263244","wem/bandit_either_3","A2JHQ75Q7Z0KBH","either","2","445","","","","","","","1","0","0","0.3377532805","","0.8","0.6","0.2","0.4","","","","","0.3377532805","0.351449483","0.3723992114","0.3454740543","","","","","","","","72","H","0","img/none_selected.jpg","","120","main_expt",""
"","bandit","200","610636","0.0-161.0-0.0","88263244","wem/bandit_either_3","A2JHQ75Q7Z0KBH","either","2","473","","","","","","","0","0","1","","0.2929504356","0.8","0.6","0.2","0.4","0.2929504356","0.3641911367","0.4001238515","0.2798257893","","","","","","","","","","","","72","H","0","img/none_selected.jpg","","121","main_expt",""
"","bandit","201","612506","0.0-162.0-0.0","88263244","wem/bandit_either_3","A2JHQ75Q7Z0KBH","either","2","337","","","","","","","0","0","1","","0.2504028886","0.8","0.6","0.2","0.4","0.2504028886","0.2673706252","0.4090120715","0.2261540995","","","","","","","","","","","","72","H","0","img/none_selected.jpg","","122","main_expt",""
"","bandit","202","614323","0.0-163.0-0.0","88263244","wem/bandit_either_3","A2JHQ75Q7Z0KBH","either","2","291","","","","","","","0","0","1","0.2414849785","","0.8","0.6","0.2","0.4","","","","","0.2414849785","0.3455372181","0.4746108064","0.2766663047","","","","","","","","72","H","0","img/none_selected.jpg","","123","main_expt",""
"","bandit","203","616157","0.0-164.0-0.0","88263244","wem/bandit_either_3","A2JHQ75Q7Z0KBH","either","2","314","","","","","","","0","0","1","0.1791255979","","0.8","0.6","0.2","0.4","","","","","0.1791255979","0.3524137631","0.453231646","0.3126864395","","","","","","","","72","H","0","img/none_selected.jpg","","124","main_expt",""
"","bandit","204","617829","0.0-165.0-0.0","88263244","wem/bandit_either_3","A2JHQ75Q7Z0KBH","either","2","120","","","","","","","1","0","0","0.4888945922","","0.8","0.6","0.2","0.4","","","","","0.1952456852","0.3680881866","0.4888945922","0.2772507379","","","","","","","","75","K","2","","","125","main_expt",""
"","bandit","205","619623","0.0-166.0-0.0","88263244","wem/bandit_either_3","A2JHQ75Q7Z0KBH","either","2","270","","","","","","","0","0","1","","0.396932523","0.8","0.6","0.2","0.4","0.2614303707","0.2884444508","0.396932523","0.2441417391","","","","","","","","","","","","75","K","2","","","126","main_expt",""
"","bandit","206","621480","0.0-167.0-0.0","88263244","wem/bandit_either_3","A2JHQ75Q7Z0KBH","either","2","325","","","","","","","0","1","0","","0.4026562496","0.8","0.6","0.2","0.4","0.267511235","0.2931854252","0.4026562496","0.2304038214","","","","","","","","","","","","75","K","2","","","127","main_expt",""
"","bandit","207","623338","0.0-168.0-0.0","88263244","wem/bandit_either_3","A2JHQ75Q7Z0KBH","either","2","329","","","","","","","0","1","0","","0.3072143153","0.8","0.6","0.2","0.4","0.2582460394","0.3115494401","0.3072143153","0.2463692943","","","","","","","","","","","","75","K","2","","","128","main_expt",""
"","bandit","208","625249","0.0-169.0-0.0","88263244","wem/bandit_either_3","A2JHQ75Q7Z0KBH","either","2","393","","","","","","","0","0","1","0.3024431642","","0.8","0.6","0.2","0.4","","","","","0.249100023","0.287093163","0.3024431642","0.262841392","","","","","","","","75","K","2","","","129","main_expt",""
"","bandit","209","627095","0.0-170.0-0.0","88263244","wem/bandit_either_3","A2JHQ75Q7Z0KBH","either","2","308","","","","","","","1","0","0","0.383823705","","0.8","0.6","0.2","0.4","","","","","0.2014680341","0.242368994","0.383823705","0.3044503748","","","","","","","","75","K","2","","","130","main_expt",""
"","bandit","210","629035","0.0-171.0-0.0","88263244","wem/bandit_either_3","A2JHQ75Q7Z0KBH","either","2","424","","","","","","","0","1","0","","0.5448185218","0.8","0.6","0.2","0.4","0.2514612397","0.3141093292","0.5448185218","0.2231782293","","","","","","","","","","","","75","K","2","","","131","main_expt",""
"","bandit","211","630997","0.0-172.0-0.0","88263244","wem/bandit_either_3","A2JHQ75Q7Z0KBH","either","2","442","","","","","","","0","0","1","","0.5741986762","0.8","0.6","0.2","0.4","0.1719215191","0.3186943837","0.5741986762","0.265126842","","","","","","","","","","","","75","K","2","","","132","main_expt",""
"","bandit","212","632977","0.0-173.0-0.0","88263244","wem/bandit_either_3","A2JHQ75Q7Z0KBH","either","2","439","","","","","","","0","1","0","","0.54298015","0.8","0.6","0.2","0.4","0.151851594","0.3218599317","0.54298015","0.1996467811","","","","","","","","","","","","75","K","2","","","133","main_expt",""
"","bandit","213","634844","0.0-174.0-0.0","88263244","wem/bandit_either_3","A2JHQ75Q7Z0KBH","either","2","336","","","","","","","0","0","1","","0.5504084981","0.8","0.6","0.2","0.4","0.1693242304","0.3372263261","0.5504084981","0.1900899503","","","","","","","","","","","","75","K","2","","","134","main_expt",""
"","bandit","214","636782","0.0-175.0-0.0","88263244","wem/bandit_either_3","A2JHQ75Q7Z0KBH","either","2","409","","","","","","","1","0","0","0.4874659601","","0.8","0.6","0.2","0.4","","","","","0.1541174352","0.3515125386","0.4874659601","0.172295534","","","","","","","","75","K","2","","","135","main_expt",""
"","bandit","215","638710","0.0-176.0-0.0","88263244","wem/bandit_either_3","A2JHQ75Q7Z0KBH","either","2","395","","","","","","","0","1","0","","0.3677382912","0.8","0.6","0.2","0.4","0.1374012581","0.2312583875","0.3677382912","0.1171098277","","","","","","","","","","","","75","K","2","","","136","main_expt",""
"","bandit","216","640707","0.0-177.0-0.0","88263244","wem/bandit_either_3","A2JHQ75Q7Z0KBH","either","2","460","","","","","","","0","1","0","","0.2944012193","0.8","0.6","0.2","0.4","0.2889288236","0.3496768842","0.2944012193","0.1390909791","","","","","","","","","","","","75","K","2","","","137","main_expt",""
"","bandit","217","642661","0.0-178.0-0.0","88263244","wem/bandit_either_3","A2JHQ75Q7Z0KBH","either","2","420","","","","","","","0","0","1","","0.3020033879","0.8","0.6","0.2","0.4","0.2177367931","0.4217982028","0.3020033879","0.1209370274","","","","","","","","","","","","75","K","2","","","138","main_expt",""
"","bandit","218","644501","0.0-179.0-0.0","88263244","wem/bandit_either_3","A2JHQ75Q7Z0KBH","either","2","317","","","","","","","0","0","1","","0.2908104057","0.8","0.6","0.2","0.4","0.1704259453","0.5123523738","0.2908104057","0.1441291996","","","","","","","","","","","","75","K","2","","","139","main_expt",""
"","bandit","219","646308","0.0-180.0-0.0","88263244","wem/bandit_either_3","A2JHQ75Q7Z0KBH","either","2","268","","","","","","","0","1","0","","0.3892042576","0.8","0.6","0.2","0.4","0.1827322183","0.3892042576","0.2738290205","0.1380406349","","","","","","","","","","","","74","J","1","","","140","main_expt",""
"","bandit","220","648073","0.0-181.0-0.0","88263244","wem/bandit_either_3","A2JHQ75Q7Z0KBH","either","2","242","","","","","","","0","1","0","","0.4680147771","0.8","0.6","0.2","0.4","0.2030288612","0.4680147771","0.3865798498","0.1312769784","","","","","","","","","","","","74","J","1","","","141","main_expt",""
"","bandit","221","649940","0.0-182.0-0.0","88263244","wem/bandit_either_3","A2JHQ75Q7Z0KBH","either","2","333","","","","","","","0","0","1","","0.3970866904","0.8","0.6","0.2","0.4","0.1760536641","0.3970866904","0.3507917403","0.1880730553","","","","","","","","","","","","74","J","1","","","142","main_expt",""
"","bandit","222","652776","0.0-183.0-0.0","88263244","wem/bandit_either_3","A2JHQ75Q7Z0KBH","either","2","1312","","","","","","","1","0","0","0.3609481858","","0.8","0.6","0.2","0.4","","","","","0.1428921374","0.3609481858","0.2787839286","0.1798266991","","","","","","","","74","J","1","","","143","main_expt",""
"","bandit","223","655087","0.0-184.0-0.0","88263244","wem/bandit_either_3","A2JHQ75Q7Z0KBH","either","2","782","","","","","","","0","0","1","0.3701270871","","0.8","0.6","0.2","0.4","","","","","0.1260474704","0.3701270871","0.2106619402","0.1881666754","","","","","","","","74","J","1","","","144","main_expt",""
"","bandit","224","657115","0.0-185.0-0.0","88263244","wem/bandit_either_3","A2JHQ75Q7Z0KBH","either","2","491","","","","","","","0","0","1","","0.3110645609","0.8","0.6","0.2","0.4","0.151337539","0.3110645609","0.3211677341","0.1683386122","","","","","","","","","","","","74","J","1","","","145","main_expt",""
"","bandit","225","659172","0.0-186.0-0.0","88263244","wem/bandit_either_3","A2JHQ75Q7Z0KBH","either","2","530","","","","","","","0","0","1","0.356964637","","0.8","0.6","0.2","0.4","","","","","0.1600114734","0.356964637","0.4417580917","0.2609121533","","","","","","","","74","J","1","","","146","main_expt",""
"","bandit","226","661262","0.0-187.0-0.0","88263244","wem/bandit_either_3","A2JHQ75Q7Z0KBH","either","2","573","","","","","","","1","0","0","0.5143633813","","0.8","0.6","0.2","0.4","","","","","0.1262446547","0.5143633813","0.278611551","0.280259565","","","","","","","","74","J","1","","","147","main_expt",""
"","bandit","227","663763","0.0-188.0-0.0","88263244","wem/bandit_either_3","A2JHQ75Q7Z0KBH","either","2","967","","","","","","","1","0","0","0.5086187798","","0.8","0.6","0.2","0.4","","","","","0.1030311585","0.5086187798","0.2811332351","0.2972918914","","","","","","","","74","J","1","","","148","main_expt",""
"","bandit","228","666043","0.0-189.0-0.0","88263244","wem/bandit_either_3","A2JHQ75Q7Z0KBH","either","2","743","","","","","","","0","1","0","","0.4676315778","0.8","0.6","0.2","0.4","0.123834606","0.4676315778","0.2606345315","0.3284309668","","","","","","","","","","","","74","J","1","","","149","main_expt",""
"","bandit","229","667933","0.0-190.0-0.0","88263244","wem/bandit_either_3","A2JHQ75Q7Z0KBH","either","2","347","","","","","","","0","0","1","0.4737351686","","0.8","0.6","0.2","0.4","","","","","0.06566206942","0.4737351686","0.260677327","0.3186890608","","","","","","","","74","J","1","","","150","main_expt",""
"","bandit","230","670060","0.0-191.0-0.0","88263244","wem/bandit_either_3","A2JHQ75Q7Z0KBH","either","2","612","","","","","","","1","0","0","0.5387476985","","0.8","0.6","0.2","0.4","","","","","0.06342121736","0.5387476985","0.2579624968","0.3331747037","","","","","","","","74","J","1","","","151","main_expt",""
"","bandit","231","672026","0.0-192.0-0.0","88263244","wem/bandit_either_3","A2JHQ75Q7Z0KBH","either","2","440","","","","","","","0","0","1","0.5065138565","","0.8","0.6","0.2","0.4","","","","","0.1162046696","0.5065138565","0.2536911072","0.364096089","","","","","","","","74","J","1","","","152","main_expt",""
"","bandit","232","674033","0.0-193.0-0.0","88263244","wem/bandit_either_3","A2JHQ75Q7Z0KBH","either","2","474","","","","","","","0","0","1","0.5190676077","","0.8","0.6","0.2","0.4","","","","","0.1388943584","0.5190676077","0.1427943183","0.3189440566","","","","","","","","74","J","1","","","153","main_expt",""
"","bandit","233","675912","0.0-194.0-0.0","88263244","wem/bandit_either_3","A2JHQ75Q7Z0KBH","either","2","364","","","","","","","1","0","0","0.486858514","","0.8","0.6","0.2","0.4","","","","","0.1188489222","0.4944482457","0.08934943386","0.486858514","","","","","","","","76","L","3","","","154","main_expt",""
"","bandit","234","677768","0.0-195.0-0.0","88263244","wem/bandit_either_3","A2JHQ75Q7Z0KBH","either","2","337","","","","","","","0","1","0","","0.398958755","0.8","0.6","0.2","0.4","0.1255079792","0.4987902374","0.1048919666","0.398958755","","","","","","","","","","","","76","L","3","","","155","main_expt",""
"","bandit","235","679586","0.0-196.0-0.0","88263244","wem/bandit_either_3","A2JHQ75Q7Z0KBH","either","2","293","","","","","","","0","0","1","","0.3508932217","0.8","0.6","0.2","0.4","0.1705129017","0.4151199053","0.1348874752","0.3508932217","","","","","","","","","","","","76","L","3","","","156","main_expt",""
"","bandit","236","681427","0.0-197.0-0.0","88263244","wem/bandit_either_3","A2JHQ75Q7Z0KBH","either","2","312","","","","","","","0","0","1","","0.3736640956","0.8","0.6","0.2","0.4","0.1892203872","0.4215128153","0.1197456909","0.3736640956","","","","","","","","","","","","76","L","3","","","157","main_expt",""
"","bandit","237","683252","0.0-198.0-0.0","88263244","wem/bandit_either_3","A2JHQ75Q7Z0KBH","either","2","300","","","","","","","0","0","1","","0.3215678611","0.8","0.6","0.2","0.4","0.1589595026","0.3666899102","0.1343935597","0.3215678611","","","","","","","","","","","","76","L","3","","","158","main_expt",""
"","bandit","238","685127","0.0-199.0-0.0","88263244","wem/bandit_either_3","A2JHQ75Q7Z0KBH","either","2","340","","","","","","","0","0","1","","0.2732838962","0.8","0.6","0.2","0.4","0.1426383857","0.3906786657","0.04604274909","0.2732838962","","","","","","","","","","","","76","L","3","","","159","main_expt",""
"","bandit","239","687203","0.0-200.0-0.0","88263244","wem/bandit_either_3","A2JHQ75Q7Z0KBH","either","2","561","","","","","","","0","0","1","0.2747613825","","0.8","0.6","0.2","0.4","","","","","0.2747613825","0.4769972016","0.08927965808","0.2323229575","","","","","","","","72","H","0","img/none_selected.jpg","","160","main_expt",""
"","bandit","240","689020","0.0-201.0-0.0","88263244","wem/bandit_either_3","A2JHQ75Q7Z0KBH","either","2","285","","","","","","","1","0","0","0.2046882866","","0.8","0.6","0.2","0.4","","","","","0.2046882866","0.4405879513","0.1038156196","0.399022808","","","","","","","","72","H","0","img/none_selected.jpg","","161","main_expt",""
"","bandit","241","690890","0.0-202.0-0.0","88263244","wem/bandit_either_3","A2JHQ75Q7Z0KBH","either","2","337","","","","","","","0","0","1","","0.1715152701","0.8","0.6","0.2","0.4","0.1715152701","0.44055992","0.1470739062","0.4967313539","","","","","","","","","","","","72","H","0","img/none_selected.jpg","","162","main_expt",""
"","bandit","242","692795","0.0-203.0-0.0","88263244","wem/bandit_either_3","A2JHQ75Q7Z0KBH","either","2","376","","","","","","","1","0","0","0.2396687428","","0.8","0.6","0.2","0.4","","","","","0.2396687428","0.3434222481","0.1214264794","0.5245029489","","","","","","","","72","H","0","img/none_selected.jpg","","163","main_expt",""
"","bandit","243","694759","0.0-204.0-0.0","88263244","wem/bandit_either_3","A2JHQ75Q7Z0KBH","either","2","425","","","","","","","0","0","1","0.3359744524","","0.8","0.6","0.2","0.4","","","","","0.3359744524","0.3862652833","0.1563758897","0.5808119749","","","","","","","","72","H","0","img/none_selected.jpg","","164","main_expt",""
"","bandit","244","696668","0.0-205.0-0.0","88263244","wem/bandit_either_3","A2JHQ75Q7Z0KBH","either","2","371","","","","","","","0","0","1","0.4940159592","","0.8","0.6","0.2","0.4","","","","","0.4940159592","0.4270444342","0.1311500467","0.6473032069","","","","","","","","72","H","0","img/none_selected.jpg","","165","main_expt",""
"","bandit","245","698587","0.0-206.0-0.0","88263244","wem/bandit_either_3","A2JHQ75Q7Z0KBH","either","2","388","","","","","","","0","0","1","0.5922229292","","0.8","0.6","0.2","0.4","","","","","0.5922229292","0.5073102058","0.1419689761","0.6790689848","","","","","","","","72","H","0","img/none_selected.jpg","","166","main_expt",""
"","bandit","246","700784","0.0-207.0-0.0","88263244","wem/bandit_either_3","A2JHQ75Q7Z0KBH","either","2","654","","","","","","","0","0","1","0.5562626425","","0.8","0.6","0.2","0.4","","","","","0.5562626425","0.5417092253","0.150246256","0.5959653185","","","","","","","","72","H","0","img/none_selected.jpg","","167","main_expt",""
"","bandit","247","702737","0.0-208.0-0.0","88263244","wem/bandit_either_3","A2JHQ75Q7Z0KBH","either","2","413","","","","","","","1","0","0","0.6489587791","","0.8","0.6","0.2","0.4","","","","","0.6489587791","0.6505471885","0.2070971521","0.361841396","","","","","","","","72","H","0","img/none_selected.jpg","","168","main_expt",""
"","bandit","248","704743","0.0-209.0-0.0","88263244","wem/bandit_either_3","A2JHQ75Q7Z0KBH","either","2","476","","","","","","","1","0","0","0.5652428614","","0.8","0.6","0.2","0.4","","","","","0.5652428614","0.6226729341","0.2564452127","0.2594844845","","","","","","","","72","H","0","img/none_selected.jpg","","169","main_expt",""
"","bandit","249","706652","0.0-210.0-0.0","88263244","wem/bandit_either_3","A2JHQ75Q7Z0KBH","either","2","377","","","","","","","0","0","1","","0.5344749526","0.8","0.6","0.2","0.4","0.5344749526","0.7574543886","0.2845729388","0.1987556041","","","","","","","","","","","","72","H","0","img/none_selected.jpg","","170","main_expt",""
"","bandit","250","708523","0.0-211.0-0.0","88263244","wem/bandit_either_3","A2JHQ75Q7Z0KBH","either","2","352","","","","","","","1","0","0","0.6364900983","","0.8","0.6","0.2","0.4","","","","","0.6364900983","0.774201251","0.2360657399","0.1583585206","","","","","","","","72","H","0","img/none_selected.jpg","","171","main_expt",""
"","bandit","251","710460","0.0-212.0-0.0","88263244","wem/bandit_either_3","A2JHQ75Q7Z0KBH","either","2","404","","","","","","","1","0","0","0.5516193693","","0.8","0.6","0.2","0.4","","","","","0.5516193693","0.7739789177","0.3453554921","0.1494938987","","","","","","","","72","H","0","img/none_selected.jpg","","172","main_expt",""
"","bandit","252","712369","0.0-213.0-0.0","88263244","wem/bandit_either_3","A2JHQ75Q7Z0KBH","either","2","365","","","","","","","1","0","0","0.5081608063","","0.8","0.6","0.2","0.4","","","","","0.5081608063","0.7146420849","0.2909261263","0.1996494969","","","","","","","","72","H","0","img/none_selected.jpg","","173","main_expt",""
"","bandit","253","714230","0.0-214.0-0.0","88263244","wem/bandit_either_3","A2JHQ75Q7Z0KBH","either","2","320","","","","","","","1","0","0","0.5247340446","","0.8","0.6","0.2","0.4","","","","","0.5247340446","0.683245412","0.3807546558","0.2200767262","","","","","","","","72","H","0","img/none_selected.jpg","","174","main_expt",""
"","bandit","254","716143","0.0-215.0-0.0","88263244","wem/bandit_either_3","A2JHQ75Q7Z0KBH","either","2","383","","","","","","","0","0","1","0.5823110366","","0.8","0.6","0.2","0.4","","","","","0.5823110366","0.7163731774","0.3889518003","0.1929710708","","","","","","","","72","H","0","img/none_selected.jpg","","175","main_expt",""
"","bandit","255","718014","0.0-216.0-0.0","88263244","wem/bandit_either_3","A2JHQ75Q7Z0KBH","either","2","336","","","","","","","0","0","1","0.7693722391","","0.8","0.6","0.2","0.4","","","","","0.7693722391","0.6676116703","0.3662842853","0.1756556012","","","","","","","","72","H","0","img/none_selected.jpg","","176","main_expt",""
"","bandit","256","719893","0.0-217.0-0.0","88263244","wem/bandit_either_3","A2JHQ75Q7Z0KBH","either","2","348","","","","","","","0","0","1","0.8048595062","","0.8","0.6","0.2","0.4","","","","","0.8048595062","0.711116056","0.3102656016","0.2404611203","","","","","","","","72","H","0","img/none_selected.jpg","","177","main_expt",""
"","bandit","257","721728","0.0-218.0-0.0","88263244","wem/bandit_either_3","A2JHQ75Q7Z0KBH","either","2","302","","","","","","","1","0","0","0.8147320782","","0.8","0.6","0.2","0.4","","","","","0.8147320782","0.6541247318","0.3272385177","0.1651874793","","","","","","","","72","H","0","img/none_selected.jpg","","178","main_expt",""
"","bandit","258","723613","0.0-219.0-0.0","88263244","wem/bandit_either_3","A2JHQ75Q7Z0KBH","either","2","346","","","","","","","1","0","0","0.7755432213","","0.8","0.6","0.2","0.4","","","","","0.7755432213","0.600925469","0.3185807274","0.1297692321","","","","","","","","72","H","0","img/none_selected.jpg","","179","main_expt",""
"","bandit","259","725528","0.0-220.0-0.0","88263244","wem/bandit_either_3","A2JHQ75Q7Z0KBH","either","2","379","","","","","","","1","0","0","0.7309951384","","0.8","0.6","0.2","0.4","","","","","0.7309951384","0.6321701674","0.3896265469","0.1311169289","","","","","","","","72","H","0","img/none_selected.jpg","","180","main_expt",""
"","bandit","260","727452","0.0-221.0-0.0","88263244","wem/bandit_either_3","A2JHQ75Q7Z0KBH","either","2","395","","","","","","","0","1","0","","0.8068071681","0.8","0.6","0.2","0.4","0.8068071681","0.7040606398","0.4381139349","0.2184653543","","","","","","","","","","","","72","H","0","img/none_selected.jpg","","181","main_expt",""
"","bandit","261","729354","0.0-222.0-0.0","88263244","wem/bandit_either_3","A2JHQ75Q7Z0KBH","either","2","372","","","","","","","1","0","0","0.8096694819","","0.8","0.6","0.2","0.4","","","","","0.8096694819","0.6551517927","0.4339703771","0.156745214","","","","","","","","72","H","0","img/none_selected.jpg","","182","main_expt",""
"","bandit","262","731306","0.0-223.0-0.0","88263244","wem/bandit_either_3","A2JHQ75Q7Z0KBH","either","2","412","","","","","","","1","0","0","0.8522040983","","0.8","0.6","0.2","0.4","","","","","0.8522040983","0.7709035389","0.5270594011","0.07710569088","","","","","","","","72","H","0","img/none_selected.jpg","","183","main_expt",""
"","bandit","263","733132","0.0-224.0-0.0","88263244","wem/bandit_either_3","A2JHQ75Q7Z0KBH","either","2","290","","","","","","","0","1","0","","0.8636776132","0.8","0.6","0.2","0.4","0.8636776132","0.7869666122","0.4791569234","0.07901501252","","","","","","","","","","","","72","H","0","img/none_selected.jpg","","184","main_expt",""
"","bandit","264","735049","0.0-225.0-0.0","88263244","wem/bandit_either_3","A2JHQ75Q7Z0KBH","either","2","387","","","","","","","1","0","0","0.8605951951","","0.8","0.6","0.2","0.4","","","","","0.8605951951","0.804571828","0.464074867","0.05695362571","","","","","","","","72","H","0","img/none_selected.jpg","","185","main_expt",""
"","bandit","265","736911","0.0-226.0-0.0","88263244","wem/bandit_either_3","A2JHQ75Q7Z0KBH","either","2","328","","","","","","","1","0","0","0.8578427848","","0.8","0.6","0.2","0.4","","","","","0.8578427848","0.7866627628","0.4654947356","0.03796608352","","","","","","","","72","H","0","img/none_selected.jpg","","186","main_expt",""
"","bandit","266","738783","0.0-227.0-0.0","88263244","wem/bandit_either_3","A2JHQ75Q7Z0KBH","either","2","348","","","","","","","1","0","0","0.8253306036","","0.8","0.6","0.2","0.4","","","","","0.8253306036","0.8006736442","0.4338668179","0.05986429342","","","","","","","","72","H","0","img/none_selected.jpg","","187","main_expt",""
"","bandit","267","740623","0.0-228.0-0.0","88263244","wem/bandit_either_3","A2JHQ75Q7Z0KBH","either","2","315","","","","","","","1","0","0","0.8118593573","","0.8","0.6","0.2","0.4","","","","","0.8118593573","0.7687627789","0.4679469354","0.05827831728","","","","","","","","72","H","0","img/none_selected.jpg","","188","main_expt",""
"","bandit","268","742556","0.0-229.0-0.0","88263244","wem/bandit_either_3","A2JHQ75Q7Z0KBH","either","2","397","","","","","","","0","1","0","","0.8319104568","0.8","0.6","0.2","0.4","0.8319104568","0.7009429779","0.4645116859","0.06499387038","","","","","","","","","","","","72","H","0","img/none_selected.jpg","","189","main_expt",""
"","bandit","269","744402","0.0-230.0-0.0","88263244","wem/bandit_either_3","A2JHQ75Q7Z0KBH","either","2","308","","","","","","","0","0","1","0.8949986836","","0.8","0.6","0.2","0.4","","","","","0.8949986836","0.7531121838","0.4260553166","0.0878029059","","","","","","","","72","H","0","img/none_selected.jpg","","190","main_expt",""
"","bandit","270","746352","0.0-231.0-0.0","88263244","wem/bandit_either_3","A2JHQ75Q7Z0KBH","either","2","409","","","","","","","1","0","0","0.9258368343","","0.8","0.6","0.2","0.4","","","","","0.9258368343","0.6174616994","0.5323747461","0.1101088583","","","","","","","","72","H","0","img/none_selected.jpg","","191","main_expt",""
"","bandit","271","748234","0.0-232.0-0.0","88263244","wem/bandit_either_3","A2JHQ75Q7Z0KBH","either","2","361","","","","","","","1","0","0","0.9221438833","","0.8","0.6","0.2","0.4","","","","","0.9221438833","0.6331996982","0.6013900654","0.1559643099","","","","","","","","72","H","0","img/none_selected.jpg","","192","main_expt",""
"","bandit","272","750164","0.0-233.0-0.0","88263244","wem/bandit_either_3","A2JHQ75Q7Z0KBH","either","2","400","","","","","","","1","0","0","0.878376231","","0.8","0.6","0.2","0.4","","","","","0.878376231","0.5596167322","0.5332063066","0.1348882638","","","","","","","","72","H","0","img/none_selected.jpg","","193","main_expt",""
"","bandit","273","752188","0.0-234.0-0.0","88263244","wem/bandit_either_3","A2JHQ75Q7Z0KBH","either","2","501","","","","","","","1","0","0","0.7914694382","","0.8","0.6","0.2","0.4","","","","","0.7914694382","0.5887018809","0.5499496643","0.243093686","","","","","","","","72","H","0","img/none_selected.jpg","","194","main_expt",""
"","bandit","274","754306","0.0-235.0-0.0","88263244","wem/bandit_either_3","A2JHQ75Q7Z0KBH","either","2","582","","","","","","","0","1","0","","0.7843027812","0.8","0.6","0.2","0.4","0.7843027812","0.561552955","0.4170732774","0.2792315856","","","","","","","","","","","","72","H","0","img/none_selected.jpg","","195","main_expt",""
"","bandit","275","756699","0.0-236.0-0.0","88263244","wem/bandit_either_3","A2JHQ75Q7Z0KBH","either","2","858","","","","","","","0","0","1","0.7888241066","","0.8","0.6","0.2","0.4","","","","","0.7888241066","0.6199522587","0.4050854298","0.2075419965","","","","","","","","72","H","0","img/none_selected.jpg","","196","main_expt",""
"","bandit","276","758631","0.0-237.0-0.0","88263244","wem/bandit_either_3","A2JHQ75Q7Z0KBH","either","2","392","","","","","","","1","0","0","0.8145025162","","0.8","0.6","0.2","0.4","","","","","0.8145025162","0.6886125155","0.4522405917","0.1899284635","","","","","","","","72","H","0","img/none_selected.jpg","","197","main_expt",""
"","bandit","277","760646","0.0-238.0-0.0","88263244","wem/bandit_either_3","A2JHQ75Q7Z0KBH","either","2","488","","","","","","","0","0","1","0.8795467387","","0.8","0.6","0.2","0.4","","","","","0.8795467387","0.6468609917","0.4547961131","0.1632143895","","","","","","","","72","H","0","img/none_selected.jpg","","198","main_expt",""
"","bandit","278","762540","0.0-239.0-0.0","88263244","wem/bandit_either_3","A2JHQ75Q7Z0KBH","either","2","352","","","","","","","1","0","0","0.8716255916","","0.8","0.6","0.2","0.4","","","","","0.8716255916","0.7134983028","0.456709553","0.1580048483","","","","","","","","72","H","0","img/none_selected.jpg","","199","main_expt",""
"","bandit","279","764975","0.0-240.0-0.0","88263244","wem/bandit_either_3","A2JHQ75Q7Z0KBH","either","2","915","","","","","","","0","0","1","","0.8596876402","0.8","0.6","0.2","0.4","0.8596876402","0.6545285445","0.4197111003","0.1815025648","","","","","","","","","","","","72","H","0","img/none_selected.jpg","","200","main_expt",""
"","bandit","280","767104","0.0-241.0-0.0","88263244","wem/bandit_either_3","A2JHQ75Q7Z0KBH","either","2","589","","","","","","","1","0","0","0.8714244785","","0.8","0.6","0.2","0.4","","","","","0.8714244785","0.6827561938","0.4468864226","0.1453003075","","","","","","","","72","H","0","img/none_selected.jpg","","201","main_expt",""
"","bandit","281","769712","0.0-242.0-0.0","88263244","wem/bandit_either_3","A2JHQ75Q7Z0KBH","either","2","1079","","","","","","","1","0","0","0.8679491409","","0.8","0.6","0.2","0.4","","","","","0.8679491409","0.6590680519","0.3852152277","0.1061510446","","","","","","","","72","H","0","img/none_selected.jpg","","202","main_expt",""
"","bandit","282","772006","0.0-243.0-0.0","88263244","wem/bandit_either_3","A2JHQ75Q7Z0KBH","either","2","768","","","","","","","1","0","0","0.8421855008","","0.8","0.6","0.2","0.4","","","","","0.8421855008","0.67998256","0.3481501846","0.09667757311","","","","","","","","72","H","0","img/none_selected.jpg","","203","main_expt",""
"","bandit","283","774063","0.0-244.0-0.0","88263244","wem/bandit_either_3","A2JHQ75Q7Z0KBH","either","2","527","","","","","","","1","0","0","0.8741547355","","0.8","0.6","0.2","0.4","","","","","0.8741547355","0.7157802034","0.3688904748","0.109576977","","","","","","","","72","H","0","img/none_selected.jpg","","204","main_expt",""
"","bandit","284","775996","0.0-245.0-0.0","88263244","wem/bandit_either_3","A2JHQ75Q7Z0KBH","either","2","390","","","","","","","1","0","0","0.8589537271","","0.8","0.6","0.2","0.4","","","","","0.8589537271","0.6750594522","0.4196025605","0.1370524017","","","","","","","","72","H","0","img/none_selected.jpg","","205","main_expt",""
"","bandit","285","777877","0.0-246.0-0.0","88263244","wem/bandit_either_3","A2JHQ75Q7Z0KBH","either","2","359","","","","","","","0","0","1","0.8009191088","","0.8","0.6","0.2","0.4","","","","","0.8009191088","0.7170784861","0.3558717694","0.1005848846","","","","","","","","72","H","0","img/none_selected.jpg","","206","main_expt",""
"","bandit","286","779768","0.0-247.0-0.0","88263244","wem/bandit_either_3","A2JHQ75Q7Z0KBH","either","2","369","","","","","","","0","0","1","0.8146279372","","0.8","0.6","0.2","0.4","","","","","0.8146279372","0.6886550294","0.3978287694","0.1100528349","","","","","","","","72","H","0","img/none_selected.jpg","","207","main_expt",""
"","bandit","287","781678","0.0-248.0-0.0","88263244","wem/bandit_either_3","A2JHQ75Q7Z0KBH","either","2","383","","","","","","","1","0","0","0.7498886323","","0.8","0.6","0.2","0.4","","","","","0.7498886323","0.7340041914","0.3647175361","0.1165568201","","","","","","","","72","H","0","img/none_selected.jpg","","208","main_expt",""
"","bandit","288","783637","0.0-249.0-0.0","88263244","wem/bandit_either_3","A2JHQ75Q7Z0KBH","either","2","425","","","","","","","0","0","1","0.781298432","","0.8","0.6","0.2","0.4","","","","","0.781298432","0.7108339061","0.2942091963","0.1607141963","","","","","","","","72","H","0","img/none_selected.jpg","","209","main_expt",""
"","bandit","289","785603","0.0-250.0-0.0","88263244","wem/bandit_either_3","A2JHQ75Q7Z0KBH","either","2","432","","","","","","","1","0","0","0.8374694261","","0.8","0.6","0.2","0.4","","","","","0.8374694261","0.7322658343","0.3228874634","0.2005879304","","","","","","","","72","H","0","img/none_selected.jpg","","210","main_expt",""
"","bandit","290","787608","0.0-251.0-0.0","88263244","wem/bandit_either_3","A2JHQ75Q7Z0KBH","either","2","470","","","","","","","1","0","0","0.7461264045","","0.8","0.6","0.2","0.4","","","","","0.7461264045","0.6220956771","0.3300931135","0.1999716741","","","","","","","","72","H","0","img/none_selected.jpg","","211","main_expt",""
"","bandit","291","790113","0.0-252.0-0.0","88263244","wem/bandit_either_3","A2JHQ75Q7Z0KBH","either","2","965","","","","","","","1","0","0","0.7267359419","","0.8","0.6","0.2","0.4","","","","","0.7267359419","0.5400145011","0.4044608811","0.2135957141","","","","","","","","72","H","0","img/none_selected.jpg","","212","main_expt",""
"","bandit","292","792495","0.0-253.0-0.0","88263244","wem/bandit_either_3","A2JHQ75Q7Z0KBH","either","2","856","","","","","","","1","0","0","0.6529835343","","0.8","0.6","0.2","0.4","","","","","0.6529835343","0.5419994818","0.4916994921","0.2041793084","","","","","","","","72","H","0","img/none_selected.jpg","","213","main_expt",""
"","bandit","293","794607","0.0-254.0-0.0","88263244","wem/bandit_either_3","A2JHQ75Q7Z0KBH","either","2","583","","","","","","","0","0","1","","0.5734554779","0.8","0.6","0.2","0.4","0.5734554779","0.6195319152","0.5387088508","0.2563089198","","","","","","","","","","","","72","H","0","img/none_selected.jpg","","214","main_expt",""
"","bandit","294","796655","0.0-255.0-0.0","88263244","wem/bandit_either_3","A2JHQ75Q7Z0KBH","either","2","515","","","","","","","1","0","0","0.7056003711","","0.8","0.6","0.2","0.4","","","","","0.7056003711","0.7405966814","0.567041903","0.2870699064","","","","","","","","72","H","0","img/none_selected.jpg","","215","main_expt",""
"","bandit","295","798245","0.0-256.0-0.0","88263244","wem/bandit_either_3","A2JHQ75Q7Z0KBH","either","2","41","","","","","","","0","0","1","","0.7717913507","0.8","0.6","0.2","0.4","0.7717913507","0.8005734678","0.539749723","0.2715554895","","","","","","","","","","","","72","H","0","img/none_selected.jpg","","216","main_expt",""
"","bandit","296","800393","0.0-257.0-0.0","88263244","wem/bandit_either_3","A2JHQ75Q7Z0KBH","either","2","619","","","","","","","0","0","1","0.834894728","","0.8","0.6","0.2","0.4","","","","","0.834894728","0.8392159132","0.3803352486","0.2027777883","","","","","","","","72","H","0","img/none_selected.jpg","","217","main_expt",""
"","bandit","297","802330","0.0-258.0-0.0","88263244","wem/bandit_either_3","A2JHQ75Q7Z0KBH","either","2","409","","","","","","","1","0","0","0.868580258","","0.8","0.6","0.2","0.4","","","","","0.868580258","0.7445585264","0.3236333655","0.2169787163","","","","","","","","72","H","0","img/none_selected.jpg","","218","main_expt",""
"","bandit","298","804264","0.0-259.0-0.0","88263244","wem/bandit_either_3","A2JHQ75Q7Z0KBH","either","2","408","","","","","","","0","0","1","0.8236231074","","0.8","0.6","0.2","0.4","","","","","0.8236231074","0.7174829008","0.2612589469","0.2292932202","","","","","","","","72","H","0","img/none_selected.jpg","","219","main_expt",""
"","bandit","299","806231","0.0-260.0-0.0","88263244","wem/bandit_either_3","A2JHQ75Q7Z0KBH","either","2","431","","","","","","","1","0","0","0.7719294443","","0.8","0.6","0.2","0.4","","","","","0.7719294443","0.6601767392","0.2228319794","0.2829053382","","","","","","","","72","H","0","img/none_selected.jpg","","220","main_expt",""
"","bandit","300","808195","0.0-261.0-0.0","88263244","wem/bandit_either_3","A2JHQ75Q7Z0KBH","either","2","442","","","","","","","1","0","0","0.7609360252","","0.8","0.6","0.2","0.4","","","","","0.7609360252","0.703996204","0.2204856404","0.2691731019","","","","","","","","72","H","0","img/none_selected.jpg","","221","main_expt",""
"","bandit","301","810061","0.0-262.0-0.0","88263244","wem/bandit_either_3","A2JHQ75Q7Z0KBH","either","2","340","","","","","","","1","0","0","0.7319851961","","0.8","0.6","0.2","0.4","","","","","0.7319851961","0.6188024556","0.2269951902","0.1974112065","","","","","","","","72","H","0","img/none_selected.jpg","","222","main_expt",""
"","bandit","302","812177","0.0-263.0-0.0","88263244","wem/bandit_either_3","A2JHQ75Q7Z0KBH","either","2","592","","","","","","","1","0","0","0.6994646324","","0.8","0.6","0.2","0.4","","","","","0.6994646324","0.5695888615","0.3417830843","0.08486155027","","","","","","","","72","H","0","img/none_selected.jpg","","223","main_expt",""
"","bandit","303","814522","0.0-264.0-0.0","88263244","wem/bandit_either_3","A2JHQ75Q7Z0KBH","either","2","819","","","","","","","0","1","0","","0.6817307813","0.8","0.6","0.2","0.4","0.6817307813","0.6590173842","0.4057490183","0.1930609847","","","","","","","","","","","","72","H","0","img/none_selected.jpg","","224","main_expt",""
"","bandit","304","816355","0.0-265.0-0.0","88263244","wem/bandit_either_3","A2JHQ75Q7Z0KBH","either","2","313","","","","","","","1","0","0","0.67394888","","0.8","0.6","0.2","0.4","","","","","0.67394888","0.6779124893","0.4266979185","0.2026087193","","","","","","","","72","H","0","img/none_selected.jpg","","225","main_expt",""
"","bandit","305","818189","0.0-266.0-0.0","88263244","wem/bandit_either_3","A2JHQ75Q7Z0KBH","either","2","315","","","","","","","1","0","0","0.6520670614","","0.8","0.6","0.2","0.4","","","","","0.6520670614","0.6433757785","0.4723095555","0.1295559036","","","","","","","","72","H","0","img/none_selected.jpg","","226","main_expt",""
"","bandit","306","820041","0.0-267.0-0.0","88263244","wem/bandit_either_3","A2JHQ75Q7Z0KBH","either","2","323","","","","","","","0","1","0","","0.6598054912","0.8","0.6","0.2","0.4","0.6598054912","0.6050090536","0.4396274322","0.1014701128","","","","","","","","","","","","72","H","0","img/none_selected.jpg","","227","main_expt",""
"","bandit","307","821923","0.0-268.0-0.0","88263244","wem/bandit_either_3","A2JHQ75Q7Z0KBH","either","2","341","","","","","","","0","0","1","","0.7313296172","0.8","0.6","0.2","0.4","0.7313296172","0.5614220587","0.4581465293","0.1374428951","","","","","","","","","","","","72","H","0","img/none_selected.jpg","","228","main_expt",""
"","bandit","308","823885","0.0-269.0-0.0","88263244","wem/bandit_either_3","A2JHQ75Q7Z0KBH","either","2","439","","","","","","","0","0","1","0.5771612872","","0.8","0.6","0.2","0.4","","","","","0.5771612872","0.536938762","0.3635076811","0.2147377822","","","","","","","","72","H","0","img/none_selected.jpg","","229","main_expt",""
"","bandit","309","825745","0.0-270.0-0.0","88263244","wem/bandit_either_3","A2JHQ75Q7Z0KBH","either","2","312","","","","","","","0","0","1","0.6474737632","","0.8","0.6","0.2","0.4","","","","","0.6474737632","0.4691369301","0.4109812081","0.2128984172","","","","","","","","72","H","0","img/none_selected.jpg","","230","main_expt",""
"","bandit","310","827560","0.0-271.0-0.0","88263244","wem/bandit_either_3","A2JHQ75Q7Z0KBH","either","2","282","","","","","","","1","0","0","0.77083729","","0.8","0.6","0.2","0.4","","","","","0.77083729","0.3801843724","0.3769467169","0.2566260117","","","","","","","","72","H","0","img/none_selected.jpg","","231","main_expt",""
"","bandit","311","829491","0.0-272.0-0.0","88263244","wem/bandit_either_3","A2JHQ75Q7Z0KBH","either","2","405","","","","","","","1","0","0","0.7372448464","","0.8","0.6","0.2","0.4","","","","","0.7372448464","0.4401380948","0.4489681289","0.307190163","","","","","","","","72","H","0","img/none_selected.jpg","","232","main_expt",""
"","bandit","312","831319","0.0-273.0-0.0","88263244","wem/bandit_either_3","A2JHQ75Q7Z0KBH","either","2","302","","","","","","","1","0","0","0.8061851957","","0.8","0.6","0.2","0.4","","","","","0.8061851957","0.4589823784","0.5191563331","0.3235632008","","","","","","","","72","H","0","img/none_selected.jpg","","233","main_expt",""
"","bandit","313","833156","0.0-274.0-0.0","88263244","wem/bandit_either_3","A2JHQ75Q7Z0KBH","either","2","297","","","","","","","0","0","1","0.7628128465","","0.8","0.6","0.2","0.4","","","","","0.7628128465","0.412850409","0.5635532962","0.2229472669","","","","","","","","72","H","0","img/none_selected.jpg","","234","main_expt",""
"","bandit","314","835006","0.0-275.0-0.0","88263244","wem/bandit_either_3","A2JHQ75Q7Z0KBH","either","2","307","","","","","","","1","0","0","0.7139354314","","0.8","0.6","0.2","0.4","","","","","0.7139354314","0.3071086281","0.6059211115","0.3245092944","","","","","","","","72","H","0","img/none_selected.jpg","","235","main_expt",""
"","bandit","315","836900","0.0-276.0-0.0","88263244","wem/bandit_either_3","A2JHQ75Q7Z0KBH","either","2","369","","","","","","","0","0","1","0.8459685894","","0.8","0.6","0.2","0.4","","","","","0.8459685894","0.3088172556","0.5767319418","0.3817813951","","","","","","","","72","H","0","img/none_selected.jpg","","236","main_expt",""
"","bandit","316","838765","0.0-277.0-0.0","88263244","wem/bandit_either_3","A2JHQ75Q7Z0KBH","either","2","337","","","","","","","0","0","1","0.8258062243","","0.8","0.6","0.2","0.4","","","","","0.8258062243","0.2725525041","0.6195352853","0.5108794425","","","","","","","","72","H","0","img/none_selected.jpg","","237","main_expt",""
"","bandit","317","840567","0.0-278.0-0.0","88263244","wem/bandit_either_3","A2JHQ75Q7Z0KBH","either","2","261","","","","","","","1","0","0","0.7390020401","","0.8","0.6","0.2","0.4","","","","","0.7390020401","0.2929581335","0.7504070514","0.545868674","","","","","","","","72","H","0","img/none_selected.jpg","","238","main_expt",""
"","bandit","318","842456","0.0-279.0-0.0","88263244","wem/bandit_either_3","A2JHQ75Q7Z0KBH","either","2","364","","","","","","","1","0","0","0.7159327665","","0.8","0.6","0.2","0.4","","","","","0.7159327665","0.3009301418","0.7863609923","0.5696008367","","","","","","","","72","H","0","img/none_selected.jpg","","239","main_expt",""
"","bandit","319","844271","0.0-280.0-0.0","88263244","wem/bandit_either_3","A2JHQ75Q7Z0KBH","either","2","294","","","","","","","0","0","1","0.7704913736","","0.8","0.6","0.2","0.4","","","","","0.7704913736","0.1757133805","0.7472107855","0.7175907516","","","","","","","","72","H","0","img/none_selected.jpg","","240","main_expt",""
