"consent","trial_type","trial_index","time_elapsed","internal_node_id","subjID","study","MID","cond","drift","rt","responses","key_press","expt_phase","like","value","connected","gems","bombs","no_reward","GemPrChosen","BombPrChosen","GainOverPainPr_0","GainOverPainPr_1","GainOverPainPr_2","GainOverPainPr_3","LosePr_0","LosePr_1","LosePr_2","LosePr_3","WinPr_0","WinPr_1","WinPr_2","WinPr_3","Q0","Q1","Q2","gender","age","ethnicity","target","respCharCode","respKey","respChoiceNum","respChoice","practice","trial_counter","trial_label","button_pressed"
"INL_behavioral_consent_30min_online.html","consent","0","16322","0.0-0.0","88278170","wem/bandit_either_3","A21UA6O7ZFAIQJ","either","8","","","","","","","","","","","","","","","","","","","","","","","","","","","","","","","","","","","","","","",""
"","survey-text","1","21906","0.0-1.0","88278170","wem/bandit_either_3","A21UA6O7ZFAIQJ","either","8","4580","{""Q0"":""A21UA6O7ZFAIQJ""}","","","","","","","","","","","","","","","","","","","","","","","","","","","","","","","","","","","","",""
"","text","2","32342","0.0-2.0","88278170","wem/bandit_either_3","A21UA6O7ZFAIQJ","either","8","9433","","32","","","","","","","","","","","","","","","","","","","","","","","","","","","","","","","","","","","",""
"","text","3","38188","0.0-3.0","88278170","wem/bandit_either_3","A21UA6O7ZFAIQJ","either","8","5846","","32","","","","","","","","","","","","","","","","","","","","","","","","","","","","","","","","","","","",""
"","text","4","52165","0.0-4.0","88278170","wem/bandit_either_3","A21UA6O7ZFAIQJ","either","8","13977","","32","","","","","","","","","","","","","","","","","","","","","","","","","","","","","","","","","","","",""
"","text","5","62382","0.0-5.0","88278170","wem/bandit_either_3","A21UA6O7ZFAIQJ","either","8","10216","","32","","","","","","","","","","","","","","","","","","","","","","","","","","","","","","","","","","","",""
"","text","6","71293","0.0-6.0","88278170","wem/bandit_either_3","A21UA6O7ZFAIQJ","either","8","8910","","32","","","","","","","","","","","","","","","","","","","","","","","","","","","","","","","","","","","",""
"","text","7","76262","0.0-7.0","88278170","wem/bandit_either_3","A21UA6O7ZFAIQJ","either","8","4969","","32","","","","","","","","","","","","","","","","","","","","","","","","","","","","","","","","","","","",""
"","text","8","79733","0.0-8.0","88278170","wem/bandit_either_3","A21UA6O7ZFAIQJ","either","8","3470","","32","","","","","","","","","","","","","","","","","","","","","","","","","","","","","","","","","","","",""
"","identification","9","103289","0.0-9.0-0.0","88278170","wem/bandit_either_3","A21UA6O7ZFAIQJ","either","8","23547","","","","5","5","5","","","","","","","","","","","","","","","","","","","","","","","","the village of Zur","","","","","","","",""
"","identification","10","108168","0.0-9.0-1.0","88278170","wem/bandit_either_3","A21UA6O7ZFAIQJ","either","8","3872","","","","0","0","0","","","","","","","","","","","","","","","","","","","","","","","","the village of Nyx","","","","","","","",""
"","text","11","115029","0.0-10.0","88278170","wem/bandit_either_3","A21UA6O7ZFAIQJ","either","8","5860","","32","","","","","","","","","","","","","","","","","","","","","","","","","","","","","","","","","","","",""
"","text","12","117444","0.0-11.0","88278170","wem/bandit_either_3","A21UA6O7ZFAIQJ","either","8","2414","","32","","","","","","","","","","","","","","","","","","","","","","","","","","","","","","","","","","","",""
"","text","13","119108","0.0-12.0","88278170","wem/bandit_either_3","A21UA6O7ZFAIQJ","either","8","1664","","32","","","","","","","","","","","","","","","","","","","","","","","","","","","","","","","","","","","",""
"","text","14","121724","0.0-13.0","88278170","wem/bandit_either_3","A21UA6O7ZFAIQJ","either","8","2615","","32","","","","","","","","","","","","","","","","","","","","","","","","","","","","","","","","","","","",""
"","bandit","15","124427","0.0-14.0-0.0","88278170","wem/bandit_either_3","A21UA6O7ZFAIQJ","either","8","1198","","","","","","","0","0","1","0","0","","","","","0","","","","0","","","","","","","","","","","74","J","0","img/none_selected_demo.jpg","true","0","",""
"","bandit","16","127051","0.0-15.0-0.0","88278170","wem/bandit_either_3","A21UA6O7ZFAIQJ","either","8","1121","","","","","","","0","0","1","0","0","","","","","0","","","","0","","","","","","","","","","","75","K","0","img/none_selected_demo.jpg","true","0","",""
"","text","17","130733","0.0-16.0","88278170","wem/bandit_either_3","A21UA6O7ZFAIQJ","either","8","3680","","32","","","","","","","","","","","","","","","","","","","","","","","","","","","","","","","","","","","",""
"","text","18","145142","0.0-17.0","88278170","wem/bandit_either_3","A21UA6O7ZFAIQJ","either","8","14408","","32","","","","","","","","","","","","","","","","","","","","","","","","","","","","","","","","","","","",""
"","text","19","149758","0.0-18.0","88278170","wem/bandit_either_3","A21UA6O7ZFAIQJ","either","8","4615","","32","","","","","","","","","","","","","","","","","","","","","","","","","","","","","","","","","","","",""
"","text","20","151917","0.0-19.0","88278170","wem/bandit_either_3","A21UA6O7ZFAIQJ","either","8","2159","","32","","","","","","","","","","","","","","","","","","","","","","","","","","","","","","","","","","","",""
"","bandit","21","154491","0.0-20.0-0.0","88278170","wem/bandit_either_3","A21UA6O7ZFAIQJ","either","8","1071","","","","","","","0","1","0","","0.8","0.5","0.5","","","0.8","0.2","","","","","","","","","","","","","","74","J","0","img/none_selected_demo.jpg","true","0","80_20_practice",""
"","bandit","22","156514","0.0-20.0-1.0","88278170","wem/bandit_either_3","A21UA6O7ZFAIQJ","either","8","520","","","","","","","0","1","0","","0.2","0.5","0.5","","","0.8","0.2","","","","","","","","","","","","","","75","K","1","","true","0","80_20_practice",""
"","bandit","23","158307","0.0-20.0-2.0","88278170","wem/bandit_either_3","A21UA6O7ZFAIQJ","either","8","290","","","","","","","0","0","1","","0.2","0.5","0.5","","","0.8","0.2","","","","","","","","","","","","","","75","K","1","","true","0","80_20_practice",""
"","bandit","24","160099","0.0-20.0-3.0","88278170","wem/bandit_either_3","A21UA6O7ZFAIQJ","either","8","288","","","","","","","0","0","1","","0.2","0.5","0.5","","","0.8","0.2","","","","","","","","","","","","","","75","K","1","","true","0","80_20_practice",""
"","bandit","25","161771","0.0-20.0-4.0","88278170","wem/bandit_either_3","A21UA6O7ZFAIQJ","either","8","168","","","","","","","0","1","0","","0.2","0.5","0.5","","","0.8","0.2","","","","","","","","","","","","","","75","K","1","","true","0","80_20_practice",""
"","bandit","26","163522","0.0-20.0-5.0","88278170","wem/bandit_either_3","A21UA6O7ZFAIQJ","either","8","248","","","","","","","0","0","1","0.2","","0.5","0.5","","","","","","","0.8","0.2","","","","","","","","","","75","K","1","","true","0","80_20_practice",""
"","bandit","27","165235","0.0-20.0-6.0","88278170","wem/bandit_either_3","A21UA6O7ZFAIQJ","either","8","209","","","","","","","0","0","1","","0.2","0.5","0.5","","","0.8","0.2","","","","","","","","","","","","","","75","K","1","","true","0","80_20_practice",""
"","bandit","28","167003","0.0-20.0-7.0","88278170","wem/bandit_either_3","A21UA6O7ZFAIQJ","either","8","264","","","","","","","1","0","0","0.2","","0.5","0.5","","","","","","","0.8","0.2","","","","","","","","","","75","K","1","","true","0","80_20_practice",""
"","bandit","29","168772","0.0-20.0-8.0","88278170","wem/bandit_either_3","A21UA6O7ZFAIQJ","either","8","265","","","","","","","0","0","1","0.2","","0.5","0.5","","","","","","","0.8","0.2","","","","","","","","","","75","K","1","","true","0","80_20_practice",""
"","bandit","30","170450","0.0-20.0-9.0","88278170","wem/bandit_either_3","A21UA6O7ZFAIQJ","either","8","175","","","","","","","0","0","1","0.2","","0.5","0.5","","","","","","","0.8","0.2","","","","","","","","","","75","K","1","","true","0","80_20_practice",""
"","bandit","31","172146","0.0-20.0-10.0","88278170","wem/bandit_either_3","A21UA6O7ZFAIQJ","either","8","193","","","","","","","0","0","1","","0.2","0.5","0.5","","","0.8","0.2","","","","","","","","","","","","","","75","K","1","","true","0","80_20_practice",""
"","bandit","32","173810","0.0-20.0-11.0","88278170","wem/bandit_either_3","A21UA6O7ZFAIQJ","either","8","161","","","","","","","0","0","1","0.2","","0.5","0.5","","","","","","","0.8","0.2","","","","","","","","","","75","K","1","","true","0","80_20_practice",""
"","bandit","33","175753","0.0-20.0-12.0","88278170","wem/bandit_either_3","A21UA6O7ZFAIQJ","either","8","441","","","","","","","0","0","1","0.2","","0.5","0.5","","","","","","","0.8","0.2","","","","","","","","","","75","K","1","","true","0","80_20_practice",""
"","bandit","34","177561","0.0-20.0-13.0","88278170","wem/bandit_either_3","A21UA6O7ZFAIQJ","either","8","305","","","","","","","1","0","0","0.2","","0.5","0.5","","","","","","","0.8","0.2","","","","","","","","","","75","K","1","","true","0","80_20_practice",""
"","bandit","35","180683","0.0-20.0-14.0","88278170","wem/bandit_either_3","A21UA6O7ZFAIQJ","either","8","1617","","","","","","","0","1","0","","0.2","0.5","0.5","","","0.8","0.2","","","","","","","","","","","","","","75","K","1","","true","0","80_20_practice",""
"","bandit","36","182489","0.0-20.0-15.0","88278170","wem/bandit_either_3","A21UA6O7ZFAIQJ","either","8","303","","","","","","","1","0","0","0.8","","0.5","0.5","","","","","","","0.8","0.2","","","","","","","","","","74","J","0","img/none_selected_demo.jpg","true","0","80_20_practice",""
"","bandit","37","184657","0.0-20.0-16.0","88278170","wem/bandit_either_3","A21UA6O7ZFAIQJ","either","8","665","","","","","","","0","0","1","","0.2","0.5","0.5","","","0.8","0.2","","","","","","","","","","","","","","75","K","1","","true","0","80_20_practice",""
"","bandit","38","186514","0.0-20.0-17.0","88278170","wem/bandit_either_3","A21UA6O7ZFAIQJ","either","8","353","","","","","","","0","0","1","0.2","","0.5","0.5","","","","","","","0.8","0.2","","","","","","","","","","75","K","1","","true","0","80_20_practice",""
"","bandit","39","188370","0.0-20.0-18.0","88278170","wem/bandit_either_3","A21UA6O7ZFAIQJ","either","8","353","","","","","","","0","0","1","0.2","","0.5","0.5","","","","","","","0.8","0.2","","","","","","","","","","75","K","1","","true","0","80_20_practice",""
"","bandit","40","190113","0.0-20.0-19.0","88278170","wem/bandit_either_3","A21UA6O7ZFAIQJ","either","8","239","","","","","","","0","0","1","","0.2","0.5","0.5","","","0.8","0.2","","","","","","","","","","","","","","75","K","1","","true","0","80_20_practice",""
"","text","41","192901","0.0-21.0","88278170","wem/bandit_either_3","A21UA6O7ZFAIQJ","either","8","2786","","32","","","","","","","","","","","","","","","","","","","","","","","","","","","","","","","","","","","",""
"","bandit","42","195139","0.0-22.0-0.0","88278170","wem/bandit_either_3","A21UA6O7ZFAIQJ","either","8","733","","","","","","","0","1","0","0","1","","","","","0","1","","","1","0","","","","","","","","","","75","K","1","","true","0","",""
"","text","43","201404","0.0-23.0","88278170","wem/bandit_either_3","A21UA6O7ZFAIQJ","either","8","6264","","32","","","","","","","","","","","","","","","","","","","","","","","","","","","","","","","","","","","",""
"","text","44","203212","0.0-24.0","88278170","wem/bandit_either_3","A21UA6O7ZFAIQJ","either","8","1807","","32","","","","","","","","","","","","","","","","","","","","","","","","","","","","","","","","","","","",""
"","text","45","204915","0.0-25.0","88278170","wem/bandit_either_3","A21UA6O7ZFAIQJ","either","8","1702","","32","","","","","","","","","","","","","","","","","","","","","","","","","","","","","","","","","","","",""
"","text","46","207363","0.0-26.0","88278170","wem/bandit_either_3","A21UA6O7ZFAIQJ","either","8","2447","","32","","","","","","","","","","","","","","","","","","","","","","","","","","","","","","","","","","","",""
"","text","47","208651","0.0-27.0","88278170","wem/bandit_either_3","A21UA6O7ZFAIQJ","either","8","1287","","32","","","","","","","","","","","","","","","","","","","","","","","","","","","","","","","","","","","",""
"","text","48","209660","0.0-28.0","88278170","wem/bandit_either_3","A21UA6O7ZFAIQJ","either","8","1007","","32","","","","","","","","","","","","","","","","","","","","","","","","","","","","","","","","","","","",""
"","text","49","211443","0.0-29.0","88278170","wem/bandit_either_3","A21UA6O7ZFAIQJ","either","8","1783","","32","","","","","","","","","","","","","","","","","","","","","","","","","","","","","","","","","","","",""
"","text","50","212500","0.0-30.0","88278170","wem/bandit_either_3","A21UA6O7ZFAIQJ","either","8","1055","","32","","","","","","","","","","","","","","","","","","","","","","","","","","","","","","","","","","","",""
"","text","51","213901","0.0-31.0","88278170","wem/bandit_either_3","A21UA6O7ZFAIQJ","either","8","1399","","32","","","","","","","","","","","","","","","","","","","","","","","","","","","","","","","","","","","",""
"","text","52","215268","0.0-32.0","88278170","wem/bandit_either_3","A21UA6O7ZFAIQJ","either","8","1366","","32","","","","","","","","","","","","","","","","","","","","","","","","","","","","","","","","","","","",""
"","text","53","216955","0.0-33.0","88278170","wem/bandit_either_3","A21UA6O7ZFAIQJ","either","8","1686","","32","","","","","","","","","","","","","","","","","","","","","","","","","","","","","","","","","","","",""
"","bandit","54","219489","0.0-34.0-0.0","88278170","wem/bandit_either_3","A21UA6O7ZFAIQJ","either","8","1030","","","","","","","0","1","0","","0.8","0.5","0.5","0.5","0.5","0.8","0.2","0.6","0.2","","","","","","","","","","","","72","H","0","img/none_selected.jpg","true","0","full_practice",""
"","bandit","55","221154","0.0-34.0-1.0","88278170","wem/bandit_either_3","A21UA6O7ZFAIQJ","either","8","160","","","","","","","1","0","0","0.8","","0.5","0.5","0.5","0.5","","","","","0.8","0.2","0.6","0.2","","","","","","","","72","H","0","img/none_selected.jpg","true","0","full_practice",""
"","bandit","56","222842","0.0-34.0-2.0","88278170","wem/bandit_either_3","A21UA6O7ZFAIQJ","either","8","184","","","","","","","0","1","0","","0.8","0.5","0.5","0.5","0.5","0.8","0.2","0.6","0.2","","","","","","","","","","","","72","H","0","img/none_selected.jpg","true","0","full_practice",""
"","bandit","57","224601","0.0-34.0-3.0","88278170","wem/bandit_either_3","A21UA6O7ZFAIQJ","either","8","256","","","","","","","0","1","0","","0.8","0.5","0.5","0.5","0.5","0.8","0.2","0.6","0.2","","","","","","","","","","","","72","H","0","img/none_selected.jpg","true","0","full_practice",""
"","bandit","58","226267","0.0-34.0-4.0","88278170","wem/bandit_either_3","A21UA6O7ZFAIQJ","either","8","161","","","","","","","1","0","0","0.8","","0.5","0.5","0.5","0.5","","","","","0.8","0.2","0.6","0.2","","","","","","","","72","H","0","img/none_selected.jpg","true","0","full_practice",""
"","bandit","59","227938","0.0-34.0-5.0","88278170","wem/bandit_either_3","A21UA6O7ZFAIQJ","either","8","166","","","","","","","0","1","0","","0.8","0.5","0.5","0.5","0.5","0.8","0.2","0.6","0.2","","","","","","","","","","","","72","H","0","img/none_selected.jpg","true","0","full_practice",""
"","bandit","60","229577","0.0-34.0-6.0","88278170","wem/bandit_either_3","A21UA6O7ZFAIQJ","either","8","136","","","","","","","0","1","0","","0.8","0.5","0.5","0.5","0.5","0.8","0.2","0.6","0.2","","","","","","","","","","","","72","H","0","img/none_selected.jpg","true","0","full_practice",""
"","bandit","61","231169","0.0-34.0-7.0","88278170","wem/bandit_either_3","A21UA6O7ZFAIQJ","either","8","89","","","","","","","0","0","1","","0.2","0.5","0.5","0.5","0.5","0.8","0.2","0.6","0.2","","","","","","","","","","","","76","L","3","","true","0","full_practice",""
"","bandit","62","232737","0.0-34.0-8.0","88278170","wem/bandit_either_3","A21UA6O7ZFAIQJ","either","8","64","","","","","","","1","0","0","0.6","","0.5","0.5","0.5","0.5","","","","","0.8","0.2","0.6","0.2","","","","","","","","75","K","2","","true","0","full_practice",""
"","bandit","63","234432","0.0-34.0-9.0","88278170","wem/bandit_either_3","A21UA6O7ZFAIQJ","either","8","193","","","","","","","0","1","0","","0.6","0.5","0.5","0.5","0.5","0.8","0.2","0.6","0.2","","","","","","","","","","","","75","K","2","","true","0","full_practice",""
"","bandit","64","236138","0.0-34.0-10.0","88278170","wem/bandit_either_3","A21UA6O7ZFAIQJ","either","8","202","","","","","","","1","0","0","0.6","","0.5","0.5","0.5","0.5","","","","","0.8","0.2","0.6","0.2","","","","","","","","75","K","2","","true","0","full_practice",""
"","bandit","65","237713","0.0-34.0-11.0","88278170","wem/bandit_either_3","A21UA6O7ZFAIQJ","either","8","73","","","","","","","1","0","0","0.6","","0.5","0.5","0.5","0.5","","","","","0.8","0.2","0.6","0.2","","","","","","","","75","K","2","","true","0","full_practice",""
"","bandit","66","239298","0.0-34.0-12.0","88278170","wem/bandit_either_3","A21UA6O7ZFAIQJ","either","8","80","","","","","","","0","0","1","0.6","","0.5","0.5","0.5","0.5","","","","","0.8","0.2","0.6","0.2","","","","","","","","75","K","2","","true","0","full_practice",""
"","bandit","67","240865","0.0-34.0-13.0","88278170","wem/bandit_either_3","A21UA6O7ZFAIQJ","either","8","64","","","","","","","0","0","1","","0.2","0.5","0.5","0.5","0.5","0.8","0.2","0.6","0.2","","","","","","","","","","","","74","J","1","","true","0","full_practice",""
"","bandit","68","242418","0.0-34.0-14.0","88278170","wem/bandit_either_3","A21UA6O7ZFAIQJ","either","8","49","","","","","","","0","0","1","","0.2","0.5","0.5","0.5","0.5","0.8","0.2","0.6","0.2","","","","","","","","","","","","74","J","1","","true","0","full_practice",""
"","bandit","69","243930","0.0-34.0-15.0","88278170","wem/bandit_either_3","A21UA6O7ZFAIQJ","either","8","7","","","","","","","0","0","1","0.2","","0.5","0.5","0.5","0.5","","","","","0.8","0.2","0.6","0.2","","","","","","","","76","L","3","","true","0","full_practice",""
"","bandit","70","245459","0.0-34.0-16.0","88278170","wem/bandit_either_3","A21UA6O7ZFAIQJ","either","8","22","","","","","","","1","0","0","0.8","","0.5","0.5","0.5","0.5","","","","","0.8","0.2","0.6","0.2","","","","","","","","72","H","0","img/none_selected.jpg","true","0","full_practice",""
"","bandit","71","247064","0.0-34.0-17.0","88278170","wem/bandit_either_3","A21UA6O7ZFAIQJ","either","8","103","","","","","","","1","0","0","0.8","","0.5","0.5","0.5","0.5","","","","","0.8","0.2","0.6","0.2","","","","","","","","72","H","0","img/none_selected.jpg","true","0","full_practice",""
"","bandit","72","248738","0.0-34.0-18.0","88278170","wem/bandit_either_3","A21UA6O7ZFAIQJ","either","8","171","","","","","","","1","0","0","0.8","","0.5","0.5","0.5","0.5","","","","","0.8","0.2","0.6","0.2","","","","","","","","72","H","0","img/none_selected.jpg","true","0","full_practice",""
"","bandit","73","250330","0.0-34.0-19.0","88278170","wem/bandit_either_3","A21UA6O7ZFAIQJ","either","8","87","","","","","","","1","0","0","0.8","","0.5","0.5","0.5","0.5","","","","","0.8","0.2","0.6","0.2","","","","","","","","72","H","0","img/none_selected.jpg","true","0","full_practice",""
"","text","74","252412","0.0-35.0","88278170","wem/bandit_either_3","A21UA6O7ZFAIQJ","either","8","2078","","32","","","","","","","","","","","","","","","","","","","","","","","","","","","","","","","","","","","",""
"","text","75","261021","0.0-36.0","88278170","wem/bandit_either_3","A21UA6O7ZFAIQJ","either","8","7607","","32","","","","","","","","","","","","","","","","","","","","","","","","","","","","","","","","","","","",""
"","text","76","268364","0.0-37.0","88278170","wem/bandit_either_3","A21UA6O7ZFAIQJ","either","8","7341","","32","","","","","","","","","","","","","","","","","","","","","","","","","","","","","","","","","","","",""
"","text","77","271540","0.0-38.0","88278170","wem/bandit_either_3","A21UA6O7ZFAIQJ","either","8","3174","","32","","","","","","","","","","","","","","","","","","","","","","","","","","","","","","","","","","","",""
"","text","78","276331","0.0-39.0","88278170","wem/bandit_either_3","A21UA6O7ZFAIQJ","either","8","4791","","32","","","","","","","","","","","","","","","","","","","","","","","","","","","","","","","","","","","",""
"","text","79","278715","0.0-40.0","88278170","wem/bandit_either_3","A21UA6O7ZFAIQJ","either","8","2382","","32","","","","","","","","","","","","","","","","","","","","","","","","","","","","","","","","","","","",""
"","bandit","80","280762","0.0-41.0-0.0","88278170","wem/bandit_either_3","A21UA6O7ZFAIQJ","either","8","542","","","","","","","1","0","0","0.4468950172","","0.6","0.2","0.4","0.8","","","","","0.4468950172","0.3040937467","0.6337563202","0.2428949588","","","","","","","","72","H","0","img/none_selected.jpg","","1","main_expt",""
"","bandit","81","282314","0.0-42.0-0.0","88278170","wem/bandit_either_3","A21UA6O7ZFAIQJ","either","8","47","","","","","","","0","0","1","","0.3846124694","0.6","0.2","0.4","0.8","0.3846124694","0.2687625136","0.7380673114","0.248961424","","","","","","","","","","","","72","H","0","img/none_selected.jpg","","2","main_expt",""
"","bandit","82","283955","0.0-43.0-0.0","88278170","wem/bandit_either_3","A21UA6O7ZFAIQJ","either","8","136","","","","","","","0","0","1","0.3017919557","","0.6","0.2","0.4","0.8","","","","","0.3885967974","0.3017919557","0.7715549737","0.1878604038","","","","","","","","74","J","1","","","3","main_expt",""
"","bandit","83","285514","0.0-44.0-0.0","88278170","wem/bandit_either_3","A21UA6O7ZFAIQJ","either","8","54","","","","","","","0","0","1","0.2891644394","","0.6","0.2","0.4","0.8","","","","","0.2891644394","0.3388517529","0.8257013646","0.1194049449","","","","","","","","72","H","0","img/none_selected.jpg","","4","main_expt",""
"","bandit","84","287289","0.0-45.0-0.0","88278170","wem/bandit_either_3","A21UA6O7ZFAIQJ","either","8","271","","","","","","","0","0","1","","0.8617886559","0.6","0.2","0.4","0.8","0.2654579937","0.389096829","0.8617886559","0.197046458","","","","","","","","","","","","75","K","2","","","5","main_expt",""
"","bandit","85","288874","0.0-46.0-0.0","88278170","wem/bandit_either_3","A21UA6O7ZFAIQJ","either","8","79","","","","","","","0","0","1","0.2312720201","","0.6","0.2","0.4","0.8","","","","","0.355160999","0.4799636182","0.8452125903","0.2312720201","","","","","","","","76","L","3","","","6","main_expt",""
"","bandit","86","290514","0.0-47.0-0.0","88278170","wem/bandit_either_3","A21UA6O7ZFAIQJ","either","8","135","","","","","","","0","1","0","","0.3255591742","0.6","0.2","0.4","0.8","0.4733904832","0.5316557606","0.8765288384","0.3255591742","","","","","","","","","","","","76","L","3","","","7","main_expt",""
"","bandit","87","292178","0.0-48.0-0.0","88278170","wem/bandit_either_3","A21UA6O7ZFAIQJ","either","8","159","","","","","","","0","0","1","0.163151729","","0.6","0.2","0.4","0.8","","","","","0.4900136729","0.4935712437","0.8625068071","0.163151729","","","","","","","","76","L","3","","","8","main_expt",""
"","bandit","88","293785","0.0-49.0-0.0","88278170","wem/bandit_either_3","A21UA6O7ZFAIQJ","either","8","103","","","","","","","0","1","0","","0.8385781597","0.6","0.2","0.4","0.8","0.4543552171","0.5400450001","0.8385781597","0.1671639775","","","","","","","","","","","","75","K","2","","","9","main_expt",""
"","bandit","89","295362","0.0-50.0-0.0","88278170","wem/bandit_either_3","A21UA6O7ZFAIQJ","either","8","72","","","","","","","0","0","1","0.833356221","","0.6","0.2","0.4","0.8","","","","","0.4523920981","0.6510952772","0.833356221","0.1315225434","","","","","","","","75","K","2","","","10","main_expt",""
"","bandit","90","296994","0.0-51.0-0.0","88278170","wem/bandit_either_3","A21UA6O7ZFAIQJ","either","8","127","","","","","","","0","1","0","","0.9030756702","0.6","0.2","0.4","0.8","0.4053083118","0.6117649901","0.9030756702","0.1287002637","","","","","","","","","","","","75","K","2","","","11","main_expt",""
"","bandit","91","298689","0.0-52.0-0.0","88278170","wem/bandit_either_3","A21UA6O7ZFAIQJ","either","8","191","","","","","","","0","1","0","","0.9129290363","0.6","0.2","0.4","0.8","0.4059907931","0.6360746298","0.9129290363","0.1026596936","","","","","","","","","","","","75","K","2","","","12","main_expt",""
"","bandit","92","300234","0.0-53.0-0.0","88278170","wem/bandit_either_3","A21UA6O7ZFAIQJ","either","8","40","","","","","","","1","0","0","0.8638417716","","0.6","0.2","0.4","0.8","","","","","0.2934167972","0.5673960652","0.8638417716","0.1287514256","","","","","","","","75","K","2","","","13","main_expt",""
"","bandit","93","301888","0.0-54.0-0.0","88278170","wem/bandit_either_3","A21UA6O7ZFAIQJ","either","8","151","","","","","","","1","0","0","0.787806988","","0.6","0.2","0.4","0.8","","","","","0.3260927596","0.6747725803","0.787806988","0.1786171179","","","","","","","","75","K","2","","","14","main_expt",""
"","bandit","94","303394","0.0-55.0-0.0","88278170","wem/bandit_either_3","A21UA6O7ZFAIQJ","either","8","1","","","","","","","0","1","0","","0.7254212376","0.6","0.2","0.4","0.8","0.3355382734","0.6277188345","0.7254212376","0.1459410532","","","","","","","","","","","","75","K","2","","","15","main_expt",""
"","bandit","95","305025","0.0-56.0-0.0","88278170","wem/bandit_either_3","A21UA6O7ZFAIQJ","either","8","126","","","","","","","0","1","0","","0.7238415528","0.6","0.2","0.4","0.8","0.3040928121","0.5435568235","0.7238415528","0.2255600906","","","","","","","","","","","","75","K","2","","","16","main_expt",""
"","bandit","96","306826","0.0-57.0-0.0","88278170","wem/bandit_either_3","A21UA6O7ZFAIQJ","either","8","297","","","","","","","0","1","0","","0.7796243455","0.6","0.2","0.4","0.8","0.2730366263","0.4180161478","0.7796243455","0.2052013943","","","","","","","","","","","","75","K","2","","","17","main_expt",""
"","bandit","97","308497","0.0-58.0-0.0","88278170","wem/bandit_either_3","A21UA6O7ZFAIQJ","either","8","167","","","","","","","0","1","0","","0.6928902724","0.6","0.2","0.4","0.8","0.4105298721","0.4961111773","0.6928902724","0.1780354615","","","","","","","","","","","","75","K","2","","","18","main_expt",""
"","bandit","98","310225","0.0-59.0-0.0","88278170","wem/bandit_either_3","A21UA6O7ZFAIQJ","either","8","224","","","","","","","0","1","0","","0.7658630901","0.6","0.2","0.4","0.8","0.3586923344","0.445530788","0.7658630901","0.1576496117","","","","","","","","","","","","75","K","2","","","19","main_expt",""
"","bandit","99","312410","0.0-60.0-0.0","88278170","wem/bandit_either_3","A21UA6O7ZFAIQJ","either","8","680","","","","","","","0","0","1","","0.7584200513","0.6","0.2","0.4","0.8","0.3220075653","0.3443163705","0.7584200513","0.1618752313","","","","","","","","","","","","75","K","2","","","20","main_expt",""
"","bandit","100","313986","0.0-61.0-0.0","88278170","wem/bandit_either_3","A21UA6O7ZFAIQJ","either","8","69","","","","","","","1","0","0","0.2152187387","","0.6","0.2","0.4","0.8","","","","","0.2729660799","0.3012808647","0.7727038765","0.2152187387","","","","","","","","76","L","3","","","21","main_expt",""
"","bandit","101","315522","0.0-62.0-0.0","88278170","wem/bandit_either_3","A21UA6O7ZFAIQJ","either","8","31","","","","","","","0","0","1","0.3547982299","","0.6","0.2","0.4","0.8","","","","","0.2712352107","0.2882062485","0.8152565923","0.3547982299","","","","","","","","76","L","3","","","22","main_expt",""
"","bandit","102","317115","0.0-63.0-0.0","88278170","wem/bandit_either_3","A21UA6O7ZFAIQJ","either","8","88","","","","","","","1","0","0","0.323805638","","0.6","0.2","0.4","0.8","","","","","0.3390855774","0.2113421372","0.7537075358","0.323805638","","","","","","","","76","L","3","","","23","main_expt",""
"","bandit","103","318784","0.0-64.0-0.0","88278170","wem/bandit_either_3","A21UA6O7ZFAIQJ","either","8","166","","","","","","","0","0","1","0.3588909826","","0.6","0.2","0.4","0.8","","","","","0.3483259141","0.2201805416","0.7108822858","0.3588909826","","","","","","","","76","L","3","","","24","main_expt",""
"","bandit","104","320473","0.0-65.0-0.0","88278170","wem/bandit_either_3","A21UA6O7ZFAIQJ","either","8","185","","","","","","","1","0","0","0.3885553436","","0.6","0.2","0.4","0.8","","","","","0.3416976173","0.2580956466","0.6930515954","0.3885553436","","","","","","","","76","L","3","","","25","main_expt",""
"","bandit","105","322154","0.0-66.0-0.0","88278170","wem/bandit_either_3","A21UA6O7ZFAIQJ","either","8","176","","","","","","","0","0","1","","0.4871556374","0.6","0.2","0.4","0.8","0.4243476322","0.2153432854","0.6905393417","0.4871556374","","","","","","","","","","","","76","L","3","","","26","main_expt",""
"","bandit","106","323745","0.0-67.0-0.0","88278170","wem/bandit_either_3","A21UA6O7ZFAIQJ","either","8","87","","","","","","","1","0","0","0.4934119911","","0.6","0.2","0.4","0.8","","","","","0.5257754898","0.1727955236","0.7531652131","0.4934119911","","","","","","","","76","L","3","","","27","main_expt",""
"","bandit","107","325361","0.0-68.0-0.0","88278170","wem/bandit_either_3","A21UA6O7ZFAIQJ","either","8","112","","","","","","","0","0","1","","0.4322092846","0.6","0.2","0.4","0.8","0.5246232361","0.1894296703","0.8001777041","0.4322092846","","","","","","","","","","","","76","L","3","","","28","main_expt",""
"","bandit","108","327057","0.0-69.0-0.0","88278170","wem/bandit_either_3","A21UA6O7ZFAIQJ","either","8","192","","","","","","","0","0","1","","0.2128919211","0.6","0.2","0.4","0.8","0.375994784","0.2128919211","0.8118404327","0.3459113699","","","","","","","","","","","","74","J","1","","","29","main_expt",""
"","bandit","109","328842","0.0-70.0-0.0","88278170","wem/bandit_either_3","A21UA6O7ZFAIQJ","either","8","281","","","","","","","0","0","1","","0.206056468","0.6","0.2","0.4","0.8","0.2936890161","0.206056468","0.7839534503","0.280789843","","","","","","","","","","","","74","J","1","","","30","main_expt",""
"","bandit","110","330665","0.0-71.0-0.0","88278170","wem/bandit_either_3","A21UA6O7ZFAIQJ","either","8","319","","","","","","","0","0","1","0.2878812258","","0.6","0.2","0.4","0.8","","","","","0.2878812258","0.1725623241","0.8066372971","0.2613810438","","","","","","","","72","H","0","img/none_selected.jpg","","31","main_expt",""
"","bandit","111","332849","0.0-72.0-0.0","88278170","wem/bandit_either_3","A21UA6O7ZFAIQJ","either","8","681","","","","","","","1","0","0","0.2451492808","","0.6","0.2","0.4","0.8","","","","","0.2451492808","0.1629883914","0.8049259064","0.3821585683","","","","","","","","72","H","0","img/none_selected.jpg","","32","main_expt",""
"","bandit","112","334466","0.0-73.0-0.0","88278170","wem/bandit_either_3","A21UA6O7ZFAIQJ","either","8","112","","","","","","","0","0","1","","0.2802113289","0.6","0.2","0.4","0.8","0.2802113289","0.2107911223","0.7891664673","0.2714925976","","","","","","","","","","","","72","H","0","img/none_selected.jpg","","33","main_expt",""
"","bandit","113","336329","0.0-74.0-0.0","88278170","wem/bandit_either_3","A21UA6O7ZFAIQJ","either","8","359","","","","","","","1","0","0","0.7854278051","","0.6","0.2","0.4","0.8","","","","","0.2892342718","0.1025901997","0.7854278051","0.2755575364","","","","","","","","75","K","2","","","34","main_expt",""
"","bandit","114","338049","0.0-75.0-0.0","88278170","wem/bandit_either_3","A21UA6O7ZFAIQJ","either","8","215","","","","","","","1","0","0","0.7260182018","","0.6","0.2","0.4","0.8","","","","","0.2486893666","0.1289879153","0.7260182018","0.2697856654","","","","","","","","75","K","2","","","35","main_expt",""
"","bandit","115","339818","0.0-76.0-0.0","88278170","wem/bandit_either_3","A21UA6O7ZFAIQJ","either","8","264","","","","","","","1","0","0","0.7910957192","","0.6","0.2","0.4","0.8","","","","","0.3536408983","0.1645491317","0.7910957192","0.2483646443","","","","","","","","75","K","2","","","36","main_expt",""
"","bandit","116","341577","0.0-77.0-0.0","88278170","wem/bandit_either_3","A21UA6O7ZFAIQJ","either","8","255","","","","","","","0","1","0","","0.7996551039","0.6","0.2","0.4","0.8","0.2493566902","0.1698046746","0.7996551039","0.2103950957","","","","","","","","","","","","75","K","2","","","37","main_expt",""
"","bandit","117","343161","0.0-78.0-0.0","88278170","wem/bandit_either_3","A21UA6O7ZFAIQJ","either","8","80","","","","","","","0","0","1","0.6717479894","","0.6","0.2","0.4","0.8","","","","","0.2948354516","0.2281502886","0.6717479894","0.2128944509","","","","","","","","75","K","2","","","38","main_expt",""
"","bandit","118","344858","0.0-79.0-0.0","88278170","wem/bandit_either_3","A21UA6O7ZFAIQJ","either","8","191","","","","","","","1","0","0","0.7121128808","","0.6","0.2","0.4","0.8","","","","","0.3373274679","0.1561271762","0.7121128808","0.2965153327","","","","","","","","75","K","2","","","39","main_expt",""
"","bandit","119","346385","0.0-80.0-0.0","88278170","wem/bandit_either_3","A21UA6O7ZFAIQJ","either","8","23","","","","","","","1","0","0","0.7157410044","","0.6","0.2","0.4","0.8","","","","","0.4138768052","0.1543620621","0.7157410044","0.4447532253","","","","","","","","75","K","2","","","40","main_expt",""
"","bandit","120","348169","0.0-81.0-0.0","88278170","wem/bandit_either_3","A21UA6O7ZFAIQJ","either","8","280","","","","","","","0","1","0","","0.681196038","0.6","0.2","0.4","0.8","0.438096834","0.2271499981","0.681196038","0.5330008696","","","","","","","","","","","","75","K","2","","","41","main_expt",""
"","bandit","121","350426","0.0-82.0-0.0","88278170","wem/bandit_either_3","A21UA6O7ZFAIQJ","either","8","753","","","","","","","0","1","0","","0.6504320647","0.6","0.2","0.4","0.8","0.4185173612","0.2882452936","0.6504320647","0.573861049","","","","","","","","","","","","75","K","2","","","42","main_expt",""
"","bandit","122","351968","0.0-83.0-0.0","88278170","wem/bandit_either_3","A21UA6O7ZFAIQJ","either","8","39","","","","","","","0","1","0","","0.7369830744","0.6","0.2","0.4","0.8","0.3796335567","0.298522686","0.7369830744","0.6654349765","","","","","","","","","","","","75","K","2","","","43","main_expt",""
"","bandit","123","353521","0.0-84.0-0.0","88278170","wem/bandit_either_3","A21UA6O7ZFAIQJ","either","8","48","","","","","","","0","1","0","","0.6797935378","0.6","0.2","0.4","0.8","0.31766129","0.3188886026","0.6797935378","0.691198465","","","","","","","","","","","","75","K","2","","","44","main_expt",""
"","bandit","124","355353","0.0-85.0-0.0","88278170","wem/bandit_either_3","A21UA6O7ZFAIQJ","either","8","328","","","","","","","0","1","0","","0.6507473666","0.6","0.2","0.4","0.8","0.4047397141","0.2705760174","0.6507473666","0.7652674903","","","","","","","","","","","","75","K","2","","","45","main_expt",""
"","bandit","125","357153","0.0-86.0-0.0","88278170","wem/bandit_either_3","A21UA6O7ZFAIQJ","either","8","296","","","","","","","0","0","1","","0.6334510787","0.6","0.2","0.4","0.8","0.4961613307","0.2506880939","0.6334510787","0.8065230058","","","","","","","","","","","","75","K","2","","","46","main_expt",""
"","bandit","126","358809","0.0-87.0-0.0","88278170","wem/bandit_either_3","A21UA6O7ZFAIQJ","either","8","152","","","","","","","0","0","1","","0.6143175143","0.6","0.2","0.4","0.8","0.4624468315","0.2491585872","0.6143175143","0.7774474893","","","","","","","","","","","","75","K","2","","","47","main_expt",""
"","bandit","127","360594","0.0-88.0-0.0","88278170","wem/bandit_either_3","A21UA6O7ZFAIQJ","either","8","280","","","","","","","0","0","1","","0.6404512611","0.6","0.2","0.4","0.8","0.4886537242","0.1997021219","0.6404512611","0.7693176975","","","","","","","","","","","","75","K","2","","","48","main_expt",""
"","bandit","128","362401","0.0-89.0-0.0","88278170","wem/bandit_either_3","A21UA6O7ZFAIQJ","either","8","303","","","","","","","0","0","1","","0.2119577724","0.6","0.2","0.4","0.8","0.4270302022","0.2119577724","0.6758621215","0.807419373","","","","","","","","","","","","74","J","1","","","49","main_expt",""
"","bandit","129","364250","0.0-90.0-0.0","88278170","wem/bandit_either_3","A21UA6O7ZFAIQJ","either","8","344","","","","","","","0","0","1","0.5151345658","","0.6","0.2","0.4","0.8","","","","","0.5151345658","0.2615271711","0.6873234502","0.8562769227","","","","","","","","72","H","0","img/none_selected.jpg","","50","main_expt",""
"","bandit","130","366025","0.0-91.0-0.0","88278170","wem/bandit_either_3","A21UA6O7ZFAIQJ","either","8","271","","","","","","","1","0","0","0.5134524181","","0.6","0.2","0.4","0.8","","","","","0.5134524181","0.2764427577","0.7776044395","0.8705114925","","","","","","","","72","H","0","img/none_selected.jpg","","51","main_expt",""
"","bandit","131","367656","0.0-92.0-0.0","88278170","wem/bandit_either_3","A21UA6O7ZFAIQJ","either","8","127","","","","","","","0","0","1","0.4842684999","","0.6","0.2","0.4","0.8","","","","","0.4842684999","0.3833776697","0.8403410939","0.9310361031","","","","","","","","72","H","0","img/none_selected.jpg","","52","main_expt",""
"","bandit","132","369513","0.0-93.0-0.0","88278170","wem/bandit_either_3","A21UA6O7ZFAIQJ","either","8","353","","","","","","","0","0","1","0.4412850773","","0.6","0.2","0.4","0.8","","","","","0.4412850773","0.4356502318","0.8151983534","0.905794742","","","","","","","","72","H","0","img/none_selected.jpg","","53","main_expt",""
"","bandit","133","371098","0.0-94.0-0.0","88278170","wem/bandit_either_3","A21UA6O7ZFAIQJ","either","8","81","","","","","","","1","0","0","0.9391541593","","0.6","0.2","0.4","0.8","","","","","0.4397693946","0.4120588364","0.8081222638","0.9391541593","","","","","","","","76","L","3","","","54","main_expt",""
"","bandit","134","372953","0.0-95.0-0.0","88278170","wem/bandit_either_3","A21UA6O7ZFAIQJ","either","8","351","","","","","","","1","0","0","0.9596285882","","0.6","0.2","0.4","0.8","","","","","0.3928202278","0.2714296105","0.742009976","0.9596285882","","","","","","","","76","L","3","","","55","main_expt",""
"","bandit","135","374496","0.0-96.0-0.0","88278170","wem/bandit_either_3","A21UA6O7ZFAIQJ","either","8","40","","","","","","","0","1","0","","0.9565658233","0.6","0.2","0.4","0.8","0.4593665993","0.2122311877","0.7065076074","0.9565658233","","","","","","","","","","","","76","L","3","","","56","main_expt",""
"","bandit","136","376225","0.0-97.0-0.0","88278170","wem/bandit_either_3","A21UA6O7ZFAIQJ","either","8","224","","","","","","","1","0","0","0.9681540372","","0.6","0.2","0.4","0.8","","","","","0.4006145211","0.2282278588","0.6860695476","0.9681540372","","","","","","","","76","L","3","","","57","main_expt",""
"","bandit","137","378002","0.0-98.0-0.0","88278170","wem/bandit_either_3","A21UA6O7ZFAIQJ","either","8","272","","","","","","","0","1","0","","0.9207083952","0.6","0.2","0.4","0.8","0.4597890412","0.1392076118","0.742301155","0.9207083952","","","","","","","","","","","","76","L","3","","","58","main_expt",""
"","bandit","138","379881","0.0-99.0-0.0","88278170","wem/bandit_either_3","A21UA6O7ZFAIQJ","either","8","374","","","","","","","1","0","0","0.9178227258","","0.6","0.2","0.4","0.8","","","","","0.4232266093","0.1706239206","0.5291004622","0.9178227258","","","","","","","","76","L","3","","","59","main_expt",""
"","bandit","139","381714","0.0-100.0-0.0","88278170","wem/bandit_either_3","A21UA6O7ZFAIQJ","either","8","329","","","","","","","1","0","0","0.8951285427","","0.6","0.2","0.4","0.8","","","","","0.3565880291","0.1674269281","0.6348838793","0.8951285427","","","","","","","","76","L","3","","","60","main_expt",""
"","bandit","140","383537","0.0-101.0-0.0","88278170","wem/bandit_either_3","A21UA6O7ZFAIQJ","either","8","318","","","","","","","1","0","0","0.8506814954","","0.6","0.2","0.4","0.8","","","","","0.3663276413","0.2182313474","0.6796423313","0.8506814954","","","","","","","","76","L","3","","","61","main_expt",""
"","bandit","141","385257","0.0-102.0-0.0","88278170","wem/bandit_either_3","A21UA6O7ZFAIQJ","either","8","216","","","","","","","1","0","0","0.8513854559","","0.6","0.2","0.4","0.8","","","","","0.3193005293","0.2949218256","0.6928172916","0.8513854559","","","","","","","","76","L","3","","","62","main_expt",""
"","bandit","142","387384","0.0-103.0-0.0","88278170","wem/bandit_either_3","A21UA6O7ZFAIQJ","either","8","623","","","","","","","1","0","0","0.8927579502","","0.6","0.2","0.4","0.8","","","","","0.1562068481","0.3170222383","0.6996506825","0.8927579502","","","","","","","","76","L","3","","","63","main_expt",""
"","bandit","143","389242","0.0-104.0-0.0","88278170","wem/bandit_either_3","A21UA6O7ZFAIQJ","either","8","352","","","","","","","1","0","0","0.9217936765","","0.6","0.2","0.4","0.8","","","","","0.2300477965","0.3033511374","0.7294442249","0.9217936765","","","","","","","","76","L","3","","","64","main_expt",""
"","bandit","144","390945","0.0-105.0-0.0","88278170","wem/bandit_either_3","A21UA6O7ZFAIQJ","either","8","199","","","","","","","1","0","0","0.9357047413","","0.6","0.2","0.4","0.8","","","","","0.2869838185","0.3973690147","0.6605354899","0.9357047413","","","","","","","","76","L","3","","","65","main_expt",""
"","bandit","145","392818","0.0-106.0-0.0","88278170","wem/bandit_either_3","A21UA6O7ZFAIQJ","either","8","369","","","","","","","0","1","0","","0.910343843","0.6","0.2","0.4","0.8","0.3287476356","0.4320294497","0.6959621059","0.910343843","","","","","","","","","","","","76","L","3","","","66","main_expt",""
"","bandit","146","394593","0.0-107.0-0.0","88278170","wem/bandit_either_3","A21UA6O7ZFAIQJ","either","8","269","","","","","","","1","0","0","0.9022080512","","0.6","0.2","0.4","0.8","","","","","0.3018365728","0.3208465419","0.653899752","0.9022080512","","","","","","","","76","L","3","","","67","main_expt",""
"","bandit","147","396409","0.0-108.0-0.0","88278170","wem/bandit_either_3","A21UA6O7ZFAIQJ","either","8","311","","","","","","","1","0","0","0.8492414063","","0.6","0.2","0.4","0.8","","","","","0.3208616414","0.3570730799","0.6517851336","0.8492414063","","","","","","","","76","L","3","","","68","main_expt",""
"","bandit","148","398225","0.0-109.0-0.0","88278170","wem/bandit_either_3","A21UA6O7ZFAIQJ","either","8","311","","","","","","","0","1","0","","0.768219052","0.6","0.2","0.4","0.8","0.386863802","0.3451514791","0.7011615004","0.768219052","","","","","","","","","","","","76","L","3","","","69","main_expt",""
"","bandit","149","400040","0.0-110.0-0.0","88278170","wem/bandit_either_3","A21UA6O7ZFAIQJ","either","8","312","","","","","","","1","0","0","0.7996218848","","0.6","0.2","0.4","0.8","","","","","0.3628244161","0.3127714871","0.6278947594","0.7996218848","","","","","","","","76","L","3","","","70","main_expt",""
"","bandit","150","401865","0.0-111.0-0.0","88278170","wem/bandit_either_3","A21UA6O7ZFAIQJ","either","8","320","","","","","","","1","0","0","0.9130189757","","0.6","0.2","0.4","0.8","","","","","0.2969295023","0.3855297895","0.688517509","0.9130189757","","","","","","","","76","L","3","","","71","main_expt",""
"","bandit","151","403505","0.0-112.0-0.0","88278170","wem/bandit_either_3","A21UA6O7ZFAIQJ","either","8","136","","","","","","","1","0","0","0.9016843832","","0.6","0.2","0.4","0.8","","","","","0.3512325323","0.3555010044","0.6125440106","0.9016843832","","","","","","","","76","L","3","","","72","main_expt",""
"","bandit","152","405129","0.0-113.0-0.0","88278170","wem/bandit_either_3","A21UA6O7ZFAIQJ","either","8","120","","","","","","","0","1","0","","0.9166584401","0.6","0.2","0.4","0.8","0.3845321254","0.3278360739","0.4884410468","0.9166584401","","","","","","","","","","","","76","L","3","","","73","main_expt",""
"","bandit","153","406833","0.0-114.0-0.0","88278170","wem/bandit_either_3","A21UA6O7ZFAIQJ","either","8","198","","","","","","","1","0","0","0.8699410266","","0.6","0.2","0.4","0.8","","","","","0.3760614253","0.3275161349","0.5800760741","0.8699410266","","","","","","","","76","L","3","","","74","main_expt",""
"","bandit","154","408545","0.0-115.0-0.0","88278170","wem/bandit_either_3","A21UA6O7ZFAIQJ","either","8","208","","","","","","","1","0","0","0.8192171788","","0.6","0.2","0.4","0.8","","","","","0.370831352","0.3454333807","0.6614390465","0.8192171788","","","","","","","","76","L","3","","","75","main_expt",""
"","bandit","155","410201","0.0-116.0-0.0","88278170","wem/bandit_either_3","A21UA6O7ZFAIQJ","either","8","151","","","","","","","1","0","0","0.8990587115","","0.6","0.2","0.4","0.8","","","","","0.4008199491","0.4213924804","0.6861570843","0.8990587115","","","","","","","","76","L","3","","","76","main_expt",""
"","bandit","156","411874","0.0-117.0-0.0","88278170","wem/bandit_either_3","A21UA6O7ZFAIQJ","either","8","168","","","","","","","1","0","0","0.9062137116","","0.6","0.2","0.4","0.8","","","","","0.3928984844","0.439510692","0.5980737028","0.9062137116","","","","","","","","76","L","3","","","77","main_expt",""
"","bandit","157","413514","0.0-118.0-0.0","88278170","wem/bandit_either_3","A21UA6O7ZFAIQJ","either","8","135","","","","","","","1","0","0","0.9215914722","","0.6","0.2","0.4","0.8","","","","","0.4709058574","0.4419424199","0.6754083514","0.9215914722","","","","","","","","76","L","3","","","78","main_expt",""
"","bandit","158","415186","0.0-119.0-0.0","88278170","wem/bandit_either_3","A21UA6O7ZFAIQJ","either","8","167","","","","","","","1","0","0","0.895443078","","0.6","0.2","0.4","0.8","","","","","0.4971614577","0.5056762283","0.7012934339","0.895443078","","","","","","","","76","L","3","","","79","main_expt",""
"","bandit","159","416889","0.0-120.0-0.0","88278170","wem/bandit_either_3","A21UA6O7ZFAIQJ","either","8","197","","","","","","","0","0","1","0.7789772955","","0.6","0.2","0.4","0.8","","","","","0.4828267768","0.4558190996","0.7067798052","0.7789772955","","","","","","","","76","L","3","","","80","main_expt",""
"","bandit","160","418635","0.0-121.0-0.0","88278170","wem/bandit_either_3","A21UA6O7ZFAIQJ","either","8","240","","","","","","","0","0","1","0.755426824","","0.6","0.2","0.4","0.8","","","","","0.4280570329","0.4774921548","0.7259433061","0.755426824","","","","","","","","76","L","3","","","81","main_expt",""
"","bandit","161","420282","0.0-122.0-0.0","88278170","wem/bandit_either_3","A21UA6O7ZFAIQJ","either","8","142","","","","","","","1","0","0","0.8356426425","","0.6","0.2","0.4","0.8","","","","","0.486136241","0.3611036613","0.7022130872","0.8356426425","","","","","","","","76","L","3","","","82","main_expt",""
"","bandit","162","422075","0.0-123.0-0.0","88278170","wem/bandit_either_3","A21UA6O7ZFAIQJ","either","8","287","","","","","","","1","0","0","0.8783145762","","0.6","0.2","0.4","0.8","","","","","0.3539143083","0.3341354767","0.75927227","0.8783145762","","","","","","","","76","L","3","","","83","main_expt",""
"","bandit","163","423634","0.0-124.0-0.0","88278170","wem/bandit_either_3","A21UA6O7ZFAIQJ","either","8","55","","","","","","","1","0","0","0.9087743635","","0.6","0.2","0.4","0.8","","","","","0.374811954","0.288479151","0.8556046088","0.9087743635","","","","","","","","76","L","3","","","84","main_expt",""
"","bandit","164","425442","0.0-125.0-0.0","88278170","wem/bandit_either_3","A21UA6O7ZFAIQJ","either","8","304","","","","","","","1","0","0","0.8632011641","","0.6","0.2","0.4","0.8","","","","","0.4518264681","0.3061923995","0.7835234447","0.8632011641","","","","","","","","76","L","3","","","85","main_expt",""
"","bandit","165","427130","0.0-126.0-0.0","88278170","wem/bandit_either_3","A21UA6O7ZFAIQJ","either","8","183","","","","","","","1","0","0","0.8341253046","","0.6","0.2","0.4","0.8","","","","","0.461936863","0.3370204437","0.7037548709","0.8341253046","","","","","","","","76","L","3","","","86","main_expt",""
"","bandit","166","428834","0.0-127.0-0.0","88278170","wem/bandit_either_3","A21UA6O7ZFAIQJ","either","8","199","","","","","","","1","0","0","0.8728746981","","0.6","0.2","0.4","0.8","","","","","0.3681660755","0.3900809043","0.6903674631","0.8728746981","","","","","","","","76","L","3","","","87","main_expt",""
"","bandit","167","430370","0.0-128.0-0.0","88278170","wem/bandit_either_3","A21UA6O7ZFAIQJ","either","8","32","","","","","","","1","0","0","0.8408980459","","0.6","0.2","0.4","0.8","","","","","0.3788462328","0.4296615172","0.5883284312","0.8408980459","","","","","","","","76","L","3","","","88","main_expt",""
"","bandit","168","432356","0.0-129.0-0.0","88278170","wem/bandit_either_3","A21UA6O7ZFAIQJ","either","8","479","","","","","","","1","0","0","0.8585781628","","0.6","0.2","0.4","0.8","","","","","0.3316952272","0.4636560077","0.5258490985","0.8585781628","","","","","","","","76","L","3","","","89","main_expt",""
"","bandit","169","434290","0.0-130.0-0.0","88278170","wem/bandit_either_3","A21UA6O7ZFAIQJ","either","8","430","","","","","","","1","0","0","0.925840658","","0.6","0.2","0.4","0.8","","","","","0.438068917","0.4463585346","0.6395041767","0.925840658","","","","","","","","76","L","3","","","90","main_expt",""
"","bandit","170","436235","0.0-131.0-0.0","88278170","wem/bandit_either_3","A21UA6O7ZFAIQJ","either","8","439","","","","","","","1","0","0","0.9201841885","","0.6","0.2","0.4","0.8","","","","","0.5158843935","0.4734463503","0.6931091445","0.9201841885","","","","","","","","76","L","3","","","91","main_expt",""
"","bandit","171","438339","0.0-132.0-0.0","88278170","wem/bandit_either_3","A21UA6O7ZFAIQJ","either","8","598","","","","","","","1","0","0","0.8508076908","","0.6","0.2","0.4","0.8","","","","","0.5182757575","0.5248255385","0.6725373887","0.8508076908","","","","","","","","76","L","3","","","92","main_expt",""
"","bandit","172","440115","0.0-133.0-0.0","88278170","wem/bandit_either_3","A21UA6O7ZFAIQJ","either","8","271","","","","","","","0","0","1","0.8106711147","","0.6","0.2","0.4","0.8","","","","","0.5498130742","0.3386726181","0.7388835399","0.8106711147","","","","","","","","76","L","3","","","93","main_expt",""
"","bandit","173","441874","0.0-134.0-0.0","88278170","wem/bandit_either_3","A21UA6O7ZFAIQJ","either","8","255","","","","","","","0","1","0","","0.8543263914","0.6","0.2","0.4","0.8","0.6049407638","0.3718894848","0.697373586","0.8543263914","","","","","","","","","","","","76","L","3","","","94","main_expt",""
"","bandit","174","443562","0.0-135.0-0.0","88278170","wem/bandit_either_3","A21UA6O7ZFAIQJ","either","8","183","","","","","","","0","1","0","","0.8387782901","0.6","0.2","0.4","0.8","0.6604115927","0.4005278521","0.7550322224","0.8387782901","","","","","","","","","","","","76","L","3","","","95","main_expt",""
"","bandit","175","445339","0.0-136.0-0.0","88278170","wem/bandit_either_3","A21UA6O7ZFAIQJ","either","8","270","","","","","","","1","0","0","0.8208071174","","0.6","0.2","0.4","0.8","","","","","0.7003847986","0.3694595514","0.6576962358","0.8208071174","","","","","","","","76","L","3","","","96","main_expt",""
"","bandit","176","447153","0.0-137.0-0.0","88278170","wem/bandit_either_3","A21UA6O7ZFAIQJ","either","8","310","","","","","","","0","1","0","","0.765358829","0.6","0.2","0.4","0.8","0.6793148949","0.3186037095","0.6802484638","0.765358829","","","","","","","","","","","","76","L","3","","","97","main_expt",""
"","bandit","177","448913","0.0-138.0-0.0","88278170","wem/bandit_either_3","A21UA6O7ZFAIQJ","either","8","256","","","","","","","0","0","1","","0.7823463211","0.6","0.2","0.4","0.8","0.6204607354","0.2786717818","0.7042077447","0.7823463211","","","","","","","","","","","","76","L","3","","","98","main_expt",""
"","bandit","178","450539","0.0-139.0-0.0","88278170","wem/bandit_either_3","A21UA6O7ZFAIQJ","either","8","120","","","","","","","0","0","1","","0.32929866","0.6","0.2","0.4","0.8","0.6166262367","0.32929866","0.7355617892","0.7523003034","","","","","","","","","","","","74","J","1","","","99","main_expt",""
"","bandit","179","452218","0.0-140.0-0.0","88278170","wem/bandit_either_3","A21UA6O7ZFAIQJ","either","8","175","","","","","","","0","1","0","","0.5347115766","0.6","0.2","0.4","0.8","0.5347115766","0.3115323478","0.7117411671","0.7174790615","","","","","","","","","","","","72","H","0","img/none_selected.jpg","","100","main_expt",""
"","bandit","180","453924","0.0-141.0-0.0","88278170","wem/bandit_either_3","A21UA6O7ZFAIQJ","either","8","198","","","","","","","0","0","1","0.3418016043","","0.6","0.2","0.4","0.8","","","","","0.3418016043","0.4221749579","0.7263903312","0.7660578318","","","","","","","","72","H","0","img/none_selected.jpg","","101","main_expt",""
"","bandit","181","455674","0.0-142.0-0.0","88278170","wem/bandit_either_3","A21UA6O7ZFAIQJ","either","8","244","","","","","","","0","1","0","","0.7357346189","0.6","0.2","0.4","0.8","0.2550922237","0.2718078598","0.7357346189","0.7201180075","","","","","","","","","","","","75","K","2","","","102","main_expt",""
"","bandit","182","457289","0.0-143.0-0.0","88278170","wem/bandit_either_3","A21UA6O7ZFAIQJ","either","8","111","","","","","","","0","0","1","","0.7026134783","0.6","0.2","0.4","0.8","0.3181696353","0.3011307106","0.7026134783","0.8452780714","","","","","","","","","","","","75","K","2","","","103","main_expt",""
"","bandit","183","458882","0.0-144.0-0.0","88278170","wem/bandit_either_3","A21UA6O7ZFAIQJ","either","8","87","","","","","","","0","0","1","0.3383579412","","0.6","0.2","0.4","0.8","","","","","0.3383579412","0.3659291838","0.8073666152","0.7236924273","","","","","","","","72","H","0","img/none_selected.jpg","","104","main_expt",""
"","bandit","184","460426","0.0-145.0-0.0","88278170","wem/bandit_either_3","A21UA6O7ZFAIQJ","either","8","38","","","","","","","0","0","1","","0.824483439","0.6","0.2","0.4","0.8","0.2354673658","0.3499435223","0.824483439","0.743719778","","","","","","","","","","","","75","K","2","","","105","main_expt",""
"","bandit","185","462233","0.0-146.0-0.0","88278170","wem/bandit_either_3","A21UA6O7ZFAIQJ","either","8","304","","","","","","","0","0","1","","0.3602262465","0.6","0.2","0.4","0.8","0.159398249","0.3602262465","0.9208810438","0.7985687284","","","","","","","","","","","","74","J","1","","","106","main_expt",""
"","bandit","186","463907","0.0-147.0-0.0","88278170","wem/bandit_either_3","A21UA6O7ZFAIQJ","either","8","168","","","","","","","0","0","1","0.799345197","","0.6","0.2","0.4","0.8","","","","","0.1295169146","0.3252215163","0.8911910097","0.799345197","","","","","","","","76","L","3","","","107","main_expt",""
"","bandit","187","465523","0.0-148.0-0.0","88278170","wem/bandit_either_3","A21UA6O7ZFAIQJ","either","8","110","","","","","","","1","0","0","0.8681690713","","0.6","0.2","0.4","0.8","","","","","0.07754053308","0.2812406992","0.8450149587","0.8681690713","","","","","","","","76","L","3","","","108","main_expt",""
"","bandit","188","467226","0.0-149.0-0.0","88278170","wem/bandit_either_3","A21UA6O7ZFAIQJ","either","8","198","","","","","","","1","0","0","0.8556732204","","0.6","0.2","0.4","0.8","","","","","0.06591215473","0.2559497519","0.868327257","0.8556732204","","","","","","","","76","L","3","","","109","main_expt",""
"","bandit","189","468866","0.0-150.0-0.0","88278170","wem/bandit_either_3","A21UA6O7ZFAIQJ","either","8","136","","","","","","","1","0","0","0.8669893864","","0.6","0.2","0.4","0.8","","","","","0.1189546392","0.2817400418","0.8868335222","0.8669893864","","","","","","","","76","L","3","","","110","main_expt",""
"","bandit","190","470570","0.0-151.0-0.0","88278170","wem/bandit_either_3","A21UA6O7ZFAIQJ","either","8","199","","","","","","","1","0","0","0.799383849","","0.6","0.2","0.4","0.8","","","","","0.09523351692","0.2773620367","0.8770728171","0.799383849","","","","","","","","76","L","3","","","111","main_expt",""
"","bandit","191","472283","0.0-152.0-0.0","88278170","wem/bandit_either_3","A21UA6O7ZFAIQJ","either","8","208","","","","","","","0","1","0","","0.859799476","0.6","0.2","0.4","0.8","0.107489667","0.2833316415","0.8481710002","0.859799476","","","","","","","","","","","","76","L","3","","","112","main_expt",""
"","bandit","192","473890","0.0-153.0-0.0","88278170","wem/bandit_either_3","A21UA6O7ZFAIQJ","either","8","101","","","","","","","0","1","0","","0.7932436089","0.6","0.2","0.4","0.8","0.1026187258","0.3433702059","0.8573528835","0.7932436089","","","","","","","","","","","","76","L","3","","","113","main_expt",""
"","bandit","193","475449","0.0-154.0-0.0","88278170","wem/bandit_either_3","A21UA6O7ZFAIQJ","either","8","54","","","","","","","0","0","1","","0.849407262","0.6","0.2","0.4","0.8","0.1044839951","0.4828882278","0.8291807482","0.849407262","","","","","","","","","","","","76","L","3","","","114","main_expt",""
"","bandit","194","477114","0.0-155.0-0.0","88278170","wem/bandit_either_3","A21UA6O7ZFAIQJ","either","8","160","","","","","","","0","1","0","","0.8882716547","0.6","0.2","0.4","0.8","0.1213931844","0.54932579","0.761972944","0.8882716547","","","","","","","","","","","","76","L","3","","","115","main_expt",""
"","bandit","195","478753","0.0-156.0-0.0","88278170","wem/bandit_either_3","A21UA6O7ZFAIQJ","either","8","135","","","","","","","0","1","0","","0.8741354715","0.6","0.2","0.4","0.8","0.1184144227","0.6971345968","0.786197192","0.8741354715","","","","","","","","","","","","76","L","3","","","116","main_expt",""
"","bandit","196","480617","0.0-157.0-0.0","88278170","wem/bandit_either_3","A21UA6O7ZFAIQJ","either","8","359","","","","","","","0","0","1","0.8083823922","","0.6","0.2","0.4","0.8","","","","","0.1983931569","0.5396272374","0.7834453561","0.8083823922","","","","","","","","76","L","3","","","117","main_expt",""
"","bandit","197","482161","0.0-158.0-0.0","88278170","wem/bandit_either_3","A21UA6O7ZFAIQJ","either","8","39","","","","","","","0","1","0","","0.868525306","0.6","0.2","0.4","0.8","0.2840039584","0.5544567993","0.6742380839","0.868525306","","","","","","","","","","","","76","L","3","","","118","main_expt",""
"","bandit","198","483753","0.0-159.0-0.0","88278170","wem/bandit_either_3","A21UA6O7ZFAIQJ","either","8","86","","","","","","","1","0","0","0.8386471998","","0.6","0.2","0.4","0.8","","","","","0.3563325119","0.5504896642","0.7350700153","0.8386471998","","","","","","","","76","L","3","","","119","main_expt",""
"","bandit","199","485321","0.0-160.0-0.0","88278170","wem/bandit_either_3","A21UA6O7ZFAIQJ","either","8","63","","","","","","","1","0","0","0.8103559508","","0.6","0.2","0.4","0.8","","","","","0.5682387565","0.5812137135","0.70601835","0.8103559508","","","","","","","","76","L","3","","","120","main_expt",""
"","bandit","200","486961","0.0-161.0-0.0","88278170","wem/bandit_either_3","A21UA6O7ZFAIQJ","either","8","135","","","","","","","1","0","0","0.8193015173","","0.6","0.2","0.4","0.8","","","","","0.5189107771","0.6033058466","0.7347719752","0.8193015173","","","","","","","","76","L","3","","","121","main_expt",""
"","bandit","201","488640","0.0-162.0-0.0","88278170","wem/bandit_either_3","A21UA6O7ZFAIQJ","either","8","174","","","","","","","1","0","0","0.8025146027","","0.6","0.2","0.4","0.8","","","","","0.4428493372","0.6102220397","0.8270923978","0.8025146027","","","","","","","","76","L","3","","","122","main_expt",""
"","bandit","202","491769","0.0-163.0-0.0","88278170","wem/bandit_either_3","A21UA6O7ZFAIQJ","either","8","1624","","","","","","","1","0","0","0.8121847492","","0.6","0.2","0.4","0.8","","","","","0.472724465","0.6108151959","0.7980631313","0.8121847492","","","","","","","","76","L","3","","","123","main_expt",""
"","bandit","203","493738","0.0-164.0-0.0","88278170","wem/bandit_either_3","A21UA6O7ZFAIQJ","either","8","464","","","","","","","0","0","1","0.8299418439","","0.6","0.2","0.4","0.8","","","","","0.4799585558","0.7117385939","0.7369852887","0.8299418439","","","","","","","","76","L","3","","","124","main_expt",""
"","bandit","204","495553","0.0-165.0-0.0","88278170","wem/bandit_either_3","A21UA6O7ZFAIQJ","either","8","309","","","","","","","1","0","0","0.825688343","","0.6","0.2","0.4","0.8","","","","","0.5080184993","0.7554186078","0.7465944313","0.825688343","","","","","","","","76","L","3","","","125","main_expt",""
"","bandit","205","499234","0.0-166.0-0.0","88278170","wem/bandit_either_3","A21UA6O7ZFAIQJ","either","8","2175","","","","","","","0","0","1","","0.8372054396","0.6","0.2","0.4","0.8","0.4555098289","0.8855751833","0.7596834852","0.8372054396","","","","","","","","","","","","76","L","3","","","126","main_expt",""
"","bandit","206","501074","0.0-167.0-0.0","88278170","wem/bandit_either_3","A21UA6O7ZFAIQJ","either","8","333","","","","","","","0","1","0","","0.7906689898","0.6","0.2","0.4","0.8","0.5475411796","0.8003015049","0.7398299979","0.7906689898","","","","","","","","","","","","76","L","3","","","127","main_expt",""
"","bandit","207","502880","0.0-168.0-0.0","88278170","wem/bandit_either_3","A21UA6O7ZFAIQJ","either","8","301","","","","","","","1","0","0","0.8008571507","","0.6","0.2","0.4","0.8","","","","","0.612647382","0.8403113951","0.7764866849","0.8008571507","","","","","","","","76","L","3","","","128","main_expt",""
"","bandit","208","504713","0.0-169.0-0.0","88278170","wem/bandit_either_3","A21UA6O7ZFAIQJ","either","8","329","","","","","","","0","1","0","","0.7829297973","0.6","0.2","0.4","0.8","0.7128970287","0.8826872071","0.6435675963","0.7829297973","","","","","","","","","","","","76","L","3","","","129","main_expt",""
"","bandit","209","506321","0.0-170.0-0.0","88278170","wem/bandit_either_3","A21UA6O7ZFAIQJ","either","8","102","","","","","","","1","0","0","0.6898445721","","0.6","0.2","0.4","0.8","","","","","0.7309911721","0.8641000085","0.7030252038","0.6898445721","","","","","","","","76","L","3","","","130","main_expt",""
"","bandit","210","508041","0.0-171.0-0.0","88278170","wem/bandit_either_3","A21UA6O7ZFAIQJ","either","8","215","","","","","","","0","0","1","","0.5864867529","0.6","0.2","0.4","0.8","0.73180147","0.8752037592","0.6829232191","0.5864867529","","","","","","","","","","","","76","L","3","","","131","main_expt",""
"","bandit","211","509673","0.0-172.0-0.0","88278170","wem/bandit_either_3","A21UA6O7ZFAIQJ","either","8","126","","","","","","","1","0","0","0.560122833","","0.6","0.2","0.4","0.8","","","","","0.8467134838","0.8279556795","0.7406452387","0.560122833","","","","","","","","76","L","3","","","132","main_expt",""
"","bandit","212","511344","0.0-173.0-0.0","88278170","wem/bandit_either_3","A21UA6O7ZFAIQJ","either","8","167","","","","","","","0","0","1","","0.48439517","0.6","0.2","0.4","0.8","0.8481264083","0.8194722428","0.6666234363","0.48439517","","","","","","","","","","","","76","L","3","","","133","main_expt",""
"","bandit","213","513097","0.0-174.0-0.0","88278170","wem/bandit_either_3","A21UA6O7ZFAIQJ","either","8","248","","","","","","","0","0","1","0.3919863126","","0.6","0.2","0.4","0.8","","","","","0.8771050955","0.8037084922","0.680542061","0.3919863126","","","","","","","","76","L","3","","","134","main_expt",""
"","bandit","214","514794","0.0-175.0-0.0","88278170","wem/bandit_either_3","A21UA6O7ZFAIQJ","either","8","192","","","","","","","0","1","0","","0.5174750093","0.6","0.2","0.4","0.8","0.9103241533","0.8155916457","0.7006187635","0.5174750093","","","","","","","","","","","","76","L","3","","","135","main_expt",""
"","bandit","215","516537","0.0-176.0-0.0","88278170","wem/bandit_either_3","A21UA6O7ZFAIQJ","either","8","237","","","","","","","0","0","1","","0.4264762493","0.6","0.2","0.4","0.8","0.9126032517","0.8281957705","0.6936815578","0.4264762493","","","","","","","","","","","","76","L","3","","","136","main_expt",""
"","bandit","216","518042","0.0-177.0-0.0","88278170","wem/bandit_either_3","A21UA6O7ZFAIQJ","either","8","0","","","","","","","0","1","0","","0.8983360858","0.6","0.2","0.4","0.8","0.8983360858","0.7055403129","0.6531428085","0.5351999402","","","","","","","","","","","","72","H","0","img/none_selected.jpg","","137","main_expt",""
"","bandit","217","519561","0.0-178.0-0.0","88278170","wem/bandit_either_3","A21UA6O7ZFAIQJ","either","8","13","","","","","","","0","0","1","0.8851370462","","0.6","0.2","0.4","0.8","","","","","0.8851370462","0.6884351598","0.6769758131","0.4758748922","","","","","","","","72","H","0","img/none_selected.jpg","","138","main_expt",""
"","bandit","218","521193","0.0-179.0-0.0","88278170","wem/bandit_either_3","A21UA6O7ZFAIQJ","either","8","127","","","","","","","0","1","0","","0.8662270416","0.6","0.2","0.4","0.8","0.8662270416","0.6090423031","0.7649589049","0.4039793023","","","","","","","","","","","","72","H","0","img/none_selected.jpg","","139","main_expt",""
"","bandit","219","522929","0.0-180.0-0.0","88278170","wem/bandit_either_3","A21UA6O7ZFAIQJ","either","8","231","","","","","","","1","0","0","0.8345767194","","0.6","0.2","0.4","0.8","","","","","0.8345767194","0.7000077187","0.7674202191","0.384774136","","","","","","","","72","H","0","img/none_selected.jpg","","140","main_expt",""
"","bandit","220","524513","0.0-181.0-0.0","88278170","wem/bandit_either_3","A21UA6O7ZFAIQJ","either","8","78","","","","","","","1","0","0","0.8783670964","","0.6","0.2","0.4","0.8","","","","","0.8783670964","0.6643185619","0.8575114448","0.327254859","","","","","","","","72","H","0","img/none_selected.jpg","","141","main_expt",""
"","bandit","221","526290","0.0-182.0-0.0","88278170","wem/bandit_either_3","A21UA6O7ZFAIQJ","either","8","270","","","","","","","1","0","0","0.8895828315","","0.6","0.2","0.4","0.8","","","","","0.8895828315","0.7079845674","0.8134430427","0.4536641492","","","","","","","","72","H","0","img/none_selected.jpg","","142","main_expt",""
"","bandit","222","527856","0.0-183.0-0.0","88278170","wem/bandit_either_3","A21UA6O7ZFAIQJ","either","8","62","","","","","","","1","0","0","0.9053928798","","0.6","0.2","0.4","0.8","","","","","0.9053928798","0.6624187643","0.8345505038","0.4348486293","","","","","","","","72","H","0","img/none_selected.jpg","","143","main_expt",""
"","bandit","223","529456","0.0-184.0-0.0","88278170","wem/bandit_either_3","A21UA6O7ZFAIQJ","either","8","96","","","","","","","1","0","0","0.9033088386","","0.6","0.2","0.4","0.8","","","","","0.9033088386","0.6779247185","0.7482817554","0.4086594597","","","","","","","","72","H","0","img/none_selected.jpg","","144","main_expt",""
"","bandit","224","531008","0.0-185.0-0.0","88278170","wem/bandit_either_3","A21UA6O7ZFAIQJ","either","8","47","","","","","","","1","0","0","0.8572864227","","0.6","0.2","0.4","0.8","","","","","0.8572864227","0.7216102374","0.7400387939","0.4420772456","","","","","","","","72","H","0","img/none_selected.jpg","","145","main_expt",""
"","bandit","225","532701","0.0-186.0-0.0","88278170","wem/bandit_either_3","A21UA6O7ZFAIQJ","either","8","188","","","","","","","1","0","0","0.8687508917","","0.6","0.2","0.4","0.8","","","","","0.8687508917","0.7837267619","0.795971973","0.508741462","","","","","","","","72","H","0","img/none_selected.jpg","","146","main_expt",""
"","bandit","226","535080","0.0-187.0-0.0","88278170","wem/bandit_either_3","A21UA6O7ZFAIQJ","either","8","874","","","","","","","1","0","0","0.8657621525","","0.6","0.2","0.4","0.8","","","","","0.8657621525","0.7652264833","0.7503502301","0.4624398998","","","","","","","","72","H","0","img/none_selected.jpg","","147","main_expt",""
"","bandit","227","536737","0.0-188.0-0.0","88278170","wem/bandit_either_3","A21UA6O7ZFAIQJ","either","8","152","","","","","","","1","0","0","0.8362891365","","0.6","0.2","0.4","0.8","","","","","0.8362891365","0.7358716413","0.8200474043","0.4062589849","","","","","","","","72","H","0","img/none_selected.jpg","","148","main_expt",""
"","bandit","228","538544","0.0-189.0-0.0","88278170","wem/bandit_either_3","A21UA6O7ZFAIQJ","either","8","303","","","","","","","1","0","0","0.8144386017","","0.6","0.2","0.4","0.8","","","","","0.8144386017","0.7129200786","0.8509010271","0.4895331913","","","","","","","","72","H","0","img/none_selected.jpg","","149","main_expt",""
"","bandit","229","540265","0.0-190.0-0.0","88278170","wem/bandit_either_3","A21UA6O7ZFAIQJ","either","8","216","","","","","","","0","0","1","0.6948055455","","0.6","0.2","0.4","0.8","","","","","0.6948055455","0.705531668","0.8298908313","0.4704746919","","","","","","","","72","H","0","img/none_selected.jpg","","150","main_expt",""
"","bandit","230","541979","0.0-191.0-0.0","88278170","wem/bandit_either_3","A21UA6O7ZFAIQJ","either","8","208","","","","","","","1","0","0","0.6231991314","","0.6","0.2","0.4","0.8","","","","","0.6231991314","0.5744604188","0.7362749002","0.4725745774","","","","","","","","72","H","0","img/none_selected.jpg","","151","main_expt",""
"","bandit","231","543602","0.0-192.0-0.0","88278170","wem/bandit_either_3","A21UA6O7ZFAIQJ","either","8","117","","","","","","","0","0","1","0.7045057733","","0.6","0.2","0.4","0.8","","","","","0.7045057733","0.5372669321","0.7601791643","0.4943906398","","","","","","","","72","H","0","img/none_selected.jpg","","152","main_expt",""
"","bandit","232","545417","0.0-193.0-0.0","88278170","wem/bandit_either_3","A21UA6O7ZFAIQJ","either","8","310","","","","","","","1","0","0","0.5331338622","","0.6","0.2","0.4","0.8","","","","","0.5331338622","0.5447545218","0.7590648118","0.4639524782","","","","","","","","72","H","0","img/none_selected.jpg","","153","main_expt",""
"","bandit","233","547147","0.0-194.0-0.0","88278170","wem/bandit_either_3","A21UA6O7ZFAIQJ","either","8","225","","","","","","","0","0","1","0.5096720896","","0.6","0.2","0.4","0.8","","","","","0.5096720896","0.4191749193","0.7805387907","0.3935792086","","","","","","","","72","H","0","img/none_selected.jpg","","154","main_expt",""
"","bandit","234","548762","0.0-195.0-0.0","88278170","wem/bandit_either_3","A21UA6O7ZFAIQJ","either","8","109","","","","","","","1","0","0","0.4719011365","","0.6","0.2","0.4","0.8","","","","","0.4719011365","0.4269770229","0.8450805748","0.4127348605","","","","","","","","72","H","0","img/none_selected.jpg","","155","main_expt",""
"","bandit","235","550466","0.0-196.0-0.0","88278170","wem/bandit_either_3","A21UA6O7ZFAIQJ","either","8","198","","","","","","","1","0","0","0.5818713095","","0.6","0.2","0.4","0.8","","","","","0.5818713095","0.4589862704","0.8513110265","0.3697675558","","","","","","","","72","H","0","img/none_selected.jpg","","156","main_expt",""
"","bandit","236","552121","0.0-197.0-0.0","88278170","wem/bandit_either_3","A21UA6O7ZFAIQJ","either","8","150","","","","","","","1","0","0","0.5804022203","","0.6","0.2","0.4","0.8","","","","","0.5804022203","0.5370818316","0.8226236001","0.3604398023","","","","","","","","72","H","0","img/none_selected.jpg","","157","main_expt",""
"","bandit","237","553714","0.0-198.0-0.0","88278170","wem/bandit_either_3","A21UA6O7ZFAIQJ","either","8","88","","","","","","","0","1","0","","0.4773166223","0.6","0.2","0.4","0.8","0.4773166223","0.4757376888","0.8843141367","0.4061750625","","","","","","","","","","","","72","H","0","img/none_selected.jpg","","158","main_expt",""
"","bandit","238","555361","0.0-199.0-0.0","88278170","wem/bandit_either_3","A21UA6O7ZFAIQJ","either","8","142","","","","","","","1","0","0","0.419048585","","0.6","0.2","0.4","0.8","","","","","0.419048585","0.4887287223","0.8078798749","0.4696417586","","","","","","","","72","H","0","img/none_selected.jpg","","159","main_expt",""
"","bandit","239","557042","0.0-200.0-0.0","88278170","wem/bandit_either_3","A21UA6O7ZFAIQJ","either","8","175","","","","","","","0","0","1","","0.4672574386","0.6","0.2","0.4","0.8","0.4672574386","0.4588489809","0.7689164465","0.4659569923","","","","","","","","","","","","72","H","0","img/none_selected.jpg","","160","main_expt",""
"","bandit","240","558706","0.0-201.0-0.0","88278170","wem/bandit_either_3","A21UA6O7ZFAIQJ","either","8","159","","","","","","","0","1","0","","0.5612985374","0.6","0.2","0.4","0.8","0.5612985374","0.4920004413","0.7863156869","0.3947207546","","","","","","","","","","","","72","H","0","img/none_selected.jpg","","161","main_expt",""
"","bandit","241","560441","0.0-202.0-0.0","88278170","wem/bandit_either_3","A21UA6O7ZFAIQJ","either","8","230","","","","","","","0","0","1","0.5288680036","","0.6","0.2","0.4","0.8","","","","","0.5288680036","0.5389881207","0.8098475403","0.2460097942","","","","","","","","72","H","0","img/none_selected.jpg","","162","main_expt",""
"","bandit","242","562273","0.0-203.0-0.0","88278170","wem/bandit_either_3","A21UA6O7ZFAIQJ","either","8","328","","","","","","","0","1","0","","0.6040136001","0.6","0.2","0.4","0.8","0.6096883849","0.6040136001","0.8222712862","0.3603606056","","","","","","","","","","","","74","J","1","","","163","main_expt",""
"","bandit","243","563961","0.0-204.0-0.0","88278170","wem/bandit_either_3","A21UA6O7ZFAIQJ","either","8","183","","","","","","","0","1","0","","0.623756827","0.6","0.2","0.4","0.8","0.4868922288","0.623756827","0.7876031225","0.2507209727","","","","","","","","","","","","74","J","1","","","164","main_expt",""
"","bandit","244","565650","0.0-205.0-0.0","88278170","wem/bandit_either_3","A21UA6O7ZFAIQJ","either","8","183","","","","","","","1","0","0","0.6164515281","","0.6","0.2","0.4","0.8","","","","","0.4055552053","0.6164515281","0.7435052823","0.2162043423","","","","","","","","74","J","1","","","165","main_expt",""
"","bandit","245","567305","0.0-206.0-0.0","88278170","wem/bandit_either_3","A21UA6O7ZFAIQJ","either","8","150","","","","","","","0","0","1","0.4660222187","","0.6","0.2","0.4","0.8","","","","","0.4748236382","0.4660222187","0.6545739251","0.2573409732","","","","","","","","74","J","1","","","166","main_expt",""
"","bandit","246","569058","0.0-207.0-0.0","88278170","wem/bandit_either_3","A21UA6O7ZFAIQJ","either","8","248","","","","","","","0","1","0","","0.3336058786","0.6","0.2","0.4","0.8","0.4725242185","0.3336058786","0.6645907447","0.4016088623","","","","","","","","","","","","74","J","1","","","167","main_expt",""
"","bandit","247","572098","0.0-208.0-0.0","88278170","wem/bandit_either_3","A21UA6O7ZFAIQJ","either","8","1532","","","","","","","0","0","1","","0.2887723434","0.6","0.2","0.4","0.8","0.4775208721","0.2887723434","0.7243751722","0.5522858252","","","","","","","","","","","","74","J","1","","","168","main_expt",""
"","bandit","248","573986","0.0-209.0-0.0","88278170","wem/bandit_either_3","A21UA6O7ZFAIQJ","either","8","381","","","","","","","0","0","1","","0.3357056981","0.6","0.2","0.4","0.8","0.4682732781","0.3357056981","0.6453105543","0.5461138513","","","","","","","","","","","","74","J","1","","","169","main_expt",""
"","bandit","249","575754","0.0-210.0-0.0","88278170","wem/bandit_either_3","A21UA6O7ZFAIQJ","either","8","262","","","","","","","0","1","0","","0.5334010147","0.6","0.2","0.4","0.8","0.4246621539","0.4179693295","0.5334010147","0.4402798015","","","","","","","","","","","","75","K","2","","","170","main_expt",""
"","bandit","250","577547","0.0-211.0-0.0","88278170","wem/bandit_either_3","A21UA6O7ZFAIQJ","either","8","287","","","","","","","0","1","0","","0.498122785","0.6","0.2","0.4","0.8","0.2843380906","0.3050406521","0.498122785","0.450294849","","","","","","","","","","","","75","K","2","","","171","main_expt",""
"","bandit","251","579346","0.0-212.0-0.0","88278170","wem/bandit_either_3","A21UA6O7ZFAIQJ","either","8","293","","","","","","","0","1","0","","0.4356988635","0.6","0.2","0.4","0.8","0.2668952485","0.3364500029","0.4356988635","0.6475755847","","","","","","","","","","","","75","K","2","","","172","main_expt",""
"","bandit","252","581082","0.0-213.0-0.0","88278170","wem/bandit_either_3","A21UA6O7ZFAIQJ","either","8","230","","","","","","","0","0","1","","0.3964199688","0.6","0.2","0.4","0.8","0.3802819164","0.421339117","0.3964199688","0.6095255177","","","","","","","","","","","","75","K","2","","","173","main_expt",""
"","bandit","253","582818","0.0-214.0-0.0","88278170","wem/bandit_either_3","A21UA6O7ZFAIQJ","either","8","230","","","","","","","1","0","0","0.3194345802","","0.6","0.2","0.4","0.8","","","","","0.4042455133","0.4913704717","0.3194345802","0.5003628493","","","","","","","","75","K","2","","","174","main_expt",""
"","bandit","254","584426","0.0-215.0-0.0","88278170","wem/bandit_either_3","A21UA6O7ZFAIQJ","either","8","101","","","","","","","0","0","1","0.2865230234","","0.6","0.2","0.4","0.8","","","","","0.4393989914","0.5882611891","0.2865230234","0.5576212716","","","","","","","","75","K","2","","","175","main_expt",""
"","bandit","255","586217","0.0-216.0-0.0","88278170","wem/bandit_either_3","A21UA6O7ZFAIQJ","either","8","285","","","","","","","1","0","0","0.4705173801","","0.6","0.2","0.4","0.8","","","","","0.4705173801","0.6313830356","0.3352692614","0.6230679906","","","","","","","","72","H","0","img/none_selected.jpg","","176","main_expt",""
"","bandit","256","587995","0.0-217.0-0.0","88278170","wem/bandit_either_3","A21UA6O7ZFAIQJ","either","8","271","","","","","","","0","0","1","","0.4698597734","0.6","0.2","0.4","0.8","0.4698597734","0.5531265137","0.3389264817","0.6501784685","","","","","","","","","","","","72","H","0","img/none_selected.jpg","","177","main_expt",""
"","bandit","257","590137","0.0-218.0-0.0","88278170","wem/bandit_either_3","A21UA6O7ZFAIQJ","either","8","637","","","","","","","1","0","0","0.3570804947","","0.6","0.2","0.4","0.8","","","","","0.3570804947","0.4621004187","0.3709673039","0.6334155083","","","","","","","","72","H","0","img/none_selected.jpg","","178","main_expt",""
"","bandit","258","591785","0.0-219.0-0.0","88278170","wem/bandit_either_3","A21UA6O7ZFAIQJ","either","8","142","","","","","","","0","0","1","0.3441184995","","0.6","0.2","0.4","0.8","","","","","0.3441184995","0.512884041","0.2940579202","0.7548338289","","","","","","","","72","H","0","img/none_selected.jpg","","179","main_expt",""
"","bandit","259","593402","0.0-220.0-0.0","88278170","wem/bandit_either_3","A21UA6O7ZFAIQJ","either","8","110","","","","","","","0","1","0","","0.3646136501","0.6","0.2","0.4","0.8","0.3646136501","0.506744284","0.3218724025","0.8074073351","","","","","","","","","","","","72","H","0","img/none_selected.jpg","","180","main_expt",""
"","bandit","260","595035","0.0-221.0-0.0","88278170","wem/bandit_either_3","A21UA6O7ZFAIQJ","either","8","125","","","","","","","1","0","0","0.3777688814","","0.6","0.2","0.4","0.8","","","","","0.3777688814","0.4556494723","0.3633286182","0.780721516","","","","","","","","72","H","0","img/none_selected.jpg","","181","main_expt",""
"","bandit","261","596737","0.0-222.0-0.0","88278170","wem/bandit_either_3","A21UA6O7ZFAIQJ","either","8","196","","","","","","","0","0","1","0.4578236703","","0.6","0.2","0.4","0.8","","","","","0.4578236703","0.4494525508","0.3324048704","0.7647415088","","","","","","","","72","H","0","img/none_selected.jpg","","182","main_expt",""
"","bandit","262","598522","0.0-223.0-0.0","88278170","wem/bandit_either_3","A21UA6O7ZFAIQJ","either","8","278","","","","","","","1","0","0","0.7349307529","","0.6","0.2","0.4","0.8","","","","","0.4244895098","0.5189143621","0.3092830871","0.7349307529","","","","","","","","76","L","3","","","183","main_expt",""
"","bandit","263","600162","0.0-224.0-0.0","88278170","wem/bandit_either_3","A21UA6O7ZFAIQJ","either","8","134","","","","","","","1","0","0","0.8298088288","","0.6","0.2","0.4","0.8","","","","","0.3566779322","0.5167606333","0.3905692936","0.8298088288","","","","","","","","76","L","3","","","184","main_expt",""
"","bandit","264","601889","0.0-225.0-0.0","88278170","wem/bandit_either_3","A21UA6O7ZFAIQJ","either","8","221","","","","","","","1","0","0","0.7894193193","","0.6","0.2","0.4","0.8","","","","","0.3737416658","0.5270237034","0.4626192444","0.7894193193","","","","","","","","76","L","3","","","185","main_expt",""
"","bandit","265","603737","0.0-226.0-0.0","88278170","wem/bandit_either_3","A21UA6O7ZFAIQJ","either","8","342","","","","","","","1","0","0","0.7665022487","","0.6","0.2","0.4","0.8","","","","","0.3120176694","0.5556036571","0.6061762586","0.7665022487","","","","","","","","76","L","3","","","186","main_expt",""
"","bandit","266","605322","0.0-227.0-0.0","88278170","wem/bandit_either_3","A21UA6O7ZFAIQJ","either","8","78","","","","","","","1","0","0","0.7394266891","","0.6","0.2","0.4","0.8","","","","","0.4134691065","0.5865134094","0.530958695","0.7394266891","","","","","","","","76","L","3","","","187","main_expt",""
"","bandit","267","607089","0.0-228.0-0.0","88278170","wem/bandit_either_3","A21UA6O7ZFAIQJ","either","8","262","","","","","","","0","0","1","","0.6567361442","0.6","0.2","0.4","0.8","0.4637770407","0.5034866795","0.380024655","0.6567361442","","","","","","","","","","","","76","L","3","","","188","main_expt",""
"","bandit","268","608865","0.0-229.0-0.0","88278170","wem/bandit_either_3","A21UA6O7ZFAIQJ","either","8","270","","","","","","","0","0","1","0.6572443956","","0.6","0.2","0.4","0.8","","","","","0.5739034088","0.5761715841","0.4563575644","0.6572443956","","","","","","","","76","L","3","","","189","main_expt",""
"","bandit","269","610441","0.0-230.0-0.0","88278170","wem/bandit_either_3","A21UA6O7ZFAIQJ","either","8","70","","","","","","","0","0","1","0.5859504021","","0.6","0.2","0.4","0.8","","","","","0.5859504021","0.5325489933","0.4540853102","0.6735764162","","","","","","","","72","H","0","img/none_selected.jpg","","190","main_expt",""
"","bandit","270","612049","0.0-231.0-0.0","88278170","wem/bandit_either_3","A21UA6O7ZFAIQJ","either","8","102","","","","","","","0","0","1","","0.4328006462","0.6","0.2","0.4","0.8","0.5325822721","0.5614919892","0.4328006462","0.5997518312","","","","","","","","","","","","75","K","2","","","191","main_expt",""
"","bandit","271","614289","0.0-232.0-0.0","88278170","wem/bandit_either_3","A21UA6O7ZFAIQJ","either","8","734","","","","","","","0","1","0","","0.5972832049","0.6","0.2","0.4","0.8","0.4622441745","0.5972832049","0.4979354652","0.6582178794","","","","","","","","","","","","74","J","1","","","192","main_expt",""
"","bandit","272","615970","0.0-233.0-0.0","88278170","wem/bandit_either_3","A21UA6O7ZFAIQJ","either","8","175","","","","","","","1","0","0","0.6997951875","","0.6","0.2","0.4","0.8","","","","","0.4765036663","0.6997951875","0.4887187701","0.7246172867","","","","","","","","74","J","1","","","193","main_expt",""
"","bandit","273","617657","0.0-234.0-0.0","88278170","wem/bandit_either_3","A21UA6O7ZFAIQJ","either","8","181","","","","","","","1","0","0","0.7511051992","","0.6","0.2","0.4","0.8","","","","","0.4504155567","0.7511051992","0.4993882896","0.7721250451","","","","","","","","74","J","1","","","194","main_expt",""
"","bandit","274","619386","0.0-235.0-0.0","88278170","wem/bandit_either_3","A21UA6O7ZFAIQJ","either","8","222","","","","","","","0","1","0","","0.8281457055","0.6","0.2","0.4","0.8","0.4354252764","0.8281457055","0.5011331455","0.8366496483","","","","","","","","","","","","74","J","1","","","195","main_expt",""
"","bandit","275","620907","0.0-236.0-0.0","88278170","wem/bandit_either_3","A21UA6O7ZFAIQJ","either","8","13","","","","","","","0","1","0","","0.8248544968","0.6","0.2","0.4","0.8","0.4170899215","0.8248544968","0.4487960683","0.8484646997","","","","","","","","","","","","74","J","1","","","196","main_expt",""
"","bandit","276","622737","0.0-237.0-0.0","88278170","wem/bandit_either_3","A21UA6O7ZFAIQJ","either","8","324","","","","","","","0","1","0","","0.8532714289","0.6","0.2","0.4","0.8","0.4149059055","0.8532714289","0.3975590019","0.8734060335","","","","","","","","","","","","74","J","1","","","197","main_expt",""
"","bandit","277","624497","0.0-238.0-0.0","88278170","wem/bandit_either_3","A21UA6O7ZFAIQJ","either","8","254","","","","","","","1","0","0","0.7587337752","","0.6","0.2","0.4","0.8","","","","","0.4737306044","0.7587337752","0.4161601929","0.8515360685","","","","","","","","74","J","1","","","198","main_expt",""
"","bandit","278","626259","0.0-239.0-0.0","88278170","wem/bandit_either_3","A21UA6O7ZFAIQJ","either","8","255","","","","","","","1","0","0","0.8124408481","","0.6","0.2","0.4","0.8","","","","","0.4541760911","0.8124408481","0.4483979408","0.8805923715","","","","","","","","74","J","1","","","199","main_expt",""
"","bandit","279","627842","0.0-240.0-0.0","88278170","wem/bandit_either_3","A21UA6O7ZFAIQJ","either","8","76","","","","","","","1","0","0","0.7935778268","","0.6","0.2","0.4","0.8","","","","","0.3964714959","0.7935778268","0.5303380975","0.9645818821","","","","","","","","74","J","1","","","200","main_expt",""
"","bandit","280","629418","0.0-241.0-0.0","88278170","wem/bandit_either_3","A21UA6O7ZFAIQJ","either","8","69","","","","","","","0","0","1","","0.736942723","0.6","0.2","0.4","0.8","0.3815447649","0.736942723","0.4014045657","0.9689478708","","","","","","","","","","","","74","J","1","","","201","main_expt",""
"","bandit","281","631154","0.0-242.0-0.0","88278170","wem/bandit_either_3","A21UA6O7ZFAIQJ","either","8","229","","","","","","","0","1","0","","0.7001951276","0.6","0.2","0.4","0.8","0.3726367513","0.7001951276","0.5115169607","0.9678291885","","","","","","","","","","","","74","J","1","","","202","main_expt",""
"","bandit","282","632921","0.0-243.0-0.0","88278170","wem/bandit_either_3","A21UA6O7ZFAIQJ","either","8","261","","","","","","","0","1","0","","0.7209300446","0.6","0.2","0.4","0.8","0.3062653216","0.7209300446","0.5026191452","0.9633244117","","","","","","","","","","","","74","J","1","","","203","main_expt",""
"","bandit","283","634521","0.0-244.0-0.0","88278170","wem/bandit_either_3","A21UA6O7ZFAIQJ","either","8","94","","","","","","","0","1","0","","0.8574132932","0.6","0.2","0.4","0.8","0.2848501254","0.8574132932","0.4736298566","0.9730812582","","","","","","","","","","","","74","J","1","","","204","main_expt",""
"","bandit","284","636218","0.0-245.0-0.0","88278170","wem/bandit_either_3","A21UA6O7ZFAIQJ","either","8","190","","","","","","","0","1","0","","0.9038760074","0.6","0.2","0.4","0.8","0.3457586416","0.9038760074","0.6121858428","0.9521206422","","","","","","","","","","","","74","J","1","","","205","main_expt",""
"","bandit","285","637769","0.0-246.0-0.0","88278170","wem/bandit_either_3","A21UA6O7ZFAIQJ","either","8","44","","","","","","","0","1","0","","0.9273356803","0.6","0.2","0.4","0.8","0.4609097875","0.9273356803","0.6377028942","0.9614764056","","","","","","","","","","","","74","J","1","","","206","main_expt",""
"","bandit","286","639434","0.0-247.0-0.0","88278170","wem/bandit_either_3","A21UA6O7ZFAIQJ","either","8","159","","","","","","","0","1","0","","0.9502037039","0.6","0.2","0.4","0.8","0.4980316736","0.9502037039","0.5700483165","0.9625830716","","","","","","","","","","","","74","J","1","","","207","main_expt",""
"","bandit","287","641074","0.0-248.0-0.0","88278170","wem/bandit_either_3","A21UA6O7ZFAIQJ","either","8","134","","","","","","","0","1","0","","0.944094639","0.6","0.2","0.4","0.8","0.4537691537","0.944094639","0.624428721","0.9359306517","","","","","","","","","","","","74","J","1","","","208","main_expt",""
"","bandit","288","642698","0.0-249.0-0.0","88278170","wem/bandit_either_3","A21UA6O7ZFAIQJ","either","8","117","","","","","","","0","1","0","","0.9070839441","0.6","0.2","0.4","0.8","0.4475842875","0.9070839441","0.4861871301","0.9632917203","","","","","","","","","","","","74","J","1","","","209","main_expt",""
"","bandit","289","644205","0.0-250.0-0.0","88278170","wem/bandit_either_3","A21UA6O7ZFAIQJ","either","8","1","","","","","","","0","1","0","","0.8960653589","0.6","0.2","0.4","0.8","0.4803454055","0.8960653589","0.3956361612","0.9633226214","","","","","","","","","","","","74","J","1","","","210","main_expt",""
"","bandit","290","645841","0.0-251.0-0.0","88278170","wem/bandit_either_3","A21UA6O7ZFAIQJ","either","8","130","","","","","","","0","1","0","","0.9155455821","0.6","0.2","0.4","0.8","0.4126443349","0.9155455821","0.3599204452","0.9719781217","","","","","","","","","","","","74","J","1","","","211","main_expt",""
"","bandit","291","647394","0.0-252.0-0.0","88278170","wem/bandit_either_3","A21UA6O7ZFAIQJ","either","8","46","","","","","","","0","1","0","","0.9087954588","0.6","0.2","0.4","0.8","0.3384802849","0.9087954588","0.3349000901","0.9700781686","","","","","","","","","","","","74","J","1","","","212","main_expt",""
"","bandit","292","648977","0.0-253.0-0.0","88278170","wem/bandit_either_3","A21UA6O7ZFAIQJ","either","8","77","","","","","","","0","1","0","","0.8528540962","0.6","0.2","0.4","0.8","0.3039242722","0.8528540962","0.3183344176","0.971165811","","","","","","","","","","","","74","J","1","","","213","main_expt",""
"","bandit","293","650993","0.0-254.0-0.0","88278170","wem/bandit_either_3","A21UA6O7ZFAIQJ","either","8","510","","","","","","","0","1","0","","0.9627117","0.6","0.2","0.4","0.8","0.4541530846","0.8506041988","0.2390758011","0.9627117","","","","","","","","","","","","76","L","3","","","214","main_expt",""
"","bandit","294","652538","0.0-255.0-0.0","88278170","wem/bandit_either_3","A21UA6O7ZFAIQJ","either","8","39","","","","","","","0","0","1","0.9552130497","","0.6","0.2","0.4","0.8","","","","","0.5101749692","0.8001829978","0.1997060473","0.9552130497","","","","","","","","76","L","3","","","215","main_expt",""
"","bandit","295","654081","0.0-256.0-0.0","88278170","wem/bandit_either_3","A21UA6O7ZFAIQJ","either","8","37","","","","","","","1","0","0","0.9220350188","","0.6","0.2","0.4","0.8","","","","","0.5580520347","0.733614842","0.2326539104","0.9220350188","","","","","","","","76","L","3","","","216","main_expt",""
"","bandit","296","655666","0.0-257.0-0.0","88278170","wem/bandit_either_3","A21UA6O7ZFAIQJ","either","8","78","","","","","","","0","0","1","0.8736667029","","0.6","0.2","0.4","0.8","","","","","0.4368451062","0.7479737912","0.2319826337","0.8736667029","","","","","","","","76","L","3","","","217","main_expt",""
"","bandit","297","657371","0.0-258.0-0.0","88278170","wem/bandit_either_3","A21UA6O7ZFAIQJ","either","8","198","","","","","","","1","0","0","0.7602784417","","0.6","0.2","0.4","0.8","","","","","0.3963441813","0.7713398237","0.3143382807","0.7602784417","","","","","","","","76","L","3","","","218","main_expt",""
"","bandit","298","659065","0.0-259.0-0.0","88278170","wem/bandit_either_3","A21UA6O7ZFAIQJ","either","8","188","","","","","","","1","0","0","0.7643050859","","0.6","0.2","0.4","0.8","","","","","0.4809426617","0.8077055691","0.3304972923","0.7643050859","","","","","","","","76","L","3","","","219","main_expt",""
"","bandit","299","660664","0.0-260.0-0.0","88278170","wem/bandit_either_3","A21UA6O7ZFAIQJ","either","8","94","","","","","","","1","0","0","0.7793587236","","0.6","0.2","0.4","0.8","","","","","0.397759556","0.7778114837","0.2866104843","0.7793587236","","","","","","","","76","L","3","","","220","main_expt",""
"","bandit","300","662233","0.0-261.0-0.0","88278170","wem/bandit_either_3","A21UA6O7ZFAIQJ","either","8","62","","","","","","","0","1","0","","0.82086311","0.6","0.2","0.4","0.8","0.4087677593","0.7214198583","0.3602561646","0.82086311","","","","","","","","","","","","76","L","3","","","221","main_expt",""
"","bandit","301","663841","0.0-262.0-0.0","88278170","wem/bandit_either_3","A21UA6O7ZFAIQJ","either","8","101","","","","","","","0","0","1","","0.3228749062","0.6","0.2","0.4","0.8","0.4561280915","0.8091526303","0.3228749062","0.8543662658","","","","","","","","","","","","75","K","2","","","222","main_expt",""
"","bandit","302","665568","0.0-263.0-0.0","88278170","wem/bandit_either_3","A21UA6O7ZFAIQJ","either","8","221","","","","","","","0","0","1","","0.4419858618","0.6","0.2","0.4","0.8","0.4419858618","0.8240838469","0.2549485676","0.8599459829","","","","","","","","","","","","72","H","0","img/none_selected.jpg","","223","main_expt",""
"","bandit","303","667184","0.0-264.0-0.0","88278170","wem/bandit_either_3","A21UA6O7ZFAIQJ","either","8","111","","","","","","","1","0","0","0.8747991669","","0.6","0.2","0.4","0.8","","","","","0.494409337","0.7670685714","0.2389333491","0.8747991669","","","","","","","","76","L","3","","","224","main_expt",""
"","bandit","304","668904","0.0-265.0-0.0","88278170","wem/bandit_either_3","A21UA6O7ZFAIQJ","either","8","214","","","","","","","1","0","0","0.7910409491","","0.6","0.2","0.4","0.8","","","","","0.3713348049","0.8775689376","0.1517307125","0.7910409491","","","","","","","","76","L","3","","","225","main_expt",""
"","bandit","305","670417","0.0-266.0-0.0","88278170","wem/bandit_either_3","A21UA6O7ZFAIQJ","either","8","6","","","","","","","0","0","1","0.7212928749","","0.6","0.2","0.4","0.8","","","","","0.4013452417","0.8846504348","0.1002450003","0.7212928749","","","","","","","","76","L","3","","","226","main_expt",""
"","bandit","306","672089","0.0-267.0-0.0","88278170","wem/bandit_either_3","A21UA6O7ZFAIQJ","either","8","165","","","","","","","0","0","1","0.7090989562","","0.6","0.2","0.4","0.8","","","","","0.393451628","0.851087938","0.1049945928","0.7090989562","","","","","","","","76","L","3","","","227","main_expt",""
"","bandit","307","673744","0.0-268.0-0.0","88278170","wem/bandit_either_3","A21UA6O7ZFAIQJ","either","8","148","","","","","","","1","0","0","0.6606736223","","0.6","0.2","0.4","0.8","","","","","0.4175844788","0.9074720337","0.03915988122","0.6606736223","","","","","","","","76","L","3","","","228","main_expt",""
"","bandit","308","675571","0.0-269.0-0.0","88278170","wem/bandit_either_3","A21UA6O7ZFAIQJ","either","8","318","","","","","","","0","1","0","","0.6893924153","0.6","0.2","0.4","0.8","0.408368909","0.872332114","0.03767516843","0.6893924153","","","","","","","","","","","","76","L","3","","","229","main_expt",""
"","bandit","309","677369","0.0-270.0-0.0","88278170","wem/bandit_either_3","A21UA6O7ZFAIQJ","either","8","292","","","","","","","0","0","1","0.6067604319","","0.6","0.2","0.4","0.8","","","","","0.4777699032","0.7967167456","0.05804790214","0.6067604319","","","","","","","","76","L","3","","","230","main_expt",""
"","bandit","310","681657","0.0-271.0-0.0","88278170","wem/bandit_either_3","A21UA6O7ZFAIQJ","either","8","2781","","","","","","","0","1","0","","0.5037419277","0.6","0.2","0.4","0.8","0.4935442242","0.7760618079","0.04963095007","0.5037419277","","","","","","","","","","","","76","L","3","","","231","main_expt",""
"","bandit","311","683314","0.0-272.0-0.0","88278170","wem/bandit_either_3","A21UA6O7ZFAIQJ","either","8","150","","","","","","","0","0","1","0.4339479185","","0.6","0.2","0.4","0.8","","","","","0.4889590317","0.7765467853","0.03759782928","0.4339479185","","","","","","","","76","L","3","","","232","main_expt",""
"","bandit","312","685137","0.0-273.0-0.0","88278170","wem/bandit_either_3","A21UA6O7ZFAIQJ","either","8","315","","","","","","","0","1","0","","0.4525546635","0.6","0.2","0.4","0.8","0.5212294662","0.7895219362","0.03147013274","0.4525546635","","","","","","","","","","","","76","L","3","","","233","main_expt",""
"","bandit","313","687890","0.0-274.0-0.0","88278170","wem/bandit_either_3","A21UA6O7ZFAIQJ","either","8","1245","","","","","","","1","0","0","0.3680080929","","0.6","0.2","0.4","0.8","","","","","0.4420617392","0.7491899586","0.03547440544","0.3680080929","","","","","","","","76","L","3","","","234","main_expt",""
"","bandit","314","689432","0.0-275.0-0.0","88278170","wem/bandit_either_3","A21UA6O7ZFAIQJ","either","8","37","","","","","","","0","0","1","0.3416373547","","0.6","0.2","0.4","0.8","","","","","0.4816955248","0.7397351474","0.04486782706","0.3416373547","","","","","","","","76","L","3","","","235","main_expt",""
"","bandit","315","691000","0.0-276.0-0.0","88278170","wem/bandit_either_3","A21UA6O7ZFAIQJ","either","8","62","","","","","","","0","0","1","","0.3722877153","0.6","0.2","0.4","0.8","0.3028121716","0.6587673302","0.03122339122","0.3722877153","","","","","","","","","","","","76","L","3","","","236","main_expt",""
"","bandit","316","692648","0.0-277.0-0.0","88278170","wem/bandit_either_3","A21UA6O7ZFAIQJ","either","8","141","","","","","","","0","1","0","","0.3802502189","0.6","0.2","0.4","0.8","0.3802502189","0.7534934878","0.04191117605","0.3081002542","","","","","","","","","","","","72","H","0","img/none_selected.jpg","","237","main_expt",""
"","bandit","317","694200","0.0-278.0-0.0","88278170","wem/bandit_either_3","A21UA6O7ZFAIQJ","either","8","46","","","","","","","1","0","0","0.4160754302","","0.6","0.2","0.4","0.8","","","","","0.4160754302","0.8023031038","0.06367740527","0.2546656634","","","","","","","","72","H","0","img/none_selected.jpg","","238","main_expt",""
"","bandit","318","695848","0.0-279.0-0.0","88278170","wem/bandit_either_3","A21UA6O7ZFAIQJ","either","8","141","","","","","","","0","0","1","0.3510440385","","0.6","0.2","0.4","0.8","","","","","0.3510440385","0.8333986962","0.06315957527","0.3038323055","","","","","","","","72","H","0","img/none_selected.jpg","","239","main_expt",""
"","bandit","319","697922","0.0-280.0-0.0","88278170","wem/bandit_either_3","A21UA6O7ZFAIQJ","either","8","567","","","","","","","0","0","1","0.4182550587","","0.6","0.2","0.4","0.8","","","","","0.4182550587","0.840768508","0.05324295338","0.291884511","","","","","","","","72","H","0","img/none_selected.jpg","","240","main_expt",""
"","bandit","320","699728","0.0-281.0-0.0","88278170","wem/bandit_either_3","A21UA6O7ZFAIQJ","either","8","300","","","","","","","0","1","0","","0.823006268","0.6","0.2","0.4","0.8","0.5037088371","0.823006268","0.04641095239","0.3124975621","","","","","","","","","","","","74","J","1","","","241","main_expt",""
"","bandit","321","701392","0.0-282.0-0.0","88278170","wem/bandit_either_3","A21UA6O7ZFAIQJ","either","8","158","","","","","","","1","0","0","0.8152254121","","0.6","0.2","0.4","0.8","","","","","0.4877747003","0.8152254121","0.04954190216","0.3637146884","","","","","","","","74","J","1","","","242","main_expt",""
"","bandit","322","702960","0.0-283.0-0.0","88278170","wem/bandit_either_3","A21UA6O7ZFAIQJ","either","8","62","","","","","","","0","1","0","","0.8377493118","0.6","0.2","0.4","0.8","0.5007011316","0.8377493118","0.05592390002","0.3304840913","","","","","","","","","","","","74","J","1","","","243","main_expt",""
"","bandit","323","704608","0.0-284.0-0.0","88278170","wem/bandit_either_3","A21UA6O7ZFAIQJ","either","8","142","","","","","","","0","1","0","","0.8258586067","0.6","0.2","0.4","0.8","0.5730304632","0.8258586067","0.03808637997","0.4067767971","","","","","","","","","","","","74","J","1","","","244","main_expt",""
"","bandit","324","706241","0.0-285.0-0.0","88278170","wem/bandit_either_3","A21UA6O7ZFAIQJ","either","8","126","","","","","","","0","1","0","","0.7889424323","0.6","0.2","0.4","0.8","0.6096531262","0.7889424323","0.02077199453","0.4091901929","","","","","","","","","","","","74","J","1","","","245","main_expt",""
"","bandit","325","708009","0.0-286.0-0.0","88278170","wem/bandit_either_3","A21UA6O7ZFAIQJ","either","8","261","","","","","","","0","0","1","","0.7288058668","0.6","0.2","0.4","0.8","0.6433625309","0.7288058668","0.01756278659","0.3814802778","","","","","","","","","","","","74","J","1","","","246","main_expt",""
