"consent","trial_type","trial_index","time_elapsed","internal_node_id","subjID","study","MID","cond","drift","rt","responses","key_press","expt_phase","like","value","connected","gems","bombs","no_reward","GemPrChosen","BombPrChosen","GainOverPainPr_0","GainOverPainPr_1","GainOverPainPr_2","GainOverPainPr_3","LosePr_0","LosePr_1","LosePr_2","LosePr_3","WinPr_0","WinPr_1","WinPr_2","WinPr_3","Q0","Q1","Q2","gender","age","ethnicity","target","respCharCode","respKey","respChoiceNum","respChoice","practice","trial_counter","trial_label","button_pressed"
"INL_behavioral_consent_30min_online.html","consent","0","7023","0.0-0.0","89002403","wem/bandit_either_3","A2C7A6E70NYNUI","either","8","","","","","","","","","","","","","","","","","","","","","","","","","","","","","","","","","","","","","","",""
"","survey-text","1","10592","0.0-1.0","89002403","wem/bandit_either_3","A2C7A6E70NYNUI","either","8","2559","{""Q0"":""A2C7A6E70NYNUI""}","","","","","","","","","","","","","","","","","","","","","","","","","","","","","","","","","","","","",""
"","text","2","18984","0.0-2.0","89002403","wem/bandit_either_3","A2C7A6E70NYNUI","either","8","7390","","32","","","","","","","","","","","","","","","","","","","","","","","","","","","","","","","","","","","",""
"","text","3","28826","0.0-3.0","89002403","wem/bandit_either_3","A2C7A6E70NYNUI","either","8","9839","","32","","","","","","","","","","","","","","","","","","","","","","","","","","","","","","","","","","","",""
"","text","4","44786","0.0-4.0","89002403","wem/bandit_either_3","A2C7A6E70NYNUI","either","8","15958","","32","","","","","","","","","","","","","","","","","","","","","","","","","","","","","","","","","","","",""
"","text","5","58921","0.0-5.0","89002403","wem/bandit_either_3","A2C7A6E70NYNUI","either","8","14132","","32","","","","","","","","","","","","","","","","","","","","","","","","","","","","","","","","","","","",""
"","text","6","80955","0.0-6.0","89002403","wem/bandit_either_3","A2C7A6E70NYNUI","either","8","22032","","32","","","","","","","","","","","","","","","","","","","","","","","","","","","","","","","","","","","",""
"","text","7","87077","0.0-7.0","89002403","wem/bandit_either_3","A2C7A6E70NYNUI","either","8","6120","","32","","","","","","","","","","","","","","","","","","","","","","","","","","","","","","","","","","","",""
"","text","8","90834","0.0-8.0","89002403","wem/bandit_either_3","A2C7A6E70NYNUI","either","8","3755","","32","","","","","","","","","","","","","","","","","","","","","","","","","","","","","","","","","","","",""
"","identification","9","97107","0.0-9.0-0.0","89002403","wem/bandit_either_3","A2C7A6E70NYNUI","either","8","6251","","","","3","4","3","","","","","","","","","","","","","","","","","","","","","","","","the village of Zur","","","","","","","",""
"","identification","10","103209","0.0-9.0-1.0","89002403","wem/bandit_either_3","A2C7A6E70NYNUI","either","8","5082","","","","2","1","1","","","","","","","","","","","","","","","","","","","","","","","","the village of Nyx","","","","","","","",""
"","text","11","109278","0.0-10.0","89002403","wem/bandit_either_3","A2C7A6E70NYNUI","either","8","5065","","32","","","","","","","","","","","","","","","","","","","","","","","","","","","","","","","","","","","",""
"","text","12","111368","0.0-11.0","89002403","wem/bandit_either_3","A2C7A6E70NYNUI","either","8","2087","","32","","","","","","","","","","","","","","","","","","","","","","","","","","","","","","","","","","","",""
"","text","13","112744","0.0-12.0","89002403","wem/bandit_either_3","A2C7A6E70NYNUI","either","8","1374","","32","","","","","","","","","","","","","","","","","","","","","","","","","","","","","","","","","","","",""
"","text","14","116893","0.0-13.0","89002403","wem/bandit_either_3","A2C7A6E70NYNUI","either","8","4146","","32","","","","","","","","","","","","","","","","","","","","","","","","","","","","","","","","","","","",""
"","bandit","15","120966","0.0-14.0-0.0","89002403","wem/bandit_either_3","A2C7A6E70NYNUI","either","8","2564","","","","","","","0","0","1","0","0","","","","","0","","","","0","","","","","","","","","","","74","J","0","img/none_selected_demo.jpg","true","0","",""
"","bandit","16","123756","0.0-15.0-0.0","89002403","wem/bandit_either_3","A2C7A6E70NYNUI","either","8","1283","","","","","","","0","0","1","0","0","","","","","0","","","","0","","","","","","","","","","","75","K","0","img/none_selected_demo.jpg","true","0","",""
"","text","17","131697","0.0-16.0","89002403","wem/bandit_either_3","A2C7A6E70NYNUI","either","8","7939","","32","","","","","","","","","","","","","","","","","","","","","","","","","","","","","","","","","","","",""
"","text","18","142385","0.0-17.0","89002403","wem/bandit_either_3","A2C7A6E70NYNUI","either","8","10684","","32","","","","","","","","","","","","","","","","","","","","","","","","","","","","","","","","","","","",""
"","text","19","150913","0.0-18.0","89002403","wem/bandit_either_3","A2C7A6E70NYNUI","either","8","8526","","32","","","","","","","","","","","","","","","","","","","","","","","","","","","","","","","","","","","",""
"","text","20","152983","0.0-19.0","89002403","wem/bandit_either_3","A2C7A6E70NYNUI","either","8","2068","","32","","","","","","","","","","","","","","","","","","","","","","","","","","","","","","","","","","","",""
"","bandit","21","155167","0.0-20.0-0.0","89002403","wem/bandit_either_3","A2C7A6E70NYNUI","either","8","678","","","","","","","0","1","0","","0.8","0.5","0.5","","","0.8","0.2","","","","","","","","","","","","","","74","J","0","img/none_selected_demo.jpg","true","0","80_20_practice",""
"","bandit","22","157175","0.0-20.0-1.0","89002403","wem/bandit_either_3","A2C7A6E70NYNUI","either","8","502","","","","","","","0","1","0","","0.8","0.5","0.5","","","0.8","0.2","","","","","","","","","","","","","","74","J","0","img/none_selected_demo.jpg","true","0","80_20_practice",""
"","bandit","23","158935","0.0-20.0-2.0","89002403","wem/bandit_either_3","A2C7A6E70NYNUI","either","8","255","","","","","","","0","1","0","","0.8","0.5","0.5","","","0.8","0.2","","","","","","","","","","","","","","74","J","0","img/none_selected_demo.jpg","true","0","80_20_practice",""
"","bandit","24","160780","0.0-20.0-3.0","89002403","wem/bandit_either_3","A2C7A6E70NYNUI","either","8","340","","","","","","","0","0","1","","0.2","0.5","0.5","","","0.8","0.2","","","","","","","","","","","","","","75","K","1","","true","0","80_20_practice",""
"","bandit","25","162662","0.0-20.0-4.0","89002403","wem/bandit_either_3","A2C7A6E70NYNUI","either","8","376","","","","","","","0","1","0","","0.8","0.5","0.5","","","0.8","0.2","","","","","","","","","","","","","","74","J","0","img/none_selected_demo.jpg","true","0","80_20_practice",""
"","bandit","26","164707","0.0-20.0-5.0","89002403","wem/bandit_either_3","A2C7A6E70NYNUI","either","8","539","","","","","","","0","0","1","0.2","","0.5","0.5","","","","","","","0.8","0.2","","","","","","","","","","75","K","1","","true","0","80_20_practice",""
"","bandit","27","166335","0.0-20.0-6.0","89002403","wem/bandit_either_3","A2C7A6E70NYNUI","either","8","122","","","","","","","0","0","1","","0.2","0.5","0.5","","","0.8","0.2","","","","","","","","","","","","","","75","K","1","","true","0","80_20_practice",""
"","bandit","28","168064","0.0-20.0-7.0","89002403","wem/bandit_either_3","A2C7A6E70NYNUI","either","8","224","","","","","","","0","0","1","","0.2","0.5","0.5","","","0.8","0.2","","","","","","","","","","","","","","75","K","1","","true","0","80_20_practice",""
"","bandit","29","169836","0.0-20.0-8.0","89002403","wem/bandit_either_3","A2C7A6E70NYNUI","either","8","266","","","","","","","0","0","1","","0.2","0.5","0.5","","","0.8","0.2","","","","","","","","","","","","","","75","K","1","","true","0","80_20_practice",""
"","bandit","30","171594","0.0-20.0-9.0","89002403","wem/bandit_either_3","A2C7A6E70NYNUI","either","8","251","","","","","","","0","0","1","0.2","","0.5","0.5","","","","","","","0.8","0.2","","","","","","","","","","75","K","1","","true","0","80_20_practice",""
"","bandit","31","173417","0.0-20.0-10.0","89002403","wem/bandit_either_3","A2C7A6E70NYNUI","either","8","316","","","","","","","0","1","0","","0.2","0.5","0.5","","","0.8","0.2","","","","","","","","","","","","","","75","K","1","","true","0","80_20_practice",""
"","bandit","32","175104","0.0-20.0-11.0","89002403","wem/bandit_either_3","A2C7A6E70NYNUI","either","8","181","","","","","","","1","0","0","0.8","","0.5","0.5","","","","","","","0.8","0.2","","","","","","","","","","74","J","0","img/none_selected_demo.jpg","true","0","80_20_practice",""
"","bandit","33","176873","0.0-20.0-12.0","89002403","wem/bandit_either_3","A2C7A6E70NYNUI","either","8","263","","","","","","","1","0","0","0.8","","0.5","0.5","","","","","","","0.8","0.2","","","","","","","","","","74","J","0","img/none_selected_demo.jpg","true","0","80_20_practice",""
"","bandit","34","178676","0.0-20.0-13.0","89002403","wem/bandit_either_3","A2C7A6E70NYNUI","either","8","293","","","","","","","1","0","0","0.8","","0.5","0.5","","","","","","","0.8","0.2","","","","","","","","","","74","J","0","img/none_selected_demo.jpg","true","0","80_20_practice",""
"","bandit","35","180344","0.0-20.0-14.0","89002403","wem/bandit_either_3","A2C7A6E70NYNUI","either","8","162","","","","","","","0","1","0","","0.8","0.5","0.5","","","0.8","0.2","","","","","","","","","","","","","","74","J","0","img/none_selected_demo.jpg","true","0","80_20_practice",""
"","bandit","36","182090","0.0-20.0-15.0","89002403","wem/bandit_either_3","A2C7A6E70NYNUI","either","8","240","","","","","","","0","1","0","","0.2","0.5","0.5","","","0.8","0.2","","","","","","","","","","","","","","75","K","1","","true","0","80_20_practice",""
"","bandit","37","183645","0.0-20.0-16.0","89002403","wem/bandit_either_3","A2C7A6E70NYNUI","either","8","47","","","","","","","0","1","0","","0.8","0.5","0.5","","","0.8","0.2","","","","","","","","","","","","","","74","J","0","img/none_selected_demo.jpg","true","0","80_20_practice",""
"","bandit","38","185402","0.0-20.0-17.0","89002403","wem/bandit_either_3","A2C7A6E70NYNUI","either","8","252","","","","","","","0","0","1","0.8","","0.5","0.5","","","","","","","0.8","0.2","","","","","","","","","","74","J","0","img/none_selected_demo.jpg","true","0","80_20_practice",""
"","bandit","39","187112","0.0-20.0-18.0","89002403","wem/bandit_either_3","A2C7A6E70NYNUI","either","8","205","","","","","","","1","0","0","0.2","","0.5","0.5","","","","","","","0.8","0.2","","","","","","","","","","75","K","1","","true","0","80_20_practice",""
"","bandit","40","188810","0.0-20.0-19.0","89002403","wem/bandit_either_3","A2C7A6E70NYNUI","either","8","191","","","","","","","0","0","1","0.8","","0.5","0.5","","","","","","","0.8","0.2","","","","","","","","","","74","J","0","img/none_selected_demo.jpg","true","0","80_20_practice",""
"","text","41","190744","0.0-21.0","89002403","wem/bandit_either_3","A2C7A6E70NYNUI","either","8","1930","","32","","","","","","","","","","","","","","","","","","","","","","","","","","","","","","","","","","","",""
"","bandit","42","193719","0.0-22.0-0.0","89002403","wem/bandit_either_3","A2C7A6E70NYNUI","either","8","1468","","","","","","","1","0","0","1","0","","","","","0","1","","","1","0","","","","","","","","","","74","J","0","img/none_selected_demo.jpg","true","0","",""
"","text","43","198147","0.0-23.0","89002403","wem/bandit_either_3","A2C7A6E70NYNUI","either","8","4426","","32","","","","","","","","","","","","","","","","","","","","","","","","","","","","","","","","","","","",""
"","text","44","200593","0.0-24.0","89002403","wem/bandit_either_3","A2C7A6E70NYNUI","either","8","2443","","32","","","","","","","","","","","","","","","","","","","","","","","","","","","","","","","","","","","",""
"","text","45","202712","0.0-25.0","89002403","wem/bandit_either_3","A2C7A6E70NYNUI","either","8","2116","","32","","","","","","","","","","","","","","","","","","","","","","","","","","","","","","","","","","","",""
"","text","46","205487","0.0-26.0","89002403","wem/bandit_either_3","A2C7A6E70NYNUI","either","8","2771","","32","","","","","","","","","","","","","","","","","","","","","","","","","","","","","","","","","","","",""
"","text","47","219161","0.0-27.0","89002403","wem/bandit_either_3","A2C7A6E70NYNUI","either","8","13672","","32","","","","","","","","","","","","","","","","","","","","","","","","","","","","","","","","","","","",""
"","text","48","221512","0.0-28.0","89002403","wem/bandit_either_3","A2C7A6E70NYNUI","either","8","2348","","32","","","","","","","","","","","","","","","","","","","","","","","","","","","","","","","","","","","",""
"","text","49","225954","0.0-29.0","89002403","wem/bandit_either_3","A2C7A6E70NYNUI","either","8","4439","","32","","","","","","","","","","","","","","","","","","","","","","","","","","","","","","","","","","","",""
"","text","50","229194","0.0-30.0","89002403","wem/bandit_either_3","A2C7A6E70NYNUI","either","8","3237","","32","","","","","","","","","","","","","","","","","","","","","","","","","","","","","","","","","","","",""
"","text","51","235433","0.0-31.0","89002403","wem/bandit_either_3","A2C7A6E70NYNUI","either","8","6235","","32","","","","","","","","","","","","","","","","","","","","","","","","","","","","","","","","","","","",""
"","text","52","237017","0.0-32.0","89002403","wem/bandit_either_3","A2C7A6E70NYNUI","either","8","1581","","32","","","","","","","","","","","","","","","","","","","","","","","","","","","","","","","","","","","",""
"","text","53","240436","0.0-33.0","89002403","wem/bandit_either_3","A2C7A6E70NYNUI","either","8","3416","","32","","","","","","","","","","","","","","","","","","","","","","","","","","","","","","","","","","","",""
"","bandit","54","242517","0.0-34.0-0.0","89002403","wem/bandit_either_3","A2C7A6E70NYNUI","either","8","574","","","","","","","1","0","0","0.8","","0.5","0.5","0.5","0.5","","","","","0.8","0.2","0.6","0.2","","","","","","","","72","H","0","img/none_selected.jpg","true","0","full_practice",""
"","bandit","55","244317","0.0-34.0-1.0","89002403","wem/bandit_either_3","A2C7A6E70NYNUI","either","8","291","","","","","","","1","0","0","0.8","","0.5","0.5","0.5","0.5","","","","","0.8","0.2","0.6","0.2","","","","","","","","72","H","0","img/none_selected.jpg","true","0","full_practice",""
"","bandit","56","246108","0.0-34.0-2.0","89002403","wem/bandit_either_3","A2C7A6E70NYNUI","either","8","285","","","","","","","0","1","0","","0.8","0.5","0.5","0.5","0.5","0.8","0.2","0.6","0.2","","","","","","","","","","","","72","H","0","img/none_selected.jpg","true","0","full_practice",""
"","bandit","57","247877","0.0-34.0-3.0","89002403","wem/bandit_either_3","A2C7A6E70NYNUI","either","8","263","","","","","","","1","0","0","0.8","","0.5","0.5","0.5","0.5","","","","","0.8","0.2","0.6","0.2","","","","","","","","72","H","0","img/none_selected.jpg","true","0","full_practice",""
"","bandit","58","249741","0.0-34.0-4.0","89002403","wem/bandit_either_3","A2C7A6E70NYNUI","either","8","357","","","","","","","1","0","0","0.8","","0.5","0.5","0.5","0.5","","","","","0.8","0.2","0.6","0.2","","","","","","","","72","H","0","img/none_selected.jpg","true","0","full_practice",""
"","bandit","59","251849","0.0-34.0-5.0","89002403","wem/bandit_either_3","A2C7A6E70NYNUI","either","8","603","","","","","","","0","0","1","","0.2","0.5","0.5","0.5","0.5","0.8","0.2","0.6","0.2","","","","","","","","","","","","74","J","1","","true","0","full_practice",""
"","bandit","60","253620","0.0-34.0-6.0","89002403","wem/bandit_either_3","A2C7A6E70NYNUI","either","8","265","","","","","","","0","0","1","0.2","","0.5","0.5","0.5","0.5","","","","","0.8","0.2","0.6","0.2","","","","","","","","74","J","1","","true","0","full_practice",""
"","bandit","61","255607","0.0-34.0-7.0","89002403","wem/bandit_either_3","A2C7A6E70NYNUI","either","8","478","","","","","","","0","1","0","","0.6","0.5","0.5","0.5","0.5","0.8","0.2","0.6","0.2","","","","","","","","","","","","75","K","2","","true","0","full_practice",""
"","bandit","62","257340","0.0-34.0-8.0","89002403","wem/bandit_either_3","A2C7A6E70NYNUI","either","8","226","","","","","","","0","0","1","","0.6","0.5","0.5","0.5","0.5","0.8","0.2","0.6","0.2","","","","","","","","","","","","75","K","2","","true","0","full_practice",""
"","bandit","63","259082","0.0-34.0-9.0","89002403","wem/bandit_either_3","A2C7A6E70NYNUI","either","8","236","","","","","","","1","0","0","0.2","","0.5","0.5","0.5","0.5","","","","","0.8","0.2","0.6","0.2","","","","","","","","76","L","3","","true","0","full_practice",""
"","bandit","64","260844","0.0-34.0-10.0","89002403","wem/bandit_either_3","A2C7A6E70NYNUI","either","8","257","","","","","","","0","0","1","","0.2","0.5","0.5","0.5","0.5","0.8","0.2","0.6","0.2","","","","","","","","","","","","76","L","3","","true","0","full_practice",""
"","bandit","65","262583","0.0-34.0-11.0","89002403","wem/bandit_either_3","A2C7A6E70NYNUI","either","8","232","","","","","","","0","1","0","","0.8","0.5","0.5","0.5","0.5","0.8","0.2","0.6","0.2","","","","","","","","","","","","72","H","0","img/none_selected.jpg","true","0","full_practice",""
"","bandit","66","264196","0.0-34.0-12.0","89002403","wem/bandit_either_3","A2C7A6E70NYNUI","either","8","107","","","","","","","0","1","0","","0.8","0.5","0.5","0.5","0.5","0.8","0.2","0.6","0.2","","","","","","","","","","","","72","H","0","img/none_selected.jpg","true","0","full_practice",""
"","bandit","67","265934","0.0-34.0-13.0","89002403","wem/bandit_either_3","A2C7A6E70NYNUI","either","8","231","","","","","","","1","0","0","0.8","","0.5","0.5","0.5","0.5","","","","","0.8","0.2","0.6","0.2","","","","","","","","72","H","0","img/none_selected.jpg","true","0","full_practice",""
"","bandit","68","267575","0.0-34.0-14.0","89002403","wem/bandit_either_3","A2C7A6E70NYNUI","either","8","133","","","","","","","0","1","0","","0.8","0.5","0.5","0.5","0.5","0.8","0.2","0.6","0.2","","","","","","","","","","","","72","H","0","img/none_selected.jpg","true","0","full_practice",""
"","bandit","69","269325","0.0-34.0-15.0","89002403","wem/bandit_either_3","A2C7A6E70NYNUI","either","8","243","","","","","","","0","1","0","","0.8","0.5","0.5","0.5","0.5","0.8","0.2","0.6","0.2","","","","","","","","","","","","72","H","0","img/none_selected.jpg","true","0","full_practice",""
"","bandit","70","271068","0.0-34.0-16.0","89002403","wem/bandit_either_3","A2C7A6E70NYNUI","either","8","234","","","","","","","0","0","1","","0.8","0.5","0.5","0.5","0.5","0.8","0.2","0.6","0.2","","","","","","","","","","","","72","H","0","img/none_selected.jpg","true","0","full_practice",""
"","bandit","71","272766","0.0-34.0-17.0","89002403","wem/bandit_either_3","A2C7A6E70NYNUI","either","8","190","","","","","","","0","0","1","0.2","","0.5","0.5","0.5","0.5","","","","","0.8","0.2","0.6","0.2","","","","","","","","74","J","1","","true","0","full_practice",""
"","bandit","72","274391","0.0-34.0-18.0","89002403","wem/bandit_either_3","A2C7A6E70NYNUI","either","8","119","","","","","","","1","0","0","0.6","","0.5","0.5","0.5","0.5","","","","","0.8","0.2","0.6","0.2","","","","","","","","75","K","2","","true","0","full_practice",""
"","bandit","73","276193","0.0-34.0-19.0","89002403","wem/bandit_either_3","A2C7A6E70NYNUI","either","8","296","","","","","","","1","0","0","0.6","","0.5","0.5","0.5","0.5","","","","","0.8","0.2","0.6","0.2","","","","","","","","75","K","2","","true","0","full_practice",""
"","text","74","278336","0.0-35.0","89002403","wem/bandit_either_3","A2C7A6E70NYNUI","either","8","2136","","32","","","","","","","","","","","","","","","","","","","","","","","","","","","","","","","","","","","",""
"","text","75","292207","0.0-36.0","89002403","wem/bandit_either_3","A2C7A6E70NYNUI","either","8","12866","","32","","","","","","","","","","","","","","","","","","","","","","","","","","","","","","","","","","","",""
"","text","76","302224","0.0-37.0","89002403","wem/bandit_either_3","A2C7A6E70NYNUI","either","8","10014","","32","","","","","","","","","","","","","","","","","","","","","","","","","","","","","","","","","","","",""
"","text","77","308595","0.0-38.0","89002403","wem/bandit_either_3","A2C7A6E70NYNUI","either","8","6368","","32","","","","","","","","","","","","","","","","","","","","","","","","","","","","","","","","","","","",""
"","text","78","315574","0.0-39.0","89002403","wem/bandit_either_3","A2C7A6E70NYNUI","either","8","6975","","32","","","","","","","","","","","","","","","","","","","","","","","","","","","","","","","","","","","",""
"","text","79","320471","0.0-40.0","89002403","wem/bandit_either_3","A2C7A6E70NYNUI","either","8","4894","","32","","","","","","","","","","","","","","","","","","","","","","","","","","","","","","","","","","","",""
"","bandit","80","322933","0.0-41.0-0.0","89002403","wem/bandit_either_3","A2C7A6E70NYNUI","either","8","956","","","","","","","0","0","1","","0.2428949588","0.4","0.2","0.8","0.6","0.2428949588","0.6337563202","0.4468950172","0.3040937467","","","","","","","","","","","","72","H","0","img/none_selected.jpg","","1","main_expt",""
"","bandit","81","324820","0.0-42.0-0.0","89002403","wem/bandit_either_3","A2C7A6E70NYNUI","either","8","378","","","","","","","0","0","1","","0.7380673114","0.4","0.2","0.8","0.6","0.248961424","0.7380673114","0.3846124694","0.2687625136","","","","","","","","","","","","74","J","1","","","2","main_expt",""
"","bandit","82","326633","0.0-43.0-0.0","89002403","wem/bandit_either_3","A2C7A6E70NYNUI","either","8","303","","","","","","","1","0","0","0.3885967974","","0.4","0.2","0.8","0.6","","","","","0.1878604038","0.7715549737","0.3885967974","0.3017919557","","","","","","","","75","K","2","","","3","main_expt",""
"","bandit","83","328394","0.0-44.0-0.0","89002403","wem/bandit_either_3","A2C7A6E70NYNUI","either","8","254","","","","","","","0","0","1","0.2891644394","","0.4","0.2","0.8","0.6","","","","","0.1194049449","0.8257013646","0.2891644394","0.3388517529","","","","","","","","75","K","2","","","4","main_expt",""
"","bandit","84","330229","0.0-45.0-0.0","89002403","wem/bandit_either_3","A2C7A6E70NYNUI","either","8","329","","","","","","","0","0","1","0.389096829","","0.4","0.2","0.8","0.6","","","","","0.197046458","0.8617886559","0.2654579937","0.389096829","","","","","","","","76","L","3","","","5","main_expt",""
"","bandit","85","332058","0.0-46.0-0.0","89002403","wem/bandit_either_3","A2C7A6E70NYNUI","either","8","323","","","","","","","1","0","0","0.2312720201","","0.4","0.2","0.8","0.6","","","","","0.2312720201","0.8452125903","0.355160999","0.4799636182","","","","","","","","72","H","0","img/none_selected.jpg","","6","main_expt",""
"","bandit","86","333778","0.0-47.0-0.0","89002403","wem/bandit_either_3","A2C7A6E70NYNUI","either","8","213","","","","","","","0","0","1","0.3255591742","","0.4","0.2","0.8","0.6","","","","","0.3255591742","0.8765288384","0.4733904832","0.5316557606","","","","","","","","72","H","0","img/none_selected.jpg","","7","main_expt",""
"","bandit","87","335521","0.0-48.0-0.0","89002403","wem/bandit_either_3","A2C7A6E70NYNUI","either","8","235","","","","","","","0","1","0","","0.8625068071","0.4","0.2","0.8","0.6","0.163151729","0.8625068071","0.4900136729","0.4935712437","","","","","","","","","","","","74","J","1","","","8","main_expt",""
"","bandit","88","337262","0.0-49.0-0.0","89002403","wem/bandit_either_3","A2C7A6E70NYNUI","either","8","232","","","","","","","0","1","0","","0.8385781597","0.4","0.2","0.8","0.6","0.1671639775","0.8385781597","0.4543552171","0.5400450001","","","","","","","","","","","","74","J","1","","","9","main_expt",""
"","bandit","89","339049","0.0-50.0-0.0","89002403","wem/bandit_either_3","A2C7A6E70NYNUI","either","8","281","","","","","","","0","1","0","","0.833356221","0.4","0.2","0.8","0.6","0.1315225434","0.833356221","0.4523920981","0.6510952772","","","","","","","","","","","","74","J","1","","","10","main_expt",""
"","bandit","90","340724","0.0-51.0-0.0","89002403","wem/bandit_either_3","A2C7A6E70NYNUI","either","8","167","","","","","","","1","0","0","0.9030756702","","0.4","0.2","0.8","0.6","","","","","0.1287002637","0.9030756702","0.4053083118","0.6117649901","","","","","","","","74","J","1","","","11","main_expt",""
"","bandit","91","342506","0.0-52.0-0.0","89002403","wem/bandit_either_3","A2C7A6E70NYNUI","either","8","274","","","","","","","0","0","1","","0.9129290363","0.4","0.2","0.8","0.6","0.1026596936","0.9129290363","0.4059907931","0.6360746298","","","","","","","","","","","","74","J","1","","","12","main_expt",""
"","bandit","92","344279","0.0-53.0-0.0","89002403","wem/bandit_either_3","A2C7A6E70NYNUI","either","8","268","","","","","","","0","0","1","0.2934167972","","0.4","0.2","0.8","0.6","","","","","0.1287514256","0.8638417716","0.2934167972","0.5673960652","","","","","","","","75","K","2","","","13","main_expt",""
"","bandit","93","346101","0.0-54.0-0.0","89002403","wem/bandit_either_3","A2C7A6E70NYNUI","either","8","312","","","","","","","0","0","1","0.6747725803","","0.4","0.2","0.8","0.6","","","","","0.1786171179","0.787806988","0.3260927596","0.6747725803","","","","","","","","76","L","3","","","14","main_expt",""
"","bandit","94","347828","0.0-55.0-0.0","89002403","wem/bandit_either_3","A2C7A6E70NYNUI","either","8","221","","","","","","","0","0","1","0.1459410532","","0.4","0.2","0.8","0.6","","","","","0.1459410532","0.7254212376","0.3355382734","0.6277188345","","","","","","","","72","H","0","img/none_selected.jpg","","15","main_expt",""
"","bandit","95","349658","0.0-56.0-0.0","89002403","wem/bandit_either_3","A2C7A6E70NYNUI","either","8","321","","","","","","","0","0","1","","0.7238415528","0.4","0.2","0.8","0.6","0.2255600906","0.7238415528","0.3040928121","0.5435568235","","","","","","","","","","","","74","J","1","","","16","main_expt",""
"","bandit","96","351403","0.0-57.0-0.0","89002403","wem/bandit_either_3","A2C7A6E70NYNUI","either","8","238","","","","","","","0","0","1","0.2730366263","","0.4","0.2","0.8","0.6","","","","","0.2052013943","0.7796243455","0.2730366263","0.4180161478","","","","","","","","75","K","2","","","17","main_expt",""
"","bandit","97","353210","0.0-58.0-0.0","89002403","wem/bandit_either_3","A2C7A6E70NYNUI","either","8","298","","","","","","","0","1","0","","0.4961111773","0.4","0.2","0.8","0.6","0.1780354615","0.6928902724","0.4105298721","0.4961111773","","","","","","","","","","","","76","L","3","","","18","main_expt",""
"","bandit","98","354940","0.0-59.0-0.0","89002403","wem/bandit_either_3","A2C7A6E70NYNUI","either","8","222","","","","","","","0","0","1","0.445530788","","0.4","0.2","0.8","0.6","","","","","0.1576496117","0.7658630901","0.3586923344","0.445530788","","","","","","","","76","L","3","","","19","main_expt",""
"","bandit","99","356789","0.0-60.0-0.0","89002403","wem/bandit_either_3","A2C7A6E70NYNUI","either","8","339","","","","","","","0","0","1","0.1618752313","","0.4","0.2","0.8","0.6","","","","","0.1618752313","0.7584200513","0.3220075653","0.3443163705","","","","","","","","72","H","0","img/none_selected.jpg","","20","main_expt",""
"","bandit","100","358378","0.0-61.0-0.0","89002403","wem/bandit_either_3","A2C7A6E70NYNUI","either","8","79","","","","","","","0","1","0","","0.7727038765","0.4","0.2","0.8","0.6","0.2152187387","0.7727038765","0.2729660799","0.3012808647","","","","","","","","","","","","74","J","1","","","21","main_expt",""
"","bandit","101","360114","0.0-62.0-0.0","89002403","wem/bandit_either_3","A2C7A6E70NYNUI","either","8","228","","","","","","","0","0","1","","0.8152565923","0.4","0.2","0.8","0.6","0.3547982299","0.8152565923","0.2712352107","0.2882062485","","","","","","","","","","","","74","J","1","","","22","main_expt",""
"","bandit","102","361957","0.0-63.0-0.0","89002403","wem/bandit_either_3","A2C7A6E70NYNUI","either","8","335","","","","","","","1","0","0","0.3390855774","","0.4","0.2","0.8","0.6","","","","","0.323805638","0.7537075358","0.3390855774","0.2113421372","","","","","","","","75","K","2","","","23","main_expt",""
"","bandit","103","363769","0.0-64.0-0.0","89002403","wem/bandit_either_3","A2C7A6E70NYNUI","either","8","304","","","","","","","0","0","1","0.3483259141","","0.4","0.2","0.8","0.6","","","","","0.3588909826","0.7108822858","0.3483259141","0.2201805416","","","","","","","","75","K","2","","","24","main_expt",""
"","bandit","104","365572","0.0-65.0-0.0","89002403","wem/bandit_either_3","A2C7A6E70NYNUI","either","8","296","","","","","","","1","0","0","0.2580956466","","0.4","0.2","0.8","0.6","","","","","0.3885553436","0.6930515954","0.3416976173","0.2580956466","","","","","","","","76","L","3","","","25","main_expt",""
"","bandit","105","367383","0.0-66.0-0.0","89002403","wem/bandit_either_3","A2C7A6E70NYNUI","either","8","303","","","","","","","0","0","1","0.2153432854","","0.4","0.2","0.8","0.6","","","","","0.4871556374","0.6905393417","0.4243476322","0.2153432854","","","","","","","","76","L","3","","","26","main_expt",""
"","bandit","106","369203","0.0-67.0-0.0","89002403","wem/bandit_either_3","A2C7A6E70NYNUI","either","8","314","","","","","","","1","0","0","0.4934119911","","0.4","0.2","0.8","0.6","","","","","0.4934119911","0.7531652131","0.5257754898","0.1727955236","","","","","","","","72","H","0","img/none_selected.jpg","","27","main_expt",""
"","bandit","107","371190","0.0-68.0-0.0","89002403","wem/bandit_either_3","A2C7A6E70NYNUI","either","8","479","","","","","","","0","0","1","0.4322092846","","0.4","0.2","0.8","0.6","","","","","0.4322092846","0.8001777041","0.5246232361","0.1894296703","","","","","","","","72","H","0","img/none_selected.jpg","","28","main_expt",""
"","bandit","108","372939","0.0-69.0-0.0","89002403","wem/bandit_either_3","A2C7A6E70NYNUI","either","8","242","","","","","","","1","0","0","0.8118404327","","0.4","0.2","0.8","0.6","","","","","0.3459113699","0.8118404327","0.375994784","0.2128919211","","","","","","","","74","J","1","","","29","main_expt",""
"","bandit","109","374817","0.0-70.0-0.0","89002403","wem/bandit_either_3","A2C7A6E70NYNUI","either","8","370","","","","","","","0","1","0","","0.7839534503","0.4","0.2","0.8","0.6","0.280789843","0.7839534503","0.2936890161","0.206056468","","","","","","","","","","","","74","J","1","","","30","main_expt",""
"","bandit","110","376653","0.0-71.0-0.0","89002403","wem/bandit_either_3","A2C7A6E70NYNUI","either","8","329","","","","","","","0","1","0","","0.8066372971","0.4","0.2","0.8","0.6","0.2613810438","0.8066372971","0.2878812258","0.1725623241","","","","","","","","","","","","74","J","1","","","31","main_expt",""
"","bandit","111","378704","0.0-72.0-0.0","89002403","wem/bandit_either_3","A2C7A6E70NYNUI","either","8","544","","","","","","","0","1","0","","0.8049259064","0.4","0.2","0.8","0.6","0.3821585683","0.8049259064","0.2451492808","0.1629883914","","","","","","","","","","","","74","J","1","","","32","main_expt",""
"","bandit","112","381394","0.0-73.0-0.0","89002403","wem/bandit_either_3","A2C7A6E70NYNUI","either","8","1181","","","","","","","0","0","1","","0.7891664673","0.4","0.2","0.8","0.6","0.2714925976","0.7891664673","0.2802113289","0.2107911223","","","","","","","","","","","","74","J","1","","","33","main_expt",""
"","bandit","113","383203","0.0-74.0-0.0","89002403","wem/bandit_either_3","A2C7A6E70NYNUI","either","8","302","","","","","","","1","0","0","0.2892342718","","0.4","0.2","0.8","0.6","","","","","0.2755575364","0.7854278051","0.2892342718","0.1025901997","","","","","","","","75","K","2","","","34","main_expt",""
"","bandit","114","385114","0.0-75.0-0.0","89002403","wem/bandit_either_3","A2C7A6E70NYNUI","either","8","403","","","","","","","0","0","1","0.2486893666","","0.4","0.2","0.8","0.6","","","","","0.2697856654","0.7260182018","0.2486893666","0.1289879153","","","","","","","","75","K","2","","","35","main_expt",""
"","bandit","115","386942","0.0-76.0-0.0","89002403","wem/bandit_either_3","A2C7A6E70NYNUI","either","8","320","","","","","","","0","0","1","","0.1645491317","0.4","0.2","0.8","0.6","0.2483646443","0.7910957192","0.3536408983","0.1645491317","","","","","","","","","","","","76","L","3","","","36","main_expt",""
"","bandit","116","388820","0.0-77.0-0.0","89002403","wem/bandit_either_3","A2C7A6E70NYNUI","either","8","371","","","","","","","1","0","0","0.2493566902","","0.4","0.2","0.8","0.6","","","","","0.2103950957","0.7996551039","0.2493566902","0.1698046746","","","","","","","","75","K","2","","","37","main_expt",""
"","bandit","117","391003","0.0-78.0-0.0","89002403","wem/bandit_either_3","A2C7A6E70NYNUI","either","8","674","","","","","","","0","0","1","0.2948354516","","0.4","0.2","0.8","0.6","","","","","0.2128944509","0.6717479894","0.2948354516","0.2281502886","","","","","","","","75","K","2","","","38","main_expt",""
"","bandit","118","392827","0.0-79.0-0.0","89002403","wem/bandit_either_3","A2C7A6E70NYNUI","either","8","315","","","","","","","0","1","0","","0.7121128808","0.4","0.2","0.8","0.6","0.2965153327","0.7121128808","0.3373274679","0.1561271762","","","","","","","","","","","","74","J","1","","","39","main_expt",""
"","bandit","119","395156","0.0-80.0-0.0","89002403","wem/bandit_either_3","A2C7A6E70NYNUI","either","8","822","","","","","","","0","1","0","","0.7157410044","0.4","0.2","0.8","0.6","0.4447532253","0.7157410044","0.4138768052","0.1543620621","","","","","","","","","","","","74","J","1","","","40","main_expt",""
"","bandit","120","396964","0.0-81.0-0.0","89002403","wem/bandit_either_3","A2C7A6E70NYNUI","either","8","300","","","","","","","0","1","0","","0.681196038","0.4","0.2","0.8","0.6","0.5330008696","0.681196038","0.438096834","0.2271499981","","","","","","","","","","","","74","J","1","","","41","main_expt",""
"","bandit","121","398825","0.0-82.0-0.0","89002403","wem/bandit_either_3","A2C7A6E70NYNUI","either","8","353","","","","","","","0","0","1","","0.6504320647","0.4","0.2","0.8","0.6","0.573861049","0.6504320647","0.4185173612","0.2882452936","","","","","","","","","","","","74","J","1","","","42","main_expt",""
"","bandit","122","400615","0.0-83.0-0.0","89002403","wem/bandit_either_3","A2C7A6E70NYNUI","either","8","283","","","","","","","0","0","1","","0.6654349765","0.4","0.2","0.8","0.6","0.6654349765","0.7369830744","0.3796335567","0.298522686","","","","","","","","","","","","72","H","0","img/none_selected.jpg","","43","main_expt",""
"","bandit","123","402382","0.0-84.0-0.0","89002403","wem/bandit_either_3","A2C7A6E70NYNUI","either","8","259","","","","","","","0","0","1","","0.6797935378","0.4","0.2","0.8","0.6","0.691198465","0.6797935378","0.31766129","0.3188886026","","","","","","","","","","","","74","J","1","","","44","main_expt",""
"","bandit","124","404190","0.0-85.0-0.0","89002403","wem/bandit_either_3","A2C7A6E70NYNUI","either","8","298","","","","","","","0","0","1","0.4047397141","","0.4","0.2","0.8","0.6","","","","","0.7652674903","0.6507473666","0.4047397141","0.2705760174","","","","","","","","75","K","2","","","45","main_expt",""
"","bandit","125","405976","0.0-86.0-0.0","89002403","wem/bandit_either_3","A2C7A6E70NYNUI","either","8","279","","","","","","","0","1","0","","0.2506880939","0.4","0.2","0.8","0.6","0.8065230058","0.6334510787","0.4961613307","0.2506880939","","","","","","","","","","","","76","L","3","","","46","main_expt",""
"","bandit","126","407705","0.0-87.0-0.0","89002403","wem/bandit_either_3","A2C7A6E70NYNUI","either","8","222","","","","","","","0","0","1","0.2491585872","","0.4","0.2","0.8","0.6","","","","","0.7774474893","0.6143175143","0.4624468315","0.2491585872","","","","","","","","76","L","3","","","47","main_expt",""
"","bandit","127","409617","0.0-88.0-0.0","89002403","wem/bandit_either_3","A2C7A6E70NYNUI","either","8","403","","","","","","","0","0","1","0.4886537242","","0.4","0.2","0.8","0.6","","","","","0.7693176975","0.6404512611","0.4886537242","0.1997021219","","","","","","","","75","K","2","","","48","main_expt",""
"","bandit","128","411291","0.0-89.0-0.0","89002403","wem/bandit_either_3","A2C7A6E70NYNUI","either","8","167","","","","","","","0","1","0","","0.6758621215","0.4","0.2","0.8","0.6","0.807419373","0.6758621215","0.4270302022","0.2119577724","","","","","","","","","","","","74","J","1","","","49","main_expt",""
"","bandit","129","413369","0.0-90.0-0.0","89002403","wem/bandit_either_3","A2C7A6E70NYNUI","either","8","570","","","","","","","0","1","0","","0.6873234502","0.4","0.2","0.8","0.6","0.8562769227","0.6873234502","0.5151345658","0.2615271711","","","","","","","","","","","","74","J","1","","","50","main_expt",""
"","bandit","130","415160","0.0-91.0-0.0","89002403","wem/bandit_either_3","A2C7A6E70NYNUI","either","8","283","","","","","","","0","1","0","","0.7776044395","0.4","0.2","0.8","0.6","0.8705114925","0.7776044395","0.5134524181","0.2764427577","","","","","","","","","","","","74","J","1","","","51","main_expt",""
"","bandit","131","417008","0.0-92.0-0.0","89002403","wem/bandit_either_3","A2C7A6E70NYNUI","either","8","341","","","","","","","0","1","0","","0.8403410939","0.4","0.2","0.8","0.6","0.9310361031","0.8403410939","0.4842684999","0.3833776697","","","","","","","","","","","","74","J","1","","","52","main_expt",""
"","bandit","132","418894","0.0-93.0-0.0","89002403","wem/bandit_either_3","A2C7A6E70NYNUI","either","8","379","","","","","","","0","1","0","","0.8151983534","0.4","0.2","0.8","0.6","0.905794742","0.8151983534","0.4412850773","0.4356502318","","","","","","","","","","","","74","J","1","","","53","main_expt",""
"","bandit","133","420818","0.0-94.0-0.0","89002403","wem/bandit_either_3","A2C7A6E70NYNUI","either","8","416","","","","","","","0","1","0","","0.8081222638","0.4","0.2","0.8","0.6","0.9391541593","0.8081222638","0.4397693946","0.4120588364","","","","","","","","","","","","74","J","1","","","54","main_expt",""
"","bandit","134","422592","0.0-95.0-0.0","89002403","wem/bandit_either_3","A2C7A6E70NYNUI","either","8","267","","","","","","","0","1","0","","0.742009976","0.4","0.2","0.8","0.6","0.9596285882","0.742009976","0.3928202278","0.2714296105","","","","","","","","","","","","74","J","1","","","55","main_expt",""
"","bandit","135","424534","0.0-96.0-0.0","89002403","wem/bandit_either_3","A2C7A6E70NYNUI","either","8","433","","","","","","","1","0","0","0.7065076074","","0.4","0.2","0.8","0.6","","","","","0.9565658233","0.7065076074","0.4593665993","0.2122311877","","","","","","","","74","J","1","","","56","main_expt",""
"","bandit","136","426569","0.0-97.0-0.0","89002403","wem/bandit_either_3","A2C7A6E70NYNUI","either","8","529","","","","","","","0","1","0","","0.6860695476","0.4","0.2","0.8","0.6","0.9681540372","0.6860695476","0.4006145211","0.2282278588","","","","","","","","","","","","74","J","1","","","57","main_expt",""
"","bandit","137","428575","0.0-98.0-0.0","89002403","wem/bandit_either_3","A2C7A6E70NYNUI","either","8","499","","","","","","","0","0","1","","0.742301155","0.4","0.2","0.8","0.6","0.9207083952","0.742301155","0.4597890412","0.1392076118","","","","","","","","","","","","74","J","1","","","58","main_expt",""
"","bandit","138","430436","0.0-99.0-0.0","89002403","wem/bandit_either_3","A2C7A6E70NYNUI","either","8","353","","","","","","","0","0","1","0.9178227258","","0.4","0.2","0.8","0.6","","","","","0.9178227258","0.5291004622","0.4232266093","0.1706239206","","","","","","","","72","H","0","img/none_selected.jpg","","59","main_expt",""
"","bandit","139","432224","0.0-100.0-0.0","89002403","wem/bandit_either_3","A2C7A6E70NYNUI","either","8","279","","","","","","","1","0","0","0.6348838793","","0.4","0.2","0.8","0.6","","","","","0.8951285427","0.6348838793","0.3565880291","0.1674269281","","","","","","","","74","J","1","","","60","main_expt",""
"","bandit","140","434309","0.0-101.0-0.0","89002403","wem/bandit_either_3","A2C7A6E70NYNUI","either","8","577","","","","","","","0","1","0","","0.6796423313","0.4","0.2","0.8","0.6","0.8506814954","0.6796423313","0.3663276413","0.2182313474","","","","","","","","","","","","74","J","1","","","61","main_expt",""
"","bandit","141","436137","0.0-102.0-0.0","89002403","wem/bandit_either_3","A2C7A6E70NYNUI","either","8","320","","","","","","","0","1","0","","0.6928172916","0.4","0.2","0.8","0.6","0.8513854559","0.6928172916","0.3193005293","0.2949218256","","","","","","","","","","","","74","J","1","","","62","main_expt",""
"","bandit","142","438189","0.0-103.0-0.0","89002403","wem/bandit_either_3","A2C7A6E70NYNUI","either","8","545","","","","","","","0","0","1","","0.6996506825","0.4","0.2","0.8","0.6","0.8927579502","0.6996506825","0.1562068481","0.3170222383","","","","","","","","","","","","74","J","1","","","63","main_expt",""
"","bandit","143","439999","0.0-104.0-0.0","89002403","wem/bandit_either_3","A2C7A6E70NYNUI","either","8","300","","","","","","","0","0","1","","0.2300477965","0.4","0.2","0.8","0.6","0.9217936765","0.7294442249","0.2300477965","0.3033511374","","","","","","","","","","","","75","K","2","","","64","main_expt",""
"","bandit","144","441842","0.0-105.0-0.0","89002403","wem/bandit_either_3","A2C7A6E70NYNUI","either","8","335","","","","","","","0","1","0","","0.3973690147","0.4","0.2","0.8","0.6","0.9357047413","0.6605354899","0.2869838185","0.3973690147","","","","","","","","","","","","76","L","3","","","65","main_expt",""
"","bandit","145","443612","0.0-106.0-0.0","89002403","wem/bandit_either_3","A2C7A6E70NYNUI","either","8","260","","","","","","","0","0","1","0.4320294497","","0.4","0.2","0.8","0.6","","","","","0.910343843","0.6959621059","0.3287476356","0.4320294497","","","","","","","","76","L","3","","","66","main_expt",""
"","bandit","146","445444","0.0-107.0-0.0","89002403","wem/bandit_either_3","A2C7A6E70NYNUI","either","8","324","","","","","","","0","0","1","0.3018365728","","0.4","0.2","0.8","0.6","","","","","0.9022080512","0.653899752","0.3018365728","0.3208465419","","","","","","","","75","K","2","","","67","main_expt",""
"","bandit","147","447166","0.0-108.0-0.0","89002403","wem/bandit_either_3","A2C7A6E70NYNUI","either","8","211","","","","","","","0","1","0","","0.6517851336","0.4","0.2","0.8","0.6","0.8492414063","0.6517851336","0.3208616414","0.3570730799","","","","","","","","","","","","74","J","1","","","68","main_expt",""
"","bandit","148","448958","0.0-109.0-0.0","89002403","wem/bandit_either_3","A2C7A6E70NYNUI","either","8","283","","","","","","","0","1","0","","0.7011615004","0.4","0.2","0.8","0.6","0.768219052","0.7011615004","0.386863802","0.3451514791","","","","","","","","","","","","74","J","1","","","69","main_expt",""
"","bandit","149","450792","0.0-110.0-0.0","89002403","wem/bandit_either_3","A2C7A6E70NYNUI","either","8","325","","","","","","","0","0","1","0.6278947594","","0.4","0.2","0.8","0.6","","","","","0.7996218848","0.6278947594","0.3628244161","0.3127714871","","","","","","","","74","J","1","","","70","main_expt",""
"","bandit","150","452560","0.0-111.0-0.0","89002403","wem/bandit_either_3","A2C7A6E70NYNUI","either","8","256","","","","","","","0","1","0","","0.9130189757","0.4","0.2","0.8","0.6","0.9130189757","0.688517509","0.2969295023","0.3855297895","","","","","","","","","","","","72","H","0","img/none_selected.jpg","","71","main_expt",""
"","bandit","151","454628","0.0-112.0-0.0","89002403","wem/bandit_either_3","A2C7A6E70NYNUI","either","8","559","","","","","","","1","0","0","0.9016843832","","0.4","0.2","0.8","0.6","","","","","0.9016843832","0.6125440106","0.3512325323","0.3555010044","","","","","","","","72","H","0","img/none_selected.jpg","","72","main_expt",""
"","bandit","152","456693","0.0-113.0-0.0","89002403","wem/bandit_either_3","A2C7A6E70NYNUI","either","8","555","","","","","","","0","1","0","","0.9166584401","0.4","0.2","0.8","0.6","0.9166584401","0.4884410468","0.3845321254","0.3278360739","","","","","","","","","","","","72","H","0","img/none_selected.jpg","","73","main_expt",""
"","bandit","153","458739","0.0-114.0-0.0","89002403","wem/bandit_either_3","A2C7A6E70NYNUI","either","8","538","","","","","","","0","0","1","0.8699410266","","0.4","0.2","0.8","0.6","","","","","0.8699410266","0.5800760741","0.3760614253","0.3275161349","","","","","","","","72","H","0","img/none_selected.jpg","","74","main_expt",""
"","bandit","154","460538","0.0-115.0-0.0","89002403","wem/bandit_either_3","A2C7A6E70NYNUI","either","8","291","","","","","","","0","1","0","","0.6614390465","0.4","0.2","0.8","0.6","0.8192171788","0.6614390465","0.370831352","0.3454333807","","","","","","","","","","","","74","J","1","","","75","main_expt",""
"","bandit","155","462340","0.0-116.0-0.0","89002403","wem/bandit_either_3","A2C7A6E70NYNUI","either","8","295","","","","","","","0","0","1","","0.6861570843","0.4","0.2","0.8","0.6","0.8990587115","0.6861570843","0.4008199491","0.4213924804","","","","","","","","","","","","74","J","1","","","76","main_expt",""
"","bandit","156","464181","0.0-117.0-0.0","89002403","wem/bandit_either_3","A2C7A6E70NYNUI","either","8","332","","","","","","","1","0","0","0.3928984844","","0.4","0.2","0.8","0.6","","","","","0.9062137116","0.5980737028","0.3928984844","0.439510692","","","","","","","","75","K","2","","","77","main_expt",""
"","bandit","157","466352","0.0-118.0-0.0","89002403","wem/bandit_either_3","A2C7A6E70NYNUI","either","8","663","","","","","","","0","1","0","","0.4709058574","0.4","0.2","0.8","0.6","0.9215914722","0.6754083514","0.4709058574","0.4419424199","","","","","","","","","","","","75","K","2","","","78","main_expt",""
"","bandit","158","468185","0.0-119.0-0.0","89002403","wem/bandit_either_3","A2C7A6E70NYNUI","either","8","325","","","","","","","0","0","1","0.4971614577","","0.4","0.2","0.8","0.6","","","","","0.895443078","0.7012934339","0.4971614577","0.5056762283","","","","","","","","75","K","2","","","79","main_expt",""
"","bandit","159","470055","0.0-120.0-0.0","89002403","wem/bandit_either_3","A2C7A6E70NYNUI","either","8","362","","","","","","","0","0","1","0.4558190996","","0.4","0.2","0.8","0.6","","","","","0.7789772955","0.7067798052","0.4828267768","0.4558190996","","","","","","","","76","L","3","","","80","main_expt",""
"","bandit","160","471843","0.0-121.0-0.0","89002403","wem/bandit_either_3","A2C7A6E70NYNUI","either","8","279","","","","","","","1","0","0","0.755426824","","0.4","0.2","0.8","0.6","","","","","0.755426824","0.7259433061","0.4280570329","0.4774921548","","","","","","","","72","H","0","img/none_selected.jpg","","81","main_expt",""
"","bandit","161","473827","0.0-122.0-0.0","89002403","wem/bandit_either_3","A2C7A6E70NYNUI","either","8","475","","","","","","","0","1","0","","0.8356426425","0.4","0.2","0.8","0.6","0.8356426425","0.7022130872","0.486136241","0.3611036613","","","","","","","","","","","","72","H","0","img/none_selected.jpg","","82","main_expt",""
"","bandit","162","475801","0.0-123.0-0.0","89002403","wem/bandit_either_3","A2C7A6E70NYNUI","either","8","464","","","","","","","0","0","1","","0.8783145762","0.4","0.2","0.8","0.6","0.8783145762","0.75927227","0.3539143083","0.3341354767","","","","","","","","","","","","72","H","0","img/none_selected.jpg","","83","main_expt",""
"","bandit","163","477524","0.0-124.0-0.0","89002403","wem/bandit_either_3","A2C7A6E70NYNUI","either","8","212","","","","","","","0","1","0","","0.8556046088","0.4","0.2","0.8","0.6","0.9087743635","0.8556046088","0.374811954","0.288479151","","","","","","","","","","","","74","J","1","","","84","main_expt",""
"","bandit","164","479467","0.0-125.0-0.0","89002403","wem/bandit_either_3","A2C7A6E70NYNUI","either","8","431","","","","","","","0","1","0","","0.7835234447","0.4","0.2","0.8","0.6","0.8632011641","0.7835234447","0.4518264681","0.3061923995","","","","","","","","","","","","74","J","1","","","85","main_expt",""
"","bandit","165","481539","0.0-126.0-0.0","89002403","wem/bandit_either_3","A2C7A6E70NYNUI","either","8","563","","","","","","","0","1","0","","0.7037548709","0.4","0.2","0.8","0.6","0.8341253046","0.7037548709","0.461936863","0.3370204437","","","","","","","","","","","","74","J","1","","","86","main_expt",""
"","bandit","166","483383","0.0-127.0-0.0","89002403","wem/bandit_either_3","A2C7A6E70NYNUI","either","8","333","","","","","","","1","0","0","0.6903674631","","0.4","0.2","0.8","0.6","","","","","0.8728746981","0.6903674631","0.3681660755","0.3900809043","","","","","","","","74","J","1","","","87","main_expt",""
"","bandit","167","485416","0.0-128.0-0.0","89002403","wem/bandit_either_3","A2C7A6E70NYNUI","either","8","525","","","","","","","0","1","0","","0.5883284312","0.4","0.2","0.8","0.6","0.8408980459","0.5883284312","0.3788462328","0.4296615172","","","","","","","","","","","","74","J","1","","","88","main_expt",""
"","bandit","168","487660","0.0-129.0-0.0","89002403","wem/bandit_either_3","A2C7A6E70NYNUI","either","8","734","","","","","","","0","1","0","","0.5258490985","0.4","0.2","0.8","0.6","0.8585781628","0.5258490985","0.3316952272","0.4636560077","","","","","","","","","","","","74","J","1","","","89","main_expt",""
"","bandit","169","489526","0.0-130.0-0.0","89002403","wem/bandit_either_3","A2C7A6E70NYNUI","either","8","355","","","","","","","1","0","0","0.6395041767","","0.4","0.2","0.8","0.6","","","","","0.925840658","0.6395041767","0.438068917","0.4463585346","","","","","","","","74","J","1","","","90","main_expt",""
"","bandit","170","491361","0.0-131.0-0.0","89002403","wem/bandit_either_3","A2C7A6E70NYNUI","either","8","323","","","","","","","0","1","0","","0.6931091445","0.4","0.2","0.8","0.6","0.9201841885","0.6931091445","0.5158843935","0.4734463503","","","","","","","","","","","","74","J","1","","","91","main_expt",""
"","bandit","171","493406","0.0-132.0-0.0","89002403","wem/bandit_either_3","A2C7A6E70NYNUI","either","8","535","","","","","","","0","1","0","","0.6725373887","0.4","0.2","0.8","0.6","0.8508076908","0.6725373887","0.5182757575","0.5248255385","","","","","","","","","","","","74","J","1","","","92","main_expt",""
"","bandit","172","495446","0.0-133.0-0.0","89002403","wem/bandit_either_3","A2C7A6E70NYNUI","either","8","529","","","","","","","0","1","0","","0.7388835399","0.4","0.2","0.8","0.6","0.8106711147","0.7388835399","0.5498130742","0.3386726181","","","","","","","","","","","","74","J","1","","","93","main_expt",""
"","bandit","173","497298","0.0-134.0-0.0","89002403","wem/bandit_either_3","A2C7A6E70NYNUI","either","8","336","","","","","","","0","1","0","","0.697373586","0.4","0.2","0.8","0.6","0.8543263914","0.697373586","0.6049407638","0.3718894848","","","","","","","","","","","","74","J","1","","","94","main_expt",""
"","bandit","174","499135","0.0-135.0-0.0","89002403","wem/bandit_either_3","A2C7A6E70NYNUI","either","8","328","","","","","","","0","1","0","","0.7550322224","0.4","0.2","0.8","0.6","0.8387782901","0.7550322224","0.6604115927","0.4005278521","","","","","","","","","","","","74","J","1","","","95","main_expt",""
"","bandit","175","500988","0.0-136.0-0.0","89002403","wem/bandit_either_3","A2C7A6E70NYNUI","either","8","342","","","","","","","0","0","1","","0.6576962358","0.4","0.2","0.8","0.6","0.8208071174","0.6576962358","0.7003847986","0.3694595514","","","","","","","","","","","","74","J","1","","","96","main_expt",""
"","bandit","176","502724","0.0-137.0-0.0","89002403","wem/bandit_either_3","A2C7A6E70NYNUI","either","8","227","","","","","","","1","0","0","0.6793148949","","0.4","0.2","0.8","0.6","","","","","0.765358829","0.6802484638","0.6793148949","0.3186037095","","","","","","","","75","K","2","","","97","main_expt",""
"","bandit","177","504605","0.0-138.0-0.0","89002403","wem/bandit_either_3","A2C7A6E70NYNUI","either","8","371","","","","","","","0","1","0","","0.6204607354","0.4","0.2","0.8","0.6","0.7823463211","0.7042077447","0.6204607354","0.2786717818","","","","","","","","","","","","75","K","2","","","98","main_expt",""
"","bandit","178","506455","0.0-139.0-0.0","89002403","wem/bandit_either_3","A2C7A6E70NYNUI","either","8","342","","","","","","","1","0","0","0.6166262367","","0.4","0.2","0.8","0.6","","","","","0.7523003034","0.7355617892","0.6166262367","0.32929866","","","","","","","","75","K","2","","","99","main_expt",""
"","bandit","179","508375","0.0-140.0-0.0","89002403","wem/bandit_either_3","A2C7A6E70NYNUI","either","8","413","","","","","","","0","0","1","0.5347115766","","0.4","0.2","0.8","0.6","","","","","0.7174790615","0.7117411671","0.5347115766","0.3115323478","","","","","","","","75","K","2","","","100","main_expt",""
"","bandit","180","510183","0.0-141.0-0.0","89002403","wem/bandit_either_3","A2C7A6E70NYNUI","either","8","298","","","","","","","0","0","1","","0.4221749579","0.4","0.2","0.8","0.6","0.7660578318","0.7263903312","0.3418016043","0.4221749579","","","","","","","","","","","","76","L","3","","","101","main_expt",""
"","bandit","181","512013","0.0-142.0-0.0","89002403","wem/bandit_either_3","A2C7A6E70NYNUI","either","8","320","","","","","","","0","0","1","0.2550922237","","0.4","0.2","0.8","0.6","","","","","0.7201180075","0.7357346189","0.2550922237","0.2718078598","","","","","","","","75","K","2","","","102","main_expt",""
"","bandit","182","513807","0.0-143.0-0.0","89002403","wem/bandit_either_3","A2C7A6E70NYNUI","either","8","284","","","","","","","0","1","0","","0.7026134783","0.4","0.2","0.8","0.6","0.8452780714","0.7026134783","0.3181696353","0.3011307106","","","","","","","","","","","","74","J","1","","","103","main_expt",""
"","bandit","183","515670","0.0-144.0-0.0","89002403","wem/bandit_either_3","A2C7A6E70NYNUI","either","8","352","","","","","","","1","0","0","0.8073666152","","0.4","0.2","0.8","0.6","","","","","0.7236924273","0.8073666152","0.3383579412","0.3659291838","","","","","","","","74","J","1","","","104","main_expt",""
"","bandit","184","517431","0.0-145.0-0.0","89002403","wem/bandit_either_3","A2C7A6E70NYNUI","either","8","251","","","","","","","0","1","0","","0.824483439","0.4","0.2","0.8","0.6","0.743719778","0.824483439","0.2354673658","0.3499435223","","","","","","","","","","","","74","J","1","","","105","main_expt",""
"","bandit","185","519208","0.0-146.0-0.0","89002403","wem/bandit_either_3","A2C7A6E70NYNUI","either","8","269","","","","","","","0","1","0","","0.9208810438","0.4","0.2","0.8","0.6","0.7985687284","0.9208810438","0.159398249","0.3602262465","","","","","","","","","","","","74","J","1","","","106","main_expt",""
"","bandit","186","521071","0.0-147.0-0.0","89002403","wem/bandit_either_3","A2C7A6E70NYNUI","either","8","345","","","","","","","1","0","0","0.8911910097","","0.4","0.2","0.8","0.6","","","","","0.799345197","0.8911910097","0.1295169146","0.3252215163","","","","","","","","74","J","1","","","107","main_expt",""
"","bandit","187","522807","0.0-148.0-0.0","89002403","wem/bandit_either_3","A2C7A6E70NYNUI","either","8","228","","","","","","","0","1","0","","0.8450149587","0.4","0.2","0.8","0.6","0.8681690713","0.8450149587","0.07754053308","0.2812406992","","","","","","","","","","","","74","J","1","","","108","main_expt",""
"","bandit","188","524631","0.0-149.0-0.0","89002403","wem/bandit_either_3","A2C7A6E70NYNUI","either","8","313","","","","","","","0","1","0","","0.868327257","0.4","0.2","0.8","0.6","0.8556732204","0.868327257","0.06591215473","0.2559497519","","","","","","","","","","","","74","J","1","","","109","main_expt",""
"","bandit","189","526523","0.0-150.0-0.0","89002403","wem/bandit_either_3","A2C7A6E70NYNUI","either","8","383","","","","","","","0","1","0","","0.8868335222","0.4","0.2","0.8","0.6","0.8669893864","0.8868335222","0.1189546392","0.2817400418","","","","","","","","","","","","74","J","1","","","110","main_expt",""
"","bandit","190","528455","0.0-151.0-0.0","89002403","wem/bandit_either_3","A2C7A6E70NYNUI","either","8","421","","","","","","","0","1","0","","0.8770728171","0.4","0.2","0.8","0.6","0.799383849","0.8770728171","0.09523351692","0.2773620367","","","","","","","","","","","","74","J","1","","","111","main_expt",""
"","bandit","191","530274","0.0-152.0-0.0","89002403","wem/bandit_either_3","A2C7A6E70NYNUI","either","8","307","","","","","","","0","1","0","","0.8481710002","0.4","0.2","0.8","0.6","0.859799476","0.8481710002","0.107489667","0.2833316415","","","","","","","","","","","","74","J","1","","","112","main_expt",""
"","bandit","192","532068","0.0-153.0-0.0","89002403","wem/bandit_either_3","A2C7A6E70NYNUI","either","8","284","","","","","","","0","0","1","","0.8573528835","0.4","0.2","0.8","0.6","0.7932436089","0.8573528835","0.1026187258","0.3433702059","","","","","","","","","","","","74","J","1","","","113","main_expt",""
"","bandit","193","533847","0.0-154.0-0.0","89002403","wem/bandit_either_3","A2C7A6E70NYNUI","either","8","270","","","","","","","0","1","0","","0.849407262","0.4","0.2","0.8","0.6","0.849407262","0.8291807482","0.1044839951","0.4828882278","","","","","","","","","","","","72","H","0","img/none_selected.jpg","","114","main_expt",""
"","bandit","194","535749","0.0-155.0-0.0","89002403","wem/bandit_either_3","A2C7A6E70NYNUI","either","8","394","","","","","","","0","1","0","","0.8882716547","0.4","0.2","0.8","0.6","0.8882716547","0.761972944","0.1213931844","0.54932579","","","","","","","","","","","","72","H","0","img/none_selected.jpg","","115","main_expt",""
"","bandit","195","537669","0.0-156.0-0.0","89002403","wem/bandit_either_3","A2C7A6E70NYNUI","either","8","412","","","","","","","1","0","0","0.8741354715","","0.4","0.2","0.8","0.6","","","","","0.8741354715","0.786197192","0.1184144227","0.6971345968","","","","","","","","72","H","0","img/none_selected.jpg","","116","main_expt",""
"","bandit","196","539807","0.0-157.0-0.0","89002403","wem/bandit_either_3","A2C7A6E70NYNUI","either","8","626","","","","","","","0","1","0","","0.8083823922","0.4","0.2","0.8","0.6","0.8083823922","0.7834453561","0.1983931569","0.5396272374","","","","","","","","","","","","72","H","0","img/none_selected.jpg","","117","main_expt",""
"","bandit","197","541568","0.0-158.0-0.0","89002403","wem/bandit_either_3","A2C7A6E70NYNUI","either","8","252","","","","","","","0","1","0","","0.868525306","0.4","0.2","0.8","0.6","0.868525306","0.6742380839","0.2840039584","0.5544567993","","","","","","","","","","","","72","H","0","img/none_selected.jpg","","118","main_expt",""
"","bandit","198","543404","0.0-159.0-0.0","89002403","wem/bandit_either_3","A2C7A6E70NYNUI","either","8","328","","","","","","","0","0","1","","0.8386471998","0.4","0.2","0.8","0.6","0.8386471998","0.7350700153","0.3563325119","0.5504896642","","","","","","","","","","","","72","H","0","img/none_selected.jpg","","119","main_expt",""
"","bandit","199","545174","0.0-160.0-0.0","89002403","wem/bandit_either_3","A2C7A6E70NYNUI","either","8","260","","","","","","","1","0","0","0.70601835","","0.4","0.2","0.8","0.6","","","","","0.8103559508","0.70601835","0.5682387565","0.5812137135","","","","","","","","74","J","1","","","120","main_expt",""
"","bandit","200","547078","0.0-161.0-0.0","89002403","wem/bandit_either_3","A2C7A6E70NYNUI","either","8","393","","","","","","","0","0","1","","0.7347719752","0.4","0.2","0.8","0.6","0.8193015173","0.7347719752","0.5189107771","0.6033058466","","","","","","","","","","","","74","J","1","","","121","main_expt",""
"","bandit","201","548890","0.0-162.0-0.0","89002403","wem/bandit_either_3","A2C7A6E70NYNUI","either","8","304","","","","","","","0","0","1","","0.4428493372","0.4","0.2","0.8","0.6","0.8025146027","0.8270923978","0.4428493372","0.6102220397","","","","","","","","","","","","75","K","2","","","122","main_expt",""
"","bandit","202","550634","0.0-163.0-0.0","89002403","wem/bandit_either_3","A2C7A6E70NYNUI","either","8","235","","","","","","","1","0","0","0.6108151959","","0.4","0.2","0.8","0.6","","","","","0.8121847492","0.7980631313","0.472724465","0.6108151959","","","","","","","","76","L","3","","","123","main_expt",""
"","bandit","203","552501","0.0-164.0-0.0","89002403","wem/bandit_either_3","A2C7A6E70NYNUI","either","8","358","","","","","","","1","0","0","0.7117385939","","0.4","0.2","0.8","0.6","","","","","0.8299418439","0.7369852887","0.4799585558","0.7117385939","","","","","","","","76","L","3","","","124","main_expt",""
"","bandit","204","554337","0.0-165.0-0.0","89002403","wem/bandit_either_3","A2C7A6E70NYNUI","either","8","325","","","","","","","1","0","0","0.7554186078","","0.4","0.2","0.8","0.6","","","","","0.825688343","0.7465944313","0.5080184993","0.7554186078","","","","","","","","76","L","3","","","125","main_expt",""
"","bandit","205","556190","0.0-166.0-0.0","89002403","wem/bandit_either_3","A2C7A6E70NYNUI","either","8","344","","","","","","","0","1","0","","0.8855751833","0.4","0.2","0.8","0.6","0.8372054396","0.7596834852","0.4555098289","0.8855751833","","","","","","","","","","","","76","L","3","","","126","main_expt",""
"","bandit","206","558069","0.0-167.0-0.0","89002403","wem/bandit_either_3","A2C7A6E70NYNUI","either","8","369","","","","","","","1","0","0","0.8003015049","","0.4","0.2","0.8","0.6","","","","","0.7906689898","0.7398299979","0.5475411796","0.8003015049","","","","","","","","76","L","3","","","127","main_expt",""
"","bandit","207","559902","0.0-168.0-0.0","89002403","wem/bandit_either_3","A2C7A6E70NYNUI","either","8","324","","","","","","","0","1","0","","0.8403113951","0.4","0.2","0.8","0.6","0.8008571507","0.7764866849","0.612647382","0.8403113951","","","","","","","","","","","","76","L","3","","","128","main_expt",""
"","bandit","208","561704","0.0-169.0-0.0","89002403","wem/bandit_either_3","A2C7A6E70NYNUI","either","8","293","","","","","","","1","0","0","0.8826872071","","0.4","0.2","0.8","0.6","","","","","0.7829297973","0.6435675963","0.7128970287","0.8826872071","","","","","","","","76","L","3","","","129","main_expt",""
"","bandit","209","563628","0.0-170.0-0.0","89002403","wem/bandit_either_3","A2C7A6E70NYNUI","either","8","413","","","","","","","0","1","0","","0.8641000085","0.4","0.2","0.8","0.6","0.6898445721","0.7030252038","0.7309911721","0.8641000085","","","","","","","","","","","","76","L","3","","","130","main_expt",""
"","bandit","210","565437","0.0-171.0-0.0","89002403","wem/bandit_either_3","A2C7A6E70NYNUI","either","8","298","","","","","","","0","1","0","","0.8752037592","0.4","0.2","0.8","0.6","0.5864867529","0.6829232191","0.73180147","0.8752037592","","","","","","","","","","","","76","L","3","","","131","main_expt",""
"","bandit","211","567255","0.0-172.0-0.0","89002403","wem/bandit_either_3","A2C7A6E70NYNUI","either","8","308","","","","","","","1","0","0","0.8279556795","","0.4","0.2","0.8","0.6","","","","","0.560122833","0.7406452387","0.8467134838","0.8279556795","","","","","","","","76","L","3","","","132","main_expt",""
"","bandit","212","569160","0.0-173.0-0.0","89002403","wem/bandit_either_3","A2C7A6E70NYNUI","either","8","393","","","","","","","1","0","0","0.8194722428","","0.4","0.2","0.8","0.6","","","","","0.48439517","0.6666234363","0.8481264083","0.8194722428","","","","","","","","76","L","3","","","133","main_expt",""
"","bandit","213","570987","0.0-174.0-0.0","89002403","wem/bandit_either_3","A2C7A6E70NYNUI","either","8","320","","","","","","","0","1","0","","0.8037084922","0.4","0.2","0.8","0.6","0.3919863126","0.680542061","0.8771050955","0.8037084922","","","","","","","","","","","","76","L","3","","","134","main_expt",""
"","bandit","214","572814","0.0-175.0-0.0","89002403","wem/bandit_either_3","A2C7A6E70NYNUI","either","8","318","","","","","","","1","0","0","0.8155916457","","0.4","0.2","0.8","0.6","","","","","0.5174750093","0.7006187635","0.9103241533","0.8155916457","","","","","","","","76","L","3","","","135","main_expt",""
"","bandit","215","574643","0.0-176.0-0.0","89002403","wem/bandit_either_3","A2C7A6E70NYNUI","either","8","319","","","","","","","1","0","0","0.8281957705","","0.4","0.2","0.8","0.6","","","","","0.4264762493","0.6936815578","0.9126032517","0.8281957705","","","","","","","","76","L","3","","","136","main_expt",""
"","bandit","216","576422","0.0-177.0-0.0","89002403","wem/bandit_either_3","A2C7A6E70NYNUI","either","8","270","","","","","","","1","0","0","0.7055403129","","0.4","0.2","0.8","0.6","","","","","0.5351999402","0.6531428085","0.8983360858","0.7055403129","","","","","","","","76","L","3","","","137","main_expt",""
"","bandit","217","578250","0.0-178.0-0.0","89002403","wem/bandit_either_3","A2C7A6E70NYNUI","either","8","319","","","","","","","1","0","0","0.6884351598","","0.4","0.2","0.8","0.6","","","","","0.4758748922","0.6769758131","0.8851370462","0.6884351598","","","","","","","","76","L","3","","","138","main_expt",""
"","bandit","218","580157","0.0-179.0-0.0","89002403","wem/bandit_either_3","A2C7A6E70NYNUI","either","8","397","","","","","","","1","0","0","0.6090423031","","0.4","0.2","0.8","0.6","","","","","0.4039793023","0.7649589049","0.8662270416","0.6090423031","","","","","","","","76","L","3","","","139","main_expt",""
"","bandit","219","581996","0.0-180.0-0.0","89002403","wem/bandit_either_3","A2C7A6E70NYNUI","either","8","328","","","","","","","0","1","0","","0.7000077187","0.4","0.2","0.8","0.6","0.384774136","0.7674202191","0.8345767194","0.7000077187","","","","","","","","","","","","76","L","3","","","140","main_expt",""
"","bandit","220","583916","0.0-181.0-0.0","89002403","wem/bandit_either_3","A2C7A6E70NYNUI","either","8","412","","","","","","","0","0","1","0.6643185619","","0.4","0.2","0.8","0.6","","","","","0.327254859","0.8575114448","0.8783670964","0.6643185619","","","","","","","","76","L","3","","","141","main_expt",""
"","bandit","221","585725","0.0-182.0-0.0","89002403","wem/bandit_either_3","A2C7A6E70NYNUI","either","8","298","","","","","","","1","0","0","0.8895828315","","0.4","0.2","0.8","0.6","","","","","0.4536641492","0.8134430427","0.8895828315","0.7079845674","","","","","","","","75","K","2","","","142","main_expt",""
"","bandit","222","587685","0.0-183.0-0.0","89002403","wem/bandit_either_3","A2C7A6E70NYNUI","either","8","451","","","","","","","0","1","0","","0.8345505038","0.4","0.2","0.8","0.6","0.4348486293","0.8345505038","0.9053928798","0.6624187643","","","","","","","","","","","","74","J","1","","","143","main_expt",""
"","bandit","223","589631","0.0-184.0-0.0","89002403","wem/bandit_either_3","A2C7A6E70NYNUI","either","8","434","","","","","","","0","1","0","","0.7482817554","0.4","0.2","0.8","0.6","0.4086594597","0.7482817554","0.9033088386","0.6779247185","","","","","","","","","","","","74","J","1","","","144","main_expt",""
"","bandit","224","591476","0.0-185.0-0.0","89002403","wem/bandit_either_3","A2C7A6E70NYNUI","either","8","335","","","","","","","0","1","0","","0.7400387939","0.4","0.2","0.8","0.6","0.4420772456","0.7400387939","0.8572864227","0.7216102374","","","","","","","","","","","","74","J","1","","","145","main_expt",""
"","bandit","225","593545","0.0-186.0-0.0","89002403","wem/bandit_either_3","A2C7A6E70NYNUI","either","8","557","","","","","","","0","1","0","","0.795971973","0.4","0.2","0.8","0.6","0.508741462","0.795971973","0.8687508917","0.7837267619","","","","","","","","","","","","74","J","1","","","146","main_expt",""
"","bandit","226","595512","0.0-187.0-0.0","89002403","wem/bandit_either_3","A2C7A6E70NYNUI","either","8","458","","","","","","","0","1","0","","0.7503502301","0.4","0.2","0.8","0.6","0.4624398998","0.7503502301","0.8657621525","0.7652264833","","","","","","","","","","","","74","J","1","","","147","main_expt",""
"","bandit","227","597448","0.0-188.0-0.0","89002403","wem/bandit_either_3","A2C7A6E70NYNUI","either","8","426","","","","","","","1","0","0","0.8200474043","","0.4","0.2","0.8","0.6","","","","","0.4062589849","0.8200474043","0.8362891365","0.7358716413","","","","","","","","74","J","1","","","148","main_expt",""
"","bandit","228","599260","0.0-189.0-0.0","89002403","wem/bandit_either_3","A2C7A6E70NYNUI","either","8","302","","","","","","","0","1","0","","0.8509010271","0.4","0.2","0.8","0.6","0.4895331913","0.8509010271","0.8144386017","0.7129200786","","","","","","","","","","","","74","J","1","","","149","main_expt",""
"","bandit","229","601287","0.0-190.0-0.0","89002403","wem/bandit_either_3","A2C7A6E70NYNUI","either","8","519","","","","","","","1","0","0","0.8298908313","","0.4","0.2","0.8","0.6","","","","","0.4704746919","0.8298908313","0.6948055455","0.705531668","","","","","","","","74","J","1","","","150","main_expt",""
"","bandit","230","603067","0.0-191.0-0.0","89002403","wem/bandit_either_3","A2C7A6E70NYNUI","either","8","270","","","","","","","0","1","0","","0.7362749002","0.4","0.2","0.8","0.6","0.4725745774","0.7362749002","0.6231991314","0.5744604188","","","","","","","","","","","","74","J","1","","","151","main_expt",""
"","bandit","231","604994","0.0-192.0-0.0","89002403","wem/bandit_either_3","A2C7A6E70NYNUI","either","8","417","","","","","","","0","1","0","","0.7601791643","0.4","0.2","0.8","0.6","0.4943906398","0.7601791643","0.7045057733","0.5372669321","","","","","","","","","","","","74","J","1","","","152","main_expt",""
"","bandit","232","606863","0.0-193.0-0.0","89002403","wem/bandit_either_3","A2C7A6E70NYNUI","either","8","361","","","","","","","0","1","0","","0.7590648118","0.4","0.2","0.8","0.6","0.4639524782","0.7590648118","0.5331338622","0.5447545218","","","","","","","","","","","","74","J","1","","","153","main_expt",""
"","bandit","233","608700","0.0-194.0-0.0","89002403","wem/bandit_either_3","A2C7A6E70NYNUI","either","8","328","","","","","","","0","1","0","","0.7805387907","0.4","0.2","0.8","0.6","0.3935792086","0.7805387907","0.5096720896","0.4191749193","","","","","","","","","","","","74","J","1","","","154","main_expt",""
"","bandit","234","610478","0.0-195.0-0.0","89002403","wem/bandit_either_3","A2C7A6E70NYNUI","either","8","269","","","","","","","0","1","0","","0.8450805748","0.4","0.2","0.8","0.6","0.4127348605","0.8450805748","0.4719011365","0.4269770229","","","","","","","","","","","","74","J","1","","","155","main_expt",""
"","bandit","235","612253","0.0-196.0-0.0","89002403","wem/bandit_either_3","A2C7A6E70NYNUI","either","8","266","","","","","","","0","1","0","","0.8513110265","0.4","0.2","0.8","0.6","0.3697675558","0.8513110265","0.5818713095","0.4589862704","","","","","","","","","","","","74","J","1","","","156","main_expt",""
"","bandit","236","614062","0.0-197.0-0.0","89002403","wem/bandit_either_3","A2C7A6E70NYNUI","either","8","298","","","","","","","0","1","0","","0.8226236001","0.4","0.2","0.8","0.6","0.3604398023","0.8226236001","0.5804022203","0.5370818316","","","","","","","","","","","","74","J","1","","","157","main_expt",""
"","bandit","237","616063","0.0-198.0-0.0","89002403","wem/bandit_either_3","A2C7A6E70NYNUI","either","8","490","","","","","","","0","1","0","","0.8843141367","0.4","0.2","0.8","0.6","0.4061750625","0.8843141367","0.4773166223","0.4757376888","","","","","","","","","","","","74","J","1","","","158","main_expt",""
"","bandit","238","617985","0.0-199.0-0.0","89002403","wem/bandit_either_3","A2C7A6E70NYNUI","either","8","410","","","","","","","0","1","0","","0.8078798749","0.4","0.2","0.8","0.6","0.4696417586","0.8078798749","0.419048585","0.4887287223","","","","","","","","","","","","74","J","1","","","159","main_expt",""
"","bandit","239","619968","0.0-200.0-0.0","89002403","wem/bandit_either_3","A2C7A6E70NYNUI","either","8","467","","","","","","","0","1","0","","0.7689164465","0.4","0.2","0.8","0.6","0.4659569923","0.7689164465","0.4672574386","0.4588489809","","","","","","","","","","","","74","J","1","","","160","main_expt",""
"","bandit","240","621889","0.0-201.0-0.0","89002403","wem/bandit_either_3","A2C7A6E70NYNUI","either","8","409","","","","","","","0","1","0","","0.7863156869","0.4","0.2","0.8","0.6","0.3947207546","0.7863156869","0.5612985374","0.4920004413","","","","","","","","","","","","74","J","1","","","161","main_expt",""
"","bandit","241","623974","0.0-202.0-0.0","89002403","wem/bandit_either_3","A2C7A6E70NYNUI","either","8","573","","","","","","","0","1","0","","0.8098475403","0.4","0.2","0.8","0.6","0.2460097942","0.8098475403","0.5288680036","0.5389881207","","","","","","","","","","","","74","J","1","","","162","main_expt",""
"","bandit","242","625748","0.0-203.0-0.0","89002403","wem/bandit_either_3","A2C7A6E70NYNUI","either","8","264","","","","","","","0","0","1","","0.8222712862","0.4","0.2","0.8","0.6","0.3603606056","0.8222712862","0.6096883849","0.6040136001","","","","","","","","","","","","74","J","1","","","163","main_expt",""
"","bandit","243","627348","0.0-204.0-0.0","89002403","wem/bandit_either_3","A2C7A6E70NYNUI","either","8","88","","","","","","","0","0","1","","0.2507209727","0.4","0.2","0.8","0.6","0.2507209727","0.7876031225","0.4868922288","0.623756827","","","","","","","","","","","","72","H","0","img/none_selected.jpg","","164","main_expt",""
"","bandit","244","629092","0.0-205.0-0.0","89002403","wem/bandit_either_3","A2C7A6E70NYNUI","either","8","232","","","","","","","0","0","1","","0.6164515281","0.4","0.2","0.8","0.6","0.2162043423","0.7435052823","0.4055552053","0.6164515281","","","","","","","","","","","","76","L","3","","","165","main_expt",""
"","bandit","245","630889","0.0-206.0-0.0","89002403","wem/bandit_either_3","A2C7A6E70NYNUI","either","8","285","","","","","","","0","1","0","","0.4748236382","0.4","0.2","0.8","0.6","0.2573409732","0.6545739251","0.4748236382","0.4660222187","","","","","","","","","","","","75","K","2","","","166","main_expt",""
"","bandit","246","632486","0.0-207.0-0.0","89002403","wem/bandit_either_3","A2C7A6E70NYNUI","either","8","85","","","","","","","1","0","0","0.4725242185","","0.4","0.2","0.8","0.6","","","","","0.4016088623","0.6645907447","0.4725242185","0.3336058786","","","","","","","","75","K","2","","","167","main_expt",""
"","bandit","247","634250","0.0-208.0-0.0","89002403","wem/bandit_either_3","A2C7A6E70NYNUI","either","8","252","","","","","","","1","0","0","0.4775208721","","0.4","0.2","0.8","0.6","","","","","0.5522858252","0.7243751722","0.4775208721","0.2887723434","","","","","","","","75","K","2","","","168","main_expt",""
"","bandit","248","635906","0.0-209.0-0.0","89002403","wem/bandit_either_3","A2C7A6E70NYNUI","either","8","143","","","","","","","0","0","1","0.4682732781","","0.4","0.2","0.8","0.6","","","","","0.5461138513","0.6453105543","0.4682732781","0.3357056981","","","","","","","","75","K","2","","","169","main_expt",""
"","bandit","249","637556","0.0-210.0-0.0","89002403","wem/bandit_either_3","A2C7A6E70NYNUI","either","8","138","","","","","","","0","0","1","0.5334010147","","0.4","0.2","0.8","0.6","","","","","0.4402798015","0.5334010147","0.4246621539","0.4179693295","","","","","","","","74","J","1","","","170","main_expt",""
"","bandit","250","639376","0.0-211.0-0.0","89002403","wem/bandit_either_3","A2C7A6E70NYNUI","either","8","309","","","","","","","1","0","0","0.450294849","","0.4","0.2","0.8","0.6","","","","","0.450294849","0.498122785","0.2843380906","0.3050406521","","","","","","","","72","H","0","img/none_selected.jpg","","171","main_expt",""
"","bandit","251","641099","0.0-212.0-0.0","89002403","wem/bandit_either_3","A2C7A6E70NYNUI","either","8","213","","","","","","","0","1","0","","0.6475755847","0.4","0.2","0.8","0.6","0.6475755847","0.4356988635","0.2668952485","0.3364500029","","","","","","","","","","","","72","H","0","img/none_selected.jpg","","172","main_expt",""
"","bandit","252","642925","0.0-213.0-0.0","89002403","wem/bandit_either_3","A2C7A6E70NYNUI","either","8","312","","","","","","","0","1","0","","0.6095255177","0.4","0.2","0.8","0.6","0.6095255177","0.3964199688","0.3802819164","0.421339117","","","","","","","","","","","","72","H","0","img/none_selected.jpg","","173","main_expt",""
"","bandit","253","644648","0.0-214.0-0.0","89002403","wem/bandit_either_3","A2C7A6E70NYNUI","either","8","212","","","","","","","0","0","1","0.5003628493","","0.4","0.2","0.8","0.6","","","","","0.5003628493","0.3194345802","0.4042455133","0.4913704717","","","","","","","","72","H","0","img/none_selected.jpg","","174","main_expt",""
"","bandit","254","646374","0.0-215.0-0.0","89002403","wem/bandit_either_3","A2C7A6E70NYNUI","either","8","213","","","","","","","1","0","0","0.5882611891","","0.4","0.2","0.8","0.6","","","","","0.5576212716","0.2865230234","0.4393989914","0.5882611891","","","","","","","","76","L","3","","","175","main_expt",""
"","bandit","255","648225","0.0-216.0-0.0","89002403","wem/bandit_either_3","A2C7A6E70NYNUI","either","8","341","","","","","","","0","0","1","0.6313830356","","0.4","0.2","0.8","0.6","","","","","0.6230679906","0.3352692614","0.4705173801","0.6313830356","","","","","","","","76","L","3","","","176","main_expt",""
"","bandit","256","649901","0.0-217.0-0.0","89002403","wem/bandit_either_3","A2C7A6E70NYNUI","either","8","165","","","","","","","0","0","1","0.4698597734","","0.4","0.2","0.8","0.6","","","","","0.6501784685","0.3389264817","0.4698597734","0.5531265137","","","","","","","","75","K","2","","","177","main_expt",""
"","bandit","257","651879","0.0-218.0-0.0","89002403","wem/bandit_either_3","A2C7A6E70NYNUI","either","8","464","","","","","","","0","1","0","","0.3709673039","0.4","0.2","0.8","0.6","0.6334155083","0.3709673039","0.3570804947","0.4621004187","","","","","","","","","","","","74","J","1","","","178","main_expt",""
"","bandit","258","653831","0.0-219.0-0.0","89002403","wem/bandit_either_3","A2C7A6E70NYNUI","either","8","441","","","","","","","0","0","1","","0.2940579202","0.4","0.2","0.8","0.6","0.7548338289","0.2940579202","0.3441184995","0.512884041","","","","","","","","","","","","74","J","1","","","179","main_expt",""
"","bandit","259","655360","0.0-220.0-0.0","89002403","wem/bandit_either_3","A2C7A6E70NYNUI","either","8","18","","","","","","","0","0","1","0.8074073351","","0.4","0.2","0.8","0.6","","","","","0.8074073351","0.3218724025","0.3646136501","0.506744284","","","","","","","","72","H","0","img/none_selected.jpg","","180","main_expt",""
"","bandit","260","657165","0.0-221.0-0.0","89002403","wem/bandit_either_3","A2C7A6E70NYNUI","either","8","295","","","","","","","0","0","1","0.4556494723","","0.4","0.2","0.8","0.6","","","","","0.780721516","0.3633286182","0.3777688814","0.4556494723","","","","","","","","76","L","3","","","181","main_expt",""
"","bandit","261","658774","0.0-222.0-0.0","89002403","wem/bandit_either_3","A2C7A6E70NYNUI","either","8","95","","","","","","","0","0","1","0.4578236703","","0.4","0.2","0.8","0.6","","","","","0.7647415088","0.3324048704","0.4578236703","0.4494525508","","","","","","","","75","K","2","","","182","main_expt",""
"","bandit","262","660574","0.0-223.0-0.0","89002403","wem/bandit_either_3","A2C7A6E70NYNUI","either","8","287","","","","","","","0","1","0","","0.3092830871","0.4","0.2","0.8","0.6","0.7349307529","0.3092830871","0.4244895098","0.5189143621","","","","","","","","","","","","74","J","1","","","183","main_expt",""
"","bandit","263","662292","0.0-224.0-0.0","89002403","wem/bandit_either_3","A2C7A6E70NYNUI","either","8","208","","","","","","","0","0","1","","0.3905692936","0.4","0.2","0.8","0.6","0.8298088288","0.3905692936","0.3566779322","0.5167606333","","","","","","","","","","","","74","J","1","","","184","main_expt",""
"","bandit","264","664095","0.0-225.0-0.0","89002403","wem/bandit_either_3","A2C7A6E70NYNUI","either","8","292","","","","","","","0","0","1","0.7894193193","","0.4","0.2","0.8","0.6","","","","","0.7894193193","0.4626192444","0.3737416658","0.5270237034","","","","","","","","72","H","0","img/none_selected.jpg","","185","main_expt",""
"","bandit","265","666115","0.0-226.0-0.0","89002403","wem/bandit_either_3","A2C7A6E70NYNUI","either","8","509","","","","","","","1","0","0","0.5556036571","","0.4","0.2","0.8","0.6","","","","","0.7665022487","0.6061762586","0.3120176694","0.5556036571","","","","","","","","76","L","3","","","186","main_expt",""
"","bandit","266","667964","0.0-227.0-0.0","89002403","wem/bandit_either_3","A2C7A6E70NYNUI","either","8","337","","","","","","","0","1","0","","0.5865134094","0.4","0.2","0.8","0.6","0.7394266891","0.530958695","0.4134691065","0.5865134094","","","","","","","","","","","","76","L","3","","","187","main_expt",""
"","bandit","267","669667","0.0-228.0-0.0","89002403","wem/bandit_either_3","A2C7A6E70NYNUI","either","8","192","","","","","","","0","0","1","0.5034866795","","0.4","0.2","0.8","0.6","","","","","0.6567361442","0.380024655","0.4637770407","0.5034866795","","","","","","","","76","L","3","","","188","main_expt",""
"","bandit","268","671581","0.0-229.0-0.0","89002403","wem/bandit_either_3","A2C7A6E70NYNUI","either","8","402","","","","","","","0","0","1","0.5739034088","","0.4","0.2","0.8","0.6","","","","","0.6572443956","0.4563575644","0.5739034088","0.5761715841","","","","","","","","75","K","2","","","189","main_expt",""
"","bandit","269","673248","0.0-230.0-0.0","89002403","wem/bandit_either_3","A2C7A6E70NYNUI","either","8","154","","","","","","","1","0","0","0.4540853102","","0.4","0.2","0.8","0.6","","","","","0.6735764162","0.4540853102","0.5859504021","0.5325489933","","","","","","","","74","J","1","","","190","main_expt",""
"","bandit","270","675074","0.0-231.0-0.0","89002403","wem/bandit_either_3","A2C7A6E70NYNUI","either","8","312","","","","","","","0","0","1","0.4328006462","","0.4","0.2","0.8","0.6","","","","","0.5997518312","0.4328006462","0.5325822721","0.5614919892","","","","","","","","74","J","1","","","191","main_expt",""
"","bandit","271","676710","0.0-232.0-0.0","89002403","wem/bandit_either_3","A2C7A6E70NYNUI","either","8","126","","","","","","","0","0","1","","0.6582178794","0.4","0.2","0.8","0.6","0.6582178794","0.4979354652","0.4622441745","0.5972832049","","","","","","","","","","","","72","H","0","img/none_selected.jpg","","192","main_expt",""
"","bandit","272","678522","0.0-233.0-0.0","89002403","wem/bandit_either_3","A2C7A6E70NYNUI","either","8","301","","","","","","","0","0","1","","0.6997951875","0.4","0.2","0.8","0.6","0.7246172867","0.4887187701","0.4765036663","0.6997951875","","","","","","","","","","","","76","L","3","","","193","main_expt",""
"","bandit","273","680034","0.0-234.0-0.0","89002403","wem/bandit_either_3","A2C7A6E70NYNUI","either","8","1","","","","","","","0","0","1","0.4504155567","","0.4","0.2","0.8","0.6","","","","","0.7721250451","0.4993882896","0.4504155567","0.7511051992","","","","","","","","75","K","2","","","194","main_expt",""
"","bandit","274","681840","0.0-235.0-0.0","89002403","wem/bandit_either_3","A2C7A6E70NYNUI","either","8","293","","","","","","","0","0","1","","0.5011331455","0.4","0.2","0.8","0.6","0.8366496483","0.5011331455","0.4354252764","0.8281457055","","","","","","","","","","","","74","J","1","","","195","main_expt",""
"","bandit","275","683452","0.0-236.0-0.0","89002403","wem/bandit_either_3","A2C7A6E70NYNUI","either","8","100","","","","","","","1","0","0","0.8484646997","","0.4","0.2","0.8","0.6","","","","","0.8484646997","0.4487960683","0.4170899215","0.8248544968","","","","","","","","72","H","0","img/none_selected.jpg","","196","main_expt",""
"","bandit","276","685295","0.0-237.0-0.0","89002403","wem/bandit_either_3","A2C7A6E70NYNUI","either","8","332","","","","","","","0","1","0","","0.8734060335","0.4","0.2","0.8","0.6","0.8734060335","0.3975590019","0.4149059055","0.8532714289","","","","","","","","","","","","72","H","0","img/none_selected.jpg","","197","main_expt",""
"","bandit","277","687078","0.0-238.0-0.0","89002403","wem/bandit_either_3","A2C7A6E70NYNUI","either","8","272","","","","","","","0","0","1","0.8515360685","","0.4","0.2","0.8","0.6","","","","","0.8515360685","0.4161601929","0.4737306044","0.7587337752","","","","","","","","72","H","0","img/none_selected.jpg","","198","main_expt",""
"","bandit","278","688696","0.0-239.0-0.0","89002403","wem/bandit_either_3","A2C7A6E70NYNUI","either","8","108","","","","","","","0","1","0","","0.8124408481","0.4","0.2","0.8","0.6","0.8805923715","0.4483979408","0.4541760911","0.8124408481","","","","","","","","","","","","76","L","3","","","199","main_expt",""
"","bandit","279","690333","0.0-240.0-0.0","89002403","wem/bandit_either_3","A2C7A6E70NYNUI","either","8","125","","","","","","","1","0","0","0.7935778268","","0.4","0.2","0.8","0.6","","","","","0.9645818821","0.5303380975","0.3964714959","0.7935778268","","","","","","","","76","L","3","","","200","main_expt",""
"","bandit","280","691942","0.0-241.0-0.0","89002403","wem/bandit_either_3","A2C7A6E70NYNUI","either","8","96","","","","","","","1","0","0","0.736942723","","0.4","0.2","0.8","0.6","","","","","0.9689478708","0.4014045657","0.3815447649","0.736942723","","","","","","","","76","L","3","","","201","main_expt",""
"","bandit","281","693769","0.0-242.0-0.0","89002403","wem/bandit_either_3","A2C7A6E70NYNUI","either","8","316","","","","","","","0","0","1","0.7001951276","","0.4","0.2","0.8","0.6","","","","","0.9678291885","0.5115169607","0.3726367513","0.7001951276","","","","","","","","76","L","3","","","202","main_expt",""
"","bandit","282","695382","0.0-243.0-0.0","89002403","wem/bandit_either_3","A2C7A6E70NYNUI","either","8","101","","","","","","","0","0","1","0.3062653216","","0.4","0.2","0.8","0.6","","","","","0.9633244117","0.5026191452","0.3062653216","0.7209300446","","","","","","","","75","K","2","","","203","main_expt",""
"","bandit","283","697132","0.0-244.0-0.0","89002403","wem/bandit_either_3","A2C7A6E70NYNUI","either","8","237","","","","","","","0","0","1","","0.4736298566","0.4","0.2","0.8","0.6","0.9730812582","0.4736298566","0.2848501254","0.8574132932","","","","","","","","","","","","74","J","1","","","204","main_expt",""
"","bandit","284","698963","0.0-245.0-0.0","89002403","wem/bandit_either_3","A2C7A6E70NYNUI","either","8","316","","","","","","","1","0","0","0.9521206422","","0.4","0.2","0.8","0.6","","","","","0.9521206422","0.6121858428","0.3457586416","0.9038760074","","","","","","","","72","H","0","img/none_selected.jpg","","205","main_expt",""
"","bandit","285","700797","0.0-246.0-0.0","89002403","wem/bandit_either_3","A2C7A6E70NYNUI","either","8","322","","","","","","","1","0","0","0.9614764056","","0.4","0.2","0.8","0.6","","","","","0.9614764056","0.6377028942","0.4609097875","0.9273356803","","","","","","","","72","H","0","img/none_selected.jpg","","206","main_expt",""
"","bandit","286","702637","0.0-247.0-0.0","89002403","wem/bandit_either_3","A2C7A6E70NYNUI","either","8","329","","","","","","","0","1","0","","0.9625830716","0.4","0.2","0.8","0.6","0.9625830716","0.5700483165","0.4980316736","0.9502037039","","","","","","","","","","","","72","H","0","img/none_selected.jpg","","207","main_expt",""
"","bandit","287","704445","0.0-248.0-0.0","89002403","wem/bandit_either_3","A2C7A6E70NYNUI","either","8","297","","","","","","","0","1","0","","0.9359306517","0.4","0.2","0.8","0.6","0.9359306517","0.624428721","0.4537691537","0.944094639","","","","","","","","","","","","72","H","0","img/none_selected.jpg","","208","main_expt",""
"","bandit","288","706311","0.0-249.0-0.0","89002403","wem/bandit_either_3","A2C7A6E70NYNUI","either","8","355","","","","","","","1","0","0","0.9632917203","","0.4","0.2","0.8","0.6","","","","","0.9632917203","0.4861871301","0.4475842875","0.9070839441","","","","","","","","72","H","0","img/none_selected.jpg","","209","main_expt",""
"","bandit","289","708454","0.0-250.0-0.0","89002403","wem/bandit_either_3","A2C7A6E70NYNUI","either","8","615","","","","","","","1","0","0","0.9633226214","","0.4","0.2","0.8","0.6","","","","","0.9633226214","0.3956361612","0.4803454055","0.8960653589","","","","","","","","72","H","0","img/none_selected.jpg","","210","main_expt",""
"","bandit","290","710284","0.0-251.0-0.0","89002403","wem/bandit_either_3","A2C7A6E70NYNUI","either","8","317","","","","","","","1","0","0","0.9719781217","","0.4","0.2","0.8","0.6","","","","","0.9719781217","0.3599204452","0.4126443349","0.9155455821","","","","","","","","72","H","0","img/none_selected.jpg","","211","main_expt",""
"","bandit","291","712173","0.0-252.0-0.0","89002403","wem/bandit_either_3","A2C7A6E70NYNUI","either","8","377","","","","","","","0","1","0","","0.9700781686","0.4","0.2","0.8","0.6","0.9700781686","0.3349000901","0.3384802849","0.9087954588","","","","","","","","","","","","72","H","0","img/none_selected.jpg","","212","main_expt",""
"","bandit","292","714268","0.0-253.0-0.0","89002403","wem/bandit_either_3","A2C7A6E70NYNUI","either","8","583","","","","","","","1","0","0","0.971165811","","0.4","0.2","0.8","0.6","","","","","0.971165811","0.3183344176","0.3039242722","0.8528540962","","","","","","","","72","H","0","img/none_selected.jpg","","213","main_expt",""
"","bandit","293","716088","0.0-254.0-0.0","89002403","wem/bandit_either_3","A2C7A6E70NYNUI","either","8","307","","","","","","","0","1","0","","0.9627117","0.4","0.2","0.8","0.6","0.9627117","0.2390758011","0.4541530846","0.8506041988","","","","","","","","","","","","72","H","0","img/none_selected.jpg","","214","main_expt",""
"","bandit","294","718076","0.0-255.0-0.0","89002403","wem/bandit_either_3","A2C7A6E70NYNUI","either","8","474","","","","","","","0","1","0","","0.9552130497","0.4","0.2","0.8","0.6","0.9552130497","0.1997060473","0.5101749692","0.8001829978","","","","","","","","","","","","72","H","0","img/none_selected.jpg","","215","main_expt",""
"","bandit","295","720073","0.0-256.0-0.0","89002403","wem/bandit_either_3","A2C7A6E70NYNUI","either","8","484","","","","","","","1","0","0","0.9220350188","","0.4","0.2","0.8","0.6","","","","","0.9220350188","0.2326539104","0.5580520347","0.733614842","","","","","","","","72","H","0","img/none_selected.jpg","","216","main_expt",""
"","bandit","296","721969","0.0-257.0-0.0","89002403","wem/bandit_either_3","A2C7A6E70NYNUI","either","8","385","","","","","","","0","1","0","","0.8736667029","0.4","0.2","0.8","0.6","0.8736667029","0.2319826337","0.4368451062","0.7479737912","","","","","","","","","","","","72","H","0","img/none_selected.jpg","","217","main_expt",""
"","bandit","297","723643","0.0-258.0-0.0","89002403","wem/bandit_either_3","A2C7A6E70NYNUI","either","8","161","","","","","","","0","1","0","","0.7602784417","0.4","0.2","0.8","0.6","0.7602784417","0.3143382807","0.3963441813","0.7713398237","","","","","","","","","","","","72","H","0","img/none_selected.jpg","","218","main_expt",""
"","bandit","298","725556","0.0-259.0-0.0","89002403","wem/bandit_either_3","A2C7A6E70NYNUI","either","8","400","","","","","","","0","1","0","","0.7643050859","0.4","0.2","0.8","0.6","0.7643050859","0.3304972923","0.4809426617","0.8077055691","","","","","","","","","","","","72","H","0","img/none_selected.jpg","","219","main_expt",""
"","bandit","299","727383","0.0-260.0-0.0","89002403","wem/bandit_either_3","A2C7A6E70NYNUI","either","8","315","","","","","","","0","1","0","","0.7793587236","0.4","0.2","0.8","0.6","0.7793587236","0.2866104843","0.397759556","0.7778114837","","","","","","","","","","","","72","H","0","img/none_selected.jpg","","220","main_expt",""
"","bandit","300","729324","0.0-261.0-0.0","89002403","wem/bandit_either_3","A2C7A6E70NYNUI","either","8","429","","","","","","","1","0","0","0.82086311","","0.4","0.2","0.8","0.6","","","","","0.82086311","0.3602561646","0.4087677593","0.7214198583","","","","","","","","72","H","0","img/none_selected.jpg","","221","main_expt",""
"","bandit","301","731106","0.0-262.0-0.0","89002403","wem/bandit_either_3","A2C7A6E70NYNUI","either","8","271","","","","","","","1","0","0","0.8543662658","","0.4","0.2","0.8","0.6","","","","","0.8543662658","0.3228749062","0.4561280915","0.8091526303","","","","","","","","72","H","0","img/none_selected.jpg","","222","main_expt",""
"","bandit","302","732757","0.0-263.0-0.0","89002403","wem/bandit_either_3","A2C7A6E70NYNUI","either","8","139","","","","","","","1","0","0","0.8599459829","","0.4","0.2","0.8","0.6","","","","","0.8599459829","0.2549485676","0.4419858618","0.8240838469","","","","","","","","72","H","0","img/none_selected.jpg","","223","main_expt",""
"","bandit","303","734564","0.0-264.0-0.0","89002403","wem/bandit_either_3","A2C7A6E70NYNUI","either","8","294","","","","","","","0","1","0","","0.8747991669","0.4","0.2","0.8","0.6","0.8747991669","0.2389333491","0.494409337","0.7670685714","","","","","","","","","","","","72","H","0","img/none_selected.jpg","","224","main_expt",""
"","bandit","304","736376","0.0-265.0-0.0","89002403","wem/bandit_either_3","A2C7A6E70NYNUI","either","8","300","","","","","","","0","1","0","","0.7910409491","0.4","0.2","0.8","0.6","0.7910409491","0.1517307125","0.3713348049","0.8775689376","","","","","","","","","","","","72","H","0","img/none_selected.jpg","","225","main_expt",""
"","bandit","305","738218","0.0-266.0-0.0","89002403","wem/bandit_either_3","A2C7A6E70NYNUI","either","8","328","","","","","","","0","1","0","","0.7212928749","0.4","0.2","0.8","0.6","0.7212928749","0.1002450003","0.4013452417","0.8846504348","","","","","","","","","","","","72","H","0","img/none_selected.jpg","","226","main_expt",""
"","bandit","306","739971","0.0-267.0-0.0","89002403","wem/bandit_either_3","A2C7A6E70NYNUI","either","8","241","","","","","","","0","1","0","","0.7090989562","0.4","0.2","0.8","0.6","0.7090989562","0.1049945928","0.393451628","0.851087938","","","","","","","","","","","","72","H","0","img/none_selected.jpg","","227","main_expt",""
"","bandit","307","741858","0.0-268.0-0.0","89002403","wem/bandit_either_3","A2C7A6E70NYNUI","either","8","375","","","","","","","1","0","0","0.6606736223","","0.4","0.2","0.8","0.6","","","","","0.6606736223","0.03915988122","0.4175844788","0.9074720337","","","","","","","","72","H","0","img/none_selected.jpg","","228","main_expt",""
"","bandit","308","743674","0.0-269.0-0.0","89002403","wem/bandit_either_3","A2C7A6E70NYNUI","either","8","306","","","","","","","1","0","0","0.6893924153","","0.4","0.2","0.8","0.6","","","","","0.6893924153","0.03767516843","0.408368909","0.872332114","","","","","","","","72","H","0","img/none_selected.jpg","","229","main_expt",""
"","bandit","309","745532","0.0-270.0-0.0","89002403","wem/bandit_either_3","A2C7A6E70NYNUI","either","8","345","","","","","","","0","0","1","","0.6067604319","0.4","0.2","0.8","0.6","0.6067604319","0.05804790214","0.4777699032","0.7967167456","","","","","","","","","","","","72","H","0","img/none_selected.jpg","","230","main_expt",""
"","bandit","310","747152","0.0-271.0-0.0","89002403","wem/bandit_either_3","A2C7A6E70NYNUI","either","8","108","","","","","","","0","0","1","","0.7760618079","0.4","0.2","0.8","0.6","0.5037419277","0.04963095007","0.4935442242","0.7760618079","","","","","","","","","","","","76","L","3","","","231","main_expt",""
"","bandit","311","748747","0.0-272.0-0.0","89002403","wem/bandit_either_3","A2C7A6E70NYNUI","either","8","83","","","","","","","1","0","0","0.4889590317","","0.4","0.2","0.8","0.6","","","","","0.4339479185","0.03759782928","0.4889590317","0.7765467853","","","","","","","","75","K","2","","","232","main_expt",""
"","bandit","312","750507","0.0-273.0-0.0","89002403","wem/bandit_either_3","A2C7A6E70NYNUI","either","8","246","","","","","","","1","0","0","0.5212294662","","0.4","0.2","0.8","0.6","","","","","0.4525546635","0.03147013274","0.5212294662","0.7895219362","","","","","","","","75","K","2","","","233","main_expt",""
"","bandit","313","752177","0.0-274.0-0.0","89002403","wem/bandit_either_3","A2C7A6E70NYNUI","either","8","158","","","","","","","1","0","0","0.4420617392","","0.4","0.2","0.8","0.6","","","","","0.3680080929","0.03547440544","0.4420617392","0.7491899586","","","","","","","","75","K","2","","","234","main_expt",""
"","bandit","314","754016","0.0-275.0-0.0","89002403","wem/bandit_either_3","A2C7A6E70NYNUI","either","8","328","","","","","","","1","0","0","0.4816955248","","0.4","0.2","0.8","0.6","","","","","0.3416373547","0.04486782706","0.4816955248","0.7397351474","","","","","","","","75","K","2","","","235","main_expt",""
"","bandit","315","756206","0.0-276.0-0.0","89002403","wem/bandit_either_3","A2C7A6E70NYNUI","either","8","677","","","","","","","0","0","1","","0.3028121716","0.4","0.2","0.8","0.6","0.3722877153","0.03122339122","0.3028121716","0.6587673302","","","","","","","","","","","","75","K","2","","","236","main_expt",""
"","bandit","316","758002","0.0-277.0-0.0","89002403","wem/bandit_either_3","A2C7A6E70NYNUI","either","8","282","","","","","","","0","0","1","","0.04191117605","0.4","0.2","0.8","0.6","0.3081002542","0.04191117605","0.3802502189","0.7534934878","","","","","","","","","","","","74","J","1","","","237","main_expt",""
"","bandit","317","760193","0.0-278.0-0.0","89002403","wem/bandit_either_3","A2C7A6E70NYNUI","either","8","677","","","","","","","0","0","1","","0.2546656634","0.4","0.2","0.8","0.6","0.2546656634","0.06367740527","0.4160754302","0.8023031038","","","","","","","","","","","","72","H","0","img/none_selected.jpg","","238","main_expt",""
"","bandit","318","762032","0.0-279.0-0.0","89002403","wem/bandit_either_3","A2C7A6E70NYNUI","either","8","324","","","","","","","1","0","0","0.8333986962","","0.4","0.2","0.8","0.6","","","","","0.3038323055","0.06315957527","0.3510440385","0.8333986962","","","","","","","","76","L","3","","","239","main_expt",""
"","bandit","319","763860","0.0-280.0-0.0","89002403","wem/bandit_either_3","A2C7A6E70NYNUI","either","8","315","","","","","","","1","0","0","0.840768508","","0.4","0.2","0.8","0.6","","","","","0.291884511","0.05324295338","0.4182550587","0.840768508","","","","","","","","76","L","3","","","240","main_expt",""
"","bandit","320","765653","0.0-281.0-0.0","89002403","wem/bandit_either_3","A2C7A6E70NYNUI","either","8","279","","","","","","","1","0","0","0.823006268","","0.4","0.2","0.8","0.6","","","","","0.3124975621","0.04641095239","0.5037088371","0.823006268","","","","","","","","76","L","3","","","241","main_expt",""
"","bandit","321","767426","0.0-282.0-0.0","89002403","wem/bandit_either_3","A2C7A6E70NYNUI","either","8","261","","","","","","","0","0","1","","0.8152254121","0.4","0.2","0.8","0.6","0.3637146884","0.04954190216","0.4877747003","0.8152254121","","","","","","","","","","","","76","L","3","","","242","main_expt",""
"","bandit","322","769255","0.0-283.0-0.0","89002403","wem/bandit_either_3","A2C7A6E70NYNUI","either","8","315","","","","","","","0","0","1","0.5007011316","","0.4","0.2","0.8","0.6","","","","","0.3304840913","0.05592390002","0.5007011316","0.8377493118","","","","","","","","75","K","2","","","243","main_expt",""
"","bandit","323","771059","0.0-284.0-0.0","89002403","wem/bandit_either_3","A2C7A6E70NYNUI","either","8","290","","","","","","","0","0","1","","0.03808637997","0.4","0.2","0.8","0.6","0.4067767971","0.03808637997","0.5730304632","0.8258586067","","","","","","","","","","","","74","J","1","","","244","main_expt",""
"","bandit","324","772824","0.0-285.0-0.0","89002403","wem/bandit_either_3","A2C7A6E70NYNUI","either","8","252","","","","","","","1","0","0","0.4091901929","","0.4","0.2","0.8","0.6","","","","","0.4091901929","0.02077199453","0.6096531262","0.7889424323","","","","","","","","72","H","0","img/none_selected.jpg","","245","main_expt",""
