"consent","trial_type","trial_index","time_elapsed","internal_node_id","subjID","study","MID","cond","drift","rt","responses","key_press","expt_phase","like","value","connected","gems","bombs","no_reward","GemPrChosen","BombPrChosen","GainOverPainPr_0","GainOverPainPr_1","GainOverPainPr_2","GainOverPainPr_3","LosePr_0","LosePr_1","LosePr_2","LosePr_3","WinPr_0","WinPr_1","WinPr_2","WinPr_3","Q0","Q1","Q2","gender","age","ethnicity","target","respCharCode","respKey","respChoiceNum","respChoice","practice","trial_counter","trial_label","button_pressed"
"INL_behavioral_consent_30min_online.html","consent","0","40109","0.0-0.0","89114491","wem/bandit_either_3","A18E19QXO73YM4","either","1","","","","","","","","","","","","","","","","","","","","","","","","","","","","","","","","","","","","","","",""
"","survey-text","1","52262","0.0-1.0","89114491","wem/bandit_either_3","A18E19QXO73YM4","either","1","11141","{""Q0"":""A18E19QXO73YM4""}","","","","","","","","","","","","","","","","","","","","","","","","","","","","","","","","","","","","",""
"","text","2","72031","0.0-2.0","89114491","wem/bandit_either_3","A18E19QXO73YM4","either","1","18763","","32","","","","","","","","","","","","","","","","","","","","","","","","","","","","","","","","","","","",""
"","text","3","80527","0.0-3.0","89114491","wem/bandit_either_3","A18E19QXO73YM4","either","1","8493","","32","","","","","","","","","","","","","","","","","","","","","","","","","","","","","","","","","","","",""
"","text","4","97675","0.0-4.0","89114491","wem/bandit_either_3","A18E19QXO73YM4","either","1","17140","","32","","","","","","","","","","","","","","","","","","","","","","","","","","","","","","","","","","","",""
"","text","5","112371","0.0-5.0","89114491","wem/bandit_either_3","A18E19QXO73YM4","either","1","14688","","32","","","","","","","","","","","","","","","","","","","","","","","","","","","","","","","","","","","",""
"","text","6","153257","0.0-6.0","89114491","wem/bandit_either_3","A18E19QXO73YM4","either","1","40882","","32","","","","","","","","","","","","","","","","","","","","","","","","","","","","","","","","","","","",""
"","text","7","163777","0.0-7.0","89114491","wem/bandit_either_3","A18E19QXO73YM4","either","1","10514","","32","","","","","","","","","","","","","","","","","","","","","","","","","","","","","","","","","","","",""
"","text","8","170681","0.0-8.0","89114491","wem/bandit_either_3","A18E19QXO73YM4","either","1","6900","","32","","","","","","","","","","","","","","","","","","","","","","","","","","","","","","","","","","","",""
"","identification","9","185246","0.0-9.0-0.0","89114491","wem/bandit_either_3","A18E19QXO73YM4","either","1","14516","","","","5","5","4","","","","","","","","","","","","","","","","","","","","","","","","the village of Zur","","","","","","","",""
"","identification","10","195930","0.0-9.0-1.0","89114491","wem/bandit_either_3","A18E19QXO73YM4","either","1","9658","","","","1","2","0","","","","","","","","","","","","","","","","","","","","","","","","the village of Nyx","","","","","","","",""
"","text","11","203681","0.0-10.0","89114491","wem/bandit_either_3","A18E19QXO73YM4","either","1","6743","","32","","","","","","","","","","","","","","","","","","","","","","","","","","","","","","","","","","","",""
"","text","12","209160","0.0-11.0","89114491","wem/bandit_either_3","A18E19QXO73YM4","either","1","5472","","32","","","","","","","","","","","","","","","","","","","","","","","","","","","","","","","","","","","",""
"","text","13","211719","0.0-12.0","89114491","wem/bandit_either_3","A18E19QXO73YM4","either","1","2552","","32","","","","","","","","","","","","","","","","","","","","","","","","","","","","","","","","","","","",""
"","text","14","218222","0.0-13.0","89114491","wem/bandit_either_3","A18E19QXO73YM4","either","1","6496","","32","","","","","","","","","","","","","","","","","","","","","","","","","","","","","","","","","","","",""
"","bandit","15","222118","0.0-14.0-0.0","89114491","wem/bandit_either_3","A18E19QXO73YM4","either","1","2364","","","","","","","0","0","1","0","0","","","","","0","","","","0","","","","","","","","","","","74","J","0","img/none_selected_demo.jpg","true","0","",""
"","bandit","16","225001","0.0-15.0-0.0","89114491","wem/bandit_either_3","A18E19QXO73YM4","either","1","1370","","","","","","","0","0","1","0","0","","","","","0","","","","0","","","","","","","","","","","75","K","0","img/none_selected_demo.jpg","true","0","",""
"","text","17","235198","0.0-16.0","89114491","wem/bandit_either_3","A18E19QXO73YM4","either","1","10195","","32","","","","","","","","","","","","","","","","","","","","","","","","","","","","","","","","","","","",""
"","text","18","244351","0.0-17.0","89114491","wem/bandit_either_3","A18E19QXO73YM4","either","1","9149","","32","","","","","","","","","","","","","","","","","","","","","","","","","","","","","","","","","","","",""
"","text","19","256322","0.0-18.0","89114491","wem/bandit_either_3","A18E19QXO73YM4","either","1","11969","","32","","","","","","","","","","","","","","","","","","","","","","","","","","","","","","","","","","","",""
"","text","20","261420","0.0-19.0","89114491","wem/bandit_either_3","A18E19QXO73YM4","either","1","5092","","32","","","","","","","","","","","","","","","","","","","","","","","","","","","","","","","","","","","",""
"","bandit","21","264267","0.0-20.0-0.0","89114491","wem/bandit_either_3","A18E19QXO73YM4","either","1","1320","","","","","","","0","1","0","","0.2","0.5","0.5","","","0.8","0.2","","","","","","","","","","","","","","75","K","1","","true","0","80_20_practice",""
"","bandit","22","266399","0.0-20.0-1.0","89114491","wem/bandit_either_3","A18E19QXO73YM4","either","1","588","","","","","","","0","0","1","0.2","","0.5","0.5","","","","","","","0.8","0.2","","","","","","","","","","75","K","1","","true","0","80_20_practice",""
"","bandit","23","268261","0.0-20.0-2.0","89114491","wem/bandit_either_3","A18E19QXO73YM4","either","1","347","","","","","","","0","1","0","","0.2","0.5","0.5","","","0.8","0.2","","","","","","","","","","","","","","75","K","1","","true","0","80_20_practice",""
"","bandit","24","270453","0.0-20.0-3.0","89114491","wem/bandit_either_3","A18E19QXO73YM4","either","1","633","","","","","","","0","0","1","","0.2","0.5","0.5","","","0.8","0.2","","","","","","","","","","","","","","75","K","1","","true","0","80_20_practice",""
"","bandit","25","272317","0.0-20.0-4.0","89114491","wem/bandit_either_3","A18E19QXO73YM4","either","1","350","","","","","","","0","0","1","","0.8","0.5","0.5","","","0.8","0.2","","","","","","","","","","","","","","74","J","0","img/none_selected_demo.jpg","true","0","80_20_practice",""
"","bandit","26","274133","0.0-20.0-5.0","89114491","wem/bandit_either_3","A18E19QXO73YM4","either","1","299","","","","","","","1","0","0","0.8","","0.5","0.5","","","","","","","0.8","0.2","","","","","","","","","","74","J","0","img/none_selected_demo.jpg","true","0","80_20_practice",""
"","bandit","27","276065","0.0-20.0-6.0","89114491","wem/bandit_either_3","A18E19QXO73YM4","either","1","417","","","","","","","1","0","0","0.8","","0.5","0.5","","","","","","","0.8","0.2","","","","","","","","","","74","J","0","img/none_selected_demo.jpg","true","0","80_20_practice",""
"","bandit","28","277883","0.0-20.0-7.0","89114491","wem/bandit_either_3","A18E19QXO73YM4","either","1","303","","","","","","","0","1","0","","0.8","0.5","0.5","","","0.8","0.2","","","","","","","","","","","","","","74","J","0","img/none_selected_demo.jpg","true","0","80_20_practice",""
"","bandit","29","279716","0.0-20.0-8.0","89114491","wem/bandit_either_3","A18E19QXO73YM4","either","1","315","","","","","","","1","0","0","0.8","","0.5","0.5","","","","","","","0.8","0.2","","","","","","","","","","74","J","0","img/none_selected_demo.jpg","true","0","80_20_practice",""
"","bandit","30","281548","0.0-20.0-9.0","89114491","wem/bandit_either_3","A18E19QXO73YM4","either","1","298","","","","","","","0","1","0","","0.8","0.5","0.5","","","0.8","0.2","","","","","","","","","","","","","","74","J","0","img/none_selected_demo.jpg","true","0","80_20_practice",""
"","bandit","31","283496","0.0-20.0-10.0","89114491","wem/bandit_either_3","A18E19QXO73YM4","either","1","414","","","","","","","0","0","1","0.8","","0.5","0.5","","","","","","","0.8","0.2","","","","","","","","","","74","J","0","img/none_selected_demo.jpg","true","0","80_20_practice",""
"","bandit","32","285265","0.0-20.0-11.0","89114491","wem/bandit_either_3","A18E19QXO73YM4","either","1","258","","","","","","","0","0","1","0.8","","0.5","0.5","","","","","","","0.8","0.2","","","","","","","","","","74","J","0","img/none_selected_demo.jpg","true","0","80_20_practice",""
"","bandit","33","286956","0.0-20.0-12.0","89114491","wem/bandit_either_3","A18E19QXO73YM4","either","1","173","","","","","","","0","1","0","","0.8","0.5","0.5","","","0.8","0.2","","","","","","","","","","","","","","74","J","0","img/none_selected_demo.jpg","true","0","80_20_practice",""
"","bandit","34","288706","0.0-20.0-13.0","89114491","wem/bandit_either_3","A18E19QXO73YM4","either","1","237","","","","","","","0","0","1","","0.2","0.5","0.5","","","0.8","0.2","","","","","","","","","","","","","","75","K","1","","true","0","80_20_practice",""
"","bandit","35","292819","0.0-20.0-14.0","89114491","wem/bandit_either_3","A18E19QXO73YM4","either","1","2600","","","","","","","0","0","1","","0.2","0.5","0.5","","","0.8","0.2","","","","","","","","","","","","","","75","K","1","","true","0","80_20_practice",""
"","bandit","36","294531","0.0-20.0-15.0","89114491","wem/bandit_either_3","A18E19QXO73YM4","either","1","196","","","","","","","0","0","1","0.2","","0.5","0.5","","","","","","","0.8","0.2","","","","","","","","","","75","K","1","","true","0","80_20_practice",""
"","bandit","37","296304","0.0-20.0-16.0","89114491","wem/bandit_either_3","A18E19QXO73YM4","either","1","261","","","","","","","0","0","1","","0.2","0.5","0.5","","","0.8","0.2","","","","","","","","","","","","","","75","K","1","","true","0","80_20_practice",""
"","bandit","38","298244","0.0-20.0-17.0","89114491","wem/bandit_either_3","A18E19QXO73YM4","either","1","425","","","","","","","0","0","1","","0.2","0.5","0.5","","","0.8","0.2","","","","","","","","","","","","","","75","K","1","","true","0","80_20_practice",""
"","bandit","39","300033","0.0-20.0-18.0","89114491","wem/bandit_either_3","A18E19QXO73YM4","either","1","272","","","","","","","0","1","0","","0.8","0.5","0.5","","","0.8","0.2","","","","","","","","","","","","","","74","J","0","img/none_selected_demo.jpg","true","0","80_20_practice",""
"","bandit","40","301820","0.0-20.0-19.0","89114491","wem/bandit_either_3","A18E19QXO73YM4","either","1","258","","","","","","","1","0","0","0.8","","0.5","0.5","","","","","","","0.8","0.2","","","","","","","","","","74","J","0","img/none_selected_demo.jpg","true","0","80_20_practice",""
"","text","41","306383","0.0-21.0","89114491","wem/bandit_either_3","A18E19QXO73YM4","either","1","4560","","32","","","","","","","","","","","","","","","","","","","","","","","","","","","","","","","","","","","",""
"","bandit","42","309408","0.0-22.0-0.0","89114491","wem/bandit_either_3","A18E19QXO73YM4","either","1","1509","","","","","","","1","0","0","1","0","","","","","0","1","","","1","0","","","","","","","","","","74","J","0","img/none_selected_demo.jpg","true","0","",""
"","text","43","327650","0.0-23.0","89114491","wem/bandit_either_3","A18E19QXO73YM4","either","1","18235","","32","","","","","","","","","","","","","","","","","","","","","","","","","","","","","","","","","","","",""
"","text","44","334083","0.0-24.0","89114491","wem/bandit_either_3","A18E19QXO73YM4","either","1","6424","","32","","","","","","","","","","","","","","","","","","","","","","","","","","","","","","","","","","","",""
"","text","45","341222","0.0-25.0","89114491","wem/bandit_either_3","A18E19QXO73YM4","either","1","7135","","32","","","","","","","","","","","","","","","","","","","","","","","","","","","","","","","","","","","",""
"","text","46","345934","0.0-26.0","89114491","wem/bandit_either_3","A18E19QXO73YM4","either","1","4701","","32","","","","","","","","","","","","","","","","","","","","","","","","","","","","","","","","","","","",""
"","text","47","357405","0.0-27.0","89114491","wem/bandit_either_3","A18E19QXO73YM4","either","1","11462","","32","","","","","","","","","","","","","","","","","","","","","","","","","","","","","","","","","","","",""
"","text","48","361574","0.0-28.0","89114491","wem/bandit_either_3","A18E19QXO73YM4","either","1","4166","","32","","","","","","","","","","","","","","","","","","","","","","","","","","","","","","","","","","","",""
"","text","49","368751","0.0-29.0","89114491","wem/bandit_either_3","A18E19QXO73YM4","either","1","7171","","32","","","","","","","","","","","","","","","","","","","","","","","","","","","","","","","","","","","",""
"","text","50","373930","0.0-30.0","89114491","wem/bandit_either_3","A18E19QXO73YM4","either","1","5172","","32","","","","","","","","","","","","","","","","","","","","","","","","","","","","","","","","","","","",""
"","text","51","382239","0.0-31.0","89114491","wem/bandit_either_3","A18E19QXO73YM4","either","1","8306","","32","","","","","","","","","","","","","","","","","","","","","","","","","","","","","","","","","","","",""
"","text","52","385335","0.0-32.0","89114491","wem/bandit_either_3","A18E19QXO73YM4","either","1","3091","","32","","","","","","","","","","","","","","","","","","","","","","","","","","","","","","","","","","","",""
"","text","53","388093","0.0-33.0","89114491","wem/bandit_either_3","A18E19QXO73YM4","either","1","2751","","32","","","","","","","","","","","","","","","","","","","","","","","","","","","","","","","","","","","",""
"","bandit","54","391138","0.0-34.0-0.0","89114491","wem/bandit_either_3","A18E19QXO73YM4","either","1","1519","","","","","","","0","1","0","","0.8","0.5","0.5","0.5","0.5","0.8","0.2","0.6","0.2","","","","","","","","","","","","72","H","0","img/none_selected.jpg","true","0","full_practice",""
"","bandit","55","393004","0.0-34.0-1.0","89114491","wem/bandit_either_3","A18E19QXO73YM4","either","1","348","","","","","","","0","1","0","","0.8","0.5","0.5","0.5","0.5","0.8","0.2","0.6","0.2","","","","","","","","","","","","72","H","0","img/none_selected.jpg","true","0","full_practice",""
"","bandit","56","394757","0.0-34.0-2.0","89114491","wem/bandit_either_3","A18E19QXO73YM4","either","1","236","","","","","","","0","1","0","","0.8","0.5","0.5","0.5","0.5","0.8","0.2","0.6","0.2","","","","","","","","","","","","72","H","0","img/none_selected.jpg","true","0","full_practice",""
"","bandit","57","396541","0.0-34.0-3.0","89114491","wem/bandit_either_3","A18E19QXO73YM4","either","1","266","","","","","","","0","0","1","","0.8","0.5","0.5","0.5","0.5","0.8","0.2","0.6","0.2","","","","","","","","","","","","72","H","0","img/none_selected.jpg","true","0","full_practice",""
"","bandit","58","398381","0.0-34.0-4.0","89114491","wem/bandit_either_3","A18E19QXO73YM4","either","1","323","","","","","","","0","0","1","0.2","","0.5","0.5","0.5","0.5","","","","","0.8","0.2","0.6","0.2","","","","","","","","74","J","1","","true","0","full_practice",""
"","bandit","59","400205","0.0-34.0-5.0","89114491","wem/bandit_either_3","A18E19QXO73YM4","either","1","307","","","","","","","0","0","1","0.2","","0.5","0.5","0.5","0.5","","","","","0.8","0.2","0.6","0.2","","","","","","","","74","J","1","","true","0","full_practice",""
"","bandit","60","402004","0.0-34.0-6.0","89114491","wem/bandit_either_3","A18E19QXO73YM4","either","1","282","","","","","","","0","0","1","","0.2","0.5","0.5","0.5","0.5","0.8","0.2","0.6","0.2","","","","","","","","","","","","74","J","1","","true","0","full_practice",""
"","bandit","61","403759","0.0-34.0-7.0","89114491","wem/bandit_either_3","A18E19QXO73YM4","either","1","244","","","","","","","0","0","1","","0.2","0.5","0.5","0.5","0.5","0.8","0.2","0.6","0.2","","","","","","","","","","","","74","J","1","","true","0","full_practice",""
"","bandit","62","405540","0.0-34.0-8.0","89114491","wem/bandit_either_3","A18E19QXO73YM4","either","1","267","","","","","","","1","0","0","0.6","","0.5","0.5","0.5","0.5","","","","","0.8","0.2","0.6","0.2","","","","","","","","75","K","2","","true","0","full_practice",""
"","bandit","63","407329","0.0-34.0-9.0","89114491","wem/bandit_either_3","A18E19QXO73YM4","either","1","271","","","","","","","1","0","0","0.6","","0.5","0.5","0.5","0.5","","","","","0.8","0.2","0.6","0.2","","","","","","","","75","K","2","","true","0","full_practice",""
"","bandit","64","409149","0.0-34.0-10.0","89114491","wem/bandit_either_3","A18E19QXO73YM4","either","1","302","","","","","","","0","1","0","","0.6","0.5","0.5","0.5","0.5","0.8","0.2","0.6","0.2","","","","","","","","","","","","75","K","2","","true","0","full_practice",""
"","bandit","65","410956","0.0-34.0-11.0","89114491","wem/bandit_either_3","A18E19QXO73YM4","either","1","282","","","","","","","0","0","1","","0.6","0.5","0.5","0.5","0.5","0.8","0.2","0.6","0.2","","","","","","","","","","","","75","K","2","","true","0","full_practice",""
"","bandit","66","412746","0.0-34.0-12.0","89114491","wem/bandit_either_3","A18E19QXO73YM4","either","1","250","","","","","","","0","0","1","","0.2","0.5","0.5","0.5","0.5","0.8","0.2","0.6","0.2","","","","","","","","","","","","76","L","3","","true","0","full_practice",""
"","bandit","67","414540","0.0-34.0-13.0","89114491","wem/bandit_either_3","A18E19QXO73YM4","either","1","281","","","","","","","0","0","1","","0.2","0.5","0.5","0.5","0.5","0.8","0.2","0.6","0.2","","","","","","","","","","","","76","L","3","","true","0","full_practice",""
"","bandit","68","416319","0.0-34.0-14.0","89114491","wem/bandit_either_3","A18E19QXO73YM4","either","1","261","","","","","","","0","0","1","0.2","","0.5","0.5","0.5","0.5","","","","","0.8","0.2","0.6","0.2","","","","","","","","76","L","3","","true","0","full_practice",""
"","bandit","69","418112","0.0-34.0-15.0","89114491","wem/bandit_either_3","A18E19QXO73YM4","either","1","271","","","","","","","0","0","1","","0.2","0.5","0.5","0.5","0.5","0.8","0.2","0.6","0.2","","","","","","","","","","","","76","L","3","","true","0","full_practice",""
"","bandit","70","419913","0.0-34.0-16.0","89114491","wem/bandit_either_3","A18E19QXO73YM4","either","1","281","","","","","","","0","0","1","","0.6","0.5","0.5","0.5","0.5","0.8","0.2","0.6","0.2","","","","","","","","","","","","75","K","2","","true","0","full_practice",""
"","bandit","71","421707","0.0-34.0-17.0","89114491","wem/bandit_either_3","A18E19QXO73YM4","either","1","255","","","","","","","0","1","0","","0.6","0.5","0.5","0.5","0.5","0.8","0.2","0.6","0.2","","","","","","","","","","","","75","K","2","","true","0","full_practice",""
"","bandit","72","423533","0.0-34.0-18.0","89114491","wem/bandit_either_3","A18E19QXO73YM4","either","1","300","","","","","","","0","1","0","","0.6","0.5","0.5","0.5","0.5","0.8","0.2","0.6","0.2","","","","","","","","","","","","75","K","2","","true","0","full_practice",""
"","bandit","73","425353","0.0-34.0-19.0","89114491","wem/bandit_either_3","A18E19QXO73YM4","either","1","307","","","","","","","0","0","1","0.6","","0.5","0.5","0.5","0.5","","","","","0.8","0.2","0.6","0.2","","","","","","","","75","K","2","","true","0","full_practice",""
"","text","74","431871","0.0-35.0","89114491","wem/bandit_either_3","A18E19QXO73YM4","either","1","6510","","32","","","","","","","","","","","","","","","","","","","","","","","","","","","","","","","","","","","",""
"","text","75","447591","0.0-36.0","89114491","wem/bandit_either_3","A18E19QXO73YM4","either","1","14709","","32","","","","","","","","","","","","","","","","","","","","","","","","","","","","","","","","","","","",""
"","text","76","460327","0.0-37.0","89114491","wem/bandit_either_3","A18E19QXO73YM4","either","1","12730","","32","","","","","","","","","","","","","","","","","","","","","","","","","","","","","","","","","","","",""
"","text","77","470700","0.0-38.0","89114491","wem/bandit_either_3","A18E19QXO73YM4","either","1","10364","","32","","","","","","","","","","","","","","","","","","","","","","","","","","","","","","","","","","","",""
"","text","78","477515","0.0-39.0","89114491","wem/bandit_either_3","A18E19QXO73YM4","either","1","6802","","32","","","","","","","","","","","","","","","","","","","","","","","","","","","","","","","","","","","",""
"","text","79","483390","0.0-40.0","89114491","wem/bandit_either_3","A18E19QXO73YM4","either","1","5870","","32","","","","","","","","","","","","","","","","","","","","","","","","","","","","","","","","","","","",""
"","bandit","80","486613","0.0-41.0-0.0","89114491","wem/bandit_either_3","A18E19QXO73YM4","either","1","1703","","","","","","","1","0","0","0.8101107889","","0.8","0.6","0.4","0.2","","","","","0.8101107889","0.7674833066","0.4995060561","0.5202783506","","","","","","","","72","H","0","img/none_selected.jpg","","1","main_expt",""
"","bandit","81","488844","0.0-42.0-0.0","89114491","wem/bandit_either_3","A18E19QXO73YM4","either","1","704","","","","","","","0","1","0","","0.8827976921","0.8","0.6","0.4","0.2","0.8827976921","0.7786696111","0.4452888422","0.4559554218","","","","","","","","","","","","72","H","0","img/none_selected.jpg","","2","main_expt",""
"","bandit","82","490953","0.0-43.0-0.0","89114491","wem/bandit_either_3","A18E19QXO73YM4","either","1","588","","","","","","","1","0","0","0.918633781","","0.8","0.6","0.4","0.2","","","","","0.918633781","0.7883912796","0.4956599627","0.3791335739","","","","","","","","72","H","0","img/none_selected.jpg","","3","main_expt",""
"","bandit","83","493173","0.0-44.0-0.0","89114491","wem/bandit_either_3","A18E19QXO73YM4","either","1","703","","","","","","","0","1","0","","0.8961075186","0.8","0.6","0.4","0.2","0.8961075186","0.8311681014","0.3939226057","0.362446662","","","","","","","","","","","","72","H","0","img/none_selected.jpg","","4","main_expt",""
"","bandit","84","495406","0.0-45.0-0.0","89114491","wem/bandit_either_3","A18E19QXO73YM4","either","1","710","","","","","","","1","0","0","0.9065038385","","0.8","0.6","0.4","0.2","","","","","0.9065038385","0.706748425","0.4737796053","0.4337427147","","","","","","","","72","H","0","img/none_selected.jpg","","5","main_expt",""
"","bandit","85","497658","0.0-46.0-0.0","89114491","wem/bandit_either_3","A18E19QXO73YM4","either","1","737","","","","","","","0","1","0","","0.9628954729","0.8","0.6","0.4","0.2","0.9628954729","0.7246132019","0.5798080576","0.4260566605","","","","","","","","","","","","72","H","0","img/none_selected.jpg","","6","main_expt",""
"","bandit","86","499980","0.0-47.0-0.0","89114491","wem/bandit_either_3","A18E19QXO73YM4","either","1","805","","","","","","","1","0","0","0.9244273404","","0.8","0.6","0.4","0.2","","","","","0.9244273404","0.822103072","0.6184433593","0.5595739282","","","","","","","","72","H","0","img/none_selected.jpg","","7","main_expt",""
"","bandit","87","502147","0.0-48.0-0.0","89114491","wem/bandit_either_3","A18E19QXO73YM4","either","1","650","","","","","","","0","1","0","","0.9214665689","0.8","0.6","0.4","0.2","0.9214665689","0.8176183596","0.5380809204","0.5757792393","","","","","","","","","","","","72","H","0","img/none_selected.jpg","","8","main_expt",""
"","bandit","88","504493","0.0-49.0-0.0","89114491","wem/bandit_either_3","A18E19QXO73YM4","either","1","829","","","","","","","0","0","1","0.9604963414","","0.8","0.6","0.4","0.2","","","","","0.9604963414","0.7421782695","0.4884558296","0.5508288143","","","","","","","","72","H","0","img/none_selected.jpg","","9","main_expt",""
"","bandit","89","506608","0.0-50.0-0.0","89114491","wem/bandit_either_3","A18E19QXO73YM4","either","1","595","","","","","","","0","1","0","","0.973544224","0.8","0.6","0.4","0.2","0.973544224","0.7112185725","0.6062827564","0.4615344473","","","","","","","","","","","","72","H","0","img/none_selected.jpg","","10","main_expt",""
"","bandit","90","508781","0.0-51.0-0.0","89114491","wem/bandit_either_3","A18E19QXO73YM4","either","1","657","","","","","","","1","0","0","0.9756729976","","0.8","0.6","0.4","0.2","","","","","0.9756729976","0.6656122322","0.6618996933","0.4731032433","","","","","","","","72","H","0","img/none_selected.jpg","","11","main_expt",""
"","bandit","91","510963","0.0-52.0-0.0","89114491","wem/bandit_either_3","A18E19QXO73YM4","either","1","666","","","","","","","1","0","0","0.9824084628","","0.8","0.6","0.4","0.2","","","","","0.9824084628","0.632951522","0.6589688621","0.5028989732","","","","","","","","72","H","0","img/none_selected.jpg","","12","main_expt",""
"","bandit","92","512971","0.0-53.0-0.0","89114491","wem/bandit_either_3","A18E19QXO73YM4","either","1","492","","","","","","","1","0","0","0.9852841122","","0.8","0.6","0.4","0.2","","","","","0.9852841122","0.6428643634","0.7483501345","0.5252386458","","","","","","","","72","H","0","img/none_selected.jpg","","13","main_expt",""
"","bandit","93","515177","0.0-54.0-0.0","89114491","wem/bandit_either_3","A18E19QXO73YM4","either","1","692","","","","","","","0","1","0","","0.9844185579","0.8","0.6","0.4","0.2","0.9844185579","0.5693663763","0.7642220585","0.4883642101","","","","","","","","","","","","72","H","0","img/none_selected.jpg","","14","main_expt",""
"","bandit","94","517604","0.0-55.0-0.0","89114491","wem/bandit_either_3","A18E19QXO73YM4","either","1","910","","","","","","","1","0","0","0.9716790186","","0.8","0.6","0.4","0.2","","","","","0.9716790186","0.6354763258","0.8255663415","0.5125695872","","","","","","","","72","H","0","img/none_selected.jpg","","15","main_expt",""
"","bandit","95","519875","0.0-56.0-0.0","89114491","wem/bandit_either_3","A18E19QXO73YM4","either","1","754","","","","","","","1","0","0","0.9724226268","","0.8","0.6","0.4","0.2","","","","","0.9724226268","0.6074668868","0.8262734196","0.483313844","","","","","","","","72","H","0","img/none_selected.jpg","","16","main_expt",""
"","bandit","96","522363","0.0-57.0-0.0","89114491","wem/bandit_either_3","A18E19QXO73YM4","either","1","956","","","","","","","1","0","0","0.969397438","","0.8","0.6","0.4","0.2","","","","","0.969397438","0.634379517","0.8957105494","0.4764119597","","","","","","","","72","H","0","img/none_selected.jpg","","17","main_expt",""
"","bandit","97","524649","0.0-58.0-0.0","89114491","wem/bandit_either_3","A18E19QXO73YM4","either","1","766","","","","","","","1","0","0","0.9487821198","","0.8","0.6","0.4","0.2","","","","","0.9487821198","0.7399013172","0.8243017832","0.4742144938","","","","","","","","72","H","0","img/none_selected.jpg","","18","main_expt",""
"","bandit","98","527034","0.0-59.0-0.0","89114491","wem/bandit_either_3","A18E19QXO73YM4","either","1","855","","","","","","","1","0","0","0.8822386923","","0.8","0.6","0.4","0.2","","","","","0.8822386923","0.6892422428","0.8174393347","0.5445729057","","","","","","","","72","H","0","img/none_selected.jpg","","19","main_expt",""
"","bandit","99","529290","0.0-60.0-0.0","89114491","wem/bandit_either_3","A18E19QXO73YM4","either","1","740","","","","","","","1","0","0","0.8658452863","","0.8","0.6","0.4","0.2","","","","","0.8658452863","0.5544472153","0.8457625901","0.5114357523","","","","","","","","72","H","0","img/none_selected.jpg","","20","main_expt",""
"","bandit","100","531441","0.0-61.0-0.0","89114491","wem/bandit_either_3","A18E19QXO73YM4","either","1","636","","","","","","","0","0","1","0.8597265301","","0.8","0.6","0.4","0.2","","","","","0.8597265301","0.4705077418","0.8565453533","0.4948626968","","","","","","","","72","H","0","img/none_selected.jpg","","21","main_expt",""
"","bandit","101","533605","0.0-62.0-0.0","89114491","wem/bandit_either_3","A18E19QXO73YM4","either","1","648","","","","","","","1","0","0","0.929530396","","0.8","0.6","0.4","0.2","","","","","0.929530396","0.5364913494","0.8821281293","0.3750889156","","","","","","","","72","H","0","img/none_selected.jpg","","22","main_expt",""
"","bandit","102","535943","0.0-63.0-0.0","89114491","wem/bandit_either_3","A18E19QXO73YM4","either","1","822","","","","","","","1","0","0","0.9149061772","","0.8","0.6","0.4","0.2","","","","","0.9149061772","0.5450887529","0.8253896901","0.3874093852","","","","","","","","72","H","0","img/none_selected.jpg","","23","main_expt",""
"","bandit","103","538142","0.0-64.0-0.0","89114491","wem/bandit_either_3","A18E19QXO73YM4","either","1","684","","","","","","","1","0","0","0.9389899916","","0.8","0.6","0.4","0.2","","","","","0.9389899916","0.6013055931","0.8682133559","0.4126546177","","","","","","","","72","H","0","img/none_selected.jpg","","24","main_expt",""
"","bandit","104","540405","0.0-65.0-0.0","89114491","wem/bandit_either_3","A18E19QXO73YM4","either","1","745","","","","","","","1","0","0","0.9583062328","","0.8","0.6","0.4","0.2","","","","","0.9583062328","0.7116226269","0.8186134727","0.3871809826","","","","","","","","72","H","0","img/none_selected.jpg","","25","main_expt",""
"","bandit","105","542626","0.0-66.0-0.0","89114491","wem/bandit_either_3","A18E19QXO73YM4","either","1","706","","","","","","","0","1","0","","0.9349434311","0.8","0.6","0.4","0.2","0.9349434311","0.7284905038","0.841170918","0.4162773602","","","","","","","","","","","","72","H","0","img/none_selected.jpg","","26","main_expt",""
"","bandit","106","544920","0.0-67.0-0.0","89114491","wem/bandit_either_3","A18E19QXO73YM4","either","1","776","","","","","","","1","0","0","0.9147743466","","0.8","0.6","0.4","0.2","","","","","0.9147743466","0.7007901837","0.8332298301","0.4153433109","","","","","","","","72","H","0","img/none_selected.jpg","","27","main_expt",""
"","bandit","107","547234","0.0-68.0-0.0","89114491","wem/bandit_either_3","A18E19QXO73YM4","either","1","793","","","","","","","0","1","0","","0.8913744663","0.8","0.6","0.4","0.2","0.8913744663","0.7197690037","0.8340804883","0.3083156359","","","","","","","","","","","","72","H","0","img/none_selected.jpg","","28","main_expt",""
"","bandit","108","549570","0.0-69.0-0.0","89114491","wem/bandit_either_3","A18E19QXO73YM4","either","1","820","","","","","","","0","1","0","","0.9004815278","0.8","0.6","0.4","0.2","0.9004815278","0.7569205749","0.8800986549","0.4048150761","","","","","","","","","","","","72","H","0","img/none_selected.jpg","","29","main_expt",""
"","bandit","109","551819","0.0-70.0-0.0","89114491","wem/bandit_either_3","A18E19QXO73YM4","either","1","728","","","","","","","1","0","0","0.8335499875","","0.8","0.6","0.4","0.2","","","","","0.8335499875","0.7007062976","0.800988266","0.5604470694","","","","","","","","72","H","0","img/none_selected.jpg","","30","main_expt",""
"","bandit","110","554152","0.0-71.0-0.0","89114491","wem/bandit_either_3","A18E19QXO73YM4","either","1","817","","","","","","","1","0","0","0.7904098286","","0.8","0.6","0.4","0.2","","","","","0.7904098286","0.6218809145","0.8092707987","0.5114456598","","","","","","","","72","H","0","img/none_selected.jpg","","31","main_expt",""
"","bandit","111","556537","0.0-72.0-0.0","89114491","wem/bandit_either_3","A18E19QXO73YM4","either","1","871","","","","","","","0","0","1","0.8156470634","","0.8","0.6","0.4","0.2","","","","","0.8156470634","0.5448888872","0.7600689364","0.5195843055","","","","","","","","72","H","0","img/none_selected.jpg","","32","main_expt",""
"","bandit","112","558851","0.0-73.0-0.0","89114491","wem/bandit_either_3","A18E19QXO73YM4","either","1","798","","","","","","","0","0","1","0.7458483223","","0.8","0.6","0.4","0.2","","","","","0.7458483223","0.4396040002","0.7268405739","0.4278216128","","","","","","","","72","H","0","img/none_selected.jpg","","33","main_expt",""
"","bandit","113","561728","0.0-74.0-0.0","89114491","wem/bandit_either_3","A18E19QXO73YM4","either","1","1362","","","","","","","0","0","1","","0.3418027302","0.8","0.6","0.4","0.2","0.8745519215","0.3418027302","0.7867385379","0.4581725564","","","","","","","","","","","","74","J","1","","","34","main_expt",""
"","bandit","114","563819","0.0-75.0-0.0","89114491","wem/bandit_either_3","A18E19QXO73YM4","either","1","578","","","","","","","0","1","0","","0.7776722478","0.8","0.6","0.4","0.2","0.8761773117","0.3770378826","0.7776722478","0.5170179058","","","","","","","","","","","","75","K","2","","","35","main_expt",""
"","bandit","115","566221","0.0-76.0-0.0","89114491","wem/bandit_either_3","A18E19QXO73YM4","either","1","881","","","","","","","0","0","1","0.8110731924","","0.8","0.6","0.4","0.2","","","","","0.8898579413","0.3264650107","0.8110731924","0.5761285305","","","","","","","","75","K","2","","","36","main_expt",""
"","bandit","116","568681","0.0-77.0-0.0","89114491","wem/bandit_either_3","A18E19QXO73YM4","either","1","943","","","","","","","0","1","0","","0.8371501114","0.8","0.6","0.4","0.2","0.9189960073","0.1696248696","0.8371501114","0.5824592389","","","","","","","","","","","","75","K","2","","","37","main_expt",""
"","bandit","117","571195","0.0-78.0-0.0","89114491","wem/bandit_either_3","A18E19QXO73YM4","either","1","998","","","","","","","0","0","1","","0.801984358","0.8","0.6","0.4","0.2","0.9429067042","0.3008725236","0.801984358","0.5039158184","","","","","","","","","","","","75","K","2","","","38","main_expt",""
"","bandit","118","573328","0.0-79.0-0.0","89114491","wem/bandit_either_3","A18E19QXO73YM4","either","1","613","","","","","","","0","0","1","","0.4906961915","0.8","0.6","0.4","0.2","0.8860185862","0.3612597963","0.836760671","0.4906961915","","","","","","","","","","","","76","L","3","","","39","main_expt",""
"","bandit","119","575509","0.0-80.0-0.0","89114491","wem/bandit_either_3","A18E19QXO73YM4","either","1","643","","","","","","","0","0","1","0.5118773476","","0.8","0.6","0.4","0.2","","","","","0.8958725565","0.3316001813","0.7930168878","0.5118773476","","","","","","","","76","L","3","","","40","main_expt",""
"","bandit","120","577902","0.0-81.0-0.0","89114491","wem/bandit_either_3","A18E19QXO73YM4","either","1","866","","","","","","","0","0","1","","0.5207000815","0.8","0.6","0.4","0.2","0.8369757826","0.251761063","0.6758505439","0.5207000815","","","","","","","","","","","","76","L","3","","","41","main_expt",""
"","bandit","121","580189","0.0-82.0-0.0","89114491","wem/bandit_either_3","A18E19QXO73YM4","either","1","766","","","","","","","0","1","0","","0.6208632684","0.8","0.6","0.4","0.2","0.8724413244","0.3764367217","0.669091732","0.6208632684","","","","","","","","","","","","76","L","3","","","42","main_expt",""
"","bandit","122","582404","0.0-83.0-0.0","89114491","wem/bandit_either_3","A18E19QXO73YM4","either","1","700","","","","","","","0","0","1","","0.5774386383","0.8","0.6","0.4","0.2","0.8721156492","0.4280411123","0.5774386383","0.6736877605","","","","","","","","","","","","75","K","2","","","43","main_expt",""
"","bandit","123","584345","0.0-84.0-0.0","89114491","wem/bandit_either_3","A18E19QXO73YM4","either","1","425","","","","","","","0","0","1","","0.5402750746","0.8","0.6","0.4","0.2","0.874486911","0.4250007774","0.5402750746","0.6770598463","","","","","","","","","","","","75","K","2","","","44","main_expt",""
"","bandit","124","586402","0.0-85.0-0.0","89114491","wem/bandit_either_3","A18E19QXO73YM4","either","1","539","","","","","","","0","0","1","","0.4769525635","0.8","0.6","0.4","0.2","0.7653026016","0.3964774122","0.4769525635","0.6811336834","","","","","","","","","","","","75","K","2","","","45","main_expt",""
"","bandit","125","588422","0.0-86.0-0.0","89114491","wem/bandit_either_3","A18E19QXO73YM4","either","1","509","","","","","","","0","0","1","0.3755541509","","0.8","0.6","0.4","0.2","","","","","0.6884850605","0.3755541509","0.460739512","0.7409040253","","","","","","","","74","J","1","","","46","main_expt",""
"","bandit","126","590435","0.0-87.0-0.0","89114491","wem/bandit_either_3","A18E19QXO73YM4","either","1","497","","","","","","","0","1","0","","0.6869729855","0.8","0.6","0.4","0.2","0.6869729855","0.3698766084","0.3953603582","0.8602274841","","","","","","","","","","","","72","H","0","img/none_selected.jpg","","47","main_expt",""
"","bandit","127","592556","0.0-88.0-0.0","89114491","wem/bandit_either_3","A18E19QXO73YM4","either","1","599","","","","","","","1","0","0","0.624749708","","0.8","0.6","0.4","0.2","","","","","0.624749708","0.2924141828","0.5194217752","0.8947369126","","","","","","","","72","H","0","img/none_selected.jpg","","48","main_expt",""
"","bandit","128","594841","0.0-89.0-0.0","89114491","wem/bandit_either_3","A18E19QXO73YM4","either","1","764","","","","","","","1","0","0","0.6269608649","","0.8","0.6","0.4","0.2","","","","","0.6269608649","0.2506794134","0.5015721984","0.9071052574","","","","","","","","72","H","0","img/none_selected.jpg","","49","main_expt",""
"","bandit","129","597005","0.0-90.0-0.0","89114491","wem/bandit_either_3","A18E19QXO73YM4","either","1","653","","","","","","","1","0","0","0.5394470416","","0.8","0.6","0.4","0.2","","","","","0.5394470416","0.2200095001","0.4427204185","0.8569531155","","","","","","","","72","H","0","img/none_selected.jpg","","50","main_expt",""
"","bandit","130","599390","0.0-91.0-0.0","89114491","wem/bandit_either_3","A18E19QXO73YM4","either","1","870","","","","","","","0","0","1","","0.4991806479","0.8","0.6","0.4","0.2","0.4991806479","0.2703780474","0.5194544998","0.8728609703","","","","","","","","","","","","72","H","0","img/none_selected.jpg","","51","main_expt",""
"","bandit","131","601472","0.0-92.0-0.0","89114491","wem/bandit_either_3","A18E19QXO73YM4","either","1","571","","","","","","","1","0","0","0.5431464126","","0.8","0.6","0.4","0.2","","","","","0.5431464126","0.3215640211","0.4420680866","0.902184381","","","","","","","","72","H","0","img/none_selected.jpg","","52","main_expt",""
"","bandit","132","603836","0.0-93.0-0.0","89114491","wem/bandit_either_3","A18E19QXO73YM4","either","1","849","","","","","","","0","0","1","","0.4799783957","0.8","0.6","0.4","0.2","0.4799783957","0.2918797996","0.5541791803","0.8975054296","","","","","","","","","","","","72","H","0","img/none_selected.jpg","","53","main_expt",""
"","bandit","133","606188","0.0-94.0-0.0","89114491","wem/bandit_either_3","A18E19QXO73YM4","either","1","831","","","","","","","0","0","1","0.3946877269","","0.8","0.6","0.4","0.2","","","","","0.3946877269","0.2432815539","0.6187664305","0.9436546011","","","","","","","","72","H","0","img/none_selected.jpg","","54","main_expt",""
"","bandit","134","608529","0.0-95.0-0.0","89114491","wem/bandit_either_3","A18E19QXO73YM4","either","1","800","","","","","","","0","0","1","0.1993500609","","0.8","0.6","0.4","0.2","","","","","0.3892466866","0.1993500609","0.538030076","0.9411334538","","","","","","","","74","J","1","","","55","main_expt",""
"","bandit","135","610732","0.0-96.0-0.0","89114491","wem/bandit_either_3","A18E19QXO73YM4","either","1","689","","","","","","","0","0","1","0.1832364248","","0.8","0.6","0.4","0.2","","","","","0.347268188","0.1832364248","0.5137881872","0.862285227","","","","","","","","74","J","1","","","56","main_expt",""
"","bandit","136","613009","0.0-97.0-0.0","89114491","wem/bandit_either_3","A18E19QXO73YM4","either","1","755","","","","","","","1","0","0","0.1703919496","","0.8","0.6","0.4","0.2","","","","","0.3462231845","0.1703919496","0.6274604021","0.9034803314","","","","","","","","74","J","1","","","57","main_expt",""
"","bandit","137","615269","0.0-98.0-0.0","89114491","wem/bandit_either_3","A18E19QXO73YM4","either","1","742","","","","","","","1","0","0","0.2146973212","","0.8","0.6","0.4","0.2","","","","","0.3707442777","0.2146973212","0.5636132077","0.9062052911","","","","","","","","74","J","1","","","58","main_expt",""
"","bandit","138","617724","0.0-99.0-0.0","89114491","wem/bandit_either_3","A18E19QXO73YM4","either","1","934","","","","","","","1","0","0","0.2118107272","","0.8","0.6","0.4","0.2","","","","","0.4530366532","0.2118107272","0.6555757088","0.9169546289","","","","","","","","74","J","1","","","59","main_expt",""
"","bandit","139","620292","0.0-100.0-0.0","89114491","wem/bandit_either_3","A18E19QXO73YM4","either","1","1043","","","","","","","0","1","0","","0.2096036334","0.8","0.6","0.4","0.2","0.4335409142","0.2096036334","0.6555481193","0.9048679239","","","","","","","","","","","","74","J","1","","","60","main_expt",""
"","bandit","140","623054","0.0-101.0-0.0","89114491","wem/bandit_either_3","A18E19QXO73YM4","either","1","1240","","","","","","","0","0","1","0.1985607356","","0.8","0.6","0.4","0.2","","","","","0.3601573371","0.1985607356","0.6988977931","0.9346572725","","","","","","","","74","J","1","","","61","main_expt",""
"","bandit","141","625536","0.0-102.0-0.0","89114491","wem/bandit_either_3","A18E19QXO73YM4","either","1","953","","","","","","","0","0","1","0.2352246004","","0.8","0.6","0.4","0.2","","","","","0.3187004912","0.2352246004","0.6124712875","0.9332729597","","","","","","","","74","J","1","","","62","main_expt",""
"","bandit","142","628107","0.0-103.0-0.0","89114491","wem/bandit_either_3","A18E19QXO73YM4","either","1","1042","","","","","","","0","0","1","0.1989126294","","0.8","0.6","0.4","0.2","","","","","0.331276396","0.1989126294","0.4881994696","0.9300142507","","","","","","","","74","J","1","","","63","main_expt",""
"","bandit","143","630885","0.0-104.0-0.0","89114491","wem/bandit_either_3","A18E19QXO73YM4","either","1","1250","","","","","","","1","0","0","0.3984677","","0.8","0.6","0.4","0.2","","","","","0.3984677","0.2231035509","0.5007509184","0.8992917639","","","","","","","","72","H","0","img/none_selected.jpg","","64","main_expt",""
"","bandit","144","633287","0.0-105.0-0.0","89114491","wem/bandit_either_3","A18E19QXO73YM4","either","1","876","","","","","","","0","1","0","","0.3012021372","0.8","0.6","0.4","0.2","0.3012021372","0.174077904","0.6077525222","0.7939475476","","","","","","","","","","","","72","H","0","img/none_selected.jpg","","65","main_expt",""
"","bandit","145","635822","0.0-106.0-0.0","89114491","wem/bandit_either_3","A18E19QXO73YM4","either","1","1008","","","","","","","1","0","0","0.2848395029","","0.8","0.6","0.4","0.2","","","","","0.2848395029","0.1505104035","0.4876759876","0.7848839068","","","","","","","","72","H","0","img/none_selected.jpg","","66","main_expt",""
"","bandit","146","638423","0.0-107.0-0.0","89114491","wem/bandit_either_3","A18E19QXO73YM4","either","1","1090","","","","","","","0","0","1","0.2908363747","","0.8","0.6","0.4","0.2","","","","","0.2908363747","0.1706094741","0.4705728971","0.7712869283","","","","","","","","72","H","0","img/none_selected.jpg","","67","main_expt",""
"","bandit","147","640759","0.0-108.0-0.0","89114491","wem/bandit_either_3","A18E19QXO73YM4","either","1","814","","","","","","","0","0","1","","0.3226378352","0.8","0.6","0.4","0.2","0.3226378352","0.193375558","0.5822594153","0.7426915226","","","","","","","","","","","","72","H","0","img/none_selected.jpg","","68","main_expt",""
"","bandit","148","643467","0.0-109.0-0.0","89114491","wem/bandit_either_3","A18E19QXO73YM4","either","1","1191","","","","","","","0","0","1","0.6189715015","","0.8","0.6","0.4","0.2","","","","","0.4490581071","0.226811003","0.6189715015","0.592712881","","","","","","","","75","K","2","","","69","main_expt",""
"","bandit","149","645831","0.0-110.0-0.0","89114491","wem/bandit_either_3","A18E19QXO73YM4","either","1","845","","","","","","","0","0","1","0.5307799745","","0.8","0.6","0.4","0.2","","","","","0.42365523","0.191142909","0.5307799745","0.6587085967","","","","","","","","75","K","2","","","70","main_expt",""
"","bandit","150","648110","0.0-111.0-0.0","89114491","wem/bandit_either_3","A18E19QXO73YM4","either","1","766","","","","","","","1","0","0","0.5205551237","","0.8","0.6","0.4","0.2","","","","","0.427101634","0.2371486809","0.5205551237","0.7562029562","","","","","","","","75","K","2","","","71","main_expt",""
"","bandit","151","650419","0.0-112.0-0.0","89114491","wem/bandit_either_3","A18E19QXO73YM4","either","1","797","","","","","","","0","1","0","","0.5913901284","0.8","0.6","0.4","0.2","0.5387899421","0.2602117984","0.5913901284","0.670676276","","","","","","","","","","","","75","K","2","","","72","main_expt",""
"","bandit","152","653030","0.0-113.0-0.0","89114491","wem/bandit_either_3","A18E19QXO73YM4","either","1","1083","","","","","","","0","0","1","0.7127465592","","0.8","0.6","0.4","0.2","","","","","0.4931252492","0.1837165363","0.7127465592","0.6870219419","","","","","","","","75","K","2","","","73","main_expt",""
"","bandit","153","655213","0.0-114.0-0.0","89114491","wem/bandit_either_3","A18E19QXO73YM4","either","1","669","","","","","","","0","1","0","","0.7804212289","0.8","0.6","0.4","0.2","0.3888626504","0.2032334464","0.7804212289","0.582898469","","","","","","","","","","","","75","K","2","","","74","main_expt",""
"","bandit","154","657637","0.0-115.0-0.0","89114491","wem/bandit_either_3","A18E19QXO73YM4","either","1","904","","","","","","","1","0","0","0.7966502287","","0.8","0.6","0.4","0.2","","","","","0.3866429177","0.2782751631","0.7966502287","0.6452442043","","","","","","","","75","K","2","","","75","main_expt",""
"","bandit","155","660037","0.0-116.0-0.0","89114491","wem/bandit_either_3","A18E19QXO73YM4","either","1","882","","","","","","","1","0","0","0.7775959854","","0.8","0.6","0.4","0.2","","","","","0.3948468247","0.3318782676","0.7775959854","0.7031137023","","","","","","","","75","K","2","","","76","main_expt",""
"","bandit","156","662253","0.0-117.0-0.0","89114491","wem/bandit_either_3","A18E19QXO73YM4","either","1","698","","","","","","","0","1","0","","0.8523583745","0.8","0.6","0.4","0.2","0.4853082722","0.312607664","0.8523583745","0.6096498107","","","","","","","","","","","","75","K","2","","","77","main_expt",""
"","bandit","157","664756","0.0-118.0-0.0","89114491","wem/bandit_either_3","A18E19QXO73YM4","either","1","985","","","","","","","1","0","0","0.7707034136","","0.8","0.6","0.4","0.2","","","","","0.4971609959","0.3250695504","0.7707034136","0.532302087","","","","","","","","75","K","2","","","78","main_expt",""
"","bandit","158","667057","0.0-119.0-0.0","89114491","wem/bandit_either_3","A18E19QXO73YM4","either","1","785","","","","","","","0","1","0","","0.7919080975","0.8","0.6","0.4","0.2","0.5349041547","0.277144637","0.7919080975","0.4448734945","","","","","","","","","","","","75","K","2","","","79","main_expt",""
"","bandit","159","669411","0.0-120.0-0.0","89114491","wem/bandit_either_3","A18E19QXO73YM4","either","1","841","","","","","","","0","0","1","","0.8107458935","0.8","0.6","0.4","0.2","0.4713204996","0.293018971","0.8107458935","0.34513516","","","","","","","","","","","","75","K","2","","","80","main_expt",""
"","bandit","160","671612","0.0-121.0-0.0","89114491","wem/bandit_either_3","A18E19QXO73YM4","either","1","684","","","","","","","1","0","0","0.7851591746","","0.8","0.6","0.4","0.2","","","","","0.4132476049","0.2730851157","0.7851591746","0.406584365","","","","","","","","75","K","2","","","81","main_expt",""
"","bandit","161","673868","0.0-122.0-0.0","89114491","wem/bandit_either_3","A18E19QXO73YM4","either","1","739","","","","","","","0","1","0","","0.8067558171","0.8","0.6","0.4","0.2","0.4640808921","0.2436011542","0.8067558171","0.5068312928","","","","","","","","","","","","75","K","2","","","82","main_expt",""
"","bandit","162","676199","0.0-123.0-0.0","89114491","wem/bandit_either_3","A18E19QXO73YM4","either","1","813","","","","","","","0","1","0","","0.7777816444","0.8","0.6","0.4","0.2","0.442115463","0.2009218657","0.7777816444","0.5209063211","","","","","","","","","","","","75","K","2","","","83","main_expt",""
"","bandit","163","678545","0.0-124.0-0.0","89114491","wem/bandit_either_3","A18E19QXO73YM4","either","1","826","","","","","","","1","0","0","0.7801041195","","0.8","0.6","0.4","0.2","","","","","0.5117806844","0.1550904625","0.7801041195","0.6221591745","","","","","","","","75","K","2","","","84","main_expt",""
"","bandit","164","681131","0.0-125.0-0.0","89114491","wem/bandit_either_3","A18E19QXO73YM4","either","1","1065","","","","","","","0","1","0","","0.7593249252","0.8","0.6","0.4","0.2","0.5309627618","0.1193398435","0.7593249252","0.6939346182","","","","","","","","","","","","75","K","2","","","85","main_expt",""
"","bandit","165","683552","0.0-126.0-0.0","89114491","wem/bandit_either_3","A18E19QXO73YM4","either","1","889","","","","","","","0","1","0","","0.7911667705","0.8","0.6","0.4","0.2","0.5482659382","0.1398572341","0.7911667705","0.7533471596","","","","","","","","","","","","75","K","2","","","86","main_expt",""
"","bandit","166","685872","0.0-127.0-0.0","89114491","wem/bandit_either_3","A18E19QXO73YM4","either","1","795","","","","","","","0","1","0","","0.8480662183","0.8","0.6","0.4","0.2","0.4772076429","0.1941505275","0.8480662183","0.8040573679","","","","","","","","","","","","75","K","2","","","87","main_expt",""
"","bandit","167","688397","0.0-128.0-0.0","89114491","wem/bandit_either_3","A18E19QXO73YM4","either","1","1002","","","","","","","0","1","0","","0.8110462569","0.8","0.6","0.4","0.2","0.5202977678","0.09645570925","0.8110462569","0.7800800897","","","","","","","","","","","","75","K","2","","","88","main_expt",""
"","bandit","168","690787","0.0-129.0-0.0","89114491","wem/bandit_either_3","A18E19QXO73YM4","either","1","865","","","","","","","0","1","0","","0.7924414871","0.8","0.6","0.4","0.2","0.4970482359","0.1304326216","0.7924414871","0.7329239748","","","","","","","","","","","","75","K","2","","","89","main_expt",""
"","bandit","169","693172","0.0-130.0-0.0","89114491","wem/bandit_either_3","A18E19QXO73YM4","either","1","868","","","","","","","0","1","0","","0.8190855249","0.8","0.6","0.4","0.2","0.4671205494","0.1410434261","0.8190855249","0.7202813078","","","","","","","","","","","","75","K","2","","","90","main_expt",""
"","bandit","170","695484","0.0-131.0-0.0","89114491","wem/bandit_either_3","A18E19QXO73YM4","either","1","792","","","","","","","1","0","0","0.858270253","","0.8","0.6","0.4","0.2","","","","","0.5518401665","0.1277095213","0.858270253","0.698586111","","","","","","","","75","K","2","","","91","main_expt",""
"","bandit","171","697978","0.0-132.0-0.0","89114491","wem/bandit_either_3","A18E19QXO73YM4","either","1","971","","","","","","","0","1","0","","0.8583259383","0.8","0.6","0.4","0.2","0.620788192","0.08596821216","0.8583259383","0.6054304462","","","","","","","","","","","","75","K","2","","","92","main_expt",""
"","bandit","172","700669","0.0-133.0-0.0","89114491","wem/bandit_either_3","A18E19QXO73YM4","either","1","1172","","","","","","","1","0","0","0.8335107661","","0.8","0.6","0.4","0.2","","","","","0.679669404","0.05652587691","0.8335107661","0.6829204303","","","","","","","","75","K","2","","","93","main_expt",""
"","bandit","173","703074","0.0-134.0-0.0","89114491","wem/bandit_either_3","A18E19QXO73YM4","either","1","888","","","","","","","1","0","0","0.8849423118","","0.8","0.6","0.4","0.2","","","","","0.6726581754","0.07490457358","0.8849423118","0.6084783934","","","","","","","","75","K","2","","","94","main_expt",""
"","bandit","174","705388","0.0-135.0-0.0","89114491","wem/bandit_either_3","A18E19QXO73YM4","either","1","798","","","","","","","1","0","0","0.9175662658","","0.8","0.6","0.4","0.2","","","","","0.5983950962","0.05201682933","0.9175662658","0.51962455","","","","","","","","75","K","2","","","95","main_expt",""
"","bandit","175","707845","0.0-136.0-0.0","89114491","wem/bandit_either_3","A18E19QXO73YM4","either","1","938","","","","","","","0","0","1","0.8726153548","","0.8","0.6","0.4","0.2","","","","","0.6316158747","0.0353667714","0.8726153548","0.453067158","","","","","","","","75","K","2","","","96","main_expt",""
"","bandit","176","710254","0.0-137.0-0.0","89114491","wem/bandit_either_3","A18E19QXO73YM4","either","1","890","","","","","","","0","0","1","0.7260562137","","0.8","0.6","0.4","0.2","","","","","0.6660601513","0.04301306848","0.7260562137","0.4090095009","","","","","","","","75","K","2","","","97","main_expt",""
"","bandit","177","712787","0.0-138.0-0.0","89114491","wem/bandit_either_3","A18E19QXO73YM4","either","1","1011","","","","","","","0","0","1","0.6506148609","","0.8","0.6","0.4","0.2","","","","","0.6185462561","0.03950067624","0.6506148609","0.360727585","","","","","","","","75","K","2","","","98","main_expt",""
"","bandit","178","715357","0.0-139.0-0.0","89114491","wem/bandit_either_3","A18E19QXO73YM4","either","1","1052","","","","","","","0","0","1","","0.3351327477","0.8","0.6","0.4","0.2","0.581128502","0.03156699585","0.5816342488","0.3351327477","","","","","","","","","","","","76","L","3","","","99","main_expt",""
"","bandit","179","717586","0.0-140.0-0.0","89114491","wem/bandit_either_3","A18E19QXO73YM4","either","1","710","","","","","","","0","0","1","","0.3491912274","0.8","0.6","0.4","0.2","0.479775063","0.0248161238","0.5521464449","0.3491912274","","","","","","","","","","","","76","L","3","","","100","main_expt",""
"","bandit","180","720082","0.0-141.0-0.0","89114491","wem/bandit_either_3","A18E19QXO73YM4","either","1","979","","","","","","","0","1","0","","0.4105375765","0.8","0.6","0.4","0.2","0.5114647241","0.02218075004","0.6063232436","0.4105375765","","","","","","","","","","","","76","L","3","","","101","main_expt",""
"","bandit","181","722261","0.0-142.0-0.0","89114491","wem/bandit_either_3","A18E19QXO73YM4","either","1","662","","","","","","","0","0","1","","0.438632671","0.8","0.6","0.4","0.2","0.4718740674","0.01802152149","0.5636213764","0.438632671","","","","","","","","","","","","76","L","3","","","102","main_expt",""
"","bandit","182","724479","0.0-143.0-0.0","89114491","wem/bandit_either_3","A18E19QXO73YM4","either","1","697","","","","","","","0","0","1","0.01877214671","","0.8","0.6","0.4","0.2","","","","","0.5245129891","0.01877214671","0.5370473259","0.372838406","","","","","","","","74","J","1","","","103","main_expt",""
"","bandit","183","726658","0.0-144.0-0.0","89114491","wem/bandit_either_3","A18E19QXO73YM4","either","1","648","","","","","","","0","0","1","0.01556743346","","0.8","0.6","0.4","0.2","","","","","0.5170751474","0.01556743346","0.549647281","0.3057692375","","","","","","","","74","J","1","","","104","main_expt",""
"","bandit","184","728868","0.0-145.0-0.0","89114491","wem/bandit_either_3","A18E19QXO73YM4","either","1","695","","","","","","","0","0","1","","0.472330124","0.8","0.6","0.4","0.2","0.472330124","0.03717147126","0.4225976111","0.37369274","","","","","","","","","","","","72","H","0","img/none_selected.jpg","","105","main_expt",""
"","bandit","185","731047","0.0-146.0-0.0","89114491","wem/bandit_either_3","A18E19QXO73YM4","either","1","650","","","","","","","0","0","1","0.568133852","","0.8","0.6","0.4","0.2","","","","","0.568133852","0.07687033395","0.5005163425","0.3179799449","","","","","","","","72","H","0","img/none_selected.jpg","","106","main_expt",""
"","bandit","186","733158","0.0-147.0-0.0","89114491","wem/bandit_either_3","A18E19QXO73YM4","either","1","587","","","","","","","1","0","0","0.536018559","","0.8","0.6","0.4","0.2","","","","","0.536018559","0.07659049968","0.3995396385","0.3053765494","","","","","","","","72","H","0","img/none_selected.jpg","","107","main_expt",""
"","bandit","187","735279","0.0-148.0-0.0","89114491","wem/bandit_either_3","A18E19QXO73YM4","either","1","592","","","","","","","0","0","1","0.3880888981","","0.8","0.6","0.4","0.2","","","","","0.3880888981","0.07827602418","0.3855926336","0.2732860947","","","","","","","","72","H","0","img/none_selected.jpg","","108","main_expt",""
"","bandit","188","737205","0.0-149.0-0.0","89114491","wem/bandit_either_3","A18E19QXO73YM4","either","1","404","","","","","","","0","0","1","","0.3059937163","0.8","0.6","0.4","0.2","0.3675045314","0.1352418701","0.3059937163","0.2624197952","","","","","","","","","","","","75","K","2","","","109","main_expt",""
"","bandit","189","739458","0.0-150.0-0.0","89114491","wem/bandit_either_3","A18E19QXO73YM4","either","1","728","","","","","","","0","0","1","","0.2752892785","0.8","0.6","0.4","0.2","0.4560700489","0.1705666919","0.2752892785","0.3303210632","","","","","","","","","","","","75","K","2","","","110","main_expt",""
"","bandit","190","741799","0.0-151.0-0.0","89114491","wem/bandit_either_3","A18E19QXO73YM4","either","1","809","","","","","","","0","0","1","0.3038626008","","0.8","0.6","0.4","0.2","","","","","0.5366389876","0.2202970635","0.3038626008","0.3541452024","","","","","","","","75","K","2","","","111","main_expt",""
"","bandit","191","743881","0.0-152.0-0.0","89114491","wem/bandit_either_3","A18E19QXO73YM4","either","1","570","","","","","","","0","0","1","","0.2308866464","0.8","0.6","0.4","0.2","0.5742054707","0.2368742277","0.2308866464","0.4468573219","","","","","","","","","","","","75","K","2","","","112","main_expt",""
"","bandit","192","745850","0.0-153.0-0.0","89114491","wem/bandit_either_3","A18E19QXO73YM4","either","1","445","","","","","","","0","0","1","0.2487241586","","0.8","0.6","0.4","0.2","","","","","0.6014260319","0.2487241586","0.2420052043","0.5163231944","","","","","","","","74","J","1","","","113","main_expt",""
"","bandit","193","747962","0.0-154.0-0.0","89114491","wem/bandit_either_3","A18E19QXO73YM4","either","1","598","","","","","","","0","0","1","","0.238824581","0.8","0.6","0.4","0.2","0.5398035654","0.238824581","0.3277817495","0.4064640458","","","","","","","","","","","","74","J","1","","","114","main_expt",""
"","bandit","194","750093","0.0-155.0-0.0","89114491","wem/bandit_either_3","A18E19QXO73YM4","either","1","612","","","","","","","0","0","1","0.1480638281","","0.8","0.6","0.4","0.2","","","","","0.5008208772","0.1480638281","0.3280884562","0.4085425191","","","","","","","","74","J","1","","","115","main_expt",""
"","bandit","195","752164","0.0-156.0-0.0","89114491","wem/bandit_either_3","A18E19QXO73YM4","either","1","552","","","","","","","0","0","1","0.1246447603","","0.8","0.6","0.4","0.2","","","","","0.4200837231","0.1246447603","0.4137256642","0.4412864427","","","","","","","","74","J","1","","","116","main_expt",""
"","bandit","196","754149","0.0-157.0-0.0","89114491","wem/bandit_either_3","A18E19QXO73YM4","either","1","457","","","","","","","0","0","1","0.4094987027","","0.8","0.6","0.4","0.2","","","","","0.4094987027","0.1308085784","0.372751341","0.5188885271","","","","","","","","72","H","0","img/none_selected.jpg","","117","main_expt",""
"","bandit","197","756388","0.0-158.0-0.0","89114491","wem/bandit_either_3","A18E19QXO73YM4","either","1","721","","","","","","","0","0","1","0.3862907493","","0.8","0.6","0.4","0.2","","","","","0.3862907493","0.09076242324","0.4225631273","0.5728151575","","","","","","","","72","H","0","img/none_selected.jpg","","118","main_expt",""
"","bandit","198","758466","0.0-159.0-0.0","89114491","wem/bandit_either_3","A18E19QXO73YM4","either","1","561","","","","","","","0","1","0","","0.5065624602","0.8","0.6","0.4","0.2","0.4437318585","0.09057925276","0.4188482812","0.5065624602","","","","","","","","","","","","76","L","3","","","119","main_expt",""
"","bandit","199","760575","0.0-160.0-0.0","89114491","wem/bandit_either_3","A18E19QXO73YM4","either","1","587","","","","","","","0","0","1","","0.4064427813","0.8","0.6","0.4","0.2","0.293469011","0.1288926122","0.3729077829","0.4064427813","","","","","","","","","","","","76","L","3","","","120","main_expt",""
"","bandit","200","762661","0.0-161.0-0.0","89114491","wem/bandit_either_3","A18E19QXO73YM4","either","1","570","","","","","","","0","0","1","","0.3948988447","0.8","0.6","0.4","0.2","0.2141601759","0.1479701512","0.3817262037","0.3948988447","","","","","","","","","","","","76","L","3","","","121","main_expt",""
"","bandit","201","764742","0.0-162.0-0.0","89114491","wem/bandit_either_3","A18E19QXO73YM4","either","1","561","","","","","","","0","0","1","","0.316823658","0.8","0.6","0.4","0.2","0.2594293103","0.1663524813","0.3537210734","0.316823658","","","","","","","","","","","","76","L","3","","","122","main_expt",""
"","bandit","202","767065","0.0-163.0-0.0","89114491","wem/bandit_either_3","A18E19QXO73YM4","either","1","805","","","","","","","0","0","1","","0.3633727708","0.8","0.6","0.4","0.2","0.1519240937","0.1993917655","0.3633727708","0.3045978244","","","","","","","","","","","","75","K","2","","","123","main_expt",""
"","bandit","203","769429","0.0-164.0-0.0","89114491","wem/bandit_either_3","A18E19QXO73YM4","either","1","850","","","","","","","1","0","0","0.4139908316","","0.8","0.6","0.4","0.2","","","","","0.2311656533","0.2948689786","0.4139908316","0.2389028675","","","","","","","","75","K","2","","","124","main_expt",""
"","bandit","204","771539","0.0-165.0-0.0","89114491","wem/bandit_either_3","A18E19QXO73YM4","either","1","594","","","","","","","0","1","0","","0.3619800754","0.8","0.6","0.4","0.2","0.1956748967","0.4054398129","0.3619800754","0.2166803268","","","","","","","","","","","","75","K","2","","","125","main_expt",""
"","bandit","205","773460","0.0-166.0-0.0","89114491","wem/bandit_either_3","A18E19QXO73YM4","either","1","403","","","","","","","0","0","1","","0.353362548","0.8","0.6","0.4","0.2","0.1419383156","0.5337661481","0.353362548","0.1613674106","","","","","","","","","","","","75","K","2","","","126","main_expt",""
"","bandit","206","775665","0.0-167.0-0.0","89114491","wem/bandit_either_3","A18E19QXO73YM4","either","1","648","","","","","","","0","0","1","","0.2888217425","0.8","0.6","0.4","0.2","0.1768105291","0.5510518781","0.2888217425","0.1682412955","","","","","","","","","","","","75","K","2","","","127","main_expt",""
"","bandit","207","777692","0.0-168.0-0.0","89114491","wem/bandit_either_3","A18E19QXO73YM4","either","1","505","","","","","","","0","0","1","","0.3131893798","0.8","0.6","0.4","0.2","0.1187699492","0.4746642732","0.3131893798","0.1655910943","","","","","","","","","","","","75","K","2","","","128","main_expt",""
"","bandit","208","779707","0.0-169.0-0.0","89114491","wem/bandit_either_3","A18E19QXO73YM4","either","1","491","","","","","","","0","0","1","0.2826861836","","0.8","0.6","0.4","0.2","","","","","0.1860330609","0.5345142674","0.2826861836","0.1845506081","","","","","","","","75","K","2","","","129","main_expt",""
"","bandit","209","781700","0.0-170.0-0.0","89114491","wem/bandit_either_3","A18E19QXO73YM4","either","1","470","","","","","","","0","0","1","0.09722607165","","0.8","0.6","0.4","0.2","","","","","0.09722607165","0.6617219445","0.3434973012","0.1548240476","","","","","","","","72","H","0","img/none_selected.jpg","","130","main_expt",""
"","bandit","210","783661","0.0-171.0-0.0","89114491","wem/bandit_either_3","A18E19QXO73YM4","either","1","444","","","","","","","0","0","1","0.05626421391","","0.8","0.6","0.4","0.2","","","","","0.05626421391","0.6183560712","0.3848082556","0.1503989","","","","","","","","72","H","0","img/none_selected.jpg","","131","main_expt",""
"","bandit","211","786006","0.0-172.0-0.0","89114491","wem/bandit_either_3","A18E19QXO73YM4","either","1","823","","","","","","","0","0","1","0.1149854728","","0.8","0.6","0.4","0.2","","","","","0.1149854728","0.7009512511","0.4140069858","0.1199593994","","","","","","","","72","H","0","img/none_selected.jpg","","132","main_expt",""
"","bandit","212","788246","0.0-173.0-0.0","89114491","wem/bandit_either_3","A18E19QXO73YM4","either","1","720","","","","","","","0","0","1","0.1698175541","","0.8","0.6","0.4","0.2","","","","","0.1698175541","0.5838974895","0.3745017877","0.1518383839","","","","","","","","72","H","0","img/none_selected.jpg","","133","main_expt",""
"","bandit","213","790202","0.0-174.0-0.0","89114491","wem/bandit_either_3","A18E19QXO73YM4","either","1","430","","","","","","","0","0","1","","0.6628563986","0.8","0.6","0.4","0.2","0.1925371395","0.6628563986","0.3918835711","0.1855528241","","","","","","","","","","","","74","J","1","","","134","main_expt",""
"","bandit","214","792191","0.0-175.0-0.0","89114491","wem/bandit_either_3","A18E19QXO73YM4","either","1","472","","","","","","","0","0","1","0.5610912218","","0.8","0.6","0.4","0.2","","","","","0.246136332","0.5610912218","0.3405764209","0.2187769305","","","","","","","","74","J","1","","","135","main_expt",""
"","bandit","215","794250","0.0-176.0-0.0","89114491","wem/bandit_either_3","A18E19QXO73YM4","either","1","535","","","","","","","1","0","0","0.4834649218","","0.8","0.6","0.4","0.2","","","","","0.2277518718","0.4834649218","0.4155430462","0.2001534018","","","","","","","","74","J","1","","","136","main_expt",""
"","bandit","216","796605","0.0-177.0-0.0","89114491","wem/bandit_either_3","A18E19QXO73YM4","either","1","835","","","","","","","0","0","1","","0.513072369","0.8","0.6","0.4","0.2","0.252962458","0.513072369","0.3389252929","0.176995917","","","","","","","","","","","","74","J","1","","","137","main_expt",""
"","bandit","217","798737","0.0-178.0-0.0","89114491","wem/bandit_either_3","A18E19QXO73YM4","either","1","614","","","","","","","0","0","1","","0.1460019238","0.8","0.6","0.4","0.2","0.3018696236","0.5502636267","0.2698753193","0.1460019238","","","","","","","","","","","","76","L","3","","","138","main_expt",""
"","bandit","218","800918","0.0-179.0-0.0","89114491","wem/bandit_either_3","A18E19QXO73YM4","either","1","662","","","","","","","0","0","1","","0.06707115951","0.8","0.6","0.4","0.2","0.347353107","0.4564922144","0.2821570394","0.06707115951","","","","","","","","","","","","76","L","3","","","139","main_expt",""
"","bandit","219","802955","0.0-180.0-0.0","89114491","wem/bandit_either_3","A18E19QXO73YM4","either","1","520","","","","","","","0","0","1","0.3577533322","","0.8","0.6","0.4","0.2","","","","","0.2477375586","0.4116013625","0.3577533322","0.1071331831","","","","","","","","75","K","2","","","140","main_expt",""
"","bandit","220","804780","0.0-181.0-0.0","89114491","wem/bandit_either_3","A18E19QXO73YM4","either","1","310","","","","","","","0","0","1","0.4250900652","","0.8","0.6","0.4","0.2","","","","","0.2880826197","0.4498847811","0.4250900652","0.1224459691","","","","","","","","75","K","2","","","141","main_expt",""
"","bandit","221","806900","0.0-182.0-0.0","89114491","wem/bandit_either_3","A18E19QXO73YM4","either","1","603","","","","","","","1","0","0","0.4822150968","","0.8","0.6","0.4","0.2","","","","","0.2287108423","0.4822150968","0.3451055681","0.1127900777","","","","","","","","74","J","1","","","142","main_expt",""
"","bandit","222","809014","0.0-183.0-0.0","89114491","wem/bandit_either_3","A18E19QXO73YM4","either","1","586","","","","","","","0","0","1","0.513506041","","0.8","0.6","0.4","0.2","","","","","0.2096850542","0.513506041","0.4661026996","0.1736101882","","","","","","","","74","J","1","","","143","main_expt",""
"","bandit","223","811410","0.0-184.0-0.0","89114491","wem/bandit_either_3","A18E19QXO73YM4","either","1","882","","","","","","","1","0","0","0.556822441","","0.8","0.6","0.4","0.2","","","","","0.2214165798","0.556822441","0.4683168179","0.1231714597","","","","","","","","74","J","1","","","144","main_expt",""
"","bandit","224","813772","0.0-185.0-0.0","89114491","wem/bandit_either_3","A18E19QXO73YM4","either","1","846","","","","","","","1","0","0","0.5633269006","","0.8","0.6","0.4","0.2","","","","","0.2412424024","0.5633269006","0.448697065","0.10514291","","","","","","","","74","J","1","","","145","main_expt",""
"","bandit","225","816304","0.0-186.0-0.0","89114491","wem/bandit_either_3","A18E19QXO73YM4","either","1","1010","","","","","","","1","0","0","0.6482805244","","0.8","0.6","0.4","0.2","","","","","0.1841611904","0.6482805244","0.4560677512","0.0972381369","","","","","","","","74","J","1","","","146","main_expt",""
"","bandit","226","819021","0.0-187.0-0.0","89114491","wem/bandit_either_3","A18E19QXO73YM4","either","1","1193","","","","","","","1","0","0","0.6036290043","","0.8","0.6","0.4","0.2","","","","","0.1577922033","0.6036290043","0.513472809","0.1897119627","","","","","","","","74","J","1","","","147","main_expt",""
"","bandit","227","821419","0.0-188.0-0.0","89114491","wem/bandit_either_3","A18E19QXO73YM4","either","1","873","","","","","","","0","1","0","","0.6110248825","0.8","0.6","0.4","0.2","0.1663963597","0.6110248825","0.3820674583","0.1759094881","","","","","","","","","","","","74","J","1","","","148","main_expt",""
"","bandit","228","823779","0.0-189.0-0.0","89114491","wem/bandit_either_3","A18E19QXO73YM4","either","1","833","","","","","","","1","0","0","0.6453676348","","0.8","0.6","0.4","0.2","","","","","0.319747154","0.6453676348","0.3116557105","0.2204336569","","","","","","","","74","J","1","","","149","main_expt",""
"","bandit","229","826154","0.0-190.0-0.0","89114491","wem/bandit_either_3","A18E19QXO73YM4","either","1","853","","","","","","","0","1","0","","0.66235511","0.8","0.6","0.4","0.2","0.5410110608","0.66235511","0.3039338698","0.2328853871","","","","","","","","","","","","74","J","1","","","150","main_expt",""
"","bandit","230","828389","0.0-191.0-0.0","89114491","wem/bandit_either_3","A18E19QXO73YM4","either","1","691","","","","","","","0","0","1","0.5547575852","","0.8","0.6","0.4","0.2","","","","","0.5584745132","0.5547575852","0.3092958796","0.2652525627","","","","","","","","74","J","1","","","151","main_expt",""
"","bandit","231","830477","0.0-192.0-0.0","89114491","wem/bandit_either_3","A18E19QXO73YM4","either","1","568","","","","","","","1","0","0","0.5223098228","","0.8","0.6","0.4","0.2","","","","","0.5709378499","0.5223098228","0.3097370874","0.2654363334","","","","","","","","74","J","1","","","152","main_expt",""
"","bandit","232","832780","0.0-193.0-0.0","89114491","wem/bandit_either_3","A18E19QXO73YM4","either","1","780","","","","","","","0","0","1","0.5137303037","","0.8","0.6","0.4","0.2","","","","","0.6314515046","0.5137303037","0.2955649657","0.3505589273","","","","","","","","74","J","1","","","153","main_expt",""
"","bandit","233","834909","0.0-194.0-0.0","89114491","wem/bandit_either_3","A18E19QXO73YM4","either","1","610","","","","","","","0","1","0","","0.5193194566","0.8","0.6","0.4","0.2","0.6734276465","0.5193194566","0.221553637","0.39889796","","","","","","","","","","","","74","J","1","","","154","main_expt",""
"","bandit","234","837106","0.0-195.0-0.0","89114491","wem/bandit_either_3","A18E19QXO73YM4","either","1","681","","","","","","","1","0","0","0.4736812385","","0.8","0.6","0.4","0.2","","","","","0.7019144477","0.4736812385","0.2231547498","0.4202606707","","","","","","","","74","J","1","","","155","main_expt",""
"","bandit","235","839727","0.0-196.0-0.0","89114491","wem/bandit_either_3","A18E19QXO73YM4","either","1","1101","","","","","","","0","0","1","","0.4616442501","0.8","0.6","0.4","0.2","0.6695455193","0.4616442501","0.2750957943","0.4814159609","","","","","","","","","","","","74","J","1","","","156","main_expt",""
"","bandit","236","841743","0.0-197.0-0.0","89114491","wem/bandit_either_3","A18E19QXO73YM4","either","1","506","","","","","","","1","0","0","0.5025740222","","0.8","0.6","0.4","0.2","","","","","0.6179864128","0.5025740222","0.2005793054","0.5316807058","","","","","","","","74","J","1","","","157","main_expt",""
"","bandit","237","844251","0.0-198.0-0.0","89114491","wem/bandit_either_3","A18E19QXO73YM4","either","1","991","","","","","","","0","1","0","","0.4548105643","0.8","0.6","0.4","0.2","0.7380689997","0.4548105643","0.2502080146","0.5429668589","","","","","","","","","","","","74","J","1","","","158","main_expt",""
"","bandit","238","846597","0.0-199.0-0.0","89114491","wem/bandit_either_3","A18E19QXO73YM4","either","1","825","","","","","","","0","0","1","","0.4622667215","0.8","0.6","0.4","0.2","0.7632184112","0.4622667215","0.2729805177","0.5991419929","","","","","","","","","","","","74","J","1","","","159","main_expt",""
"","bandit","239","848817","0.0-200.0-0.0","89114491","wem/bandit_either_3","A18E19QXO73YM4","either","1","695","","","","","","","0","1","0","","0.4600517474","0.8","0.6","0.4","0.2","0.6917664031","0.4600517474","0.2801697818","0.6480894682","","","","","","","","","","","","74","J","1","","","160","main_expt",""
"","bandit","240","850957","0.0-201.0-0.0","89114491","wem/bandit_either_3","A18E19QXO73YM4","either","1","624","","","","","","","0","0","1","","0.481388234","0.8","0.6","0.4","0.2","0.7106531984","0.481388234","0.2437938608","0.6776161973","","","","","","","","","","","","74","J","1","","","161","main_expt",""
"","bandit","241","853085","0.0-202.0-0.0","89114491","wem/bandit_either_3","A18E19QXO73YM4","either","1","608","","","","","","","0","0","1","0.3850106192","","0.8","0.6","0.4","0.2","","","","","0.809310282","0.3850106192","0.2687553501","0.7134031715","","","","","","","","74","J","1","","","162","main_expt",""
"","bandit","242","855247","0.0-203.0-0.0","89114491","wem/bandit_either_3","A18E19QXO73YM4","either","1","641","","","","","","","0","0","1","0.3498723973","","0.8","0.6","0.4","0.2","","","","","0.7492875705","0.3498723973","0.245991677","0.6215635068","","","","","","","","74","J","1","","","163","main_expt",""
"","bandit","243","857230","0.0-204.0-0.0","89114491","wem/bandit_either_3","A18E19QXO73YM4","either","1","461","","","","","","","1","0","0","0.7561394707","","0.8","0.6","0.4","0.2","","","","","0.7561394707","0.4287417444","0.270385563","0.5219240024","","","","","","","","72","H","0","img/none_selected.jpg","","164","main_expt",""
"","bandit","244","859517","0.0-205.0-0.0","89114491","wem/bandit_either_3","A18E19QXO73YM4","either","1","768","","","","","","","0","1","0","","0.8111415702","0.8","0.6","0.4","0.2","0.8111415702","0.3150145745","0.3037855967","0.4727302842","","","","","","","","","","","","72","H","0","img/none_selected.jpg","","165","main_expt",""
"","bandit","245","861932","0.0-206.0-0.0","89114491","wem/bandit_either_3","A18E19QXO73YM4","either","1","885","","","","","","","1","0","0","0.7759938205","","0.8","0.6","0.4","0.2","","","","","0.7759938205","0.2927018344","0.3395577104","0.5181018645","","","","","","","","72","H","0","img/none_selected.jpg","","166","main_expt",""
"","bandit","246","864144","0.0-207.0-0.0","89114491","wem/bandit_either_3","A18E19QXO73YM4","either","1","683","","","","","","","1","0","0","0.8267633335","","0.8","0.6","0.4","0.2","","","","","0.8267633335","0.3610256338","0.3443901906","0.5280433419","","","","","","","","72","H","0","img/none_selected.jpg","","167","main_expt",""
"","bandit","247","866366","0.0-208.0-0.0","89114491","wem/bandit_either_3","A18E19QXO73YM4","either","1","701","","","","","","","1","0","0","0.8136073627","","0.8","0.6","0.4","0.2","","","","","0.8136073627","0.3137127159","0.2552323567","0.5470010145","","","","","","","","72","H","0","img/none_selected.jpg","","168","main_expt",""
"","bandit","248","868609","0.0-209.0-0.0","89114491","wem/bandit_either_3","A18E19QXO73YM4","either","1","728","","","","","","","1","0","0","0.7308533614","","0.8","0.6","0.4","0.2","","","","","0.7308533614","0.2292796242","0.289352286","0.5558845962","","","","","","","","72","H","0","img/none_selected.jpg","","169","main_expt",""
"","bandit","249","871085","0.0-210.0-0.0","89114491","wem/bandit_either_3","A18E19QXO73YM4","either","1","958","","","","","","","1","0","0","0.7090730391","","0.8","0.6","0.4","0.2","","","","","0.7090730391","0.221948569","0.2262743404","0.5799309324","","","","","","","","72","H","0","img/none_selected.jpg","","170","main_expt",""
"","bandit","250","873422","0.0-211.0-0.0","89114491","wem/bandit_either_3","A18E19QXO73YM4","either","1","815","","","","","","","0","1","0","","0.7229684446","0.8","0.6","0.4","0.2","0.7229684446","0.159615594","0.2644351609","0.6643953266","","","","","","","","","","","","72","H","0","img/none_selected.jpg","","171","main_expt",""
"","bandit","251","875854","0.0-212.0-0.0","89114491","wem/bandit_either_3","A18E19QXO73YM4","either","1","911","","","","","","","0","0","1","0.6612043244","","0.8","0.6","0.4","0.2","","","","","0.6612043244","0.1303854457","0.4136296373","0.7610666705","","","","","","","","72","H","0","img/none_selected.jpg","","172","main_expt",""
"","bandit","252","878213","0.0-213.0-0.0","89114491","wem/bandit_either_3","A18E19QXO73YM4","either","1","832","","","","","","","1","0","0","0.7669021743","","0.8","0.6","0.4","0.2","","","","","0.7669021743","0.07729024622","0.491318492","0.8006149786","","","","","","","","72","H","0","img/none_selected.jpg","","173","main_expt",""
"","bandit","253","880690","0.0-214.0-0.0","89114491","wem/bandit_either_3","A18E19QXO73YM4","either","1","964","","","","","","","1","0","0","0.8111867287","","0.8","0.6","0.4","0.2","","","","","0.8111867287","0.1227026474","0.4966763124","0.791095403","","","","","","","","72","H","0","img/none_selected.jpg","","174","main_expt",""
"","bandit","254","882845","0.0-215.0-0.0","89114491","wem/bandit_either_3","A18E19QXO73YM4","either","1","639","","","","","","","1","0","0","0.8192498968","","0.8","0.6","0.4","0.2","","","","","0.8192498968","0.09483306355","0.5109350621","0.8572088762","","","","","","","","72","H","0","img/none_selected.jpg","","175","main_expt",""
"","bandit","255","885342","0.0-216.0-0.0","89114491","wem/bandit_either_3","A18E19QXO73YM4","either","1","971","","","","","","","0","1","0","","0.8371283275","0.8","0.6","0.4","0.2","0.8371283275","0.143069758","0.6321295754","0.8576080684","","","","","","","","","","","","72","H","0","img/none_selected.jpg","","176","main_expt",""
"","bandit","256","887598","0.0-217.0-0.0","89114491","wem/bandit_either_3","A18E19QXO73YM4","either","1","744","","","","","","","1","0","0","0.8545140947","","0.8","0.6","0.4","0.2","","","","","0.8545140947","0.1741656422","0.5515755996","0.8678158231","","","","","","","","72","H","0","img/none_selected.jpg","","177","main_expt",""
"","bandit","257","890109","0.0-218.0-0.0","89114491","wem/bandit_either_3","A18E19QXO73YM4","either","1","979","","","","","","","1","0","0","0.8794893657","","0.8","0.6","0.4","0.2","","","","","0.8794893657","0.1904086474","0.5086275016","0.8820542777","","","","","","","","72","H","0","img/none_selected.jpg","","178","main_expt",""
"","bandit","258","892556","0.0-219.0-0.0","89114491","wem/bandit_either_3","A18E19QXO73YM4","either","1","932","","","","","","","0","1","0","","0.8939587296","0.8","0.6","0.4","0.2","0.8939587296","0.1778905233","0.5215192908","0.8907334788","","","","","","","","","","","","72","H","0","img/none_selected.jpg","","179","main_expt",""
"","bandit","259","894945","0.0-220.0-0.0","89114491","wem/bandit_either_3","A18E19QXO73YM4","either","1","865","","","","","","","0","1","0","","0.868077767","0.8","0.6","0.4","0.2","0.868077767","0.2112817454","0.5193414217","0.9161653667","","","","","","","","","","","","72","H","0","img/none_selected.jpg","","180","main_expt",""
"","bandit","260","897259","0.0-221.0-0.0","89114491","wem/bandit_either_3","A18E19QXO73YM4","either","1","779","","","","","","","1","0","0","0.9295405476","","0.8","0.6","0.4","0.2","","","","","0.9295405476","0.2236312472","0.4613460131","0.9327112184","","","","","","","","72","H","0","img/none_selected.jpg","","181","main_expt",""
"","bandit","261","899529","0.0-222.0-0.0","89114491","wem/bandit_either_3","A18E19QXO73YM4","either","1","740","","","","","","","1","0","0","0.9213574857","","0.8","0.6","0.4","0.2","","","","","0.9213574857","0.264467441","0.4468633868","0.9284398706","","","","","","","","72","H","0","img/none_selected.jpg","","182","main_expt",""
"","bandit","262","901701","0.0-223.0-0.0","89114491","wem/bandit_either_3","A18E19QXO73YM4","either","1","648","","","","","","","1","0","0","0.9374560388","","0.8","0.6","0.4","0.2","","","","","0.9374560388","0.2240632979","0.4985091709","0.89591471","","","","","","","","72","H","0","img/none_selected.jpg","","183","main_expt",""
"","bandit","263","904135","0.0-224.0-0.0","89114491","wem/bandit_either_3","A18E19QXO73YM4","either","1","910","","","","","","","1","0","0","0.9120054929","","0.8","0.6","0.4","0.2","","","","","0.9120054929","0.1671404848","0.6057575335","0.9146434193","","","","","","","","72","H","0","img/none_selected.jpg","","184","main_expt",""
"","bandit","264","906646","0.0-225.0-0.0","89114491","wem/bandit_either_3","A18E19QXO73YM4","either","1","979","","","","","","","1","0","0","0.8428471033","","0.8","0.6","0.4","0.2","","","","","0.8428471033","0.1932257563","0.4915456485","0.8575823977","","","","","","","","72","H","0","img/none_selected.jpg","","185","main_expt",""
"","bandit","265","908830","0.0-226.0-0.0","89114491","wem/bandit_either_3","A18E19QXO73YM4","either","1","668","","","","","","","0","0","1","0.7734335662","","0.8","0.6","0.4","0.2","","","","","0.7734335662","0.155472597","0.5976273718","0.8487952361","","","","","","","","72","H","0","img/none_selected.jpg","","186","main_expt",""
"","bandit","266","911151","0.0-227.0-0.0","89114491","wem/bandit_either_3","A18E19QXO73YM4","either","1","797","","","","","","","1","0","0","0.7667319261","","0.8","0.6","0.4","0.2","","","","","0.7667319261","0.1895871356","0.5743595779","0.8603972339","","","","","","","","72","H","0","img/none_selected.jpg","","187","main_expt",""
"","bandit","267","913702","0.0-228.0-0.0","89114491","wem/bandit_either_3","A18E19QXO73YM4","either","1","1020","","","","","","","1","0","0","0.5945875292","","0.8","0.6","0.4","0.2","","","","","0.5945875292","0.2119556673","0.6833173747","0.8834510925","","","","","","","","72","H","0","img/none_selected.jpg","","188","main_expt",""
"","bandit","268","916369","0.0-229.0-0.0","89114491","wem/bandit_either_3","A18E19QXO73YM4","either","1","1153","","","","","","","0","1","0","","0.7406569186","0.8","0.6","0.4","0.2","0.7406569186","0.2255007403","0.651089354","0.8973947779","","","","","","","","","","","","72","H","0","img/none_selected.jpg","","189","main_expt",""
"","bandit","269","918914","0.0-230.0-0.0","89114491","wem/bandit_either_3","A18E19QXO73YM4","either","1","1031","","","","","","","1","0","0","0.7371931777","","0.8","0.6","0.4","0.2","","","","","0.7371931777","0.1754842532","0.6599652607","0.8824587855","","","","","","","","72","H","0","img/none_selected.jpg","","190","main_expt",""
"","bandit","270","921493","0.0-231.0-0.0","89114491","wem/bandit_either_3","A18E19QXO73YM4","either","1","1049","","","","","","","0","0","1","0.7019705866","","0.8","0.6","0.4","0.2","","","","","0.7019705866","0.1936311571","0.6960236584","0.9076431997","","","","","","","","72","H","0","img/none_selected.jpg","","191","main_expt",""
"","bandit","271","923669","0.0-232.0-0.0","89114491","wem/bandit_either_3","A18E19QXO73YM4","either","1","651","","","","","","","0","0","1","0.6198122665","","0.8","0.6","0.4","0.2","","","","","0.6198122665","0.215612591","0.6713911156","0.8673165995","","","","","","","","72","H","0","img/none_selected.jpg","","192","main_expt",""
"","bandit","272","925814","0.0-233.0-0.0","89114491","wem/bandit_either_3","A18E19QXO73YM4","either","1","610","","","","","","","0","1","0","","0.6100930929","0.8","0.6","0.4","0.2","0.6100930929","0.2818734505","0.7244072205","0.8264401474","","","","","","","","","","","","72","H","0","img/none_selected.jpg","","193","main_expt",""
"","bandit","273","928253","0.0-234.0-0.0","89114491","wem/bandit_either_3","A18E19QXO73YM4","either","1","916","","","","","","","1","0","0","0.6332739585","","0.8","0.6","0.4","0.2","","","","","0.6332739585","0.3616108755","0.7397798508","0.8546086414","","","","","","","","72","H","0","img/none_selected.jpg","","194","main_expt",""
"","bandit","274","930629","0.0-235.0-0.0","89114491","wem/bandit_either_3","A18E19QXO73YM4","either","1","845","","","","","","","1","0","0","0.609207161","","0.8","0.6","0.4","0.2","","","","","0.609207161","0.3979961615","0.7602069811","0.7914914872","","","","","","","","72","H","0","img/none_selected.jpg","","195","main_expt",""
"","bandit","275","932958","0.0-236.0-0.0","89114491","wem/bandit_either_3","A18E19QXO73YM4","either","1","809","","","","","","","0","1","0","","0.6560649547","0.8","0.6","0.4","0.2","0.6560649547","0.4366641927","0.7114092524","0.7608346536","","","","","","","","","","","","72","H","0","img/none_selected.jpg","","196","main_expt",""
"","bandit","276","935366","0.0-237.0-0.0","89114491","wem/bandit_either_3","A18E19QXO73YM4","either","1","888","","","","","","","0","0","1","0.6656533059","","0.8","0.6","0.4","0.2","","","","","0.6656533059","0.560782874","0.6917424169","0.7003784325","","","","","","","","72","H","0","img/none_selected.jpg","","197","main_expt",""
"","bandit","277","937529","0.0-238.0-0.0","89114491","wem/bandit_either_3","A18E19QXO73YM4","either","1","636","","","","","","","0","1","0","","0.6841747727","0.8","0.6","0.4","0.2","0.6841747727","0.5649388288","0.6561069913","0.6036075577","","","","","","","","","","","","72","H","0","img/none_selected.jpg","","198","main_expt",""
"","bandit","278","939973","0.0-239.0-0.0","89114491","wem/bandit_either_3","A18E19QXO73YM4","either","1","914","","","","","","","0","0","1","","0.7105065455","0.8","0.6","0.4","0.2","0.7105065455","0.5375892324","0.6948346643","0.5843314555","","","","","","","","","","","","72","H","0","img/none_selected.jpg","","199","main_expt",""
"","bandit","279","941877","0.0-240.0-0.0","89114491","wem/bandit_either_3","A18E19QXO73YM4","either","1","379","","","","","","","1","0","0","0.7380433654","","0.8","0.6","0.4","0.2","","","","","0.7380433654","0.5625167851","0.7369743936","0.539414212","","","","","","","","72","H","0","img/none_selected.jpg","","200","main_expt",""
"","bandit","280","944522","0.0-241.0-0.0","89114491","wem/bandit_either_3","A18E19QXO73YM4","either","1","1116","","","","","","","1","0","0","0.6432951689","","0.8","0.6","0.4","0.2","","","","","0.6432951689","0.6266810217","0.8347268415","0.3774065742","","","","","","","","72","H","0","img/none_selected.jpg","","201","main_expt",""
"","bandit","281","946631","0.0-242.0-0.0","89114491","wem/bandit_either_3","A18E19QXO73YM4","either","1","588","","","","","","","1","0","0","0.4995879772","","0.8","0.6","0.4","0.2","","","","","0.4995879772","0.6661075828","0.7612264534","0.2824615609","","","","","","","","72","H","0","img/none_selected.jpg","","202","main_expt",""
"","bandit","282","949094","0.0-243.0-0.0","89114491","wem/bandit_either_3","A18E19QXO73YM4","either","1","936","","","","","","","1","0","0","0.4767352753","","0.8","0.6","0.4","0.2","","","","","0.4767352753","0.7534099026","0.6904596671","0.210170224","","","","","","","","72","H","0","img/none_selected.jpg","","203","main_expt",""
"","bandit","283","951255","0.0-244.0-0.0","89114491","wem/bandit_either_3","A18E19QXO73YM4","either","1","639","","","","","","","0","0","1","","0.3680612217","0.8","0.6","0.4","0.2","0.3680612217","0.7033522103","0.6855485072","0.2708138581","","","","","","","","","","","","72","H","0","img/none_selected.jpg","","204","main_expt",""
"","bandit","284","953418","0.0-245.0-0.0","89114491","wem/bandit_either_3","A18E19QXO73YM4","either","1","645","","","","","","","0","0","1","0.3404512965","","0.8","0.6","0.4","0.2","","","","","0.3404512965","0.6105989365","0.7006332368","0.3319820794","","","","","","","","72","H","0","img/none_selected.jpg","","205","main_expt",""
"","bandit","285","955613","0.0-246.0-0.0","89114491","wem/bandit_either_3","A18E19QXO73YM4","either","1","675","","","","","","","0","0","1","","0.2774568564","0.8","0.6","0.4","0.2","0.2774568564","0.725137222","0.7533130943","0.3517339603","","","","","","","","","","","","72","H","0","img/none_selected.jpg","","206","main_expt",""
"","bandit","286","957638","0.0-247.0-0.0","89114491","wem/bandit_either_3","A18E19QXO73YM4","either","1","499","","","","","","","0","0","1","","0.2871079035","0.8","0.6","0.4","0.2","0.2228883469","0.5888984072","0.7191760557","0.2871079035","","","","","","","","","","","","76","L","3","","","207","main_expt",""
"","bandit","287","959706","0.0-248.0-0.0","89114491","wem/bandit_either_3","A18E19QXO73YM4","either","1","553","","","","","","","1","0","0","0.2642306377","","0.8","0.6","0.4","0.2","","","","","0.2829247412","0.4650323514","0.6264293856","0.2642306377","","","","","","","","76","L","3","","","208","main_expt",""
"","bandit","288","962002","0.0-249.0-0.0","89114491","wem/bandit_either_3","A18E19QXO73YM4","either","1","766","","","","","","","0","0","1","","0.3587725811","0.8","0.6","0.4","0.2","0.3169104167","0.4100719568","0.6500478562","0.3587725811","","","","","","","","","","","","76","L","3","","","209","main_expt",""
"","bandit","289","964038","0.0-250.0-0.0","89114491","wem/bandit_either_3","A18E19QXO73YM4","either","1","501","","","","","","","0","0","1","0.3103342645","","0.8","0.6","0.4","0.2","","","","","0.2090062306","0.5177296744","0.6498865343","0.3103342645","","","","","","","","76","L","3","","","210","main_expt",""
"","bandit","290","966017","0.0-251.0-0.0","89114491","wem/bandit_either_3","A18E19QXO73YM4","either","1","453","","","","","","","0","0","1","","0.6056301442","0.8","0.6","0.4","0.2","0.1481662818","0.5950812693","0.6056301442","0.3760595068","","","","","","","","","","","","75","K","2","","","211","main_expt",""
"","bandit","291","968165","0.0-252.0-0.0","89114491","wem/bandit_either_3","A18E19QXO73YM4","either","1","630","","","","","","","0","1","0","","0.5524844402","0.8","0.6","0.4","0.2","0.2114888193","0.7169745983","0.5524844402","0.447023013","","","","","","","","","","","","75","K","2","","","212","main_expt",""
"","bandit","292","970341","0.0-253.0-0.0","89114491","wem/bandit_either_3","A18E19QXO73YM4","either","1","657","","","","","","","1","0","0","0.6984249358","","0.8","0.6","0.4","0.2","","","","","0.2234642754","0.6766124197","0.6984249358","0.4529182837","","","","","","","","75","K","2","","","213","main_expt",""
"","bandit","293","972527","0.0-254.0-0.0","89114491","wem/bandit_either_3","A18E19QXO73YM4","either","1","671","","","","","","","0","0","1","0.5996975418","","0.8","0.6","0.4","0.2","","","","","0.2315139555","0.8005648136","0.5996975418","0.4306534983","","","","","","","","75","K","2","","","214","main_expt",""
"","bandit","294","974609","0.0-255.0-0.0","89114491","wem/bandit_either_3","A18E19QXO73YM4","either","1","550","","","","","","","0","0","1","0.6067129047","","0.8","0.6","0.4","0.2","","","","","0.1949488974","0.8487964291","0.6067129047","0.4314469479","","","","","","","","75","K","2","","","215","main_expt",""
"","bandit","295","976679","0.0-256.0-0.0","89114491","wem/bandit_either_3","A18E19QXO73YM4","either","1","545","","","","","","","1","0","0","0.8674123454","","0.8","0.6","0.4","0.2","","","","","0.2333303883","0.8674123454","0.6297976658","0.45439575","","","","","","","","74","J","1","","","216","main_expt",""
"","bandit","296","978836","0.0-257.0-0.0","89114491","wem/bandit_either_3","A18E19QXO73YM4","either","1","637","","","","","","","1","0","0","0.8774404243","","0.8","0.6","0.4","0.2","","","","","0.2027763819","0.8774404243","0.6095272491","0.5228861726","","","","","","","","74","J","1","","","217","main_expt",""
"","bandit","297","981082","0.0-258.0-0.0","89114491","wem/bandit_either_3","A18E19QXO73YM4","either","1","718","","","","","","","0","1","0","","0.8836448068","0.8","0.6","0.4","0.2","0.1895874514","0.8836448068","0.7058099393","0.463703458","","","","","","","","","","","","74","J","1","","","218","main_expt",""
"","bandit","298","983274","0.0-259.0-0.0","89114491","wem/bandit_either_3","A18E19QXO73YM4","either","1","675","","","","","","","0","1","0","","0.880498508","0.8","0.6","0.4","0.2","0.1537120117","0.880498508","0.7396246451","0.4522864467","","","","","","","","","","","","74","J","1","","","219","main_expt",""
"","bandit","299","985526","0.0-260.0-0.0","89114491","wem/bandit_either_3","A18E19QXO73YM4","either","1","733","","","","","","","1","0","0","0.8740874997","","0.8","0.6","0.4","0.2","","","","","0.2022747423","0.8740874997","0.7091968036","0.4561576612","","","","","","","","74","J","1","","","220","main_expt",""
"","bandit","300","987614","0.0-261.0-0.0","89114491","wem/bandit_either_3","A18E19QXO73YM4","either","1","567","","","","","","","1","0","0","0.8527830905","","0.8","0.6","0.4","0.2","","","","","0.3174413427","0.8527830905","0.7116308873","0.4264657168","","","","","","","","74","J","1","","","221","main_expt",""
"","bandit","301","989974","0.0-262.0-0.0","89114491","wem/bandit_either_3","A18E19QXO73YM4","either","1","840","","","","","","","0","0","1","","0.7717907476","0.8","0.6","0.4","0.2","0.2315667073","0.7717907476","0.769465391","0.3055141729","","","","","","","","","","","","74","J","1","","","222","main_expt",""
"","bandit","302","992184","0.0-263.0-0.0","89114491","wem/bandit_either_3","A18E19QXO73YM4","either","1","688","","","","","","","1","0","0","0.8359700354","","0.8","0.6","0.4","0.2","","","","","0.2261006122","0.8359700354","0.7509006974","0.2868954791","","","","","","","","74","J","1","","","223","main_expt",""
"","bandit","303","994555","0.0-264.0-0.0","89114491","wem/bandit_either_3","A18E19QXO73YM4","either","1","853","","","","","","","0","1","0","","0.819670806","0.8","0.6","0.4","0.2","0.2662378096","0.819670806","0.7007688409","0.2698185242","","","","","","","","","","","","74","J","1","","","224","main_expt",""
"","bandit","304","996765","0.0-265.0-0.0","89114491","wem/bandit_either_3","A18E19QXO73YM4","either","1","680","","","","","","","0","1","0","","0.8512382749","0.8","0.6","0.4","0.2","0.2163280173","0.8512382749","0.7409020096","0.213842325","","","","","","","","","","","","74","J","1","","","225","main_expt",""
"","bandit","305","998866","0.0-266.0-0.0","89114491","wem/bandit_either_3","A18E19QXO73YM4","either","1","582","","","","","","","0","0","1","0.8342861847","","0.8","0.6","0.4","0.2","","","","","0.2809353625","0.8342861847","0.7052945704","0.1616408491","","","","","","","","74","J","1","","","226","main_expt",""
"","bandit","306","1001009","0.0-267.0-0.0","89114491","wem/bandit_either_3","A18E19QXO73YM4","either","1","623","","","","","","","1","0","0","0.7736041865","","0.8","0.6","0.4","0.2","","","","","0.2396571279","0.7736041865","0.606091252","0.1777599287","","","","","","","","74","J","1","","","227","main_expt",""
"","bandit","307","1003269","0.0-268.0-0.0","89114491","wem/bandit_either_3","A18E19QXO73YM4","either","1","742","","","","","","","1","0","0","0.8094350608","","0.8","0.6","0.4","0.2","","","","","0.3430446928","0.8094350608","0.5834203199","0.2866543064","","","","","","","","74","J","1","","","228","main_expt",""
"","bandit","308","1005417","0.0-269.0-0.0","89114491","wem/bandit_either_3","A18E19QXO73YM4","either","1","623","","","","","","","1","0","0","0.8078722129","","0.8","0.6","0.4","0.2","","","","","0.2886233194","0.8078722129","0.5466214007","0.3948293382","","","","","","","","74","J","1","","","229","main_expt",""
"","bandit","309","1007548","0.0-270.0-0.0","89114491","wem/bandit_either_3","A18E19QXO73YM4","either","1","616","","","","","","","1","0","0","0.7719043616","","0.8","0.6","0.4","0.2","","","","","0.3213731463","0.7719043616","0.5519014059","0.3291786684","","","","","","","","74","J","1","","","230","main_expt",""
"","bandit","310","1009638","0.0-271.0-0.0","89114491","wem/bandit_either_3","A18E19QXO73YM4","either","1","571","","","","","","","0","0","1","0.8049264475","","0.8","0.6","0.4","0.2","","","","","0.2771614906","0.8049264475","0.4527164215","0.2378236032","","","","","","","","74","J","1","","","231","main_expt",""
"","bandit","311","1011703","0.0-272.0-0.0","89114491","wem/bandit_either_3","A18E19QXO73YM4","either","1","532","","","","","","","0","1","0","","0.8850589997","0.8","0.6","0.4","0.2","0.2249105956","0.8850589997","0.5135082398","0.246393804","","","","","","","","","","","","74","J","1","","","232","main_expt",""
"","bandit","312","1013680","0.0-273.0-0.0","89114491","wem/bandit_either_3","A18E19QXO73YM4","either","1","454","","","","","","","0","1","0","","0.9183615156","0.8","0.6","0.4","0.2","0.2447973041","0.9183615156","0.5502454751","0.2141634692","","","","","","","","","","","","74","J","1","","","233","main_expt",""
"","bandit","313","1015758","0.0-274.0-0.0","89114491","wem/bandit_either_3","A18E19QXO73YM4","either","1","547","","","","","","","1","0","0","0.9639410842","","0.8","0.6","0.4","0.2","","","","","0.24601643","0.9639410842","0.3783923662","0.2876436191","","","","","","","","74","J","1","","","234","main_expt",""
"","bandit","314","1017961","0.0-275.0-0.0","89114491","wem/bandit_either_3","A18E19QXO73YM4","either","1","684","","","","","","","1","0","0","0.9697187448","","0.8","0.6","0.4","0.2","","","","","0.1629844561","0.9697187448","0.2814299379","0.2769077257","","","","","","","","74","J","1","","","235","main_expt",""
"","bandit","315","1019812","0.0-276.0-0.0","89114491","wem/bandit_either_3","A18E19QXO73YM4","either","1","323","","","","","","","1","0","0","0.9571573523","","0.8","0.6","0.4","0.2","","","","","0.1929455839","0.9571573523","0.3106100538","0.136865198","","","","","","","","74","J","1","","","236","main_expt",""
"","bandit","316","1021906","0.0-277.0-0.0","89114491","wem/bandit_either_3","A18E19QXO73YM4","either","1","567","","","","","","","0","1","0","","0.9170696074","0.8","0.6","0.4","0.2","0.1497712966","0.9170696074","0.3152445528","0.1123790732","","","","","","","","","","","","74","J","1","","","237","main_expt",""
"","bandit","317","1024031","0.0-278.0-0.0","89114491","wem/bandit_either_3","A18E19QXO73YM4","either","1","602","","","","","","","1","0","0","0.9207491077","","0.8","0.6","0.4","0.2","","","","","0.1526491196","0.9207491077","0.2637175197","0.09027024906","","","","","","","","74","J","1","","","238","main_expt",""
"","bandit","318","1025926","0.0-279.0-0.0","89114491","wem/bandit_either_3","A18E19QXO73YM4","either","1","375","","","","","","","1","0","0","0.9211301165","","0.8","0.6","0.4","0.2","","","","","0.1745924244","0.9211301165","0.1889878372","0.08323179304","","","","","","","","74","J","1","","","239","main_expt",""
"","bandit","319","1027902","0.0-280.0-0.0","89114491","wem/bandit_either_3","A18E19QXO73YM4","either","1","454","","","","","","","0","1","0","","0.8992774771","0.8","0.6","0.4","0.2","0.1159399908","0.8992774771","0.1710885746","0.08130265934","","","","","","","","","","","","74","J","1","","","240","main_expt",""
"","bandit","320","1029928","0.0-281.0-0.0","89114491","wem/bandit_either_3","A18E19QXO73YM4","either","1","501","","","","","","","1","0","0","0.8977441673","","0.8","0.6","0.4","0.2","","","","","0.1682101231","0.8977441673","0.1232632504","0.1424736114","","","","","","","","74","J","1","","","241","main_expt",""
"","bandit","321","1032070","0.0-282.0-0.0","89114491","wem/bandit_either_3","A18E19QXO73YM4","either","1","622","","","","","","","1","0","0","0.853076495","","0.8","0.6","0.4","0.2","","","","","0.1643169396","0.853076495","0.210295675","0.2433221762","","","","","","","","74","J","1","","","242","main_expt",""
