"consent","trial_type","trial_index","time_elapsed","internal_node_id","subjID","study","MID","cond","drift","rt","responses","key_press","expt_phase","like","value","connected","gems","bombs","no_reward","GemPrChosen","BombPrChosen","GainOverPainPr_0","GainOverPainPr_1","GainOverPainPr_2","GainOverPainPr_3","LosePr_0","LosePr_1","LosePr_2","LosePr_3","WinPr_0","WinPr_1","WinPr_2","WinPr_3","Q0","Q1","Q2","gender","age","ethnicity","target","respCharCode","respKey","respChoiceNum","respChoice","practice","trial_counter","trial_label","button_pressed"
"INL_behavioral_consent_30min_online.html","consent","0","9269","0.0-0.0","89178629","wem/bandit_either_3","A2SE5QBXBBDL3N","either","2","","","","","","","","","","","","","","","","","","","","","","","","","","","","","","","","","","","","","","",""
"","survey-text","1","13281","0.0-1.0","89178629","wem/bandit_either_3","A2SE5QBXBBDL3N","either","2","3007","{""Q0"":""A2SE5QBXBBDL3N""}","","","","","","","","","","","","","","","","","","","","","","","","","","","","","","","","","","","","",""
"","text","2","17604","0.0-2.0","89178629","wem/bandit_either_3","A2SE5QBXBBDL3N","either","2","3319","","32","","","","","","","","","","","","","","","","","","","","","","","","","","","","","","","","","","","",""
"","text","3","20878","0.0-3.0","89178629","wem/bandit_either_3","A2SE5QBXBBDL3N","either","2","3272","","32","","","","","","","","","","","","","","","","","","","","","","","","","","","","","","","","","","","",""
"","text","4","25090","0.0-4.0","89178629","wem/bandit_either_3","A2SE5QBXBBDL3N","either","2","4210","","32","","","","","","","","","","","","","","","","","","","","","","","","","","","","","","","","","","","",""
"","text","5","26959","0.0-5.0","89178629","wem/bandit_either_3","A2SE5QBXBBDL3N","either","2","1868","","32","","","","","","","","","","","","","","","","","","","","","","","","","","","","","","","","","","","",""
"","text","6","28328","0.0-6.0","89178629","wem/bandit_either_3","A2SE5QBXBBDL3N","either","2","1368","","32","","","","","","","","","","","","","","","","","","","","","","","","","","","","","","","","","","","",""
"","text","7","28853","0.0-7.0","89178629","wem/bandit_either_3","A2SE5QBXBBDL3N","either","2","524","","32","","","","","","","","","","","","","","","","","","","","","","","","","","","","","","","","","","","",""
"","text","8","29766","0.0-8.0","89178629","wem/bandit_either_3","A2SE5QBXBBDL3N","either","2","912","","32","","","","","","","","","","","","","","","","","","","","","","","","","","","","","","","","","","","",""
"","identification","9","34013","0.0-9.0-0.0","89178629","wem/bandit_either_3","A2SE5QBXBBDL3N","either","2","4237","","","","4","5","4","","","","","","","","","","","","","","","","","","","","","","","","the village of Zur","","","","","","","",""
"","identification","10","37110","0.0-9.0-1.0","89178629","wem/bandit_either_3","A2SE5QBXBBDL3N","either","2","2082","","","","4","2","3","","","","","","","","","","","","","","","","","","","","","","","","the village of Nyx","","","","","","","",""
"","text","11","42754","0.0-10.0","89178629","wem/bandit_either_3","A2SE5QBXBBDL3N","either","2","4642","","32","","","","","","","","","","","","","","","","","","","","","","","","","","","","","","","","","","","",""
"","text","12","44062","0.0-11.0","89178629","wem/bandit_either_3","A2SE5QBXBBDL3N","either","2","1306","","32","","","","","","","","","","","","","","","","","","","","","","","","","","","","","","","","","","","",""
"","text","13","44999","0.0-12.0","89178629","wem/bandit_either_3","A2SE5QBXBBDL3N","either","2","937","","32","","","","","","","","","","","","","","","","","","","","","","","","","","","","","","","","","","","",""
"","text","14","48032","0.0-13.0","89178629","wem/bandit_either_3","A2SE5QBXBBDL3N","either","2","3032","","32","","","","","","","","","","","","","","","","","","","","","","","","","","","","","","","","","","","",""
"","bandit","15","50750","0.0-14.0-0.0","89178629","wem/bandit_either_3","A2SE5QBXBBDL3N","either","2","1208","","","","","","","0","0","1","0","0","","","","","0","","","","0","","","","","","","","","","","74","J","0","img/none_selected_demo.jpg","true","0","",""
"","bandit","16","52868","0.0-15.0-0.0","89178629","wem/bandit_either_3","A2SE5QBXBBDL3N","either","2","612","","","","","","","0","0","1","0","0","","","","","0","","","","0","","","","","","","","","","","75","K","0","img/none_selected_demo.jpg","true","0","",""
"","text","17","55498","0.0-16.0","89178629","wem/bandit_either_3","A2SE5QBXBBDL3N","either","2","2627","","32","","","","","","","","","","","","","","","","","","","","","","","","","","","","","","","","","","","",""
"","text","18","56696","0.0-17.0","89178629","wem/bandit_either_3","A2SE5QBXBBDL3N","either","2","1196","","32","","","","","","","","","","","","","","","","","","","","","","","","","","","","","","","","","","","",""
"","text","19","58863","0.0-18.0","89178629","wem/bandit_either_3","A2SE5QBXBBDL3N","either","2","2166","","32","","","","","","","","","","","","","","","","","","","","","","","","","","","","","","","","","","","",""
"","text","20","59727","0.0-19.0","89178629","wem/bandit_either_3","A2SE5QBXBBDL3N","either","2","864","","32","","","","","","","","","","","","","","","","","","","","","","","","","","","","","","","","","","","",""
"","bandit","21","61846","0.0-20.0-0.0","89178629","wem/bandit_either_3","A2SE5QBXBBDL3N","either","2","613","","","","","","","0","0","1","","0.8","0.5","0.5","","","0.8","0.2","","","","","","","","","","","","","","74","J","0","img/none_selected_demo.jpg","true","0","80_20_practice",""
"","bandit","22","63664","0.0-20.0-1.0","89178629","wem/bandit_either_3","A2SE5QBXBBDL3N","either","2","309","","","","","","","0","0","1","","0.2","0.5","0.5","","","0.8","0.2","","","","","","","","","","","","","","75","K","1","","true","0","80_20_practice",""
"","bandit","23","66102","0.0-20.0-2.0","89178629","wem/bandit_either_3","A2SE5QBXBBDL3N","either","2","931","","","","","","","1","0","0","0.8","","0.5","0.5","","","","","","","0.8","0.2","","","","","","","","","","74","J","0","img/none_selected_demo.jpg","true","0","80_20_practice",""
"","bandit","24","67853","0.0-20.0-3.0","89178629","wem/bandit_either_3","A2SE5QBXBBDL3N","either","2","242","","","","","","","0","1","0","","0.2","0.5","0.5","","","0.8","0.2","","","","","","","","","","","","","","75","K","1","","true","0","80_20_practice",""
"","bandit","25","70222","0.0-20.0-4.0","89178629","wem/bandit_either_3","A2SE5QBXBBDL3N","either","2","864","","","","","","","1","0","0","0.8","","0.5","0.5","","","","","","","0.8","0.2","","","","","","","","","","74","J","0","img/none_selected_demo.jpg","true","0","80_20_practice",""
"","bandit","26","71849","0.0-20.0-5.0","89178629","wem/bandit_either_3","A2SE5QBXBBDL3N","either","2","121","","","","","","","0","1","0","","0.8","0.5","0.5","","","0.8","0.2","","","","","","","","","","","","","","74","J","0","img/none_selected_demo.jpg","true","0","80_20_practice",""
"","bandit","27","73735","0.0-20.0-6.0","89178629","wem/bandit_either_3","A2SE5QBXBBDL3N","either","2","379","","","","","","","0","0","1","0.2","","0.5","0.5","","","","","","","0.8","0.2","","","","","","","","","","75","K","1","","true","0","80_20_practice",""
"","bandit","28","75302","0.0-20.0-7.0","89178629","wem/bandit_either_3","A2SE5QBXBBDL3N","either","2","63","","","","","","","0","0","1","","0.2","0.5","0.5","","","0.8","0.2","","","","","","","","","","","","","","75","K","1","","true","0","80_20_practice",""
"","bandit","29","76848","0.0-20.0-8.0","89178629","wem/bandit_either_3","A2SE5QBXBBDL3N","either","2","37","","","","","","","0","0","1","0.8","","0.5","0.5","","","","","","","0.8","0.2","","","","","","","","","","74","J","0","img/none_selected_demo.jpg","true","0","80_20_practice",""
"","bandit","30","78801","0.0-20.0-9.0","89178629","wem/bandit_either_3","A2SE5QBXBBDL3N","either","2","447","","","","","","","1","0","0","0.8","","0.5","0.5","","","","","","","0.8","0.2","","","","","","","","","","74","J","0","img/none_selected_demo.jpg","true","0","80_20_practice",""
"","bandit","31","80353","0.0-20.0-10.0","89178629","wem/bandit_either_3","A2SE5QBXBBDL3N","either","2","48","","","","","","","1","0","0","0.8","","0.5","0.5","","","","","","","0.8","0.2","","","","","","","","","","74","J","0","img/none_selected_demo.jpg","true","0","80_20_practice",""
"","bandit","32","82178","0.0-20.0-11.0","89178629","wem/bandit_either_3","A2SE5QBXBBDL3N","either","2","319","","","","","","","1","0","0","0.8","","0.5","0.5","","","","","","","0.8","0.2","","","","","","","","","","74","J","0","img/none_selected_demo.jpg","true","0","80_20_practice",""
"","bandit","33","83876","0.0-20.0-12.0","89178629","wem/bandit_either_3","A2SE5QBXBBDL3N","either","2","189","","","","","","","0","0","1","","0.8","0.5","0.5","","","0.8","0.2","","","","","","","","","","","","","","74","J","0","img/none_selected_demo.jpg","true","0","80_20_practice",""
"","bandit","34","85451","0.0-20.0-13.0","89178629","wem/bandit_either_3","A2SE5QBXBBDL3N","either","2","65","","","","","","","0","0","1","0.2","","0.5","0.5","","","","","","","0.8","0.2","","","","","","","","","","75","K","1","","true","0","80_20_practice",""
"","bandit","35","87144","0.0-20.0-14.0","89178629","wem/bandit_either_3","A2SE5QBXBBDL3N","either","2","186","","","","","","","0","0","1","0.8","","0.5","0.5","","","","","","","0.8","0.2","","","","","","","","","","74","J","0","img/none_selected_demo.jpg","true","0","80_20_practice",""
"","bandit","36","88678","0.0-20.0-15.0","89178629","wem/bandit_either_3","A2SE5QBXBBDL3N","either","2","24","","","","","","","1","0","0","0.8","","0.5","0.5","","","","","","","0.8","0.2","","","","","","","","","","74","J","0","img/none_selected_demo.jpg","true","0","80_20_practice",""
"","bandit","37","90503","0.0-20.0-16.0","89178629","wem/bandit_either_3","A2SE5QBXBBDL3N","either","2","318","","","","","","","0","1","0","","0.8","0.5","0.5","","","0.8","0.2","","","","","","","","","","","","","","74","J","0","img/none_selected_demo.jpg","true","0","80_20_practice",""
"","bandit","38","92156","0.0-20.0-17.0","89178629","wem/bandit_either_3","A2SE5QBXBBDL3N","either","2","148","","","","","","","0","1","0","","0.8","0.5","0.5","","","0.8","0.2","","","","","","","","","","","","","","74","J","0","img/none_selected_demo.jpg","true","0","80_20_practice",""
"","bandit","39","93690","0.0-20.0-18.0","89178629","wem/bandit_either_3","A2SE5QBXBBDL3N","either","2","27","","","","","","","1","0","0","0.8","","0.5","0.5","","","","","","","0.8","0.2","","","","","","","","","","74","J","0","img/none_selected_demo.jpg","true","0","80_20_practice",""
"","bandit","40","95339","0.0-20.0-19.0","89178629","wem/bandit_either_3","A2SE5QBXBBDL3N","either","2","141","","","","","","","0","0","1","","0.8","0.5","0.5","","","0.8","0.2","","","","","","","","","","","","","","74","J","0","img/none_selected_demo.jpg","true","0","80_20_practice",""
"","text","41","98402","0.0-21.0","89178629","wem/bandit_either_3","A2SE5QBXBBDL3N","either","2","3061","","32","","","","","","","","","","","","","","","","","","","","","","","","","","","","","","","","","","","",""
"","bandit","42","100583","0.0-22.0-0.0","89178629","wem/bandit_either_3","A2SE5QBXBBDL3N","either","2","677","","","","","","","1","0","0","1","0","","","","","0","1","","","1","0","","","","","","","","","","74","J","0","img/none_selected_demo.jpg","true","0","",""
"","text","43","101427","0.0-23.0","89178629","wem/bandit_either_3","A2SE5QBXBBDL3N","either","2","840","","32","","","","","","","","","","","","","","","","","","","","","","","","","","","","","","","","","","","",""
"","text","44","104382","0.0-24.0","89178629","wem/bandit_either_3","A2SE5QBXBBDL3N","either","2","2953","","32","","","","","","","","","","","","","","","","","","","","","","","","","","","","","","","","","","","",""
"","text","45","105413","0.0-25.0","89178629","wem/bandit_either_3","A2SE5QBXBBDL3N","either","2","1029","","32","","","","","","","","","","","","","","","","","","","","","","","","","","","","","","","","","","","",""
"","text","46","105970","0.0-26.0","89178629","wem/bandit_either_3","A2SE5QBXBBDL3N","either","2","555","","32","","","","","","","","","","","","","","","","","","","","","","","","","","","","","","","","","","","",""
"","text","47","106264","0.0-27.0","89178629","wem/bandit_either_3","A2SE5QBXBBDL3N","either","2","292","","32","","","","","","","","","","","","","","","","","","","","","","","","","","","","","","","","","","","",""
"","text","48","106480","0.0-28.0","89178629","wem/bandit_either_3","A2SE5QBXBBDL3N","either","2","213","","32","","","","","","","","","","","","","","","","","","","","","","","","","","","","","","","","","","","",""
"","text","49","106675","0.0-29.0","89178629","wem/bandit_either_3","A2SE5QBXBBDL3N","either","2","191","","32","","","","","","","","","","","","","","","","","","","","","","","","","","","","","","","","","","","",""
"","text","50","106856","0.0-30.0","89178629","wem/bandit_either_3","A2SE5QBXBBDL3N","either","2","178","","32","","","","","","","","","","","","","","","","","","","","","","","","","","","","","","","","","","","",""
"","text","51","107035","0.0-31.0","89178629","wem/bandit_either_3","A2SE5QBXBBDL3N","either","2","177","","32","","","","","","","","","","","","","","","","","","","","","","","","","","","","","","","","","","","",""
"","text","52","107202","0.0-32.0","89178629","wem/bandit_either_3","A2SE5QBXBBDL3N","either","2","164","","32","","","","","","","","","","","","","","","","","","","","","","","","","","","","","","","","","","","",""
"","text","53","107384","0.0-33.0","89178629","wem/bandit_either_3","A2SE5QBXBBDL3N","either","2","179","","32","","","","","","","","","","","","","","","","","","","","","","","","","","","","","","","","","","","",""
"","bandit","54","109351","0.0-34.0-0.0","89178629","wem/bandit_either_3","A2SE5QBXBBDL3N","either","2","460","","","","","","","0","0","1","0.8","","0.5","0.5","0.5","0.5","","","","","0.8","0.2","0.6","0.2","","","","","","","","72","H","0","img/none_selected.jpg","true","0","full_practice",""
"","bandit","55","110983","0.0-34.0-1.0","89178629","wem/bandit_either_3","A2SE5QBXBBDL3N","either","2","125","","","","","","","1","0","0","0.6","","0.5","0.5","0.5","0.5","","","","","0.8","0.2","0.6","0.2","","","","","","","","75","K","2","","true","0","full_practice",""
"","bandit","56","112589","0.0-34.0-2.0","89178629","wem/bandit_either_3","A2SE5QBXBBDL3N","either","2","99","","","","","","","1","0","0","0.8","","0.5","0.5","0.5","0.5","","","","","0.8","0.2","0.6","0.2","","","","","","","","72","H","0","img/none_selected.jpg","true","0","full_practice",""
"","bandit","57","114173","0.0-34.0-3.0","89178629","wem/bandit_either_3","A2SE5QBXBBDL3N","either","2","76","","","","","","","0","0","1","0.2","","0.5","0.5","0.5","0.5","","","","","0.8","0.2","0.6","0.2","","","","","","","","74","J","1","","true","0","full_practice",""
"","bandit","58","115726","0.0-34.0-4.0","89178629","wem/bandit_either_3","A2SE5QBXBBDL3N","either","2","44","","","","","","","0","0","1","0.6","","0.5","0.5","0.5","0.5","","","","","0.8","0.2","0.6","0.2","","","","","","","","75","K","2","","true","0","full_practice",""
"","bandit","59","117282","0.0-34.0-5.0","89178629","wem/bandit_either_3","A2SE5QBXBBDL3N","either","2","51","","","","","","","1","0","0","0.2","","0.5","0.5","0.5","0.5","","","","","0.8","0.2","0.6","0.2","","","","","","","","76","L","3","","true","0","full_practice",""
"","bandit","60","118962","0.0-34.0-6.0","89178629","wem/bandit_either_3","A2SE5QBXBBDL3N","either","2","170","","","","","","","0","0","1","","0.2","0.5","0.5","0.5","0.5","0.8","0.2","0.6","0.2","","","","","","","","","","","","76","L","3","","true","0","full_practice",""
"","bandit","61","123552","0.0-34.0-7.0","89178629","wem/bandit_either_3","A2SE5QBXBBDL3N","either","2","3086","","","","","","","0","0","1","","0.2","0.5","0.5","0.5","0.5","0.8","0.2","0.6","0.2","","","","","","","","","","","","74","J","1","","true","0","full_practice",""
"","bandit","62","127201","0.0-34.0-8.0","89178629","wem/bandit_either_3","A2SE5QBXBBDL3N","either","2","2143","","","","","","","0","0","1","0.2","","0.5","0.5","0.5","0.5","","","","","0.8","0.2","0.6","0.2","","","","","","","","74","J","1","","true","0","full_practice",""
"","bandit","63","128888","0.0-34.0-9.0","89178629","wem/bandit_either_3","A2SE5QBXBBDL3N","either","2","178","","","","","","","0","1","0","","0.6","0.5","0.5","0.5","0.5","0.8","0.2","0.6","0.2","","","","","","","","","","","","75","K","2","","true","0","full_practice",""
"","bandit","64","130543","0.0-34.0-10.0","89178629","wem/bandit_either_3","A2SE5QBXBBDL3N","either","2","148","","","","","","","0","0","1","","0.2","0.5","0.5","0.5","0.5","0.8","0.2","0.6","0.2","","","","","","","","","","","","74","J","1","","true","0","full_practice",""
"","bandit","65","132268","0.0-34.0-11.0","89178629","wem/bandit_either_3","A2SE5QBXBBDL3N","either","2","216","","","","","","","0","0","1","0.2","","0.5","0.5","0.5","0.5","","","","","0.8","0.2","0.6","0.2","","","","","","","","74","J","1","","true","0","full_practice",""
"","bandit","66","134045","0.0-34.0-12.0","89178629","wem/bandit_either_3","A2SE5QBXBBDL3N","either","2","267","","","","","","","0","0","1","0.2","","0.5","0.5","0.5","0.5","","","","","0.8","0.2","0.6","0.2","","","","","","","","74","J","1","","true","0","full_practice",""
"","bandit","67","136084","0.0-34.0-13.0","89178629","wem/bandit_either_3","A2SE5QBXBBDL3N","either","2","528","","","","","","","0","0","1","","0.2","0.5","0.5","0.5","0.5","0.8","0.2","0.6","0.2","","","","","","","","","","","","74","J","1","","true","0","full_practice",""
"","bandit","68","137707","0.0-34.0-14.0","89178629","wem/bandit_either_3","A2SE5QBXBBDL3N","either","2","115","","","","","","","0","1","0","","0.8","0.5","0.5","0.5","0.5","0.8","0.2","0.6","0.2","","","","","","","","","","","","72","H","0","img/none_selected.jpg","true","0","full_practice",""
"","bandit","69","139306","0.0-34.0-15.0","89178629","wem/bandit_either_3","A2SE5QBXBBDL3N","either","2","91","","","","","","","1","0","0","0.8","","0.5","0.5","0.5","0.5","","","","","0.8","0.2","0.6","0.2","","","","","","","","72","H","0","img/none_selected.jpg","true","0","full_practice",""
"","bandit","70","140879","0.0-34.0-16.0","89178629","wem/bandit_either_3","A2SE5QBXBBDL3N","either","2","54","","","","","","","0","0","1","","0.2","0.5","0.5","0.5","0.5","0.8","0.2","0.6","0.2","","","","","","","","","","","","74","J","1","","true","0","full_practice",""
"","bandit","71","142552","0.0-34.0-17.0","89178629","wem/bandit_either_3","A2SE5QBXBBDL3N","either","2","166","","","","","","","0","0","1","0.2","","0.5","0.5","0.5","0.5","","","","","0.8","0.2","0.6","0.2","","","","","","","","76","L","3","","true","0","full_practice",""
"","bandit","72","144065","0.0-34.0-18.0","89178629","wem/bandit_either_3","A2SE5QBXBBDL3N","either","2","1","","","","","","","0","0","1","0.2","","0.5","0.5","0.5","0.5","","","","","0.8","0.2","0.6","0.2","","","","","","","","76","L","3","","true","0","full_practice",""
"","bandit","73","145703","0.0-34.0-19.0","89178629","wem/bandit_either_3","A2SE5QBXBBDL3N","either","2","130","","","","","","","1","0","0","0.2","","0.5","0.5","0.5","0.5","","","","","0.8","0.2","0.6","0.2","","","","","","","","74","J","1","","true","0","full_practice",""
"","text","74","149389","0.0-35.0","89178629","wem/bandit_either_3","A2SE5QBXBBDL3N","either","2","3681","","32","","","","","","","","","","","","","","","","","","","","","","","","","","","","","","","","","","","",""
"","text","75","151549","0.0-36.0","89178629","wem/bandit_either_3","A2SE5QBXBBDL3N","either","2","1155","","32","","","","","","","","","","","","","","","","","","","","","","","","","","","","","","","","","","","",""
"","text","76","151707","0.0-37.0","89178629","wem/bandit_either_3","A2SE5QBXBBDL3N","either","2","155","","32","","","","","","","","","","","","","","","","","","","","","","","","","","","","","","","","","","","",""
"","text","77","151843","0.0-38.0","89178629","wem/bandit_either_3","A2SE5QBXBBDL3N","either","2","131","","32","","","","","","","","","","","","","","","","","","","","","","","","","","","","","","","","","","","",""
"","text","78","152074","0.0-39.0","89178629","wem/bandit_either_3","A2SE5QBXBBDL3N","either","2","229","","32","","","","","","","","","","","","","","","","","","","","","","","","","","","","","","","","","","","",""
"","text","79","152246","0.0-40.0","89178629","wem/bandit_either_3","A2SE5QBXBBDL3N","either","2","168","","32","","","","","","","","","","","","","","","","","","","","","","","","","","","","","","","","","","","",""
"","bandit","80","154287","0.0-41.0-0.0","89178629","wem/bandit_either_3","A2SE5QBXBBDL3N","either","2","534","","","","","","","1","0","0","0.9925337928","","0.6","0.8","0.2","0.4","","","","","0.4841938304","0.9925337928","0.7961415707","0.7092854079","","","","","","","","74","J","1","","","1","main_expt",""
"","bandit","81","155811","0.0-42.0-0.0","89178629","wem/bandit_either_3","A2SE5QBXBBDL3N","either","2","15","","","","","","","0","0","1","0.5300888233","","0.6","0.8","0.2","0.4","","","","","0.5300888233","0.9909612399","0.7739630809","0.7343230146","","","","","","","","72","H","0","img/none_selected.jpg","","2","main_expt",""
"","bandit","82","157521","0.0-43.0-0.0","89178629","wem/bandit_either_3","A2SE5QBXBBDL3N","either","2","202","","","","","","","0","1","0","","0.9875934203","0.6","0.8","0.2","0.4","0.4747636274","0.9875934203","0.807852523","0.7616266478","","","","","","","","","","","","74","J","1","","","3","main_expt",""
"","bandit","83","159198","0.0-44.0-0.0","89178629","wem/bandit_either_3","A2SE5QBXBBDL3N","either","2","170","","","","","","","1","0","0","0.9782241123","","0.6","0.8","0.2","0.4","","","","","0.4841015375","0.9782241123","0.7922386472","0.7555889459","","","","","","","","74","J","1","","","4","main_expt",""
"","bandit","84","161060","0.0-45.0-0.0","89178629","wem/bandit_either_3","A2SE5QBXBBDL3N","either","2","353","","","","","","","1","0","0","0.9756627961","","0.6","0.8","0.2","0.4","","","","","0.5545204825","0.9756627961","0.865094385","0.733520678","","","","","","","","74","J","1","","","5","main_expt",""
"","bandit","85","162760","0.0-46.0-0.0","89178629","wem/bandit_either_3","A2SE5QBXBBDL3N","either","2","192","","","","","","","1","0","0","0.967089612","","0.6","0.8","0.2","0.4","","","","","0.6032406034","0.967089612","0.800956518","0.6705264102","","","","","","","","74","J","1","","","6","main_expt",""
"","bandit","86","165515","0.0-47.0-0.0","89178629","wem/bandit_either_3","A2SE5QBXBBDL3N","either","2","1247","","","","","","","0","1","0","","0.9581374084","0.6","0.8","0.2","0.4","0.6629125932","0.9581374084","0.826484282","0.6395389268","","","","","","","","","","","","74","J","1","","","7","main_expt",""
"","bandit","87","167949","0.0-48.0-0.0","89178629","wem/bandit_either_3","A2SE5QBXBBDL3N","either","2","930","","","","","","","1","0","0","0.9470057872","","0.6","0.8","0.2","0.4","","","","","0.6179372523","0.9470057872","0.8721258401","0.6463283336","","","","","","","","74","J","1","","","8","main_expt",""
"","bandit","88","169536","0.0-49.0-0.0","89178629","wem/bandit_either_3","A2SE5QBXBBDL3N","either","2","83","","","","","","","1","0","0","0.9776699295","","0.6","0.8","0.2","0.4","","","","","0.7126464358","0.9776699295","0.9123847657","0.5257156782","","","","","","","","74","J","1","","","9","main_expt",""
"","bandit","89","171121","0.0-50.0-0.0","89178629","wem/bandit_either_3","A2SE5QBXBBDL3N","either","2","76","","","","","","","1","0","0","0.8996742502","","0.6","0.8","0.2","0.4","","","","","0.7356985298","0.9728878591","0.8996742502","0.4763364632","","","","","","","","75","K","2","","","10","main_expt",""
"","bandit","90","172886","0.0-51.0-0.0","89178629","wem/bandit_either_3","A2SE5QBXBBDL3N","either","2","255","","","","","","","0","1","0","","0.9131723876","0.6","0.8","0.2","0.4","0.768711937","0.9593139104","0.9131723876","0.4284616273","","","","","","","","","","","","75","K","2","","","11","main_expt",""
"","bandit","91","174495","0.0-52.0-0.0","89178629","wem/bandit_either_3","A2SE5QBXBBDL3N","either","2","104","","","","","","","0","1","0","","0.8766857583","0.6","0.8","0.2","0.4","0.775032537","0.9498917819","0.8766857583","0.3846657661","","","","","","","","","","","","75","K","2","","","12","main_expt",""
"","bandit","92","176035","0.0-53.0-0.0","89178629","wem/bandit_either_3","A2SE5QBXBBDL3N","either","2","32","","","","","","","0","1","0","","0.8395211377","0.6","0.8","0.2","0.4","0.8005481332","0.9541602679","0.8395211377","0.4534267517","","","","","","","","","","","","75","K","2","","","13","main_expt",""
"","bandit","93","177736","0.0-54.0-0.0","89178629","wem/bandit_either_3","A2SE5QBXBBDL3N","either","2","194","","","","","","","1","0","0","0.9457654821","","0.6","0.8","0.2","0.4","","","","","0.8437703121","0.9457654821","0.8716273459","0.5781166702","","","","","","","","74","J","1","","","14","main_expt",""
"","bandit","94","179263","0.0-55.0-0.0","89178629","wem/bandit_either_3","A2SE5QBXBBDL3N","either","2","21","","","","","","","0","0","1","","0.6683268695","0.6","0.8","0.2","0.4","0.7878475566","0.961431504","0.8884181174","0.6683268695","","","","","","","","","","","","76","L","3","","","15","main_expt",""
"","bandit","95","180824","0.0-56.0-0.0","89178629","wem/bandit_either_3","A2SE5QBXBBDL3N","either","2","52","","","","","","","0","1","0","","0.9144873871","0.6","0.8","0.2","0.4","0.7873795395","0.9614480804","0.9144873871","0.6948649322","","","","","","","","","","","","75","K","2","","","16","main_expt",""
"","bandit","96","182466","0.0-57.0-0.0","89178629","wem/bandit_either_3","A2SE5QBXBBDL3N","either","2","131","","","","","","","1","0","0","0.7674725463","","0.6","0.8","0.2","0.4","","","","","0.8084550093","0.981184269","0.915766025","0.7674725463","","","","","","","","76","L","3","","","17","main_expt",""
"","bandit","97","184030","0.0-58.0-0.0","89178629","wem/bandit_either_3","A2SE5QBXBBDL3N","either","2","55","","","","","","","1","0","0","0.8436933745","","0.6","0.8","0.2","0.4","","","","","0.8436933745","0.9861919244","0.9357816117","0.7706733977","","","","","","","","72","H","0","img/none_selected.jpg","","18","main_expt",""
"","bandit","98","185678","0.0-59.0-0.0","89178629","wem/bandit_either_3","A2SE5QBXBBDL3N","either","2","141","","","","","","","0","1","0","","0.8059530903","0.6","0.8","0.2","0.4","0.8059530903","0.986789567","0.9482019282","0.7396491891","","","","","","","","","","","","72","H","0","img/none_selected.jpg","","19","main_expt",""
"","bandit","99","187567","0.0-60.0-0.0","89178629","wem/bandit_either_3","A2SE5QBXBBDL3N","either","2","380","","","","","","","1","0","0","0.6712916173","","0.6","0.8","0.2","0.4","","","","","0.7839513496","0.986183881","0.9433726768","0.6712916173","","","","","","","","76","L","3","","","20","main_expt",""
"","bandit","100","189209","0.0-61.0-0.0","89178629","wem/bandit_either_3","A2SE5QBXBBDL3N","either","2","129","","","","","","","0","0","1","0.6728887443","","0.6","0.8","0.2","0.4","","","","","0.7841815244","0.9887099493","0.9488284628","0.6728887443","","","","","","","","76","L","3","","","21","main_expt",""
"","bandit","101","190772","0.0-62.0-0.0","89178629","wem/bandit_either_3","A2SE5QBXBBDL3N","either","2","55","","","","","","","1","0","0","0.8256278583","","0.6","0.8","0.2","0.4","","","","","0.8256278583","0.992558567","0.9500515088","0.7838502077","","","","","","","","72","H","0","img/none_selected.jpg","","22","main_expt",""
"","bandit","102","192302","0.0-63.0-0.0","89178629","wem/bandit_either_3","A2SE5QBXBBDL3N","either","2","21","","","","","","","1","0","0","0.7043778873","","0.6","0.8","0.2","0.4","","","","","0.7043778873","0.9906074595","0.9645760881","0.8711917965","","","","","","","","72","H","0","img/none_selected.jpg","","23","main_expt",""
"","bandit","103","194055","0.0-64.0-0.0","89178629","wem/bandit_either_3","A2SE5QBXBBDL3N","either","2","246","","","","","","","0","0","1","0.861124964","","0.6","0.8","0.2","0.4","","","","","0.7662705475","0.9828703082","0.946785539","0.861124964","","","","","","","","76","L","3","","","24","main_expt",""
"","bandit","104","195571","0.0-65.0-0.0","89178629","wem/bandit_either_3","A2SE5QBXBBDL3N","either","2","10","","","","","","","1","0","0","0.984618899","","0.6","0.8","0.2","0.4","","","","","0.6915147264","0.984618899","0.9229473608","0.8551403996","","","","","","","","74","J","1","","","25","main_expt",""
"","bandit","105","197216","0.0-66.0-0.0","89178629","wem/bandit_either_3","A2SE5QBXBBDL3N","either","2","137","","","","","","","0","0","1","","0.8959771014","0.6","0.8","0.2","0.4","0.6844606422","0.9780938917","0.8729820127","0.8959771014","","","","","","","","","","","","76","L","3","","","26","main_expt",""
"","bandit","106","198933","0.0-67.0-0.0","89178629","wem/bandit_either_3","A2SE5QBXBBDL3N","either","2","209","","","","","","","1","0","0","0.9634866904","","0.6","0.8","0.2","0.4","","","","","0.7953701942","0.9634866904","0.859067388","0.8786292531","","","","","","","","74","J","1","","","27","main_expt",""
"","bandit","107","200461","0.0-68.0-0.0","89178629","wem/bandit_either_3","A2SE5QBXBBDL3N","either","2","21","","","","","","","0","0","1","","0.8920593834","0.6","0.8","0.2","0.4","0.622657036","0.946494378","0.836267867","0.8920593834","","","","","","","","","","","","76","L","3","","","28","main_expt",""
"","bandit","108","201969","0.0-69.0-0.0","89178629","wem/bandit_either_3","A2SE5QBXBBDL3N","either","2","3","","","","","","","1","0","0","0.8234517222","","0.6","0.8","0.2","0.4","","","","","0.5757463716","0.9338647731","0.7158546556","0.8234517222","","","","","","","","76","L","3","","","29","main_expt",""
"","bandit","109","203721","0.0-70.0-0.0","89178629","wem/bandit_either_3","A2SE5QBXBBDL3N","either","2","246","","","","","","","1","0","0","0.7963444676","","0.6","0.8","0.2","0.4","","","","","0.6048158844","0.9354801528","0.7262950886","0.7963444676","","","","","","","","76","L","3","","","30","main_expt",""
"","bandit","110","205251","0.0-71.0-0.0","89178629","wem/bandit_either_3","A2SE5QBXBBDL3N","either","2","24","","","","","","","1","0","0","0.9323861487","","0.6","0.8","0.2","0.4","","","","","0.4831208743","0.9323861487","0.7049485024","0.6847131082","","","","","","","","74","J","1","","","31","main_expt",""
"","bandit","111","206963","0.0-72.0-0.0","89178629","wem/bandit_either_3","A2SE5QBXBBDL3N","either","2","203","","","","","","","1","0","0","0.9159531952","","0.6","0.8","0.2","0.4","","","","","0.4413454117","0.9159531952","0.6294605358","0.7745616343","","","","","","","","74","J","1","","","32","main_expt",""
"","bandit","112","208567","0.0-73.0-0.0","89178629","wem/bandit_either_3","A2SE5QBXBBDL3N","either","2","97","","","","","","","0","1","0","","0.7097184707","0.6","0.8","0.2","0.4","0.589686364","0.9501333659","0.7097184707","0.8111568365","","","","","","","","","","","","75","K","2","","","33","main_expt",""
"","bandit","113","210241","0.0-74.0-0.0","89178629","wem/bandit_either_3","A2SE5QBXBBDL3N","either","2","164","","","","","","","1","0","0","0.9485118263","","0.6","0.8","0.2","0.4","","","","","0.5789977489","0.9485118263","0.6324728327","0.7291364049","","","","","","","","74","J","1","","","34","main_expt",""
"","bandit","114","211959","0.0-75.0-0.0","89178629","wem/bandit_either_3","A2SE5QBXBBDL3N","either","2","211","","","","","","","0","1","0","","0.5605822786","0.6","0.8","0.2","0.4","0.5605822786","0.959491173","0.6809104991","0.7920219322","","","","","","","","","","","","72","H","0","img/none_selected.jpg","","35","main_expt",""
"","bandit","115","218192","0.0-76.0-0.0","89178629","wem/bandit_either_3","A2SE5QBXBBDL3N","either","2","4725","","","","","","","0","1","0","","0.5745256001","0.6","0.8","0.2","0.4","0.3330948712","0.9523687656","0.5745256001","0.7889809596","","","","","","","","","","","","75","K","2","","","36","main_expt",""
"","bandit","116","219743","0.0-77.0-0.0","89178629","wem/bandit_either_3","A2SE5QBXBBDL3N","either","2","44","","","","","","","0","0","1","","0.6249275122","0.6","0.8","0.2","0.4","0.2430176499","0.9504344127","0.6249275122","0.8060385269","","","","","","","","","","","","75","K","2","","","37","main_expt",""
"","bandit","117","221540","0.0-78.0-0.0","89178629","wem/bandit_either_3","A2SE5QBXBBDL3N","either","2","291","","","","","","","0","1","0","","0.5582777804","0.6","0.8","0.2","0.4","0.3106083343","0.9321408283","0.5582777804","0.7188782676","","","","","","","","","","","","75","K","2","","","38","main_expt",""
"","bandit","118","223284","0.0-79.0-0.0","89178629","wem/bandit_either_3","A2SE5QBXBBDL3N","either","2","234","","","","","","","1","0","0","0.7387945131","","0.6","0.8","0.2","0.4","","","","","0.3239447463","0.9135525369","0.6619895395","0.7387945131","","","","","","","","76","L","3","","","39","main_expt",""
"","bandit","119","224809","0.0-80.0-0.0","89178629","wem/bandit_either_3","A2SE5QBXBBDL3N","either","2","16","","","","","","","0","0","1","","0.2946631509","0.6","0.8","0.2","0.4","0.2946631509","0.8840916364","0.6522152691","0.7478035428","","","","","","","","","","","","72","H","0","img/none_selected.jpg","","40","main_expt",""
"","bandit","120","226504","0.0-81.0-0.0","89178629","wem/bandit_either_3","A2SE5QBXBBDL3N","either","2","187","","","","","","","0","0","1","0.193597671","","0.6","0.8","0.2","0.4","","","","","0.193597671","0.8747037504","0.6714070371","0.7802386085","","","","","","","","72","H","0","img/none_selected.jpg","","41","main_expt",""
"","bandit","121","228124","0.0-82.0-0.0","89178629","wem/bandit_either_3","A2SE5QBXBBDL3N","either","2","114","","","","","","","0","0","1","0.1834529884","","0.6","0.8","0.2","0.4","","","","","0.1834529884","0.826315498","0.6390104416","0.7994277013","","","","","","","","72","H","0","img/none_selected.jpg","","42","main_expt",""
"","bandit","122","229823","0.0-83.0-0.0","89178629","wem/bandit_either_3","A2SE5QBXBBDL3N","either","2","191","","","","","","","0","1","0","","0.6318841448","0.6","0.8","0.2","0.4","0.1558663495","0.7681371561","0.6318841448","0.8718069658","","","","","","","","","","","","75","K","2","","","43","main_expt",""
"","bandit","123","231450","0.0-84.0-0.0","89178629","wem/bandit_either_3","A2SE5QBXBBDL3N","either","2","119","","","","","","","0","1","0","","0.7725207311","0.6","0.8","0.2","0.4","0.1573065196","0.7584360225","0.5708139437","0.7725207311","","","","","","","","","","","","76","L","3","","","44","main_expt",""
"","bandit","124","233044","0.0-85.0-0.0","89178629","wem/bandit_either_3","A2SE5QBXBBDL3N","either","2","83","","","","","","","0","0","1","","0.5703812278","0.6","0.8","0.2","0.4","0.1743203636","0.816959585","0.5703812278","0.8399140445","","","","","","","","","","","","75","K","2","","","45","main_expt",""
"","bandit","125","234845","0.0-86.0-0.0","89178629","wem/bandit_either_3","A2SE5QBXBBDL3N","either","2","292","","","","","","","0","0","1","0.7830678696","","0.6","0.8","0.2","0.4","","","","","0.1234040722","0.7571269921","0.4520700595","0.7830678696","","","","","","","","76","L","3","","","46","main_expt",""
"","bandit","126","236372","0.0-87.0-0.0","89178629","wem/bandit_either_3","A2SE5QBXBBDL3N","either","2","17","","","","","","","1","0","0","0.7086567283","","0.6","0.8","0.2","0.4","","","","","0.1592846429","0.7086567283","0.4953600952","0.8255209912","","","","","","","","74","J","1","","","47","main_expt",""
"","bandit","127","238190","0.0-88.0-0.0","89178629","wem/bandit_either_3","A2SE5QBXBBDL3N","either","2","307","","","","","","","0","1","0","","0.4912921637","0.6","0.8","0.2","0.4","0.1880090658","0.6428227569","0.4912921637","0.7728754614","","","","","","","","","","","","75","K","2","","","48","main_expt",""
"","bandit","128","239720","0.0-89.0-0.0","89178629","wem/bandit_either_3","A2SE5QBXBBDL3N","either","2","25","","","","","","","0","0","1","0.3190576765","","0.6","0.8","0.2","0.4","","","","","0.3190576765","0.7004196772","0.4694413912","0.8607162984","","","","","","","","72","H","0","img/none_selected.jpg","","49","main_expt",""
"","bandit","129","241365","0.0-90.0-0.0","89178629","wem/bandit_either_3","A2SE5QBXBBDL3N","either","2","136","","","","","","","0","0","1","0.277770718","","0.6","0.8","0.2","0.4","","","","","0.277770718","0.6418514465","0.5835687148","0.8526113732","","","","","","","","72","H","0","img/none_selected.jpg","","50","main_expt",""
"","bandit","130","243248","0.0-91.0-0.0","89178629","wem/bandit_either_3","A2SE5QBXBBDL3N","either","2","375","","","","","","","0","1","0","","0.581499138","0.6","0.8","0.2","0.4","0.3304163056","0.6322169777","0.581499138","0.8630835666","","","","","","","","","","","","75","K","2","","","51","main_expt",""
"","bandit","131","244846","0.0-92.0-0.0","89178629","wem/bandit_either_3","A2SE5QBXBBDL3N","either","2","92","","","","","","","1","0","0","0.6160259873","","0.6","0.8","0.2","0.4","","","","","0.3074301744","0.6160259873","0.6521379128","0.8689990829","","","","","","","","74","J","1","","","52","main_expt",""
"","bandit","132","246446","0.0-93.0-0.0","89178629","wem/bandit_either_3","A2SE5QBXBBDL3N","either","2","93","","","","","","","0","1","0","","0.3292402402","0.6","0.8","0.2","0.4","0.3292402402","0.6635838846","0.5743957808","0.8829627288","","","","","","","","","","","","72","H","0","img/none_selected.jpg","","53","main_expt",""
"","bandit","133","248254","0.0-94.0-0.0","89178629","wem/bandit_either_3","A2SE5QBXBBDL3N","either","2","293","","","","","","","1","0","0","0.8577096669","","0.6","0.8","0.2","0.4","","","","","0.3701383524","0.7334380463","0.4765250731","0.8577096669","","","","","","","","76","L","3","","","54","main_expt",""
"","bandit","134","249790","0.0-95.0-0.0","89178629","wem/bandit_either_3","A2SE5QBXBBDL3N","either","2","28","","","","","","","0","0","1","0.6625049704","","0.6","0.8","0.2","0.4","","","","","0.4023440482","0.6625049704","0.472038817","0.7951355038","","","","","","","","74","J","1","","","55","main_expt",""
"","bandit","135","251330","0.0-96.0-0.0","89178629","wem/bandit_either_3","A2SE5QBXBBDL3N","either","2","31","","","","","","","1","0","0","0.6244126183","","0.6","0.8","0.2","0.4","","","","","0.3320470731","0.6244126183","0.6060805283","0.7832403428","","","","","","","","74","J","1","","","56","main_expt",""
"","bandit","136","252902","0.0-97.0-0.0","89178629","wem/bandit_either_3","A2SE5QBXBBDL3N","either","2","61","","","","","","","0","0","1","0.3398704556","","0.6","0.8","0.2","0.4","","","","","0.3398704556","0.693445159","0.5733746242","0.7165346004","","","","","","","","72","H","0","img/none_selected.jpg","","57","main_expt",""
"","bandit","137","254422","0.0-98.0-0.0","89178629","wem/bandit_either_3","A2SE5QBXBBDL3N","either","2","12","","","","","","","0","1","0","","0.7840704931","0.6","0.8","0.2","0.4","0.3171476707","0.6603141298","0.5268086549","0.7840704931","","","","","","","","","","","","76","L","3","","","58","main_expt",""
"","bandit","138","256335","0.0-99.0-0.0","89178629","wem/bandit_either_3","A2SE5QBXBBDL3N","either","2","402","","","","","","","1","0","0","0.6435133917","","0.6","0.8","0.2","0.4","","","","","0.1868584885","0.6435133917","0.5298916697","0.7166558068","","","","","","","","74","J","1","","","59","main_expt",""
"","bandit","139","257907","0.0-100.0-0.0","89178629","wem/bandit_either_3","A2SE5QBXBBDL3N","either","2","65","","","","","","","0","0","1","","0.2163153633","0.6","0.8","0.2","0.4","0.2163153633","0.6720075741","0.5547432704","0.6505055492","","","","","","","","","","","","72","H","0","img/none_selected.jpg","","60","main_expt",""
"","bandit","140","259623","0.0-101.0-0.0","89178629","wem/bandit_either_3","A2SE5QBXBBDL3N","either","2","207","","","","","","","1","0","0","0.6703611074","","0.6","0.8","0.2","0.4","","","","","0.2086512551","0.6703611074","0.5407031957","0.6465946667","","","","","","","","74","J","1","","","61","main_expt",""
"","bandit","141","261313","0.0-102.0-0.0","89178629","wem/bandit_either_3","A2SE5QBXBBDL3N","either","2","183","","","","","","","0","1","0","","0.64477312","0.6","0.8","0.2","0.4","0.2250062338","0.64477312","0.6993449034","0.709990362","","","","","","","","","","","","74","J","1","","","62","main_expt",""
"","bandit","142","262907","0.0-103.0-0.0","89178629","wem/bandit_either_3","A2SE5QBXBBDL3N","either","2","81","","","","","","","1","0","0","0.2739380208","","0.6","0.8","0.2","0.4","","","","","0.2739380208","0.509049177","0.6342967703","0.7542168012","","","","","","","","72","H","0","img/none_selected.jpg","","63","main_expt",""
"","bandit","143","264455","0.0-104.0-0.0","89178629","wem/bandit_either_3","A2SE5QBXBBDL3N","either","2","38","","","","","","","0","1","0","","0.3449536465","0.6","0.8","0.2","0.4","0.3449536465","0.5535424332","0.5961490325","0.7660604158","","","","","","","","","","","","72","H","0","img/none_selected.jpg","","64","main_expt",""
"","bandit","144","265974","0.0-105.0-0.0","89178629","wem/bandit_either_3","A2SE5QBXBBDL3N","either","2","13","","","","","","","1","0","0","0.7572602099","","0.6","0.8","0.2","0.4","","","","","0.34640195","0.6608621899","0.5771190674","0.7572602099","","","","","","","","76","L","3","","","65","main_expt",""
"","bandit","145","267940","0.0-106.0-0.0","89178629","wem/bandit_either_3","A2SE5QBXBBDL3N","either","2","461","","","","","","","0","0","1","","0.4765921407","0.6","0.8","0.2","0.4","0.5266288285","0.6535341977","0.4765921407","0.686926195","","","","","","","","","","","","75","K","2","","","66","main_expt",""
"","bandit","146","270068","0.0-107.0-0.0","89178629","wem/bandit_either_3","A2SE5QBXBBDL3N","either","2","623","","","","","","","0","1","0","","0.7334195653","0.6","0.8","0.2","0.4","0.5588671697","0.6592628399","0.5714361875","0.7334195653","","","","","","","","","","","","76","L","3","","","67","main_expt",""
"","bandit","147","271600","0.0-108.0-0.0","89178629","wem/bandit_either_3","A2SE5QBXBBDL3N","either","2","25","","","","","","","0","1","0","","0.6735013879","0.6","0.8","0.2","0.4","0.6097536784","0.6735013879","0.6231829193","0.6114245881","","","","","","","","","","","","74","J","1","","","68","main_expt",""
"","bandit","148","273801","0.0-109.0-0.0","89178629","wem/bandit_either_3","A2SE5QBXBBDL3N","either","2","694","","","","","","","1","0","0","0.7209687993","","0.6","0.8","0.2","0.4","","","","","0.533457584","0.7209687993","0.5130256365","0.6460921668","","","","","","","","74","J","1","","","69","main_expt",""
"","bandit","149","275429","0.0-110.0-0.0","89178629","wem/bandit_either_3","A2SE5QBXBBDL3N","either","2","119","","","","","","","0","1","0","","0.6700702736","0.6","0.8","0.2","0.4","0.4124750721","0.690528825","0.5167166","0.6700702736","","","","","","","","","","","","76","L","3","","","70","main_expt",""
"","bandit","150","277286","0.0-111.0-0.0","89178629","wem/bandit_either_3","A2SE5QBXBBDL3N","either","2","348","","","","","","","0","0","1","0.6448170737","","0.6","0.8","0.2","0.4","","","","","0.4486526525","0.6453310316","0.6448170737","0.6388012411","","","","","","","","75","K","2","","","71","main_expt",""
"","bandit","151","279874","0.0-112.0-0.0","89178629","wem/bandit_either_3","A2SE5QBXBBDL3N","either","2","1076","","","","","","","0","0","1","0.6046900378","","0.6","0.8","0.2","0.4","","","","","0.4313602212","0.8140348339","0.5640434706","0.6046900378","","","","","","","","76","L","3","","","72","main_expt",""
"","bandit","152","282397","0.0-113.0-0.0","89178629","wem/bandit_either_3","A2SE5QBXBBDL3N","either","2","1011","","","","","","","0","0","1","0.6062428704","","0.6","0.8","0.2","0.4","","","","","0.3639072561","0.820931829","0.6296110197","0.6062428704","","","","","","","","76","L","3","","","73","main_expt",""
"","bandit","153","283909","0.0-114.0-0.0","89178629","wem/bandit_either_3","A2SE5QBXBBDL3N","either","2","1","","","","","","","0","0","1","","0.6237194739","0.6","0.8","0.2","0.4","0.2882181569","0.8096233945","0.6730210969","0.6237194739","","","","","","","","","","","","76","L","3","","","74","main_expt",""
"","bandit","154","285834","0.0-115.0-0.0","89178629","wem/bandit_either_3","A2SE5QBXBBDL3N","either","2","413","","","","","","","1","0","0","0.5971007372","","0.6","0.8","0.2","0.4","","","","","0.3561187133","0.7615001707","0.5720403827","0.5971007372","","","","","","","","76","L","3","","","75","main_expt",""
"","bandit","155","287676","0.0-116.0-0.0","89178629","wem/bandit_either_3","A2SE5QBXBBDL3N","either","2","330","","","","","","","0","1","0","","0.6303512149","0.6","0.8","0.2","0.4","0.4480894403","0.8147365981","0.6303512149","0.5810032438","","","","","","","","","","","","75","K","2","","","76","main_expt",""
"","bandit","156","289287","0.0-117.0-0.0","89178629","wem/bandit_either_3","A2SE5QBXBBDL3N","either","2","98","","","","","","","0","1","0","","0.5792233978","0.6","0.8","0.2","0.4","0.3220850356","0.8926338818","0.5531797874","0.5792233978","","","","","","","","","","","","76","L","3","","","77","main_expt",""
"","bandit","157","290862","0.0-118.0-0.0","89178629","wem/bandit_either_3","A2SE5QBXBBDL3N","either","2","63","","","","","","","1","0","0","0.692511921","","0.6","0.8","0.2","0.4","","","","","0.3281133775","0.8669072201","0.5449672882","0.692511921","","","","","","","","76","L","3","","","78","main_expt",""
"","bandit","158","294864","0.0-119.0-0.0","89178629","wem/bandit_either_3","A2SE5QBXBBDL3N","either","2","2493","","","","","","","1","0","0","0.7019625083","","0.6","0.8","0.2","0.4","","","","","0.3814329202","0.9114006046","0.4484013318","0.7019625083","","","","","","","","76","L","3","","","79","main_expt",""
"","bandit","159","296755","0.0-120.0-0.0","89178629","wem/bandit_either_3","A2SE5QBXBBDL3N","either","2","380","","","","","","","1","0","0","0.9268398106","","0.6","0.8","0.2","0.4","","","","","0.3512572076","0.9268398106","0.5041425745","0.6785675641","","","","","","","","74","J","1","","","80","main_expt",""
"","bandit","160","298831","0.0-121.0-0.0","89178629","wem/bandit_either_3","A2SE5QBXBBDL3N","either","2","569","","","","","","","1","0","0","0.9582858862","","0.6","0.8","0.2","0.4","","","","","0.3624285329","0.9582858862","0.3462078978","0.7101061672","","","","","","","","74","J","1","","","81","main_expt",""
"","bandit","161","300571","0.0-122.0-0.0","89178629","wem/bandit_either_3","A2SE5QBXBBDL3N","either","2","231","","","","","","","1","0","0","0.7217376576","","0.6","0.8","0.2","0.4","","","","","0.3111883408","0.9590071975","0.3226795418","0.7217376576","","","","","","","","76","L","3","","","82","main_expt",""
"","bandit","162","302175","0.0-123.0-0.0","89178629","wem/bandit_either_3","A2SE5QBXBBDL3N","either","2","99","","","","","","","1","0","0","0.6437777395","","0.6","0.8","0.2","0.4","","","","","0.243162563","0.9379973093","0.3023868023","0.6437777395","","","","","","","","76","L","3","","","83","main_expt",""
"","bandit","163","303706","0.0-124.0-0.0","89178629","wem/bandit_either_3","A2SE5QBXBBDL3N","either","2","23","","","","","","","0","1","0","","0.6533183273","0.6","0.8","0.2","0.4","0.347146949","0.9411979228","0.4040419094","0.6533183273","","","","","","","","","","","","76","L","3","","","84","main_expt",""
"","bandit","164","305817","0.0-125.0-0.0","89178629","wem/bandit_either_3","A2SE5QBXBBDL3N","either","2","602","","","","","","","0","1","0","","0.9441700551","0.6","0.8","0.2","0.4","0.4416309426","0.9441700551","0.4716136817","0.7469548387","","","","","","","","","","","","74","J","1","","","85","main_expt",""
"","bandit","165","308802","0.0-126.0-0.0","89178629","wem/bandit_either_3","A2SE5QBXBBDL3N","either","2","1473","","","","","","","0","0","1","","0.4455883603","0.6","0.8","0.2","0.4","0.4523797492","0.9323605113","0.4455883603","0.7366570046","","","","","","","","","","","","75","K","2","","","86","main_expt",""
"","bandit","166","310493","0.0-127.0-0.0","89178629","wem/bandit_either_3","A2SE5QBXBBDL3N","either","2","181","","","","","","","0","1","0","","0.7142428019","0.6","0.8","0.2","0.4","0.4621103264","0.8871332711","0.5952575165","0.7142428019","","","","","","","","","","","","76","L","3","","","87","main_expt",""
"","bandit","167","313260","0.0-128.0-0.0","89178629","wem/bandit_either_3","A2SE5QBXBBDL3N","either","2","1256","","","","","","","0","1","0","","0.7057172343","0.6","0.8","0.2","0.4","0.3800084876","0.8520973281","0.5333825583","0.7057172343","","","","","","","","","","","","76","L","3","","","88","main_expt",""
"","bandit","168","314850","0.0-129.0-0.0","89178629","wem/bandit_either_3","A2SE5QBXBBDL3N","either","2","78","","","","","","","1","0","0","0.7882210871","","0.6","0.8","0.2","0.4","","","","","0.2354372355","0.7882210871","0.4583166828","0.7289934888","","","","","","","","74","J","1","","","89","main_expt",""
"","bandit","169","316865","0.0-130.0-0.0","89178629","wem/bandit_either_3","A2SE5QBXBBDL3N","either","2","506","","","","","","","0","1","0","","0.4782349553","0.6","0.8","0.2","0.4","0.2978482647","0.720110267","0.4782349553","0.7475354559","","","","","","","","","","","","75","K","2","","","90","main_expt",""
"","bandit","170","318596","0.0-131.0-0.0","89178629","wem/bandit_either_3","A2SE5QBXBBDL3N","either","2","219","","","","","","","0","1","0","","0.464138054","0.6","0.8","0.2","0.4","0.3723871884","0.7390342074","0.464138054","0.6316706059","","","","","","","","","","","","75","K","2","","","91","main_expt",""
"","bandit","171","320318","0.0-132.0-0.0","89178629","wem/bandit_either_3","A2SE5QBXBBDL3N","either","2","209","","","","","","","0","0","1","","0.5084128334","0.6","0.8","0.2","0.4","0.5400298203","0.8135224625","0.5084128334","0.6957908828","","","","","","","","","","","","75","K","2","","","92","main_expt",""
"","bandit","172","322573","0.0-133.0-0.0","89178629","wem/bandit_either_3","A2SE5QBXBBDL3N","either","2","742","","","","","","","0","1","0","","0.6812665662","0.6","0.8","0.2","0.4","0.5134744583","0.7814404678","0.5211356389","0.6812665662","","","","","","","","","","","","76","L","3","","","93","main_expt",""
"","bandit","173","324488","0.0-134.0-0.0","89178629","wem/bandit_either_3","A2SE5QBXBBDL3N","either","2","404","","","","","","","0","0","1","0.6412933588","","0.6","0.8","0.2","0.4","","","","","0.4101580275","0.7672416568","0.4554037602","0.6412933588","","","","","","","","76","L","3","","","94","main_expt",""
"","bandit","174","327680","0.0-135.0-0.0","89178629","wem/bandit_either_3","A2SE5QBXBBDL3N","either","2","1679","","","","","","","0","0","1","","0.4195046205","0.6","0.8","0.2","0.4","0.2995167601","0.7573973965","0.4195046205","0.5696630174","","","","","","","","","","","","75","K","2","","","95","main_expt",""
"","bandit","175","329339","0.0-136.0-0.0","89178629","wem/bandit_either_3","A2SE5QBXBBDL3N","either","2","147","","","","","","","0","0","1","","0.3638478563","0.6","0.8","0.2","0.4","0.2934894425","0.8177369732","0.3638478563","0.6076398096","","","","","","","","","","","","75","K","2","","","96","main_expt",""
"","bandit","176","331063","0.0-137.0-0.0","89178629","wem/bandit_either_3","A2SE5QBXBBDL3N","either","2","212","","","","","","","0","0","1","","0.5551612935","0.6","0.8","0.2","0.4","0.2802715202","0.8124666872","0.2839735208","0.5551612935","","","","","","","","","","","","76","L","3","","","97","main_expt",""
"","bandit","177","332751","0.0-138.0-0.0","89178629","wem/bandit_either_3","A2SE5QBXBBDL3N","either","2","178","","","","","","","0","0","1","","0.2109275999","0.6","0.8","0.2","0.4","0.2703087955","0.881496875","0.2109275999","0.6354974245","","","","","","","","","","","","75","K","2","","","98","main_expt",""
"","bandit","178","334509","0.0-139.0-0.0","89178629","wem/bandit_either_3","A2SE5QBXBBDL3N","either","2","249","","","","","","","1","0","0","0.8785981907","","0.6","0.8","0.2","0.4","","","","","0.3027543159","0.8785981907","0.1531506719","0.5945745664","","","","","","","","74","J","1","","","99","main_expt",""
"","bandit","179","336063","0.0-140.0-0.0","89178629","wem/bandit_either_3","A2SE5QBXBBDL3N","either","2","43","","","","","","","1","0","0","0.5679097985","","0.6","0.8","0.2","0.4","","","","","0.3645318829","0.8494581726","0.1262108991","0.5679097985","","","","","","","","76","L","3","","","100","main_expt",""
"","bandit","180","337696","0.0-141.0-0.0","89178629","wem/bandit_either_3","A2SE5QBXBBDL3N","either","2","119","","","","","","","0","0","1","0.7754784616","","0.6","0.8","0.2","0.4","","","","","0.4315832637","0.7754784616","0.1340220502","0.6430580454","","","","","","","","74","J","1","","","101","main_expt",""
"","bandit","181","344428","0.0-142.0-0.0","89178629","wem/bandit_either_3","A2SE5QBXBBDL3N","either","2","5223","","","","","","","0","0","1","","0.2167126086","0.6","0.8","0.2","0.4","0.3608531129","0.7626736499","0.2167126086","0.6340200926","","","","","","","","","","","","75","K","2","","","102","main_expt",""
"","bandit","182","346039","0.0-143.0-0.0","89178629","wem/bandit_either_3","A2SE5QBXBBDL3N","either","2","97","","","","","","","0","1","0","","0.2796352144","0.6","0.8","0.2","0.4","0.3688981903","0.7329996306","0.2796352144","0.6377668076","","","","","","","","","","","","75","K","2","","","103","main_expt",""
"","bandit","183","347721","0.0-144.0-0.0","89178629","wem/bandit_either_3","A2SE5QBXBBDL3N","either","2","174","","","","","","","0","0","1","","0.3556406549","0.6","0.8","0.2","0.4","0.3758155051","0.7467689404","0.3556406549","0.6578341575","","","","","","","","","","","","75","K","2","","","104","main_expt",""
"","bandit","184","350068","0.0-145.0-0.0","89178629","wem/bandit_either_3","A2SE5QBXBBDL3N","either","2","841","","","","","","","0","0","1","","0.3233911601","0.6","0.8","0.2","0.4","0.4508947075","0.737018723","0.3233911601","0.6727034752","","","","","","","","","","","","75","K","2","","","105","main_expt",""
"","bandit","185","351691","0.0-146.0-0.0","89178629","wem/bandit_either_3","A2SE5QBXBBDL3N","either","2","110","","","","","","","0","0","1","","0.2024631506","0.6","0.8","0.2","0.4","0.4132181144","0.655194185","0.2024631506","0.6386482702","","","","","","","","","","","","75","K","2","","","106","main_expt",""
"","bandit","186","353468","0.0-147.0-0.0","89178629","wem/bandit_either_3","A2SE5QBXBBDL3N","either","2","266","","","","","","","0","1","0","","0.6788938686","0.6","0.8","0.2","0.4","0.4393512677","0.7122819559","0.2290393164","0.6788938686","","","","","","","","","","","","76","L","3","","","107","main_expt",""
"","bandit","187","355093","0.0-148.0-0.0","89178629","wem/bandit_either_3","A2SE5QBXBBDL3N","either","2","118","","","","","","","0","0","1","","0.2217712157","0.6","0.8","0.2","0.4","0.4964319729","0.7326995505","0.2217712157","0.7076498576","","","","","","","","","","","","75","K","2","","","108","main_expt",""
"","bandit","188","356680","0.0-149.0-0.0","89178629","wem/bandit_either_3","A2SE5QBXBBDL3N","either","2","76","","","","","","","1","0","0","0.7165499475","","0.6","0.8","0.2","0.4","","","","","0.4790921069","0.7165499475","0.1566860935","0.6932550908","","","","","","","","74","J","1","","","109","main_expt",""
"","bandit","189","358403","0.0-150.0-0.0","89178629","wem/bandit_either_3","A2SE5QBXBBDL3N","either","2","213","","","","","","","0","0","1","","0.1083987113","0.6","0.8","0.2","0.4","0.5856434505","0.6058017554","0.1083987113","0.7436061547","","","","","","","","","","","","75","K","2","","","110","main_expt",""
"","bandit","190","359951","0.0-151.0-0.0","89178629","wem/bandit_either_3","A2SE5QBXBBDL3N","either","2","37","","","","","","","0","0","1","0.5476823758","","0.6","0.8","0.2","0.4","","","","","0.6444230696","0.5476823758","0.217828795","0.657194241","","","","","","","","74","J","1","","","111","main_expt",""
"","bandit","191","361978","0.0-152.0-0.0","89178629","wem/bandit_either_3","A2SE5QBXBBDL3N","either","2","518","","","","","","","1","0","0","0.6317228327","","0.6","0.8","0.2","0.4","","","","","0.603417252","0.5688313193","0.2212119155","0.6317228327","","","","","","","","76","L","3","","","112","main_expt",""
"","bandit","192","365166","0.0-153.0-0.0","89178629","wem/bandit_either_3","A2SE5QBXBBDL3N","either","2","1681","","","","","","","0","0","1","0.420613871","","0.6","0.8","0.2","0.4","","","","","0.420613871","0.50852785","0.2374112476","0.4985892417","","","","","","","","72","H","0","img/none_selected.jpg","","113","main_expt",""
"","bandit","193","367163","0.0-154.0-0.0","89178629","wem/bandit_either_3","A2SE5QBXBBDL3N","either","2","487","","","","","","","1","0","0","0.5711084253","","0.6","0.8","0.2","0.4","","","","","0.2851569533","0.5711084253","0.2703699348","0.579071345","","","","","","","","74","J","1","","","114","main_expt",""
"","bandit","194","368676","0.0-155.0-0.0","89178629","wem/bandit_either_3","A2SE5QBXBBDL3N","either","2","1","","","","","","","0","0","1","","0.4177754351","0.6","0.8","0.2","0.4","0.3166589884","0.4177754351","0.1928485376","0.4595939904","","","","","","","","","","","","74","J","1","","","115","main_expt",""
"","bandit","195","370419","0.0-156.0-0.0","89178629","wem/bandit_either_3","A2SE5QBXBBDL3N","either","2","236","","","","","","","0","0","1","0.3928451607","","0.6","0.8","0.2","0.4","","","","","0.3928451607","0.387840809","0.136356343","0.3744567546","","","","","","","","72","H","0","img/none_selected.jpg","","116","main_expt",""
"","bandit","196","372057","0.0-157.0-0.0","89178629","wem/bandit_either_3","A2SE5QBXBBDL3N","either","2","132","","","","","","","1","0","0","0.560845346","","0.6","0.8","0.2","0.4","","","","","0.560845346","0.4456731606","0.2193113504","0.302145019","","","","","","","","72","H","0","img/none_selected.jpg","","117","main_expt",""
"","bandit","197","373833","0.0-158.0-0.0","89178629","wem/bandit_either_3","A2SE5QBXBBDL3N","either","2","262","","","","","","","0","0","1","","0.3522466686","0.6","0.8","0.2","0.4","0.5536818424","0.3045880574","0.2686792008","0.3522466686","","","","","","","","","","","","76","L","3","","","118","main_expt",""
"","bandit","198","375495","0.0-159.0-0.0","89178629","wem/bandit_either_3","A2SE5QBXBBDL3N","either","2","156","","","","","","","0","0","1","","0.2668270476","0.6","0.8","0.2","0.4","0.3617659687","0.3994134075","0.2668270476","0.4425542362","","","","","","","","","","","","75","K","2","","","119","main_expt",""
"","bandit","199","377178","0.0-160.0-0.0","89178629","wem/bandit_either_3","A2SE5QBXBBDL3N","either","2","170","","","","","","","1","0","0","0.3723992114","","0.6","0.8","0.2","0.4","","","","","0.3454740543","0.351449483","0.3723992114","0.3377532805","","","","","","","","75","K","2","","","120","main_expt",""
"","bandit","200","378709","0.0-161.0-0.0","89178629","wem/bandit_either_3","A2SE5QBXBBDL3N","either","2","17","","","","","","","0","1","0","","0.4001238515","0.6","0.8","0.2","0.4","0.2798257893","0.3641911367","0.4001238515","0.2929504356","","","","","","","","","","","","75","K","2","","","121","main_expt",""
"","bandit","201","380310","0.0-162.0-0.0","89178629","wem/bandit_either_3","A2SE5QBXBBDL3N","either","2","93","","","","","","","0","0","1","0.2673706252","","0.6","0.8","0.2","0.4","","","","","0.2261540995","0.2673706252","0.4090120715","0.2504028886","","","","","","","","74","J","1","","","122","main_expt",""
"","bandit","202","381841","0.0-163.0-0.0","89178629","wem/bandit_either_3","A2SE5QBXBBDL3N","either","2","21","","","","","","","0","0","1","","0.2766663047","0.6","0.8","0.2","0.4","0.2766663047","0.3455372181","0.4746108064","0.2414849785","","","","","","","","","","","","72","H","0","img/none_selected.jpg","","123","main_expt",""
"","bandit","203","383619","0.0-164.0-0.0","89178629","wem/bandit_either_3","A2SE5QBXBBDL3N","either","2","264","","","","","","","0","1","0","","0.453231646","0.6","0.8","0.2","0.4","0.3126864395","0.3524137631","0.453231646","0.1791255979","","","","","","","","","","","","75","K","2","","","124","main_expt",""
"","bandit","204","385171","0.0-165.0-0.0","89178629","wem/bandit_either_3","A2SE5QBXBBDL3N","either","2","43","","","","","","","0","0","1","","0.2772507379","0.6","0.8","0.2","0.4","0.2772507379","0.3680881866","0.4888945922","0.1952456852","","","","","","","","","","","","72","H","0","img/none_selected.jpg","","125","main_expt",""
"","bandit","205","386913","0.0-166.0-0.0","89178629","wem/bandit_either_3","A2SE5QBXBBDL3N","either","2","229","","","","","","","0","0","1","0.2614303707","","0.6","0.8","0.2","0.4","","","","","0.2441417391","0.2884444508","0.396932523","0.2614303707","","","","","","","","76","L","3","","","126","main_expt",""
"","bandit","206","388519","0.0-167.0-0.0","89178629","wem/bandit_either_3","A2SE5QBXBBDL3N","either","2","94","","","","","","","0","0","1","0.2931854252","","0.6","0.8","0.2","0.4","","","","","0.2304038214","0.2931854252","0.4026562496","0.267511235","","","","","","","","74","J","1","","","127","main_expt",""
"","bandit","207","392161","0.0-168.0-0.0","89178629","wem/bandit_either_3","A2SE5QBXBBDL3N","either","2","2136","","","","","","","0","1","0","","0.3072143153","0.6","0.8","0.2","0.4","0.2463692943","0.3115494401","0.3072143153","0.2582460394","","","","","","","","","","","","75","K","2","","","128","main_expt",""
"","bandit","208","394023","0.0-169.0-0.0","89178629","wem/bandit_either_3","A2SE5QBXBBDL3N","either","2","348","","","","","","","0","0","1","","0.3024431642","0.6","0.8","0.2","0.4","0.262841392","0.287093163","0.3024431642","0.249100023","","","","","","","","","","","","75","K","2","","","129","main_expt",""
"","bandit","209","396020","0.0-170.0-0.0","89178629","wem/bandit_either_3","A2SE5QBXBBDL3N","either","2","487","","","","","","","0","0","1","0.242368994","","0.6","0.8","0.2","0.4","","","","","0.3044503748","0.242368994","0.383823705","0.2014680341","","","","","","","","74","J","1","","","130","main_expt",""
"","bandit","210","398154","0.0-171.0-0.0","89178629","wem/bandit_either_3","A2SE5QBXBBDL3N","either","2","621","","","","","","","0","0","1","0.2514612397","","0.6","0.8","0.2","0.4","","","","","0.2231782293","0.3141093292","0.5448185218","0.2514612397","","","","","","","","76","L","3","","","131","main_expt",""
"","bandit","211","399915","0.0-172.0-0.0","89178629","wem/bandit_either_3","A2SE5QBXBBDL3N","either","2","249","","","","","","","0","0","1","","0.1719215191","0.6","0.8","0.2","0.4","0.265126842","0.3186943837","0.5741986762","0.1719215191","","","","","","","","","","","","76","L","3","","","132","main_expt",""
"","bandit","212","401426","0.0-173.0-0.0","89178629","wem/bandit_either_3","A2SE5QBXBBDL3N","either","2","1","","","","","","","0","0","1","0.3218599317","","0.6","0.8","0.2","0.4","","","","","0.1996467811","0.3218599317","0.54298015","0.151851594","","","","","","","","74","J","1","","","133","main_expt",""
"","bandit","213","403030","0.0-174.0-0.0","89178629","wem/bandit_either_3","A2SE5QBXBBDL3N","either","2","92","","","","","","","0","0","1","","0.5504084981","0.6","0.8","0.2","0.4","0.1900899503","0.3372263261","0.5504084981","0.1693242304","","","","","","","","","","","","75","K","2","","","134","main_expt",""
"","bandit","214","404645","0.0-175.0-0.0","89178629","wem/bandit_either_3","A2SE5QBXBBDL3N","either","2","104","","","","","","","0","0","1","0.172295534","","0.6","0.8","0.2","0.4","","","","","0.172295534","0.3515125386","0.4874659601","0.1541174352","","","","","","","","72","H","0","img/none_selected.jpg","","135","main_expt",""
"","bandit","215","406407","0.0-176.0-0.0","89178629","wem/bandit_either_3","A2SE5QBXBBDL3N","either","2","257","","","","","","","0","0","1","","0.1374012581","0.6","0.8","0.2","0.4","0.1171098277","0.2312583875","0.3677382912","0.1374012581","","","","","","","","","","","","76","L","3","","","136","main_expt",""
"","bandit","216","407985","0.0-177.0-0.0","89178629","wem/bandit_either_3","A2SE5QBXBBDL3N","either","2","69","","","","","","","0","1","0","","0.2889288236","0.6","0.8","0.2","0.4","0.1390909791","0.3496768842","0.2944012193","0.2889288236","","","","","","","","","","","","76","L","3","","","137","main_expt",""
"","bandit","217","409785","0.0-178.0-0.0","89178629","wem/bandit_either_3","A2SE5QBXBBDL3N","either","2","292","","","","","","","0","0","1","","0.3020033879","0.6","0.8","0.2","0.4","0.1209370274","0.4217982028","0.3020033879","0.2177367931","","","","","","","","","","","","75","K","2","","","138","main_expt",""
"","bandit","218","416668","0.0-179.0-0.0","89178629","wem/bandit_either_3","A2SE5QBXBBDL3N","either","2","5371","","","","","","","1","0","0","0.5123523738","","0.6","0.8","0.2","0.4","","","","","0.1441291996","0.5123523738","0.2908104057","0.1704259453","","","","","","","","74","J","1","","","139","main_expt",""
"","bandit","219","418628","0.0-180.0-0.0","89178629","wem/bandit_either_3","A2SE5QBXBBDL3N","either","2","455","","","","","","","0","0","1","","0.1827322183","0.6","0.8","0.2","0.4","0.1380406349","0.3892042576","0.2738290205","0.1827322183","","","","","","","","","","","","76","L","3","","","140","main_expt",""
"","bandit","220","420199","0.0-181.0-0.0","89178629","wem/bandit_either_3","A2SE5QBXBBDL3N","either","2","58","","","","","","","1","0","0","0.4680147771","","0.6","0.8","0.2","0.4","","","","","0.1312769784","0.4680147771","0.3865798498","0.2030288612","","","","","","","","74","J","1","","","141","main_expt",""
"","bandit","221","421723","0.0-182.0-0.0","89178629","wem/bandit_either_3","A2SE5QBXBBDL3N","either","2","14","","","","","","","0","0","1","0.3970866904","","0.6","0.8","0.2","0.4","","","","","0.1880730553","0.3970866904","0.3507917403","0.1760536641","","","","","","","","74","J","1","","","142","main_expt",""
"","bandit","222","423467","0.0-183.0-0.0","89178629","wem/bandit_either_3","A2SE5QBXBBDL3N","either","2","232","","","","","","","0","0","1","","0.2787839286","0.6","0.8","0.2","0.4","0.1798266991","0.3609481858","0.2787839286","0.1428921374","","","","","","","","","","","","75","K","2","","","143","main_expt",""
"","bandit","223","425629","0.0-184.0-0.0","89178629","wem/bandit_either_3","A2SE5QBXBBDL3N","either","2","651","","","","","","","0","0","1","","0.1260474704","0.6","0.8","0.2","0.4","0.1881666754","0.3701270871","0.2106619402","0.1260474704","","","","","","","","","","","","76","L","3","","","144","main_expt",""
"","bandit","224","427342","0.0-185.0-0.0","89178629","wem/bandit_either_3","A2SE5QBXBBDL3N","either","2","201","","","","","","","0","0","1","","0.3211677341","0.6","0.8","0.2","0.4","0.1683386122","0.3110645609","0.3211677341","0.151337539","","","","","","","","","","","","75","K","2","","","145","main_expt",""
"","bandit","225","429173","0.0-186.0-0.0","89178629","wem/bandit_either_3","A2SE5QBXBBDL3N","either","2","321","","","","","","","0","0","1","0.356964637","","0.6","0.8","0.2","0.4","","","","","0.2609121533","0.356964637","0.4417580917","0.1600114734","","","","","","","","74","J","1","","","146","main_expt",""
"","bandit","226","430686","0.0-187.0-0.0","89178629","wem/bandit_either_3","A2SE5QBXBBDL3N","either","2","1","","","","","","","1","0","0","0.5143633813","","0.6","0.8","0.2","0.4","","","","","0.280259565","0.5143633813","0.278611551","0.1262446547","","","","","","","","74","J","1","","","147","main_expt",""
"","bandit","227","432323","0.0-188.0-0.0","89178629","wem/bandit_either_3","A2SE5QBXBBDL3N","either","2","130","","","","","","","1","0","0","0.2972918914","","0.6","0.8","0.2","0.4","","","","","0.2972918914","0.5086187798","0.2811332351","0.1030311585","","","","","","","","72","H","0","img/none_selected.jpg","","148","main_expt",""
"","bandit","228","433875","0.0-189.0-0.0","89178629","wem/bandit_either_3","A2SE5QBXBBDL3N","either","2","45","","","","","","","1","0","0","0.3284309668","","0.6","0.8","0.2","0.4","","","","","0.3284309668","0.4676315778","0.2606345315","0.123834606","","","","","","","","72","H","0","img/none_selected.jpg","","149","main_expt",""
"","bandit","229","435590","0.0-190.0-0.0","89178629","wem/bandit_either_3","A2SE5QBXBBDL3N","either","2","202","","","","","","","1","0","0","0.3186890608","","0.6","0.8","0.2","0.4","","","","","0.3186890608","0.4737351686","0.260677327","0.06566206942","","","","","","","","72","H","0","img/none_selected.jpg","","150","main_expt",""
"","bandit","230","444834","0.0-191.0-0.0","89178629","wem/bandit_either_3","A2SE5QBXBBDL3N","either","2","7734","","","","","","","1","0","0","0.2579624968","","0.6","0.8","0.2","0.4","","","","","0.3331747037","0.5387476985","0.2579624968","0.06342121736","","","","","","","","75","K","2","","","151","main_expt",""
"","bandit","231","446614","0.0-192.0-0.0","89178629","wem/bandit_either_3","A2SE5QBXBBDL3N","either","2","269","","","","","","","0","0","1","","0.2536911072","0.6","0.8","0.2","0.4","0.364096089","0.5065138565","0.2536911072","0.1162046696","","","","","","","","","","","","75","K","2","","","152","main_expt",""
"","bandit","232","450079","0.0-193.0-0.0","89178629","wem/bandit_either_3","A2SE5QBXBBDL3N","either","2","1954","","","","","","","0","0","1","0.3189440566","","0.6","0.8","0.2","0.4","","","","","0.3189440566","0.5190676077","0.1427943183","0.1388943584","","","","","","","","72","H","0","img/none_selected.jpg","","153","main_expt",""
"","bandit","233","452170","0.0-194.0-0.0","89178629","wem/bandit_either_3","A2SE5QBXBBDL3N","either","2","585","","","","","","","1","0","0","0.4944482457","","0.6","0.8","0.2","0.4","","","","","0.486858514","0.4944482457","0.08934943386","0.1188489222","","","","","","","","74","J","1","","","154","main_expt",""
"","bandit","234","453686","0.0-195.0-0.0","89178629","wem/bandit_either_3","A2SE5QBXBBDL3N","either","2","2","","","","","","","0","0","1","0.1255079792","","0.6","0.8","0.2","0.4","","","","","0.398958755","0.4987902374","0.1048919666","0.1255079792","","","","","","","","76","L","3","","","155","main_expt",""
"","bandit","235","455472","0.0-196.0-0.0","89178629","wem/bandit_either_3","A2SE5QBXBBDL3N","either","2","281","","","","","","","0","0","1","","0.1705129017","0.6","0.8","0.2","0.4","0.3508932217","0.4151199053","0.1348874752","0.1705129017","","","","","","","","","","","","76","L","3","","","156","main_expt",""
"","bandit","236","457107","0.0-197.0-0.0","89178629","wem/bandit_either_3","A2SE5QBXBBDL3N","either","2","120","","","","","","","0","1","0","","0.1197456909","0.6","0.8","0.2","0.4","0.3736640956","0.4215128153","0.1197456909","0.1892203872","","","","","","","","","","","","75","K","2","","","157","main_expt",""
"","bandit","237","458671","0.0-198.0-0.0","89178629","wem/bandit_either_3","A2SE5QBXBBDL3N","either","2","51","","","","","","","0","1","0","","0.1589595026","0.6","0.8","0.2","0.4","0.3215678611","0.3666899102","0.1343935597","0.1589595026","","","","","","","","","","","","76","L","3","","","158","main_expt",""
"","bandit","238","460298","0.0-199.0-0.0","89178629","wem/bandit_either_3","A2SE5QBXBBDL3N","either","2","113","","","","","","","1","0","0","0.3906786657","","0.6","0.8","0.2","0.4","","","","","0.2732838962","0.3906786657","0.04604274909","0.1426383857","","","","","","","","74","J","1","","","159","main_expt",""
"","bandit","239","461838","0.0-200.0-0.0","89178629","wem/bandit_either_3","A2SE5QBXBBDL3N","either","2","34","","","","","","","0","0","1","0.2323229575","","0.6","0.8","0.2","0.4","","","","","0.2323229575","0.4769972016","0.08927965808","0.2747613825","","","","","","","","72","H","0","img/none_selected.jpg","","160","main_expt",""
"","bandit","240","463396","0.0-201.0-0.0","89178629","wem/bandit_either_3","A2SE5QBXBBDL3N","either","2","47","","","","","","","0","1","0","","0.2046882866","0.6","0.8","0.2","0.4","0.399022808","0.4405879513","0.1038156196","0.2046882866","","","","","","","","","","","","76","L","3","","","161","main_expt",""
"","bandit","241","465530","0.0-202.0-0.0","89178629","wem/bandit_either_3","A2SE5QBXBBDL3N","either","2","621","","","","","","","0","0","1","","0.1470739062","0.6","0.8","0.2","0.4","0.4967313539","0.44055992","0.1470739062","0.1715152701","","","","","","","","","","","","75","K","2","","","162","main_expt",""
"","bandit","242","468125","0.0-203.0-0.0","89178629","wem/bandit_either_3","A2SE5QBXBBDL3N","either","2","1081","","","","","","","0","0","1","0.2396687428","","0.6","0.8","0.2","0.4","","","","","0.5245029489","0.3434222481","0.1214264794","0.2396687428","","","","","","","","76","L","3","","","163","main_expt",""
"","bandit","243","470353","0.0-204.0-0.0","89178629","wem/bandit_either_3","A2SE5QBXBBDL3N","either","2","717","","","","","","","0","0","1","","0.1563758897","0.6","0.8","0.2","0.4","0.5808119749","0.3862652833","0.1563758897","0.3359744524","","","","","","","","","","","","75","K","2","","","164","main_expt",""
"","bandit","244","472112","0.0-205.0-0.0","89178629","wem/bandit_either_3","A2SE5QBXBBDL3N","either","2","250","","","","","","","1","0","0","0.6473032069","","0.6","0.8","0.2","0.4","","","","","0.6473032069","0.4270444342","0.1311500467","0.4940159592","","","","","","","","72","H","0","img/none_selected.jpg","","165","main_expt",""
"","bandit","245","474140","0.0-206.0-0.0","89178629","wem/bandit_either_3","A2SE5QBXBBDL3N","either","2","520","","","","","","","0","0","1","0.1419689761","","0.6","0.8","0.2","0.4","","","","","0.6790689848","0.5073102058","0.1419689761","0.5922229292","","","","","","","","75","K","2","","","166","main_expt",""
"","bandit","246","476476","0.0-207.0-0.0","89178629","wem/bandit_either_3","A2SE5QBXBBDL3N","either","2","824","","","","","","","0","0","1","","0.150246256","0.6","0.8","0.2","0.4","0.5959653185","0.5417092253","0.150246256","0.5562626425","","","","","","","","","","","","75","K","2","","","167","main_expt",""
"","bandit","247","480526","0.0-208.0-0.0","89178629","wem/bandit_either_3","A2SE5QBXBBDL3N","either","2","2539","","","","","","","1","0","0","0.6505471885","","0.6","0.8","0.2","0.4","","","","","0.361841396","0.6505471885","0.2070971521","0.6489587791","","","","","","","","74","J","1","","","168","main_expt",""
"","bandit","248","482058","0.0-209.0-0.0","89178629","wem/bandit_either_3","A2SE5QBXBBDL3N","either","2","21","","","","","","","0","0","1","0.2594844845","","0.6","0.8","0.2","0.4","","","","","0.2594844845","0.6226729341","0.2564452127","0.5652428614","","","","","","","","72","H","0","img/none_selected.jpg","","169","main_expt",""
"","bandit","249","483722","0.0-210.0-0.0","89178629","wem/bandit_either_3","A2SE5QBXBBDL3N","either","2","153","","","","","","","0","1","0","","0.7574543886","0.6","0.8","0.2","0.4","0.1987556041","0.7574543886","0.2845729388","0.5344749526","","","","","","","","","","","","74","J","1","","","170","main_expt",""
"","bandit","250","485344","0.0-211.0-0.0","89178629","wem/bandit_either_3","A2SE5QBXBBDL3N","either","2","110","","","","","","","1","0","0","0.774201251","","0.6","0.8","0.2","0.4","","","","","0.1583585206","0.774201251","0.2360657399","0.6364900983","","","","","","","","74","J","1","","","171","main_expt",""
"","bandit","251","487212","0.0-212.0-0.0","89178629","wem/bandit_either_3","A2SE5QBXBBDL3N","either","2","355","","","","","","","1","0","0","0.1494938987","","0.6","0.8","0.2","0.4","","","","","0.1494938987","0.7739789177","0.3453554921","0.5516193693","","","","","","","","72","H","0","img/none_selected.jpg","","172","main_expt",""
"","bandit","252","489125","0.0-213.0-0.0","89178629","wem/bandit_either_3","A2SE5QBXBBDL3N","either","2","402","","","","","","","0","0","1","","0.2909261263","0.6","0.8","0.2","0.4","0.1996494969","0.7146420849","0.2909261263","0.5081608063","","","","","","","","","","","","75","K","2","","","173","main_expt",""
"","bandit","253","490650","0.0-214.0-0.0","89178629","wem/bandit_either_3","A2SE5QBXBBDL3N","either","2","20","","","","","","","1","0","0","0.683245412","","0.6","0.8","0.2","0.4","","","","","0.2200767262","0.683245412","0.3807546558","0.5247340446","","","","","","","","74","J","1","","","174","main_expt",""
"","bandit","254","493720","0.0-215.0-0.0","89178629","wem/bandit_either_3","A2SE5QBXBBDL3N","either","2","1564","","","","","","","0","1","0","","0.5823110366","0.6","0.8","0.2","0.4","0.1929710708","0.7163731774","0.3889518003","0.5823110366","","","","","","","","","","","","76","L","3","","","175","main_expt",""
"","bandit","255","495267","0.0-216.0-0.0","89178629","wem/bandit_either_3","A2SE5QBXBBDL3N","either","2","34","","","","","","","0","0","1","","0.3662842853","0.6","0.8","0.2","0.4","0.1756556012","0.6676116703","0.3662842853","0.7693722391","","","","","","","","","","","","75","K","2","","","176","main_expt",""
"","bandit","256","497217","0.0-217.0-0.0","89178629","wem/bandit_either_3","A2SE5QBXBBDL3N","either","2","435","","","","","","","0","1","0","","0.8048595062","0.6","0.8","0.2","0.4","0.2404611203","0.711116056","0.3102656016","0.8048595062","","","","","","","","","","","","76","L","3","","","177","main_expt",""
"","bandit","257","499475","0.0-218.0-0.0","89178629","wem/bandit_either_3","A2SE5QBXBBDL3N","either","2","741","","","","","","","1","0","0","0.6541247318","","0.6","0.8","0.2","0.4","","","","","0.1651874793","0.6541247318","0.3272385177","0.8147320782","","","","","","","","74","J","1","","","178","main_expt",""
"","bandit","258","501002","0.0-219.0-0.0","89178629","wem/bandit_either_3","A2SE5QBXBBDL3N","either","2","18","","","","","","","0","1","0","","0.1297692321","0.6","0.8","0.2","0.4","0.1297692321","0.600925469","0.3185807274","0.7755432213","","","","","","","","","","","","72","H","0","img/none_selected.jpg","","179","main_expt",""
"","bandit","259","502658","0.0-220.0-0.0","89178629","wem/bandit_either_3","A2SE5QBXBBDL3N","either","2","147","","","","","","","0","0","1","0.1311169289","","0.6","0.8","0.2","0.4","","","","","0.1311169289","0.6321701674","0.3896265469","0.7309951384","","","","","","","","72","H","0","img/none_selected.jpg","","180","main_expt",""
"","bandit","260","504612","0.0-221.0-0.0","89178629","wem/bandit_either_3","A2SE5QBXBBDL3N","either","2","440","","","","","","","0","0","1","0.8068071681","","0.6","0.8","0.2","0.4","","","","","0.2184653543","0.7040606398","0.4381139349","0.8068071681","","","","","","","","76","L","3","","","181","main_expt",""
"","bandit","261","506243","0.0-222.0-0.0","89178629","wem/bandit_either_3","A2SE5QBXBBDL3N","either","2","122","","","","","","","0","0","1","0.156745214","","0.6","0.8","0.2","0.4","","","","","0.156745214","0.6551517927","0.4339703771","0.8096694819","","","","","","","","72","H","0","img/none_selected.jpg","","182","main_expt",""
"","bandit","262","508252","0.0-223.0-0.0","89178629","wem/bandit_either_3","A2SE5QBXBBDL3N","either","2","491","","","","","","","0","0","1","","0.8522040983","0.6","0.8","0.2","0.4","0.07710569088","0.7709035389","0.5270594011","0.8522040983","","","","","","","","","","","","76","L","3","","","183","main_expt",""
"","bandit","263","509946","0.0-224.0-0.0","89178629","wem/bandit_either_3","A2SE5QBXBBDL3N","either","2","179","","","","","","","0","0","1","","0.8636776132","0.6","0.8","0.2","0.4","0.07901501252","0.7869666122","0.4791569234","0.8636776132","","","","","","","","","","","","76","L","3","","","184","main_expt",""
"","bandit","264","511504","0.0-225.0-0.0","89178629","wem/bandit_either_3","A2SE5QBXBBDL3N","either","2","46","","","","","","","1","0","0","0.8605951951","","0.6","0.8","0.2","0.4","","","","","0.05695362571","0.804571828","0.464074867","0.8605951951","","","","","","","","76","L","3","","","185","main_expt",""
"","bandit","265","513387","0.0-226.0-0.0","89178629","wem/bandit_either_3","A2SE5QBXBBDL3N","either","2","367","","","","","","","0","1","0","","0.4654947356","0.6","0.8","0.2","0.4","0.03796608352","0.7866627628","0.4654947356","0.8578427848","","","","","","","","","","","","75","K","2","","","186","main_expt",""
"","bandit","266","515218","0.0-227.0-0.0","89178629","wem/bandit_either_3","A2SE5QBXBBDL3N","either","2","321","","","","","","","0","0","1","0.4338668179","","0.6","0.8","0.2","0.4","","","","","0.05986429342","0.8006736442","0.4338668179","0.8253306036","","","","","","","","75","K","2","","","187","main_expt",""
"","bandit","267","517025","0.0-228.0-0.0","89178629","wem/bandit_either_3","A2SE5QBXBBDL3N","either","2","295","","","","","","","0","1","0","","0.8118593573","0.6","0.8","0.2","0.4","0.05827831728","0.7687627789","0.4679469354","0.8118593573","","","","","","","","","","","","76","L","3","","","188","main_expt",""
"","bandit","268","518678","0.0-229.0-0.0","89178629","wem/bandit_either_3","A2SE5QBXBBDL3N","either","2","139","","","","","","","0","0","1","","0.4645116859","0.6","0.8","0.2","0.4","0.06499387038","0.7009429779","0.4645116859","0.8319104568","","","","","","","","","","","","75","K","2","","","189","main_expt",""
"","bandit","269","520881","0.0-230.0-0.0","89178629","wem/bandit_either_3","A2SE5QBXBBDL3N","either","2","690","","","","","","","0","1","0","","0.8949986836","0.6","0.8","0.2","0.4","0.0878029059","0.7531121838","0.4260553166","0.8949986836","","","","","","","","","","","","76","L","3","","","190","main_expt",""
"","bandit","270","524633","0.0-231.0-0.0","89178629","wem/bandit_either_3","A2SE5QBXBBDL3N","either","2","2246","","","","","","","0","1","0","","0.9258368343","0.6","0.8","0.2","0.4","0.1101088583","0.6174616994","0.5323747461","0.9258368343","","","","","","","","","","","","76","L","3","","","191","main_expt",""
"","bandit","271","526465","0.0-232.0-0.0","89178629","wem/bandit_either_3","A2SE5QBXBBDL3N","either","2","323","","","","","","","0","0","1","","0.6331996982","0.6","0.8","0.2","0.4","0.1559643099","0.6331996982","0.6013900654","0.9221438833","","","","","","","","","","","","74","J","1","","","192","main_expt",""
"","bandit","272","528041","0.0-233.0-0.0","89178629","wem/bandit_either_3","A2SE5QBXBBDL3N","either","2","67","","","","","","","0","0","1","0.1348882638","","0.6","0.8","0.2","0.4","","","","","0.1348882638","0.5596167322","0.5332063066","0.878376231","","","","","","","","72","H","0","img/none_selected.jpg","","193","main_expt",""
"","bandit","273","529560","0.0-234.0-0.0","89178629","wem/bandit_either_3","A2SE5QBXBBDL3N","either","2","9","","","","","","","0","0","1","","0.243093686","0.6","0.8","0.2","0.4","0.243093686","0.5887018809","0.5499496643","0.7914694382","","","","","","","","","","","","72","H","0","img/none_selected.jpg","","194","main_expt",""
"","bandit","274","531131","0.0-235.0-0.0","89178629","wem/bandit_either_3","A2SE5QBXBBDL3N","either","2","54","","","","","","","0","0","1","0.561552955","","0.6","0.8","0.2","0.4","","","","","0.2792315856","0.561552955","0.4170732774","0.7843027812","","","","","","","","74","J","1","","","195","main_expt",""
"","bandit","275","532976","0.0-236.0-0.0","89178629","wem/bandit_either_3","A2SE5QBXBBDL3N","either","2","327","","","","","","","1","0","0","0.7888241066","","0.6","0.8","0.2","0.4","","","","","0.2075419965","0.6199522587","0.4050854298","0.7888241066","","","","","","","","76","L","3","","","196","main_expt",""
"","bandit","276","535601","0.0-237.0-0.0","89178629","wem/bandit_either_3","A2SE5QBXBBDL3N","either","2","1110","","","","","","","0","0","1","","0.4522405917","0.6","0.8","0.2","0.4","0.1899284635","0.6886125155","0.4522405917","0.8145025162","","","","","","","","","","","","75","K","2","","","197","main_expt",""
"","bandit","277","537740","0.0-238.0-0.0","89178629","wem/bandit_either_3","A2SE5QBXBBDL3N","either","2","626","","","","","","","1","0","0","0.6468609917","","0.6","0.8","0.2","0.4","","","","","0.1632143895","0.6468609917","0.4547961131","0.8795467387","","","","","","","","74","J","1","","","198","main_expt",""
"","bandit","278","539666","0.0-239.0-0.0","89178629","wem/bandit_either_3","A2SE5QBXBBDL3N","either","2","414","","","","","","","0","0","1","","0.1580048483","0.6","0.8","0.2","0.4","0.1580048483","0.7134983028","0.456709553","0.8716255916","","","","","","","","","","","","72","H","0","img/none_selected.jpg","","199","main_expt",""
"","bandit","279","541686","0.0-240.0-0.0","89178629","wem/bandit_either_3","A2SE5QBXBBDL3N","either","2","511","","","","","","","0","0","1","","0.1815025648","0.6","0.8","0.2","0.4","0.1815025648","0.6545285445","0.4197111003","0.8596876402","","","","","","","","","","","","72","H","0","img/none_selected.jpg","","200","main_expt",""
"","bandit","280","543258","0.0-241.0-0.0","89178629","wem/bandit_either_3","A2SE5QBXBBDL3N","either","2","63","","","","","","","0","0","1","","0.1453003075","0.6","0.8","0.2","0.4","0.1453003075","0.6827561938","0.4468864226","0.8714244785","","","","","","","","","","","","72","H","0","img/none_selected.jpg","","201","main_expt",""
"","bandit","281","545386","0.0-242.0-0.0","89178629","wem/bandit_either_3","A2SE5QBXBBDL3N","either","2","612","","","","","","","0","0","1","0.1061510446","","0.6","0.8","0.2","0.4","","","","","0.1061510446","0.6590680519","0.3852152277","0.8679491409","","","","","","","","72","H","0","img/none_selected.jpg","","202","main_expt",""
"","bandit","282","547341","0.0-243.0-0.0","89178629","wem/bandit_either_3","A2SE5QBXBBDL3N","either","2","436","","","","","","","0","0","1","0.3481501846","","0.6","0.8","0.2","0.4","","","","","0.09667757311","0.67998256","0.3481501846","0.8421855008","","","","","","","","75","K","2","","","203","main_expt",""
"","bandit","283","550726","0.0-244.0-0.0","89178629","wem/bandit_either_3","A2SE5QBXBBDL3N","either","2","1868","","","","","","","0","1","0","","0.7157802034","0.6","0.8","0.2","0.4","0.109576977","0.7157802034","0.3688904748","0.8741547355","","","","","","","","","","","","74","J","1","","","204","main_expt",""
"","bandit","284","552354","0.0-245.0-0.0","89178629","wem/bandit_either_3","A2SE5QBXBBDL3N","either","2","116","","","","","","","0","1","0","","0.8589537271","0.6","0.8","0.2","0.4","0.1370524017","0.6750594522","0.4196025605","0.8589537271","","","","","","","","","","","","76","L","3","","","205","main_expt",""
"","bandit","285","554359","0.0-246.0-0.0","89178629","wem/bandit_either_3","A2SE5QBXBBDL3N","either","2","490","","","","","","","1","0","0","0.8009191088","","0.6","0.8","0.2","0.4","","","","","0.1005848846","0.7170784861","0.3558717694","0.8009191088","","","","","","","","76","L","3","","","206","main_expt",""
"","bandit","286","555878","0.0-247.0-0.0","89178629","wem/bandit_either_3","A2SE5QBXBBDL3N","either","2","3","","","","","","","0","1","0","","0.6886550294","0.6","0.8","0.2","0.4","0.1100528349","0.6886550294","0.3978287694","0.8146279372","","","","","","","","","","","","74","J","1","","","207","main_expt",""
"","bandit","287","557860","0.0-248.0-0.0","89178629","wem/bandit_either_3","A2SE5QBXBBDL3N","either","2","470","","","","","","","0","0","1","","0.3647175361","0.6","0.8","0.2","0.4","0.1165568201","0.7340041914","0.3647175361","0.7498886323","","","","","","","","","","","","75","K","2","","","208","main_expt",""
"","bandit","288","559482","0.0-249.0-0.0","89178629","wem/bandit_either_3","A2SE5QBXBBDL3N","either","2","107","","","","","","","0","0","1","","0.1607141963","0.6","0.8","0.2","0.4","0.1607141963","0.7108339061","0.2942091963","0.781298432","","","","","","","","","","","","72","H","0","img/none_selected.jpg","","209","main_expt",""
"","bandit","289","561012","0.0-250.0-0.0","89178629","wem/bandit_either_3","A2SE5QBXBBDL3N","either","2","14","","","","","","","0","0","1","0.7322658343","","0.6","0.8","0.2","0.4","","","","","0.2005879304","0.7322658343","0.3228874634","0.8374694261","","","","","","","","74","J","1","","","210","main_expt",""
"","bandit","290","562821","0.0-251.0-0.0","89178629","wem/bandit_either_3","A2SE5QBXBBDL3N","either","2","304","","","","","","","0","0","1","","0.7461264045","0.6","0.8","0.2","0.4","0.1999716741","0.6220956771","0.3300931135","0.7461264045","","","","","","","","","","","","76","L","3","","","211","main_expt",""
"","bandit","291","567364","0.0-252.0-0.0","89178629","wem/bandit_either_3","A2SE5QBXBBDL3N","either","2","3031","","","","","","","0","0","1","0.5400145011","","0.6","0.8","0.2","0.4","","","","","0.2135957141","0.5400145011","0.4044608811","0.7267359419","","","","","","","","74","J","1","","","212","main_expt",""
"","bandit","292","569421","0.0-253.0-0.0","89178629","wem/bandit_either_3","A2SE5QBXBBDL3N","either","2","544","","","","","","","0","0","1","","0.4916994921","0.6","0.8","0.2","0.4","0.2041793084","0.5419994818","0.4916994921","0.6529835343","","","","","","","","","","","","75","K","2","","","213","main_expt",""
"","bandit","293","570978","0.0-254.0-0.0","89178629","wem/bandit_either_3","A2SE5QBXBBDL3N","either","2","50","","","","","","","0","0","1","","0.6195319152","0.6","0.8","0.2","0.4","0.2563089198","0.6195319152","0.5387088508","0.5734554779","","","","","","","","","","","","74","J","1","","","214","main_expt",""
"","bandit","294","572719","0.0-255.0-0.0","89178629","wem/bandit_either_3","A2SE5QBXBBDL3N","either","2","230","","","","","","","0","1","0","","0.7056003711","0.6","0.8","0.2","0.4","0.2870699064","0.7405966814","0.567041903","0.7056003711","","","","","","","","","","","","76","L","3","","","215","main_expt",""
"","bandit","295","574397","0.0-256.0-0.0","89178629","wem/bandit_either_3","A2SE5QBXBBDL3N","either","2","172","","","","","","","0","0","1","","0.2715554895","0.6","0.8","0.2","0.4","0.2715554895","0.8005734678","0.539749723","0.7717913507","","","","","","","","","","","","72","H","0","img/none_selected.jpg","","216","main_expt",""
"","bandit","296","576024","0.0-257.0-0.0","89178629","wem/bandit_either_3","A2SE5QBXBBDL3N","either","2","116","","","","","","","0","1","0","","0.834894728","0.6","0.8","0.2","0.4","0.2027777883","0.8392159132","0.3803352486","0.834894728","","","","","","","","","","","","76","L","3","","","217","main_expt",""
"","bandit","297","577950","0.0-258.0-0.0","89178629","wem/bandit_either_3","A2SE5QBXBBDL3N","either","2","416","","","","","","","0","1","0","","0.3236333655","0.6","0.8","0.2","0.4","0.2169787163","0.7445585264","0.3236333655","0.868580258","","","","","","","","","","","","75","K","2","","","218","main_expt",""
"","bandit","298","597710","0.0-259.0-0.0","89178629","wem/bandit_either_3","A2SE5QBXBBDL3N","either","2","18251","","","","","","","0","0","1","","0.2292932202","0.6","0.8","0.2","0.4","0.2292932202","0.7174829008","0.2612589469","0.8236231074","","","","","","","","","","","","72","H","0","img/none_selected.jpg","","219","main_expt",""
"","bandit","299","623255","0.0-260.0-0.0","89178629","wem/bandit_either_3","A2SE5QBXBBDL3N","either","2","24036","","","","","","","1","0","0","0.2829053382","","0.6","0.8","0.2","0.4","","","","","0.2829053382","0.6601767392","0.2228319794","0.7719294443","","","","","","","","72","H","0","img/none_selected.jpg","","220","main_expt",""
"","bandit","300","624771","0.0-261.0-0.0","89178629","wem/bandit_either_3","A2SE5QBXBBDL3N","either","2","1","","","","","","","0","0","1","","0.2204856404","0.6","0.8","0.2","0.4","0.2691731019","0.703996204","0.2204856404","0.7609360252","","","","","","","","","","","","75","K","2","","","221","main_expt",""
"","bandit","301","626288","0.0-262.0-0.0","89178629","wem/bandit_either_3","A2SE5QBXBBDL3N","either","2","12","","","","","","","0","0","1","","0.2269951902","0.6","0.8","0.2","0.4","0.1974112065","0.6188024556","0.2269951902","0.7319851961","","","","","","","","","","","","75","K","2","","","222","main_expt",""
"","bandit","302","651691","0.0-263.0-0.0","89178629","wem/bandit_either_3","A2SE5QBXBBDL3N","either","2","23893","","","","","","","0","0","1","0.08486155027","","0.6","0.8","0.2","0.4","","","","","0.08486155027","0.5695888615","0.3417830843","0.6994646324","","","","","","","","72","H","0","img/none_selected.jpg","","223","main_expt",""
"","bandit","303","653450","0.0-264.0-0.0","89178629","wem/bandit_either_3","A2SE5QBXBBDL3N","either","2","253","","","","","","","1","0","0","0.1930609847","","0.6","0.8","0.2","0.4","","","","","0.1930609847","0.6590173842","0.4057490183","0.6817307813","","","","","","","","72","H","0","img/none_selected.jpg","","224","main_expt",""
"","bandit","304","662240","0.0-265.0-0.0","89178629","wem/bandit_either_3","A2SE5QBXBBDL3N","either","2","7282","","","","","","","0","0","1","","0.2026087193","0.6","0.8","0.2","0.4","0.2026087193","0.6779124893","0.4266979185","0.67394888","","","","","","","","","","","","72","H","0","img/none_selected.jpg","","225","main_expt",""
"","bandit","305","672106","0.0-266.0-0.0","89178629","wem/bandit_either_3","A2SE5QBXBBDL3N","either","2","8358","","","","","","","0","0","1","0.4723095555","","0.6","0.8","0.2","0.4","","","","","0.1295559036","0.6433757785","0.4723095555","0.6520670614","","","","","","","","75","K","2","","","226","main_expt",""
"","bandit","306","685938","0.0-267.0-0.0","89178629","wem/bandit_either_3","A2SE5QBXBBDL3N","either","2","12320","","","","","","","0","0","1","0.1014701128","","0.6","0.8","0.2","0.4","","","","","0.1014701128","0.6050090536","0.4396274322","0.6598054912","","","","","","","","72","H","0","img/none_selected.jpg","","227","main_expt",""
"","bandit","307","687519","0.0-268.0-0.0","89178629","wem/bandit_either_3","A2SE5QBXBBDL3N","either","2","73","","","","","","","1","0","0","0.5614220587","","0.6","0.8","0.2","0.4","","","","","0.1374428951","0.5614220587","0.4581465293","0.7313296172","","","","","","","","74","J","1","","","228","main_expt",""
"","bandit","308","694187","0.0-269.0-0.0","89178629","wem/bandit_either_3","A2SE5QBXBBDL3N","either","2","5161","","","","","","","0","0","1","0.2147377822","","0.6","0.8","0.2","0.4","","","","","0.2147377822","0.536938762","0.3635076811","0.5771612872","","","","","","","","72","H","0","img/none_selected.jpg","","229","main_expt",""
"","bandit","309","695759","0.0-270.0-0.0","89178629","wem/bandit_either_3","A2SE5QBXBBDL3N","either","2","66","","","","","","","0","1","0","","0.6474737632","0.6","0.8","0.2","0.4","0.2128984172","0.4691369301","0.4109812081","0.6474737632","","","","","","","","","","","","76","L","3","","","230","main_expt",""
"","bandit","310","697289","0.0-271.0-0.0","89178629","wem/bandit_either_3","A2SE5QBXBBDL3N","either","2","24","","","","","","","0","0","1","","0.3769467169","0.6","0.8","0.2","0.4","0.2566260117","0.3801843724","0.3769467169","0.77083729","","","","","","","","","","","","75","K","2","","","231","main_expt",""
"","bandit","311","698876","0.0-272.0-0.0","89178629","wem/bandit_either_3","A2SE5QBXBBDL3N","either","2","78","","","","","","","1","0","0","0.7372448464","","0.6","0.8","0.2","0.4","","","","","0.307190163","0.4401380948","0.4489681289","0.7372448464","","","","","","","","76","L","3","","","232","main_expt",""
"","bandit","312","700411","0.0-273.0-0.0","89178629","wem/bandit_either_3","A2SE5QBXBBDL3N","either","2","29","","","","","","","0","1","0","","0.8061851957","0.6","0.8","0.2","0.4","0.3235632008","0.4589823784","0.5191563331","0.8061851957","","","","","","","","","","","","76","L","3","","","233","main_expt",""
"","bandit","313","702049","0.0-274.0-0.0","89178629","wem/bandit_either_3","A2SE5QBXBBDL3N","either","2","122","","","","","","","0","0","1","","0.2229472669","0.6","0.8","0.2","0.4","0.2229472669","0.412850409","0.5635532962","0.7628128465","","","","","","","","","","","","72","H","0","img/none_selected.jpg","","234","main_expt",""
"","bandit","314","703570","0.0-275.0-0.0","89178629","wem/bandit_either_3","A2SE5QBXBBDL3N","either","2","13","","","","","","","0","0","1","","0.6059211115","0.6","0.8","0.2","0.4","0.3245092944","0.3071086281","0.6059211115","0.7139354314","","","","","","","","","","","","75","K","2","","","235","main_expt",""
"","bandit","315","705097","0.0-276.0-0.0","89178629","wem/bandit_either_3","A2SE5QBXBBDL3N","either","2","8","","","","","","","0","1","0","","0.5767319418","0.6","0.8","0.2","0.4","0.3817813951","0.3088172556","0.5767319418","0.8459685894","","","","","","","","","","","","75","K","2","","","236","main_expt",""
"","bandit","316","706624","0.0-277.0-0.0","89178629","wem/bandit_either_3","A2SE5QBXBBDL3N","either","2","21","","","","","","","0","0","1","0.2725525041","","0.6","0.8","0.2","0.4","","","","","0.5108794425","0.2725525041","0.6195352853","0.8258062243","","","","","","","","74","J","1","","","237","main_expt",""
"","bandit","317","711273","0.0-278.0-0.0","89178629","wem/bandit_either_3","A2SE5QBXBBDL3N","either","2","3143","","","","","","","0","0","1","0.545868674","","0.6","0.8","0.2","0.4","","","","","0.545868674","0.2929581335","0.7504070514","0.7390020401","","","","","","","","72","H","0","img/none_selected.jpg","","238","main_expt",""
"","bandit","318","712801","0.0-279.0-0.0","89178629","wem/bandit_either_3","A2SE5QBXBBDL3N","either","2","17","","","","","","","0","1","0","","0.7159327665","0.6","0.8","0.2","0.4","0.5696008367","0.3009301418","0.7863609923","0.7159327665","","","","","","","","","","","","76","L","3","","","239","main_expt",""
"","bandit","319","714449","0.0-280.0-0.0","89178629","wem/bandit_either_3","A2SE5QBXBBDL3N","either","2","143","","","","","","","0","0","1","0.7175907516","","0.6","0.8","0.2","0.4","","","","","0.7175907516","0.1757133805","0.7472107855","0.7704913736","","","","","","","","72","H","0","img/none_selected.jpg","","240","main_expt",""
"","bandit","320","716153","0.0-281.0-0.0","89178629","wem/bandit_either_3","A2SE5QBXBBDL3N","either","2","199","","","","","","","1","0","0","0.7832900934","","0.6","0.8","0.2","0.4","","","","","0.8333566257","0.1490953818","0.7633099306","0.7832900934","","","","","","","","76","L","3","","","241","main_expt",""
"","bandit","321","717750","0.0-282.0-0.0","89178629","wem/bandit_either_3","A2SE5QBXBBDL3N","either","2","85","","","","","","","0","1","0","","0.746364214","0.6","0.8","0.2","0.4","0.8661582331","0.1187436938","0.8192624891","0.746364214","","","","","","","","","","","","76","L","3","","","242","main_expt",""
"","bandit","322","719283","0.0-283.0-0.0","89178629","wem/bandit_either_3","A2SE5QBXBBDL3N","either","2","26","","","","","","","1","0","0","0.8970489214","","0.6","0.8","0.2","0.4","","","","","0.8970489214","0.07814629235","0.7500708258","0.7014576998","","","","","","","","72","H","0","img/none_selected.jpg","","243","main_expt",""
"","bandit","323","720798","0.0-284.0-0.0","89178629","wem/bandit_either_3","A2SE5QBXBBDL3N","either","2","2","","","","","","","0","0","1","","0.6810302351","0.6","0.8","0.2","0.4","0.8760308497","0.06497313331","0.7656319196","0.6810302351","","","","","","","","","","","","76","L","3","","","244","main_expt",""
"","bandit","324","722449","0.0-285.0-0.0","89178629","wem/bandit_either_3","A2SE5QBXBBDL3N","either","2","140","","","","","","","0","1","0","","0.5349569219","0.6","0.8","0.2","0.4","0.9080051643","0.1053527342","0.7726297554","0.5349569219","","","","","","","","","","","","76","L","3","","","245","main_expt",""
"","bandit","325","724004","0.0-286.0-0.0","89178629","wem/bandit_either_3","A2SE5QBXBBDL3N","either","2","43","","","","","","","0","1","0","","0.8951486804","0.6","0.8","0.2","0.4","0.8951486804","0.1410713538","0.8033922047","0.4945526892","","","","","","","","","","","","72","H","0","img/none_selected.jpg","","246","main_expt",""
