"consent","trial_type","trial_index","time_elapsed","internal_node_id","subjID","study","MID","cond","drift","rt","responses","key_press","expt_phase","like","value","connected","gems","bombs","no_reward","GemPrChosen","BombPrChosen","GainOverPainPr_0","GainOverPainPr_1","GainOverPainPr_2","GainOverPainPr_3","LosePr_0","LosePr_1","LosePr_2","LosePr_3","WinPr_0","WinPr_1","WinPr_2","WinPr_3","Q0","Q1","Q2","gender","age","ethnicity","target","respCharCode","respKey","respChoiceNum","respChoice","practice","trial_counter","trial_label","button_pressed"
"INL_behavioral_consent_30min_online.html","consent","0","10900","0.0-0.0","90067935","wem/bandit_either_3","ABEJPX8HRQFAW","either","8","","","","","","","","","","","","","","","","","","","","","","","","","","","","","","","","","","","","","","",""
"","survey-text","1","14936","0.0-1.0","90067935","wem/bandit_either_3","ABEJPX8HRQFAW","either","8","3014","{""Q0"":""ABEJPX8HRQFAW""}","","","","","","","","","","","","","","","","","","","","","","","","","","","","","","","","","","","","",""
"","text","2","24812","0.0-2.0","90067935","wem/bandit_either_3","ABEJPX8HRQFAW","either","8","8866","","32","","","","","","","","","","","","","","","","","","","","","","","","","","","","","","","","","","","",""
"","text","3","29988","0.0-3.0","90067935","wem/bandit_either_3","ABEJPX8HRQFAW","either","8","5171","","32","","","","","","","","","","","","","","","","","","","","","","","","","","","","","","","","","","","",""
"","text","4","43592","0.0-4.0","90067935","wem/bandit_either_3","ABEJPX8HRQFAW","either","8","13598","","32","","","","","","","","","","","","","","","","","","","","","","","","","","","","","","","","","","","",""
"","text","5","52647","0.0-5.0","90067935","wem/bandit_either_3","ABEJPX8HRQFAW","either","8","9050","","32","","","","","","","","","","","","","","","","","","","","","","","","","","","","","","","","","","","",""
"","text","6","64261","0.0-6.0","90067935","wem/bandit_either_3","ABEJPX8HRQFAW","either","8","11611","","32","","","","","","","","","","","","","","","","","","","","","","","","","","","","","","","","","","","",""
"","text","7","70213","0.0-7.0","90067935","wem/bandit_either_3","ABEJPX8HRQFAW","either","8","5951","","32","","","","","","","","","","","","","","","","","","","","","","","","","","","","","","","","","","","",""
"","text","8","74376","0.0-8.0","90067935","wem/bandit_either_3","ABEJPX8HRQFAW","either","8","4158","","32","","","","","","","","","","","","","","","","","","","","","","","","","","","","","","","","","","","",""
"","identification","9","82454","0.0-9.0-0.0","90067935","wem/bandit_either_3","ABEJPX8HRQFAW","either","8","8041","","","","3","3","3","","","","","","","","","","","","","","","","","","","","","","","","the village of Zur","","","","","","","",""
"","identification","10","87485","0.0-9.0-1.0","90067935","wem/bandit_either_3","ABEJPX8HRQFAW","either","8","3999","","","","3","3","3","","","","","","","","","","","","","","","","","","","","","","","","the village of Nyx","","","","","","","",""
"","text","11","94038","0.0-10.0","90067935","wem/bandit_either_3","ABEJPX8HRQFAW","either","8","5548","","32","","","","","","","","","","","","","","","","","","","","","","","","","","","","","","","","","","","",""
"","text","12","97239","0.0-11.0","90067935","wem/bandit_either_3","ABEJPX8HRQFAW","either","8","3194","","32","","","","","","","","","","","","","","","","","","","","","","","","","","","","","","","","","","","",""
"","text","13","100661","0.0-12.0","90067935","wem/bandit_either_3","ABEJPX8HRQFAW","either","8","3417","","32","","","","","","","","","","","","","","","","","","","","","","","","","","","","","","","","","","","",""
"","text","14","104229","0.0-13.0","90067935","wem/bandit_either_3","ABEJPX8HRQFAW","either","8","3564","","32","","","","","","","","","","","","","","","","","","","","","","","","","","","","","","","","","","","",""
"","bandit","15","108174","0.0-14.0-0.0","90067935","wem/bandit_either_3","ABEJPX8HRQFAW","either","8","2425","","","","","","","0","0","1","0","0","","","","","0","","","","0","","","","","","","","","","","74","J","0","img/none_selected_demo.jpg","true","0","",""
"","bandit","16","111494","0.0-15.0-0.0","90067935","wem/bandit_either_3","ABEJPX8HRQFAW","either","8","1802","","","","","","","0","0","1","0","0","","","","","0","","","","0","","","","","","","","","","","75","K","0","img/none_selected_demo.jpg","true","0","",""
"","text","17","117118","0.0-16.0","90067935","wem/bandit_either_3","ABEJPX8HRQFAW","either","8","5622","","32","","","","","","","","","","","","","","","","","","","","","","","","","","","","","","","","","","","",""
"","text","18","126998","0.0-17.0","90067935","wem/bandit_either_3","ABEJPX8HRQFAW","either","8","9878","","32","","","","","","","","","","","","","","","","","","","","","","","","","","","","","","","","","","","",""
"","text","19","140393","0.0-18.0","90067935","wem/bandit_either_3","ABEJPX8HRQFAW","either","8","13390","","32","","","","","","","","","","","","","","","","","","","","","","","","","","","","","","","","","","","",""
"","text","20","142760","0.0-19.0","90067935","wem/bandit_either_3","ABEJPX8HRQFAW","either","8","2359","","32","","","","","","","","","","","","","","","","","","","","","","","","","","","","","","","","","","","",""
"","bandit","21","146975","0.0-20.0-0.0","90067935","wem/bandit_either_3","ABEJPX8HRQFAW","either","8","2680","","","","","","","0","1","0","","0.8","0.5","0.5","","","0.8","0.2","","","","","","","","","","","","","","74","J","0","img/none_selected_demo.jpg","true","0","80_20_practice",""
"","bandit","22","149831","0.0-20.0-1.0","90067935","wem/bandit_either_3","ABEJPX8HRQFAW","either","8","1330","","","","","","","0","0","1","0.2","","0.5","0.5","","","","","","","0.8","0.2","","","","","","","","","","75","K","1","","true","0","80_20_practice",""
"","bandit","23","152157","0.0-20.0-2.0","90067935","wem/bandit_either_3","ABEJPX8HRQFAW","either","8","803","","","","","","","1","0","0","0.2","","0.5","0.5","","","","","","","0.8","0.2","","","","","","","","","","75","K","1","","true","0","80_20_practice",""
"","bandit","24","154187","0.0-20.0-3.0","90067935","wem/bandit_either_3","ABEJPX8HRQFAW","either","8","513","","","","","","","0","1","0","","0.2","0.5","0.5","","","0.8","0.2","","","","","","","","","","","","","","75","K","1","","true","0","80_20_practice",""
"","bandit","25","156219","0.0-20.0-4.0","90067935","wem/bandit_either_3","ABEJPX8HRQFAW","either","8","515","","","","","","","1","0","0","0.8","","0.5","0.5","","","","","","","0.8","0.2","","","","","","","","","","74","J","0","img/none_selected_demo.jpg","true","0","80_20_practice",""
"","bandit","26","158401","0.0-20.0-5.0","90067935","wem/bandit_either_3","ABEJPX8HRQFAW","either","8","659","","","","","","","1","0","0","0.8","","0.5","0.5","","","","","","","0.8","0.2","","","","","","","","","","74","J","0","img/none_selected_demo.jpg","true","0","80_20_practice",""
"","bandit","27","160568","0.0-20.0-6.0","90067935","wem/bandit_either_3","ABEJPX8HRQFAW","either","8","644","","","","","","","1","0","0","0.8","","0.5","0.5","","","","","","","0.8","0.2","","","","","","","","","","74","J","0","img/none_selected_demo.jpg","true","0","80_20_practice",""
"","bandit","28","163622","0.0-20.0-7.0","90067935","wem/bandit_either_3","ABEJPX8HRQFAW","either","8","1533","","","","","","","0","0","1","0.8","","0.5","0.5","","","","","","","0.8","0.2","","","","","","","","","","74","J","0","img/none_selected_demo.jpg","true","0","80_20_practice",""
"","bandit","29","165424","0.0-20.0-8.0","90067935","wem/bandit_either_3","ABEJPX8HRQFAW","either","8","286","","","","","","","0","1","0","","0.8","0.5","0.5","","","0.8","0.2","","","","","","","","","","","","","","74","J","0","img/none_selected_demo.jpg","true","0","80_20_practice",""
"","bandit","30","167362","0.0-20.0-9.0","90067935","wem/bandit_either_3","ABEJPX8HRQFAW","either","8","412","","","","","","","1","0","0","0.2","","0.5","0.5","","","","","","","0.8","0.2","","","","","","","","","","75","K","1","","true","0","80_20_practice",""
"","bandit","31","169858","0.0-20.0-10.0","90067935","wem/bandit_either_3","ABEJPX8HRQFAW","either","8","968","","","","","","","1","0","0","0.2","","0.5","0.5","","","","","","","0.8","0.2","","","","","","","","","","75","K","1","","true","0","80_20_practice",""
"","bandit","32","172180","0.0-20.0-11.0","90067935","wem/bandit_either_3","ABEJPX8HRQFAW","either","8","803","","","","","","","0","0","1","0.2","","0.5","0.5","","","","","","","0.8","0.2","","","","","","","","","","75","K","1","","true","0","80_20_practice",""
"","bandit","33","174311","0.0-20.0-12.0","90067935","wem/bandit_either_3","ABEJPX8HRQFAW","either","8","609","","","","","","","0","0","1","","0.2","0.5","0.5","","","0.8","0.2","","","","","","","","","","","","","","75","K","1","","true","0","80_20_practice",""
"","bandit","34","176211","0.0-20.0-13.0","90067935","wem/bandit_either_3","ABEJPX8HRQFAW","either","8","382","","","","","","","0","0","1","","0.2","0.5","0.5","","","0.8","0.2","","","","","","","","","","","","","","75","K","1","","true","0","80_20_practice",""
"","bandit","35","178576","0.0-20.0-14.0","90067935","wem/bandit_either_3","ABEJPX8HRQFAW","either","8","843","","","","","","","0","0","1","","0.2","0.5","0.5","","","0.8","0.2","","","","","","","","","","","","","","75","K","1","","true","0","80_20_practice",""
"","bandit","36","180688","0.0-20.0-15.0","90067935","wem/bandit_either_3","ABEJPX8HRQFAW","either","8","573","","","","","","","0","0","1","0.2","","0.5","0.5","","","","","","","0.8","0.2","","","","","","","","","","75","K","1","","true","0","80_20_practice",""
"","bandit","37","182719","0.0-20.0-16.0","90067935","wem/bandit_either_3","ABEJPX8HRQFAW","either","8","519","","","","","","","0","0","1","","0.8","0.5","0.5","","","0.8","0.2","","","","","","","","","","","","","","74","J","0","img/none_selected_demo.jpg","true","0","80_20_practice",""
"","bandit","38","184835","0.0-20.0-17.0","90067935","wem/bandit_either_3","ABEJPX8HRQFAW","either","8","599","","","","","","","1","0","0","0.2","","0.5","0.5","","","","","","","0.8","0.2","","","","","","","","","","75","K","1","","true","0","80_20_practice",""
"","bandit","39","187344","0.0-20.0-18.0","90067935","wem/bandit_either_3","ABEJPX8HRQFAW","either","8","985","","","","","","","0","0","1","0.2","","0.5","0.5","","","","","","","0.8","0.2","","","","","","","","","","75","K","1","","true","0","80_20_practice",""
"","bandit","40","189661","0.0-20.0-19.0","90067935","wem/bandit_either_3","ABEJPX8HRQFAW","either","8","787","","","","","","","0","1","0","","0.2","0.5","0.5","","","0.8","0.2","","","","","","","","","","","","","","75","K","1","","true","0","80_20_practice",""
"","text","41","193315","0.0-21.0","90067935","wem/bandit_either_3","ABEJPX8HRQFAW","either","8","3650","","32","","","","","","","","","","","","","","","","","","","","","","","","","","","","","","","","","","","",""
"","bandit","42","197336","0.0-22.0-0.0","90067935","wem/bandit_either_3","ABEJPX8HRQFAW","either","8","2502","","","","","","","0","1","0","0","1","","","","","0","1","","","1","0","","","","","","","","","","75","K","1","","true","0","",""
"","text","43","206968","0.0-23.0","90067935","wem/bandit_either_3","ABEJPX8HRQFAW","either","8","9624","","32","","","","","","","","","","","","","","","","","","","","","","","","","","","","","","","","","","","",""
"","text","44","211046","0.0-24.0","90067935","wem/bandit_either_3","ABEJPX8HRQFAW","either","8","4068","","32","","","","","","","","","","","","","","","","","","","","","","","","","","","","","","","","","","","",""
"","text","45","212532","0.0-25.0","90067935","wem/bandit_either_3","ABEJPX8HRQFAW","either","8","1479","","32","","","","","","","","","","","","","","","","","","","","","","","","","","","","","","","","","","","",""
"","text","46","214393","0.0-26.0","90067935","wem/bandit_either_3","ABEJPX8HRQFAW","either","8","1856","","32","","","","","","","","","","","","","","","","","","","","","","","","","","","","","","","","","","","",""
"","text","47","217386","0.0-27.0","90067935","wem/bandit_either_3","ABEJPX8HRQFAW","either","8","2990","","32","","","","","","","","","","","","","","","","","","","","","","","","","","","","","","","","","","","",""
"","text","48","220243","0.0-28.0","90067935","wem/bandit_either_3","ABEJPX8HRQFAW","either","8","2853","","32","","","","","","","","","","","","","","","","","","","","","","","","","","","","","","","","","","","",""
"","text","49","223698","0.0-29.0","90067935","wem/bandit_either_3","ABEJPX8HRQFAW","either","8","3448","","32","","","","","","","","","","","","","","","","","","","","","","","","","","","","","","","","","","","",""
"","text","50","226697","0.0-30.0","90067935","wem/bandit_either_3","ABEJPX8HRQFAW","either","8","2995","","32","","","","","","","","","","","","","","","","","","","","","","","","","","","","","","","","","","","",""
"","text","51","229809","0.0-31.0","90067935","wem/bandit_either_3","ABEJPX8HRQFAW","either","8","3110","","32","","","","","","","","","","","","","","","","","","","","","","","","","","","","","","","","","","","",""
"","text","52","231770","0.0-32.0","90067935","wem/bandit_either_3","ABEJPX8HRQFAW","either","8","1957","","32","","","","","","","","","","","","","","","","","","","","","","","","","","","","","","","","","","","",""
"","text","53","234882","0.0-33.0","90067935","wem/bandit_either_3","ABEJPX8HRQFAW","either","8","3106","","32","","","","","","","","","","","","","","","","","","","","","","","","","","","","","","","","","","","",""
"","bandit","54","238021","0.0-34.0-0.0","90067935","wem/bandit_either_3","ABEJPX8HRQFAW","either","8","1612","","","","","","","1","0","0","0.8","","0.5","0.5","0.5","0.5","","","","","0.8","0.2","0.6","0.2","","","","","","","","72","H","0","img/none_selected.jpg","true","0","full_practice",""
"","bandit","55","239956","0.0-34.0-1.0","90067935","wem/bandit_either_3","ABEJPX8HRQFAW","either","8","411","","","","","","","0","0","1","0.8","","0.5","0.5","0.5","0.5","","","","","0.8","0.2","0.6","0.2","","","","","","","","72","H","0","img/none_selected.jpg","true","0","full_practice",""
"","bandit","56","241699","0.0-34.0-2.0","90067935","wem/bandit_either_3","ABEJPX8HRQFAW","either","8","221","","","","","","","0","1","0","","0.6","0.5","0.5","0.5","0.5","0.8","0.2","0.6","0.2","","","","","","","","","","","","75","K","2","","true","0","full_practice",""
"","bandit","57","243559","0.0-34.0-3.0","90067935","wem/bandit_either_3","ABEJPX8HRQFAW","either","8","337","","","","","","","0","1","0","","0.8","0.5","0.5","0.5","0.5","0.8","0.2","0.6","0.2","","","","","","","","","","","","72","H","0","img/none_selected.jpg","true","0","full_practice",""
"","bandit","58","245423","0.0-34.0-4.0","90067935","wem/bandit_either_3","ABEJPX8HRQFAW","either","8","348","","","","","","","0","0","1","","0.2","0.5","0.5","0.5","0.5","0.8","0.2","0.6","0.2","","","","","","","","","","","","74","J","1","","true","0","full_practice",""
"","bandit","59","247046","0.0-34.0-5.0","90067935","wem/bandit_either_3","ABEJPX8HRQFAW","either","8","108","","","","","","","0","0","1","","0.2","0.5","0.5","0.5","0.5","0.8","0.2","0.6","0.2","","","","","","","","","","","","76","L","3","","true","0","full_practice",""
"","bandit","60","248861","0.0-34.0-6.0","90067935","wem/bandit_either_3","ABEJPX8HRQFAW","either","8","292","","","","","","","0","0","1","0.2","","0.5","0.5","0.5","0.5","","","","","0.8","0.2","0.6","0.2","","","","","","","","76","L","3","","true","0","full_practice",""
"","bandit","61","250561","0.0-34.0-7.0","90067935","wem/bandit_either_3","ABEJPX8HRQFAW","either","8","182","","","","","","","0","0","1","0.2","","0.5","0.5","0.5","0.5","","","","","0.8","0.2","0.6","0.2","","","","","","","","74","J","1","","true","0","full_practice",""
"","bandit","62","252359","0.0-34.0-8.0","90067935","wem/bandit_either_3","ABEJPX8HRQFAW","either","8","283","","","","","","","0","0","1","0.2","","0.5","0.5","0.5","0.5","","","","","0.8","0.2","0.6","0.2","","","","","","","","76","L","3","","true","0","full_practice",""
"","bandit","63","254388","0.0-34.0-9.0","90067935","wem/bandit_either_3","ABEJPX8HRQFAW","either","8","507","","","","","","","0","0","1","0.2","","0.5","0.5","0.5","0.5","","","","","0.8","0.2","0.6","0.2","","","","","","","","74","J","1","","true","0","full_practice",""
"","bandit","64","256004","0.0-34.0-10.0","90067935","wem/bandit_either_3","ABEJPX8HRQFAW","either","8","94","","","","","","","0","0","1","0.2","","0.5","0.5","0.5","0.5","","","","","0.8","0.2","0.6","0.2","","","","","","","","76","L","3","","true","0","full_practice",""
"","bandit","65","257653","0.0-34.0-11.0","90067935","wem/bandit_either_3","ABEJPX8HRQFAW","either","8","126","","","","","","","0","1","0","","0.6","0.5","0.5","0.5","0.5","0.8","0.2","0.6","0.2","","","","","","","","","","","","75","K","2","","true","0","full_practice",""
"","bandit","66","259426","0.0-34.0-12.0","90067935","wem/bandit_either_3","ABEJPX8HRQFAW","either","8","253","","","","","","","0","0","1","0.2","","0.5","0.5","0.5","0.5","","","","","0.8","0.2","0.6","0.2","","","","","","","","76","L","3","","true","0","full_practice",""
"","bandit","67","261458","0.0-34.0-13.0","90067935","wem/bandit_either_3","ABEJPX8HRQFAW","either","8","512","","","","","","","0","0","1","0.2","","0.5","0.5","0.5","0.5","","","","","0.8","0.2","0.6","0.2","","","","","","","","74","J","1","","true","0","full_practice",""
"","bandit","68","262980","0.0-34.0-14.0","90067935","wem/bandit_either_3","ABEJPX8HRQFAW","either","8","4","","","","","","","1","0","0","0.8","","0.5","0.5","0.5","0.5","","","","","0.8","0.2","0.6","0.2","","","","","","","","72","H","0","img/none_selected.jpg","true","0","full_practice",""
"","bandit","69","264768","0.0-34.0-15.0","90067935","wem/bandit_either_3","ABEJPX8HRQFAW","either","8","269","","","","","","","0","1","0","","0.8","0.5","0.5","0.5","0.5","0.8","0.2","0.6","0.2","","","","","","","","","","","","72","H","0","img/none_selected.jpg","true","0","full_practice",""
"","bandit","70","266358","0.0-34.0-16.0","90067935","wem/bandit_either_3","ABEJPX8HRQFAW","either","8","71","","","","","","","0","0","1","0.2","","0.5","0.5","0.5","0.5","","","","","0.8","0.2","0.6","0.2","","","","","","","","74","J","1","","true","0","full_practice",""
"","bandit","71","267983","0.0-34.0-17.0","90067935","wem/bandit_either_3","ABEJPX8HRQFAW","either","8","95","","","","","","","0","0","1","","0.6","0.5","0.5","0.5","0.5","0.8","0.2","0.6","0.2","","","","","","","","","","","","75","K","2","","true","0","full_practice",""
"","bandit","72","269553","0.0-34.0-18.0","90067935","wem/bandit_either_3","ABEJPX8HRQFAW","either","8","39","","","","","","","0","1","0","","0.2","0.5","0.5","0.5","0.5","0.8","0.2","0.6","0.2","","","","","","","","","","","","76","L","3","","true","0","full_practice",""
"","bandit","73","271189","0.0-34.0-19.0","90067935","wem/bandit_either_3","ABEJPX8HRQFAW","either","8","110","","","","","","","0","1","0","","0.8","0.5","0.5","0.5","0.5","0.8","0.2","0.6","0.2","","","","","","","","","","","","72","H","0","img/none_selected.jpg","true","0","full_practice",""
"","text","74","273475","0.0-35.0","90067935","wem/bandit_either_3","ABEJPX8HRQFAW","either","8","2269","","32","","","","","","","","","","","","","","","","","","","","","","","","","","","","","","","","","","","",""
"","text","75","282200","0.0-36.0","90067935","wem/bandit_either_3","ABEJPX8HRQFAW","either","8","7717","","32","","","","","","","","","","","","","","","","","","","","","","","","","","","","","","","","","","","",""
"","text","76","288494","0.0-37.0","90067935","wem/bandit_either_3","ABEJPX8HRQFAW","either","8","6288","","32","","","","","","","","","","","","","","","","","","","","","","","","","","","","","","","","","","","",""
"","text","77","291937","0.0-38.0","90067935","wem/bandit_either_3","ABEJPX8HRQFAW","either","8","3438","","32","","","","","","","","","","","","","","","","","","","","","","","","","","","","","","","","","","","",""
"","text","78","295920","0.0-39.0","90067935","wem/bandit_either_3","ABEJPX8HRQFAW","either","8","3977","","32","","","","","","","","","","","","","","","","","","","","","","","","","","","","","","","","","","","",""
"","text","79","297303","0.0-40.0","90067935","wem/bandit_either_3","ABEJPX8HRQFAW","either","8","1379","","32","","","","","","","","","","","","","","","","","","","","","","","","","","","","","","","","","","","",""
"","bandit","80","299538","0.0-41.0-0.0","90067935","wem/bandit_either_3","ABEJPX8HRQFAW","either","8","710","","","","","","","0","0","1","","0.2428949588","0.6","0.4","0.8","0.2","0.4468950172","0.2428949588","0.3040937467","0.6337563202","","","","","","","","","","","","74","J","1","","","1","main_expt",""
"","bandit","81","301607","0.0-42.0-0.0","90067935","wem/bandit_either_3","ABEJPX8HRQFAW","either","8","541","","","","","","","0","0","1","0.3846124694","","0.6","0.4","0.8","0.2","","","","","0.3846124694","0.248961424","0.2687625136","0.7380673114","","","","","","","","72","H","0","img/none_selected.jpg","","2","main_expt",""
"","bandit","82","303395","0.0-43.0-0.0","90067935","wem/bandit_either_3","ABEJPX8HRQFAW","either","8","265","","","","","","","0","0","1","0.3017919557","","0.6","0.4","0.8","0.2","","","","","0.3885967974","0.1878604038","0.3017919557","0.7715549737","","","","","","","","75","K","2","","","3","main_expt",""
"","bandit","83","305017","0.0-44.0-0.0","90067935","wem/bandit_either_3","ABEJPX8HRQFAW","either","8","102","","","","","","","0","1","0","","0.8257013646","0.6","0.4","0.8","0.2","0.2891644394","0.1194049449","0.3388517529","0.8257013646","","","","","","","","","","","","76","L","3","","","4","main_expt",""
"","bandit","84","306820","0.0-45.0-0.0","90067935","wem/bandit_either_3","ABEJPX8HRQFAW","either","8","279","","","","","","","0","0","1","0.389096829","","0.6","0.4","0.8","0.2","","","","","0.2654579937","0.197046458","0.389096829","0.8617886559","","","","","","","","75","K","2","","","5","main_expt",""
"","bandit","85","308830","0.0-46.0-0.0","90067935","wem/bandit_either_3","ABEJPX8HRQFAW","either","8","493","","","","","","","0","0","1","0.2312720201","","0.6","0.4","0.8","0.2","","","","","0.355160999","0.2312720201","0.4799636182","0.8452125903","","","","","","","","74","J","1","","","6","main_expt",""
"","bandit","86","310686","0.0-47.0-0.0","90067935","wem/bandit_either_3","ABEJPX8HRQFAW","either","8","330","","","","","","","0","1","0","","0.4733904832","0.6","0.4","0.8","0.2","0.4733904832","0.3255591742","0.5316557606","0.8765288384","","","","","","","","","","","","72","H","0","img/none_selected.jpg","","7","main_expt",""
"","bandit","87","312519","0.0-48.0-0.0","90067935","wem/bandit_either_3","ABEJPX8HRQFAW","either","8","312","","","","","","","0","0","1","0.163151729","","0.6","0.4","0.8","0.2","","","","","0.4900136729","0.163151729","0.4935712437","0.8625068071","","","","","","","","74","J","1","","","8","main_expt",""
"","bandit","88","314349","0.0-49.0-0.0","90067935","wem/bandit_either_3","ABEJPX8HRQFAW","either","8","305","","","","","","","0","0","1","0.5400450001","","0.6","0.4","0.8","0.2","","","","","0.4543552171","0.1671639775","0.5400450001","0.8385781597","","","","","","","","75","K","2","","","9","main_expt",""
"","bandit","89","316105","0.0-50.0-0.0","90067935","wem/bandit_either_3","ABEJPX8HRQFAW","either","8","235","","","","","","","0","1","0","","0.833356221","0.6","0.4","0.8","0.2","0.4523920981","0.1315225434","0.6510952772","0.833356221","","","","","","","","","","","","76","L","3","","","10","main_expt",""
"","bandit","90","317928","0.0-51.0-0.0","90067935","wem/bandit_either_3","ABEJPX8HRQFAW","either","8","302","","","","","","","1","0","0","0.6117649901","","0.6","0.4","0.8","0.2","","","","","0.4053083118","0.1287002637","0.6117649901","0.9030756702","","","","","","","","75","K","2","","","11","main_expt",""
"","bandit","91","319724","0.0-52.0-0.0","90067935","wem/bandit_either_3","ABEJPX8HRQFAW","either","8","274","","","","","","","1","0","0","0.6360746298","","0.6","0.4","0.8","0.2","","","","","0.4059907931","0.1026596936","0.6360746298","0.9129290363","","","","","","","","75","K","2","","","12","main_expt",""
"","bandit","92","321516","0.0-53.0-0.0","90067935","wem/bandit_either_3","ABEJPX8HRQFAW","either","8","268","","","","","","","0","0","1","0.5673960652","","0.6","0.4","0.8","0.2","","","","","0.2934167972","0.1287514256","0.5673960652","0.8638417716","","","","","","","","75","K","2","","","13","main_expt",""
"","bandit","93","323220","0.0-54.0-0.0","90067935","wem/bandit_either_3","ABEJPX8HRQFAW","either","8","179","","","","","","","0","0","1","","0.1786171179","0.6","0.4","0.8","0.2","0.3260927596","0.1786171179","0.6747725803","0.787806988","","","","","","","","","","","","74","J","1","","","14","main_expt",""
"","bandit","94","324847","0.0-55.0-0.0","90067935","wem/bandit_either_3","ABEJPX8HRQFAW","either","8","99","","","","","","","0","0","1","0.3355382734","","0.6","0.4","0.8","0.2","","","","","0.3355382734","0.1459410532","0.6277188345","0.7254212376","","","","","","","","72","H","0","img/none_selected.jpg","","15","main_expt",""
"","bandit","95","326694","0.0-56.0-0.0","90067935","wem/bandit_either_3","ABEJPX8HRQFAW","either","8","331","","","","","","","0","0","1","","0.2255600906","0.6","0.4","0.8","0.2","0.3040928121","0.2255600906","0.5435568235","0.7238415528","","","","","","","","","","","","74","J","1","","","16","main_expt",""
"","bandit","96","328515","0.0-57.0-0.0","90067935","wem/bandit_either_3","ABEJPX8HRQFAW","either","8","296","","","","","","","0","1","0","","0.4180161478","0.6","0.4","0.8","0.2","0.2730366263","0.2052013943","0.4180161478","0.7796243455","","","","","","","","","","","","75","K","2","","","17","main_expt",""
"","bandit","97","330452","0.0-58.0-0.0","90067935","wem/bandit_either_3","ABEJPX8HRQFAW","either","8","421","","","","","","","0","0","1","","0.6928902724","0.6","0.4","0.8","0.2","0.4105298721","0.1780354615","0.4961111773","0.6928902724","","","","","","","","","","","","76","L","3","","","18","main_expt",""
"","bandit","98","332305","0.0-59.0-0.0","90067935","wem/bandit_either_3","ABEJPX8HRQFAW","either","8","331","","","","","","","0","1","0","","0.7658630901","0.6","0.4","0.8","0.2","0.3586923344","0.1576496117","0.445530788","0.7658630901","","","","","","","","","","","","76","L","3","","","19","main_expt",""
"","bandit","99","334186","0.0-60.0-0.0","90067935","wem/bandit_either_3","ABEJPX8HRQFAW","either","8","342","","","","","","","0","0","1","0.3443163705","","0.6","0.4","0.8","0.2","","","","","0.3220075653","0.1618752313","0.3443163705","0.7584200513","","","","","","","","75","K","2","","","20","main_expt",""
"","bandit","100","336260","0.0-61.0-0.0","90067935","wem/bandit_either_3","ABEJPX8HRQFAW","either","8","538","","","","","","","0","0","1","0.2152187387","","0.6","0.4","0.8","0.2","","","","","0.2729660799","0.2152187387","0.3012808647","0.7727038765","","","","","","","","74","J","1","","","21","main_expt",""
"","bandit","101","338156","0.0-62.0-0.0","90067935","wem/bandit_either_3","ABEJPX8HRQFAW","either","8","361","","","","","","","0","0","1","0.2712352107","","0.6","0.4","0.8","0.2","","","","","0.2712352107","0.3547982299","0.2882062485","0.8152565923","","","","","","","","72","H","0","img/none_selected.jpg","","22","main_expt",""
"","bandit","102","340105","0.0-63.0-0.0","90067935","wem/bandit_either_3","ABEJPX8HRQFAW","either","8","416","","","","","","","0","0","1","0.3390855774","","0.6","0.4","0.8","0.2","","","","","0.3390855774","0.323805638","0.2113421372","0.7537075358","","","","","","","","72","H","0","img/none_selected.jpg","","23","main_expt",""
"","bandit","103","342005","0.0-64.0-0.0","90067935","wem/bandit_either_3","ABEJPX8HRQFAW","either","8","372","","","","","","","1","0","0","0.3588909826","","0.6","0.4","0.8","0.2","","","","","0.3483259141","0.3588909826","0.2201805416","0.7108822858","","","","","","","","74","J","1","","","24","main_expt",""
"","bandit","104","344060","0.0-65.0-0.0","90067935","wem/bandit_either_3","ABEJPX8HRQFAW","either","8","528","","","","","","","0","0","1","","0.3885553436","0.6","0.4","0.8","0.2","0.3416976173","0.3885553436","0.2580956466","0.6930515954","","","","","","","","","","","","74","J","1","","","25","main_expt",""
"","bandit","105","346176","0.0-66.0-0.0","90067935","wem/bandit_either_3","ABEJPX8HRQFAW","either","8","594","","","","","","","0","1","0","","0.4871556374","0.6","0.4","0.8","0.2","0.4243476322","0.4871556374","0.2153432854","0.6905393417","","","","","","","","","","","","74","J","1","","","26","main_expt",""
"","bandit","106","348110","0.0-67.0-0.0","90067935","wem/bandit_either_3","ABEJPX8HRQFAW","either","8","418","","","","","","","0","0","1","0.1727955236","","0.6","0.4","0.8","0.2","","","","","0.5257754898","0.4934119911","0.1727955236","0.7531652131","","","","","","","","75","K","2","","","27","main_expt",""
"","bandit","107","350355","0.0-68.0-0.0","90067935","wem/bandit_either_3","ABEJPX8HRQFAW","either","8","720","","","","","","","0","0","1","0.1894296703","","0.6","0.4","0.8","0.2","","","","","0.5246232361","0.4322092846","0.1894296703","0.8001777041","","","","","","","","75","K","2","","","28","main_expt",""
"","bandit","108","353298","0.0-69.0-0.0","90067935","wem/bandit_either_3","ABEJPX8HRQFAW","either","8","1428","","","","","","","0","1","0","","0.8118404327","0.6","0.4","0.8","0.2","0.375994784","0.3459113699","0.2128919211","0.8118404327","","","","","","","","","","","","76","L","3","","","29","main_expt",""
"","bandit","109","355654","0.0-70.0-0.0","90067935","wem/bandit_either_3","ABEJPX8HRQFAW","either","8","838","","","","","","","0","0","1","0.206056468","","0.6","0.4","0.8","0.2","","","","","0.2936890161","0.280789843","0.206056468","0.7839534503","","","","","","","","75","K","2","","","30","main_expt",""
"","bandit","110","359405","0.0-71.0-0.0","90067935","wem/bandit_either_3","ABEJPX8HRQFAW","either","8","2218","","","","","","","0","0","1","0.1725623241","","0.6","0.4","0.8","0.2","","","","","0.2878812258","0.2613810438","0.1725623241","0.8066372971","","","","","","","","75","K","2","","","31","main_expt",""
"","bandit","111","362872","0.0-72.0-0.0","90067935","wem/bandit_either_3","ABEJPX8HRQFAW","either","8","1947","","","","","","","0","0","1","","0.3821585683","0.6","0.4","0.8","0.2","0.2451492808","0.3821585683","0.1629883914","0.8049259064","","","","","","","","","","","","74","J","1","","","32","main_expt",""
"","bandit","112","366220","0.0-73.0-0.0","90067935","wem/bandit_either_3","ABEJPX8HRQFAW","either","8","1830","","","","","","","0","0","1","0.2802113289","","0.6","0.4","0.8","0.2","","","","","0.2802113289","0.2714925976","0.2107911223","0.7891664673","","","","","","","","72","H","0","img/none_selected.jpg","","33","main_expt",""
"","bandit","113","369753","0.0-74.0-0.0","90067935","wem/bandit_either_3","ABEJPX8HRQFAW","either","8","2009","","","","","","","0","0","1","","0.2755575364","0.6","0.4","0.8","0.2","0.2892342718","0.2755575364","0.1025901997","0.7854278051","","","","","","","","","","","","74","J","1","","","34","main_expt",""
"","bandit","114","371638","0.0-75.0-0.0","90067935","wem/bandit_either_3","ABEJPX8HRQFAW","either","8","366","","","","","","","0","0","1","0.2697856654","","0.6","0.4","0.8","0.2","","","","","0.2486893666","0.2697856654","0.1289879153","0.7260182018","","","","","","","","74","J","1","","","35","main_expt",""
"","bandit","115","373728","0.0-76.0-0.0","90067935","wem/bandit_either_3","ABEJPX8HRQFAW","either","8","568","","","","","","","0","0","1","","0.3536408983","0.6","0.4","0.8","0.2","0.3536408983","0.2483646443","0.1645491317","0.7910957192","","","","","","","","","","","","72","H","0","img/none_selected.jpg","","36","main_expt",""
"","bandit","116","375682","0.0-77.0-0.0","90067935","wem/bandit_either_3","ABEJPX8HRQFAW","either","8","436","","","","","","","0","0","1","0.1698046746","","0.6","0.4","0.8","0.2","","","","","0.2493566902","0.2103950957","0.1698046746","0.7996551039","","","","","","","","75","K","2","","","37","main_expt",""
"","bandit","117","378220","0.0-78.0-0.0","90067935","wem/bandit_either_3","ABEJPX8HRQFAW","either","8","1023","","","","","","","0","1","0","","0.6717479894","0.6","0.4","0.8","0.2","0.2948354516","0.2128944509","0.2281502886","0.6717479894","","","","","","","","","","","","76","L","3","","","38","main_expt",""
"","bandit","118","384063","0.0-79.0-0.0","90067935","wem/bandit_either_3","ABEJPX8HRQFAW","either","8","4322","","","","","","","0","0","1","0.1561271762","","0.6","0.4","0.8","0.2","","","","","0.3373274679","0.2965153327","0.1561271762","0.7121128808","","","","","","","","75","K","2","","","39","main_expt",""
"","bandit","119","386222","0.0-80.0-0.0","90067935","wem/bandit_either_3","ABEJPX8HRQFAW","either","8","638","","","","","","","1","0","0","0.4447532253","","0.6","0.4","0.8","0.2","","","","","0.4138768052","0.4447532253","0.1543620621","0.7157410044","","","","","","","","74","J","1","","","40","main_expt",""
"","bandit","120","389257","0.0-81.0-0.0","90067935","wem/bandit_either_3","ABEJPX8HRQFAW","either","8","1511","","","","","","","0","0","1","","0.5330008696","0.6","0.4","0.8","0.2","0.438096834","0.5330008696","0.2271499981","0.681196038","","","","","","","","","","","","74","J","1","","","41","main_expt",""
"","bandit","121","392419","0.0-82.0-0.0","90067935","wem/bandit_either_3","ABEJPX8HRQFAW","either","8","1634","","","","","","","0","1","0","","0.573861049","0.6","0.4","0.8","0.2","0.4185173612","0.573861049","0.2882452936","0.6504320647","","","","","","","","","","","","74","J","1","","","42","main_expt",""
"","bandit","122","394617","0.0-83.0-0.0","90067935","wem/bandit_either_3","ABEJPX8HRQFAW","either","8","675","","","","","","","1","0","0","0.3796335567","","0.6","0.4","0.8","0.2","","","","","0.3796335567","0.6654349765","0.298522686","0.7369830744","","","","","","","","72","H","0","img/none_selected.jpg","","43","main_expt",""
"","bandit","123","399757","0.0-84.0-0.0","90067935","wem/bandit_either_3","ABEJPX8HRQFAW","either","8","3613","","","","","","","0","0","1","","0.31766129","0.6","0.4","0.8","0.2","0.31766129","0.691198465","0.3188886026","0.6797935378","","","","","","","","","","","","72","H","0","img/none_selected.jpg","","44","main_expt",""
"","bandit","124","403830","0.0-85.0-0.0","90067935","wem/bandit_either_3","ABEJPX8HRQFAW","either","8","2539","","","","","","","1","0","0","0.2705760174","","0.6","0.4","0.8","0.2","","","","","0.4047397141","0.7652674903","0.2705760174","0.6507473666","","","","","","","","75","K","2","","","45","main_expt",""
"","bandit","125","406187","0.0-86.0-0.0","90067935","wem/bandit_either_3","ABEJPX8HRQFAW","either","8","823","","","","","","","1","0","0","0.2506880939","","0.6","0.4","0.8","0.2","","","","","0.4961613307","0.8065230058","0.2506880939","0.6334510787","","","","","","","","75","K","2","","","46","main_expt",""
"","bandit","126","408296","0.0-87.0-0.0","90067935","wem/bandit_either_3","ABEJPX8HRQFAW","either","8","578","","","","","","","0","0","1","0.2491585872","","0.6","0.4","0.8","0.2","","","","","0.4624468315","0.7774474893","0.2491585872","0.6143175143","","","","","","","","75","K","2","","","47","main_expt",""
"","bandit","127","410154","0.0-88.0-0.0","90067935","wem/bandit_either_3","ABEJPX8HRQFAW","either","8","327","","","","","","","0","1","0","","0.6404512611","0.6","0.4","0.8","0.2","0.4886537242","0.7693176975","0.1997021219","0.6404512611","","","","","","","","","","","","76","L","3","","","48","main_expt",""
"","bandit","128","412637","0.0-89.0-0.0","90067935","wem/bandit_either_3","ABEJPX8HRQFAW","either","8","961","","","","","","","0","0","1","0.2119577724","","0.6","0.4","0.8","0.2","","","","","0.4270302022","0.807419373","0.2119577724","0.6758621215","","","","","","","","75","K","2","","","49","main_expt",""
"","bandit","129","414611","0.0-90.0-0.0","90067935","wem/bandit_either_3","ABEJPX8HRQFAW","either","8","449","","","","","","","0","1","0","","0.8562769227","0.6","0.4","0.8","0.2","0.5151345658","0.8562769227","0.2615271711","0.6873234502","","","","","","","","","","","","74","J","1","","","50","main_expt",""
"","bandit","130","416798","0.0-91.0-0.0","90067935","wem/bandit_either_3","ABEJPX8HRQFAW","either","8","664","","","","","","","1","0","0","0.5134524181","","0.6","0.4","0.8","0.2","","","","","0.5134524181","0.8705114925","0.2764427577","0.7776044395","","","","","","","","72","H","0","img/none_selected.jpg","","51","main_expt",""
"","bandit","131","421142","0.0-92.0-0.0","90067935","wem/bandit_either_3","ABEJPX8HRQFAW","either","8","2822","","","","","","","0","1","0","","0.4842684999","0.6","0.4","0.8","0.2","0.4842684999","0.9310361031","0.3833776697","0.8403410939","","","","","","","","","","","","72","H","0","img/none_selected.jpg","","52","main_expt",""
"","bandit","132","424157","0.0-93.0-0.0","90067935","wem/bandit_either_3","ABEJPX8HRQFAW","either","8","1494","","","","","","","0","1","0","","0.4356502318","0.6","0.4","0.8","0.2","0.4412850773","0.905794742","0.4356502318","0.8151983534","","","","","","","","","","","","75","K","2","","","53","main_expt",""
"","bandit","133","426526","0.0-94.0-0.0","90067935","wem/bandit_either_3","ABEJPX8HRQFAW","either","8","847","","","","","","","0","1","0","","0.9391541593","0.6","0.4","0.8","0.2","0.4397693946","0.9391541593","0.4120588364","0.8081222638","","","","","","","","","","","","74","J","1","","","54","main_expt",""
"","bandit","134","428926","0.0-95.0-0.0","90067935","wem/bandit_either_3","ABEJPX8HRQFAW","either","8","878","","","","","","","0","1","0","","0.742009976","0.6","0.4","0.8","0.2","0.3928202278","0.9596285882","0.2714296105","0.742009976","","","","","","","","","","","","76","L","3","","","55","main_expt",""
"","bandit","135","431417","0.0-96.0-0.0","90067935","wem/bandit_either_3","ABEJPX8HRQFAW","either","8","972","","","","","","","1","0","0","0.2122311877","","0.6","0.4","0.8","0.2","","","","","0.4593665993","0.9565658233","0.2122311877","0.7065076074","","","","","","","","75","K","2","","","56","main_expt",""
"","bandit","136","433862","0.0-97.0-0.0","90067935","wem/bandit_either_3","ABEJPX8HRQFAW","either","8","922","","","","","","","0","0","1","0.2282278588","","0.6","0.4","0.8","0.2","","","","","0.4006145211","0.9681540372","0.2282278588","0.6860695476","","","","","","","","75","K","2","","","57","main_expt",""
"","bandit","137","436867","0.0-98.0-0.0","90067935","wem/bandit_either_3","ABEJPX8HRQFAW","either","8","1486","","","","","","","1","0","0","0.1392076118","","0.6","0.4","0.8","0.2","","","","","0.4597890412","0.9207083952","0.1392076118","0.742301155","","","","","","","","75","K","2","","","58","main_expt",""
"","bandit","138","439135","0.0-99.0-0.0","90067935","wem/bandit_either_3","ABEJPX8HRQFAW","either","8","743","","","","","","","0","0","1","0.1706239206","","0.6","0.4","0.8","0.2","","","","","0.4232266093","0.9178227258","0.1706239206","0.5291004622","","","","","","","","75","K","2","","","59","main_expt",""
"","bandit","139","442045","0.0-100.0-0.0","90067935","wem/bandit_either_3","ABEJPX8HRQFAW","either","8","1389","","","","","","","0","0","1","","0.1674269281","0.6","0.4","0.8","0.2","0.3565880291","0.8951285427","0.1674269281","0.6348838793","","","","","","","","","","","","75","K","2","","","60","main_expt",""
"","bandit","140","444993","0.0-101.0-0.0","90067935","wem/bandit_either_3","ABEJPX8HRQFAW","either","8","1430","","","","","","","0","1","0","","0.8506814954","0.6","0.4","0.8","0.2","0.3663276413","0.8506814954","0.2182313474","0.6796423313","","","","","","","","","","","","74","J","1","","","61","main_expt",""
"","bandit","141","447551","0.0-102.0-0.0","90067935","wem/bandit_either_3","ABEJPX8HRQFAW","either","8","1034","","","","","","","0","1","0","","0.3193005293","0.6","0.4","0.8","0.2","0.3193005293","0.8513854559","0.2949218256","0.6928172916","","","","","","","","","","","","72","H","0","img/none_selected.jpg","","62","main_expt",""
"","bandit","142","450010","0.0-103.0-0.0","90067935","wem/bandit_either_3","ABEJPX8HRQFAW","either","8","932","","","","","","","0","1","0","","0.8927579502","0.6","0.4","0.8","0.2","0.1562068481","0.8927579502","0.3170222383","0.6996506825","","","","","","","","","","","","74","J","1","","","63","main_expt",""
"","bandit","143","452646","0.0-104.0-0.0","90067935","wem/bandit_either_3","ABEJPX8HRQFAW","either","8","1113","","","","","","","0","0","1","0.3033511374","","0.6","0.4","0.8","0.2","","","","","0.2300477965","0.9217936765","0.3033511374","0.7294442249","","","","","","","","75","K","2","","","64","main_expt",""
"","bandit","144","454774","0.0-105.0-0.0","90067935","wem/bandit_either_3","ABEJPX8HRQFAW","either","8","605","","","","","","","1","0","0","0.3973690147","","0.6","0.4","0.8","0.2","","","","","0.2869838185","0.9357047413","0.3973690147","0.6605354899","","","","","","","","75","K","2","","","65","main_expt",""
"","bandit","145","457117","0.0-106.0-0.0","90067935","wem/bandit_either_3","ABEJPX8HRQFAW","either","8","818","","","","","","","0","0","1","0.4320294497","","0.6","0.4","0.8","0.2","","","","","0.3287476356","0.910343843","0.4320294497","0.6959621059","","","","","","","","75","K","2","","","66","main_expt",""
"","bandit","146","459124","0.0-107.0-0.0","90067935","wem/bandit_either_3","ABEJPX8HRQFAW","either","8","486","","","","","","","0","0","1","0.3208465419","","0.6","0.4","0.8","0.2","","","","","0.3018365728","0.9022080512","0.3208465419","0.653899752","","","","","","","","75","K","2","","","67","main_expt",""
"","bandit","147","460894","0.0-108.0-0.0","90067935","wem/bandit_either_3","ABEJPX8HRQFAW","either","8","247","","","","","","","1","0","0","0.6517851336","","0.6","0.4","0.8","0.2","","","","","0.3208616414","0.8492414063","0.3570730799","0.6517851336","","","","","","","","76","L","3","","","68","main_expt",""
"","bandit","148","464452","0.0-109.0-0.0","90067935","wem/bandit_either_3","ABEJPX8HRQFAW","either","8","2019","","","","","","","0","1","0","","0.7011615004","0.6","0.4","0.8","0.2","0.386863802","0.768219052","0.3451514791","0.7011615004","","","","","","","","","","","","76","L","3","","","69","main_expt",""
"","bandit","149","468232","0.0-110.0-0.0","90067935","wem/bandit_either_3","ABEJPX8HRQFAW","either","8","2243","","","","","","","0","0","1","0.3127714871","","0.6","0.4","0.8","0.2","","","","","0.3628244161","0.7996218848","0.3127714871","0.6278947594","","","","","","","","75","K","2","","","70","main_expt",""
"","bandit","150","470063","0.0-111.0-0.0","90067935","wem/bandit_either_3","ABEJPX8HRQFAW","either","8","299","","","","","","","1","0","0","0.9130189757","","0.6","0.4","0.8","0.2","","","","","0.2969295023","0.9130189757","0.3855297895","0.688517509","","","","","","","","74","J","1","","","71","main_expt",""
"","bandit","151","473054","0.0-112.0-0.0","90067935","wem/bandit_either_3","ABEJPX8HRQFAW","either","8","1459","","","","","","","0","1","0","","0.9016843832","0.6","0.4","0.8","0.2","0.3512325323","0.9016843832","0.3555010044","0.6125440106","","","","","","","","","","","","74","J","1","","","72","main_expt",""
"","bandit","152","476356","0.0-113.0-0.0","90067935","wem/bandit_either_3","ABEJPX8HRQFAW","either","8","1777","","","","","","","0","0","1","","0.3845321254","0.6","0.4","0.8","0.2","0.3845321254","0.9166584401","0.3278360739","0.4884410468","","","","","","","","","","","","72","H","0","img/none_selected.jpg","","73","main_expt",""
"","bandit","153","478430","0.0-114.0-0.0","90067935","wem/bandit_either_3","ABEJPX8HRQFAW","either","8","549","","","","","","","0","1","0","","0.8699410266","0.6","0.4","0.8","0.2","0.3760614253","0.8699410266","0.3275161349","0.5800760741","","","","","","","","","","","","74","J","1","","","74","main_expt",""
"","bandit","154","481118","0.0-115.0-0.0","90067935","wem/bandit_either_3","ABEJPX8HRQFAW","either","8","1164","","","","","","","1","0","0","0.3454333807","","0.6","0.4","0.8","0.2","","","","","0.370831352","0.8192171788","0.3454333807","0.6614390465","","","","","","","","75","K","2","","","75","main_expt",""
"","bandit","155","486498","0.0-116.0-0.0","90067935","wem/bandit_either_3","ABEJPX8HRQFAW","either","8","3860","","","","","","","0","0","1","0.4213924804","","0.6","0.4","0.8","0.2","","","","","0.4008199491","0.8990587115","0.4213924804","0.6861570843","","","","","","","","75","K","2","","","76","main_expt",""
"","bandit","156","488708","0.0-117.0-0.0","90067935","wem/bandit_either_3","ABEJPX8HRQFAW","either","8","686","","","","","","","0","0","1","","0.5980737028","0.6","0.4","0.8","0.2","0.3928984844","0.9062137116","0.439510692","0.5980737028","","","","","","","","","","","","76","L","3","","","77","main_expt",""
"","bandit","157","491192","0.0-118.0-0.0","90067935","wem/bandit_either_3","ABEJPX8HRQFAW","either","8","966","","","","","","","0","0","1","","0.6754083514","0.6","0.4","0.8","0.2","0.4709058574","0.9215914722","0.4419424199","0.6754083514","","","","","","","","","","","","76","L","3","","","78","main_expt",""
"","bandit","158","493420","0.0-119.0-0.0","90067935","wem/bandit_either_3","ABEJPX8HRQFAW","either","8","707","","","","","","","1","0","0","0.5056762283","","0.6","0.4","0.8","0.2","","","","","0.4971614577","0.895443078","0.5056762283","0.7012934339","","","","","","","","75","K","2","","","79","main_expt",""
"","bandit","159","495438","0.0-120.0-0.0","90067935","wem/bandit_either_3","ABEJPX8HRQFAW","either","8","493","","","","","","","0","1","0","","0.4558190996","0.6","0.4","0.8","0.2","0.4828267768","0.7789772955","0.4558190996","0.7067798052","","","","","","","","","","","","75","K","2","","","80","main_expt",""
"","bandit","160","497269","0.0-121.0-0.0","90067935","wem/bandit_either_3","ABEJPX8HRQFAW","either","8","305","","","","","","","0","0","1","0.755426824","","0.6","0.4","0.8","0.2","","","","","0.4280570329","0.755426824","0.4774921548","0.7259433061","","","","","","","","74","J","1","","","81","main_expt",""
"","bandit","161","499892","0.0-122.0-0.0","90067935","wem/bandit_either_3","ABEJPX8HRQFAW","either","8","1100","","","","","","","0","0","1","0.486136241","","0.6","0.4","0.8","0.2","","","","","0.486136241","0.8356426425","0.3611036613","0.7022130872","","","","","","","","72","H","0","img/none_selected.jpg","","82","main_expt",""
"","bandit","162","502458","0.0-123.0-0.0","90067935","wem/bandit_either_3","ABEJPX8HRQFAW","either","8","1046","","","","","","","0","0","1","","0.8783145762","0.6","0.4","0.8","0.2","0.3539143083","0.8783145762","0.3341354767","0.75927227","","","","","","","","","","","","74","J","1","","","83","main_expt",""
"","bandit","163","504809","0.0-124.0-0.0","90067935","wem/bandit_either_3","ABEJPX8HRQFAW","either","8","822","","","","","","","1","0","0","0.288479151","","0.6","0.4","0.8","0.2","","","","","0.374811954","0.9087743635","0.288479151","0.8556046088","","","","","","","","75","K","2","","","84","main_expt",""
"","bandit","164","506979","0.0-125.0-0.0","90067935","wem/bandit_either_3","ABEJPX8HRQFAW","either","8","648","","","","","","","1","0","0","0.3061923995","","0.6","0.4","0.8","0.2","","","","","0.4518264681","0.8632011641","0.3061923995","0.7835234447","","","","","","","","75","K","2","","","85","main_expt",""
"","bandit","165","508903","0.0-126.0-0.0","90067935","wem/bandit_either_3","ABEJPX8HRQFAW","either","8","398","","","","","","","1","0","0","0.3370204437","","0.6","0.4","0.8","0.2","","","","","0.461936863","0.8341253046","0.3370204437","0.7037548709","","","","","","","","75","K","2","","","86","main_expt",""
"","bandit","166","510824","0.0-127.0-0.0","90067935","wem/bandit_either_3","ABEJPX8HRQFAW","either","8","393","","","","","","","1","0","0","0.3900809043","","0.6","0.4","0.8","0.2","","","","","0.3681660755","0.8728746981","0.3900809043","0.6903674631","","","","","","","","75","K","2","","","87","main_expt",""
"","bandit","167","512807","0.0-128.0-0.0","90067935","wem/bandit_either_3","ABEJPX8HRQFAW","either","8","465","","","","","","","0","0","1","0.4296615172","","0.6","0.4","0.8","0.2","","","","","0.3788462328","0.8408980459","0.4296615172","0.5883284312","","","","","","","","75","K","2","","","88","main_expt",""
"","bandit","168","514722","0.0-129.0-0.0","90067935","wem/bandit_either_3","ABEJPX8HRQFAW","either","8","392","","","","","","","1","0","0","0.4636560077","","0.6","0.4","0.8","0.2","","","","","0.3316952272","0.8585781628","0.4636560077","0.5258490985","","","","","","","","75","K","2","","","89","main_expt",""
"","bandit","169","516693","0.0-130.0-0.0","90067935","wem/bandit_either_3","ABEJPX8HRQFAW","either","8","445","","","","","","","1","0","0","0.4463585346","","0.6","0.4","0.8","0.2","","","","","0.438068917","0.925840658","0.4463585346","0.6395041767","","","","","","","","75","K","2","","","90","main_expt",""
"","bandit","170","518602","0.0-131.0-0.0","90067935","wem/bandit_either_3","ABEJPX8HRQFAW","either","8","381","","","","","","","0","0","1","0.4734463503","","0.6","0.4","0.8","0.2","","","","","0.5158843935","0.9201841885","0.4734463503","0.6931091445","","","","","","","","75","K","2","","","91","main_expt",""
"","bandit","171","520513","0.0-132.0-0.0","90067935","wem/bandit_either_3","ABEJPX8HRQFAW","either","8","390","","","","","","","1","0","0","0.5248255385","","0.6","0.4","0.8","0.2","","","","","0.5182757575","0.8508076908","0.5248255385","0.6725373887","","","","","","","","75","K","2","","","92","main_expt",""
"","bandit","172","522625","0.0-133.0-0.0","90067935","wem/bandit_either_3","ABEJPX8HRQFAW","either","8","584","","","","","","","0","0","1","0.3386726181","","0.6","0.4","0.8","0.2","","","","","0.5498130742","0.8106711147","0.3386726181","0.7388835399","","","","","","","","75","K","2","","","93","main_expt",""
"","bandit","173","524476","0.0-134.0-0.0","90067935","wem/bandit_either_3","ABEJPX8HRQFAW","either","8","327","","","","","","","0","0","1","0.3718894848","","0.6","0.4","0.8","0.2","","","","","0.6049407638","0.8543263914","0.3718894848","0.697373586","","","","","","","","75","K","2","","","94","main_expt",""
"","bandit","174","526345","0.0-135.0-0.0","90067935","wem/bandit_either_3","ABEJPX8HRQFAW","either","8","347","","","","","","","1","0","0","0.4005278521","","0.6","0.4","0.8","0.2","","","","","0.6604115927","0.8387782901","0.4005278521","0.7550322224","","","","","","","","75","K","2","","","95","main_expt",""
"","bandit","175","528757","0.0-136.0-0.0","90067935","wem/bandit_either_3","ABEJPX8HRQFAW","either","8","878","","","","","","","1","0","0","0.3694595514","","0.6","0.4","0.8","0.2","","","","","0.7003847986","0.8208071174","0.3694595514","0.6576962358","","","","","","","","75","K","2","","","96","main_expt",""
"","bandit","176","531608","0.0-137.0-0.0","90067935","wem/bandit_either_3","ABEJPX8HRQFAW","either","8","1313","","","","","","","1","0","0","0.3186037095","","0.6","0.4","0.8","0.2","","","","","0.6793148949","0.765358829","0.3186037095","0.6802484638","","","","","","","","75","K","2","","","97","main_expt",""
"","bandit","177","534019","0.0-138.0-0.0","90067935","wem/bandit_either_3","ABEJPX8HRQFAW","either","8","874","","","","","","","0","0","1","0.2786717818","","0.6","0.4","0.8","0.2","","","","","0.6204607354","0.7823463211","0.2786717818","0.7042077447","","","","","","","","75","K","2","","","98","main_expt",""
"","bandit","178","536215","0.0-139.0-0.0","90067935","wem/bandit_either_3","ABEJPX8HRQFAW","either","8","664","","","","","","","0","0","1","0.32929866","","0.6","0.4","0.8","0.2","","","","","0.6166262367","0.7523003034","0.32929866","0.7355617892","","","","","","","","75","K","2","","","99","main_expt",""
"","bandit","179","538832","0.0-140.0-0.0","90067935","wem/bandit_either_3","ABEJPX8HRQFAW","either","8","1088","","","","","","","1","0","0","0.3115323478","","0.6","0.4","0.8","0.2","","","","","0.5347115766","0.7174790615","0.3115323478","0.7117411671","","","","","","","","75","K","2","","","100","main_expt",""
"","bandit","180","541741","0.0-141.0-0.0","90067935","wem/bandit_either_3","ABEJPX8HRQFAW","either","8","1383","","","","","","","1","0","0","0.4221749579","","0.6","0.4","0.8","0.2","","","","","0.3418016043","0.7660578318","0.4221749579","0.7263903312","","","","","","","","75","K","2","","","101","main_expt",""
"","bandit","181","544423","0.0-142.0-0.0","90067935","wem/bandit_either_3","ABEJPX8HRQFAW","either","8","1161","","","","","","","0","0","1","","0.2718078598","0.6","0.4","0.8","0.2","0.2550922237","0.7201180075","0.2718078598","0.7357346189","","","","","","","","","","","","75","K","2","","","102","main_expt",""
"","bandit","182","546724","0.0-143.0-0.0","90067935","wem/bandit_either_3","ABEJPX8HRQFAW","either","8","776","","","","","","","0","0","1","0.3011307106","","0.6","0.4","0.8","0.2","","","","","0.3181696353","0.8452780714","0.3011307106","0.7026134783","","","","","","","","75","K","2","","","103","main_expt",""
"","bandit","183","549219","0.0-144.0-0.0","90067935","wem/bandit_either_3","ABEJPX8HRQFAW","either","8","971","","","","","","","0","0","1","0.3659291838","","0.6","0.4","0.8","0.2","","","","","0.3383579412","0.7236924273","0.3659291838","0.8073666152","","","","","","","","75","K","2","","","104","main_expt",""
"","bandit","184","555342","0.0-145.0-0.0","90067935","wem/bandit_either_3","ABEJPX8HRQFAW","either","8","4605","","","","","","","0","0","1","","0.3499435223","0.6","0.4","0.8","0.2","0.2354673658","0.743719778","0.3499435223","0.824483439","","","","","","","","","","","","75","K","2","","","105","main_expt",""
"","bandit","185","557838","0.0-146.0-0.0","90067935","wem/bandit_either_3","ABEJPX8HRQFAW","either","8","968","","","","","","","0","0","1","0.3602262465","","0.6","0.4","0.8","0.2","","","","","0.159398249","0.7985687284","0.3602262465","0.9208810438","","","","","","","","75","K","2","","","106","main_expt",""
"","bandit","186","560502","0.0-147.0-0.0","90067935","wem/bandit_either_3","ABEJPX8HRQFAW","either","8","1137","","","","","","","1","0","0","0.8911910097","","0.6","0.4","0.8","0.2","","","","","0.1295169146","0.799345197","0.3252215163","0.8911910097","","","","","","","","76","L","3","","","107","main_expt",""
"","bandit","187","566576","0.0-148.0-0.0","90067935","wem/bandit_either_3","ABEJPX8HRQFAW","either","8","4552","","","","","","","0","0","1","0.2812406992","","0.6","0.4","0.8","0.2","","","","","0.07754053308","0.8681690713","0.2812406992","0.8450149587","","","","","","","","75","K","2","","","108","main_expt",""
"","bandit","188","569663","0.0-149.0-0.0","90067935","wem/bandit_either_3","ABEJPX8HRQFAW","either","8","1566","","","","","","","0","0","1","","0.868327257","0.6","0.4","0.8","0.2","0.06591215473","0.8556732204","0.2559497519","0.868327257","","","","","","","","","","","","76","L","3","","","109","main_expt",""
"","bandit","189","572774","0.0-150.0-0.0","90067935","wem/bandit_either_3","ABEJPX8HRQFAW","either","8","1593","","","","","","","0","0","1","0.2817400418","","0.6","0.4","0.8","0.2","","","","","0.1189546392","0.8669893864","0.2817400418","0.8868335222","","","","","","","","75","K","2","","","110","main_expt",""
"","bandit","190","575750","0.0-151.0-0.0","90067935","wem/bandit_either_3","ABEJPX8HRQFAW","either","8","1456","","","","","","","0","0","1","0.09523351692","","0.6","0.4","0.8","0.2","","","","","0.09523351692","0.799383849","0.2773620367","0.8770728171","","","","","","","","72","H","0","img/none_selected.jpg","","111","main_expt",""
"","bandit","191","578008","0.0-152.0-0.0","90067935","wem/bandit_either_3","ABEJPX8HRQFAW","either","8","738","","","","","","","0","0","1","","0.2833316415","0.6","0.4","0.8","0.2","0.107489667","0.859799476","0.2833316415","0.8481710002","","","","","","","","","","","","75","K","2","","","112","main_expt",""
"","bandit","192","584382","0.0-153.0-0.0","90067935","wem/bandit_either_3","ABEJPX8HRQFAW","either","8","4856","","","","","","","0","1","0","","0.3433702059","0.6","0.4","0.8","0.2","0.1026187258","0.7932436089","0.3433702059","0.8573528835","","","","","","","","","","","","75","K","2","","","113","main_expt",""
"","bandit","193","589039","0.0-154.0-0.0","90067935","wem/bandit_either_3","ABEJPX8HRQFAW","either","8","3136","","","","","","","0","1","0","","0.8291807482","0.6","0.4","0.8","0.2","0.1044839951","0.849407262","0.4828882278","0.8291807482","","","","","","","","","","","","76","L","3","","","114","main_expt",""
"","bandit","194","591430","0.0-155.0-0.0","90067935","wem/bandit_either_3","ABEJPX8HRQFAW","either","8","839","","","","","","","0","1","0","","0.8882716547","0.6","0.4","0.8","0.2","0.1213931844","0.8882716547","0.54932579","0.761972944","","","","","","","","","","","","74","J","1","","","115","main_expt",""
"","bandit","195","593870","0.0-156.0-0.0","90067935","wem/bandit_either_3","ABEJPX8HRQFAW","either","8","907","","","","","","","0","0","1","0.1184144227","","0.6","0.4","0.8","0.2","","","","","0.1184144227","0.8741354715","0.6971345968","0.786197192","","","","","","","","72","H","0","img/none_selected.jpg","","116","main_expt",""
"","bandit","196","596335","0.0-157.0-0.0","90067935","wem/bandit_either_3","ABEJPX8HRQFAW","either","8","940","","","","","","","1","0","0","0.5396272374","","0.6","0.4","0.8","0.2","","","","","0.1983931569","0.8083823922","0.5396272374","0.7834453561","","","","","","","","75","K","2","","","117","main_expt",""
"","bandit","197","599201","0.0-158.0-0.0","90067935","wem/bandit_either_3","ABEJPX8HRQFAW","either","8","1336","","","","","","","1","0","0","0.5544567993","","0.6","0.4","0.8","0.2","","","","","0.2840039584","0.868525306","0.5544567993","0.6742380839","","","","","","","","75","K","2","","","118","main_expt",""
"","bandit","198","603667","0.0-159.0-0.0","90067935","wem/bandit_either_3","ABEJPX8HRQFAW","either","8","2937","","","","","","","0","0","1","","0.5504896642","0.6","0.4","0.8","0.2","0.3563325119","0.8386471998","0.5504896642","0.7350700153","","","","","","","","","","","","75","K","2","","","119","main_expt",""
"","bandit","199","606567","0.0-160.0-0.0","90067935","wem/bandit_either_3","ABEJPX8HRQFAW","either","8","1375","","","","","","","1","0","0","0.5812137135","","0.6","0.4","0.8","0.2","","","","","0.5682387565","0.8103559508","0.5812137135","0.70601835","","","","","","","","75","K","2","","","120","main_expt",""
"","bandit","200","612733","0.0-161.0-0.0","90067935","wem/bandit_either_3","ABEJPX8HRQFAW","either","8","4644","","","","","","","0","1","0","","0.6033058466","0.6","0.4","0.8","0.2","0.5189107771","0.8193015173","0.6033058466","0.7347719752","","","","","","","","","","","","75","K","2","","","121","main_expt",""
"","bandit","201","615283","0.0-162.0-0.0","90067935","wem/bandit_either_3","ABEJPX8HRQFAW","either","8","1025","","","","","","","0","0","1","0.6102220397","","0.6","0.4","0.8","0.2","","","","","0.4428493372","0.8025146027","0.6102220397","0.8270923978","","","","","","","","75","K","2","","","122","main_expt",""
"","bandit","202","622637","0.0-163.0-0.0","90067935","wem/bandit_either_3","ABEJPX8HRQFAW","either","8","5826","","","","","","","1","0","0","0.6108151959","","0.6","0.4","0.8","0.2","","","","","0.472724465","0.8121847492","0.6108151959","0.7980631313","","","","","","","","75","K","2","","","123","main_expt",""
"","bandit","203","628192","0.0-164.0-0.0","90067935","wem/bandit_either_3","ABEJPX8HRQFAW","either","8","4032","","","","","","","0","0","1","","0.7369852887","0.6","0.4","0.8","0.2","0.4799585558","0.8299418439","0.7117385939","0.7369852887","","","","","","","","","","","","76","L","3","","","124","main_expt",""
"","bandit","204","639165","0.0-165.0-0.0","90067935","wem/bandit_either_3","ABEJPX8HRQFAW","either","8","9453","","","","","","","1","0","0","0.5080184993","","0.6","0.4","0.8","0.2","","","","","0.5080184993","0.825688343","0.7554186078","0.7465944313","","","","","","","","72","H","0","img/none_selected.jpg","","125","main_expt",""
"","bandit","205","642246","0.0-166.0-0.0","90067935","wem/bandit_either_3","ABEJPX8HRQFAW","either","8","1557","","","","","","","1","0","0","0.8372054396","","0.6","0.4","0.8","0.2","","","","","0.4555098289","0.8372054396","0.8855751833","0.7596834852","","","","","","","","74","J","1","","","126","main_expt",""
"","bandit","206","646611","0.0-167.0-0.0","90067935","wem/bandit_either_3","ABEJPX8HRQFAW","either","8","2838","","","","","","","0","1","0","","0.8003015049","0.6","0.4","0.8","0.2","0.5475411796","0.7906689898","0.8003015049","0.7398299979","","","","","","","","","","","","75","K","2","","","127","main_expt",""
"","bandit","207","650614","0.0-168.0-0.0","90067935","wem/bandit_either_3","ABEJPX8HRQFAW","either","8","2479","","","","","","","1","0","0","0.8008571507","","0.6","0.4","0.8","0.2","","","","","0.612647382","0.8008571507","0.8403113951","0.7764866849","","","","","","","","74","J","1","","","128","main_expt",""
"","bandit","208","653429","0.0-169.0-0.0","90067935","wem/bandit_either_3","ABEJPX8HRQFAW","either","8","1294","","","","","","","0","0","1","","0.6435675963","0.6","0.4","0.8","0.2","0.7128970287","0.7829297973","0.8826872071","0.6435675963","","","","","","","","","","","","76","L","3","","","129","main_expt",""
"","bandit","209","657120","0.0-170.0-0.0","90067935","wem/bandit_either_3","ABEJPX8HRQFAW","either","8","2161","","","","","","","0","0","1","0.7309911721","","0.6","0.4","0.8","0.2","","","","","0.7309911721","0.6898445721","0.8641000085","0.7030252038","","","","","","","","72","H","0","img/none_selected.jpg","","130","main_expt",""
"","bandit","210","660402","0.0-171.0-0.0","90067935","wem/bandit_either_3","ABEJPX8HRQFAW","either","8","1744","","","","","","","0","0","1","0.5864867529","","0.6","0.4","0.8","0.2","","","","","0.73180147","0.5864867529","0.8752037592","0.6829232191","","","","","","","","74","J","1","","","131","main_expt",""
"","bandit","211","663550","0.0-172.0-0.0","90067935","wem/bandit_either_3","ABEJPX8HRQFAW","either","8","1617","","","","","","","0","0","1","","0.8279556795","0.6","0.4","0.8","0.2","0.8467134838","0.560122833","0.8279556795","0.7406452387","","","","","","","","","","","","75","K","2","","","132","main_expt",""
"","bandit","212","666440","0.0-173.0-0.0","90067935","wem/bandit_either_3","ABEJPX8HRQFAW","either","8","1360","","","","","","","0","1","0","","0.6666234363","0.6","0.4","0.8","0.2","0.8481264083","0.48439517","0.8194722428","0.6666234363","","","","","","","","","","","","76","L","3","","","133","main_expt",""
"","bandit","213","671557","0.0-174.0-0.0","90067935","wem/bandit_either_3","ABEJPX8HRQFAW","either","8","3586","","","","","","","1","0","0","0.8037084922","","0.6","0.4","0.8","0.2","","","","","0.8771050955","0.3919863126","0.8037084922","0.680542061","","","","","","","","75","K","2","","","134","main_expt",""
"","bandit","214","675411","0.0-175.0-0.0","90067935","wem/bandit_either_3","ABEJPX8HRQFAW","either","8","2332","","","","","","","1","0","0","0.5174750093","","0.6","0.4","0.8","0.2","","","","","0.9103241533","0.5174750093","0.8155916457","0.7006187635","","","","","","","","74","J","1","","","135","main_expt",""
"","bandit","215","678109","0.0-176.0-0.0","90067935","wem/bandit_either_3","ABEJPX8HRQFAW","either","8","1177","","","","","","","0","1","0","","0.9126032517","0.6","0.4","0.8","0.2","0.9126032517","0.4264762493","0.8281957705","0.6936815578","","","","","","","","","","","","72","H","0","img/none_selected.jpg","","136","main_expt",""
"","bandit","216","680428","0.0-177.0-0.0","90067935","wem/bandit_either_3","ABEJPX8HRQFAW","either","8","792","","","","","","","1","0","0","0.5351999402","","0.6","0.4","0.8","0.2","","","","","0.8983360858","0.5351999402","0.7055403129","0.6531428085","","","","","","","","74","J","1","","","137","main_expt",""
"","bandit","217","682541","0.0-178.0-0.0","90067935","wem/bandit_either_3","ABEJPX8HRQFAW","either","8","593","","","","","","","0","1","0","","0.6884351598","0.6","0.4","0.8","0.2","0.8851370462","0.4758748922","0.6884351598","0.6769758131","","","","","","","","","","","","75","K","2","","","138","main_expt",""
"","bandit","218","684757","0.0-179.0-0.0","90067935","wem/bandit_either_3","ABEJPX8HRQFAW","either","8","694","","","","","","","0","1","0","","0.7649589049","0.6","0.4","0.8","0.2","0.8662270416","0.4039793023","0.6090423031","0.7649589049","","","","","","","","","","","","76","L","3","","","139","main_expt",""
"","bandit","219","687245","0.0-180.0-0.0","90067935","wem/bandit_either_3","ABEJPX8HRQFAW","either","8","963","","","","","","","0","1","0","","0.7674202191","0.6","0.4","0.8","0.2","0.8345767194","0.384774136","0.7000077187","0.7674202191","","","","","","","","","","","","76","L","3","","","140","main_expt",""
"","bandit","220","689150","0.0-181.0-0.0","90067935","wem/bandit_either_3","ABEJPX8HRQFAW","either","8","382","","","","","","","1","0","0","0.6643185619","","0.6","0.4","0.8","0.2","","","","","0.8783670964","0.327254859","0.6643185619","0.8575114448","","","","","","","","75","K","2","","","141","main_expt",""
"","bandit","221","691122","0.0-182.0-0.0","90067935","wem/bandit_either_3","ABEJPX8HRQFAW","either","8","452","","","","","","","1","0","0","0.7079845674","","0.6","0.4","0.8","0.2","","","","","0.8895828315","0.4536641492","0.7079845674","0.8134430427","","","","","","","","75","K","2","","","142","main_expt",""
"","bandit","222","692967","0.0-183.0-0.0","90067935","wem/bandit_either_3","ABEJPX8HRQFAW","either","8","320","","","","","","","0","1","0","","0.6624187643","0.6","0.4","0.8","0.2","0.9053928798","0.4348486293","0.6624187643","0.8345505038","","","","","","","","","","","","75","K","2","","","143","main_expt",""
"","bandit","223","694783","0.0-184.0-0.0","90067935","wem/bandit_either_3","ABEJPX8HRQFAW","either","8","292","","","","","","","1","0","0","0.6779247185","","0.6","0.4","0.8","0.2","","","","","0.9033088386","0.4086594597","0.6779247185","0.7482817554","","","","","","","","75","K","2","","","144","main_expt",""
"","bandit","224","696645","0.0-185.0-0.0","90067935","wem/bandit_either_3","ABEJPX8HRQFAW","either","8","339","","","","","","","1","0","0","0.7216102374","","0.6","0.4","0.8","0.2","","","","","0.8572864227","0.4420772456","0.7216102374","0.7400387939","","","","","","","","75","K","2","","","145","main_expt",""
"","bandit","225","698530","0.0-186.0-0.0","90067935","wem/bandit_either_3","ABEJPX8HRQFAW","either","8","365","","","","","","","1","0","0","0.7837267619","","0.6","0.4","0.8","0.2","","","","","0.8687508917","0.508741462","0.7837267619","0.795971973","","","","","","","","75","K","2","","","146","main_expt",""
"","bandit","226","700399","0.0-187.0-0.0","90067935","wem/bandit_either_3","ABEJPX8HRQFAW","either","8","345","","","","","","","0","0","1","0.7652264833","","0.6","0.4","0.8","0.2","","","","","0.8657621525","0.4624398998","0.7652264833","0.7503502301","","","","","","","","75","K","2","","","147","main_expt",""
"","bandit","227","702219","0.0-188.0-0.0","90067935","wem/bandit_either_3","ABEJPX8HRQFAW","either","8","301","","","","","","","1","0","0","0.7358716413","","0.6","0.4","0.8","0.2","","","","","0.8362891365","0.4062589849","0.7358716413","0.8200474043","","","","","","","","75","K","2","","","148","main_expt",""
"","bandit","228","704322","0.0-189.0-0.0","90067935","wem/bandit_either_3","ABEJPX8HRQFAW","either","8","575","","","","","","","1","0","0","0.7129200786","","0.6","0.4","0.8","0.2","","","","","0.8144386017","0.4895331913","0.7129200786","0.8509010271","","","","","","","","75","K","2","","","149","main_expt",""
"","bandit","229","706436","0.0-190.0-0.0","90067935","wem/bandit_either_3","ABEJPX8HRQFAW","either","8","592","","","","","","","1","0","0","0.705531668","","0.6","0.4","0.8","0.2","","","","","0.6948055455","0.4704746919","0.705531668","0.8298908313","","","","","","","","75","K","2","","","150","main_expt",""
"","bandit","230","708395","0.0-191.0-0.0","90067935","wem/bandit_either_3","ABEJPX8HRQFAW","either","8","432","","","","","","","0","0","1","0.5744604188","","0.6","0.4","0.8","0.2","","","","","0.6231991314","0.4725745774","0.5744604188","0.7362749002","","","","","","","","75","K","2","","","151","main_expt",""
"","bandit","231","710442","0.0-192.0-0.0","90067935","wem/bandit_either_3","ABEJPX8HRQFAW","either","8","517","","","","","","","1","0","0","0.5372669321","","0.6","0.4","0.8","0.2","","","","","0.7045057733","0.4943906398","0.5372669321","0.7601791643","","","","","","","","75","K","2","","","152","main_expt",""
"","bandit","232","713515","0.0-193.0-0.0","90067935","wem/bandit_either_3","ABEJPX8HRQFAW","either","8","1551","","","","","","","1","0","0","0.5447545218","","0.6","0.4","0.8","0.2","","","","","0.5331338622","0.4639524782","0.5447545218","0.7590648118","","","","","","","","75","K","2","","","153","main_expt",""
"","bandit","233","715897","0.0-194.0-0.0","90067935","wem/bandit_either_3","ABEJPX8HRQFAW","either","8","855","","","","","","","1","0","0","0.4191749193","","0.6","0.4","0.8","0.2","","","","","0.5096720896","0.3935792086","0.4191749193","0.7805387907","","","","","","","","75","K","2","","","154","main_expt",""
"","bandit","234","718041","0.0-195.0-0.0","90067935","wem/bandit_either_3","ABEJPX8HRQFAW","either","8","617","","","","","","","1","0","0","0.4269770229","","0.6","0.4","0.8","0.2","","","","","0.4719011365","0.4127348605","0.4269770229","0.8450805748","","","","","","","","75","K","2","","","155","main_expt",""
"","bandit","235","720265","0.0-196.0-0.0","90067935","wem/bandit_either_3","ABEJPX8HRQFAW","either","8","680","","","","","","","0","0","1","0.4589862704","","0.6","0.4","0.8","0.2","","","","","0.5818713095","0.3697675558","0.4589862704","0.8513110265","","","","","","","","75","K","2","","","156","main_expt",""
"","bandit","236","723641","0.0-197.0-0.0","90067935","wem/bandit_either_3","ABEJPX8HRQFAW","either","8","1842","","","","","","","0","1","0","","0.5370818316","0.6","0.4","0.8","0.2","0.5804022203","0.3604398023","0.5370818316","0.8226236001","","","","","","","","","","","","75","K","2","","","157","main_expt",""
"","bandit","237","725901","0.0-198.0-0.0","90067935","wem/bandit_either_3","ABEJPX8HRQFAW","either","8","723","","","","","","","0","0","1","0.4061750625","","0.6","0.4","0.8","0.2","","","","","0.4773166223","0.4061750625","0.4757376888","0.8843141367","","","","","","","","74","J","1","","","158","main_expt",""
"","bandit","238","727878","0.0-199.0-0.0","90067935","wem/bandit_either_3","ABEJPX8HRQFAW","either","8","444","","","","","","","1","0","0","0.4887287223","","0.6","0.4","0.8","0.2","","","","","0.419048585","0.4696417586","0.4887287223","0.8078798749","","","","","","","","75","K","2","","","159","main_expt",""
"","bandit","239","730478","0.0-200.0-0.0","90067935","wem/bandit_either_3","ABEJPX8HRQFAW","either","8","1063","","","","","","","1","0","0","0.4588489809","","0.6","0.4","0.8","0.2","","","","","0.4672574386","0.4659569923","0.4588489809","0.7689164465","","","","","","","","75","K","2","","","160","main_expt",""
"","bandit","240","733977","0.0-201.0-0.0","90067935","wem/bandit_either_3","ABEJPX8HRQFAW","either","8","1969","","","","","","","1","0","0","0.4920004413","","0.6","0.4","0.8","0.2","","","","","0.5612985374","0.3947207546","0.4920004413","0.7863156869","","","","","","","","75","K","2","","","161","main_expt",""
"","bandit","241","736029","0.0-202.0-0.0","90067935","wem/bandit_either_3","ABEJPX8HRQFAW","either","8","526","","","","","","","1","0","0","0.5389881207","","0.6","0.4","0.8","0.2","","","","","0.5288680036","0.2460097942","0.5389881207","0.8098475403","","","","","","","","75","K","2","","","162","main_expt",""
"","bandit","242","739462","0.0-203.0-0.0","90067935","wem/bandit_either_3","ABEJPX8HRQFAW","either","8","1908","","","","","","","1","0","0","0.6040136001","","0.6","0.4","0.8","0.2","","","","","0.6096883849","0.3603606056","0.6040136001","0.8222712862","","","","","","","","75","K","2","","","163","main_expt",""
"","bandit","243","743743","0.0-204.0-0.0","90067935","wem/bandit_either_3","ABEJPX8HRQFAW","either","8","2757","","","","","","","1","0","0","0.623756827","","0.6","0.4","0.8","0.2","","","","","0.4868922288","0.2507209727","0.623756827","0.7876031225","","","","","","","","75","K","2","","","164","main_expt",""
"","bandit","244","746964","0.0-205.0-0.0","90067935","wem/bandit_either_3","ABEJPX8HRQFAW","either","8","1698","","","","","","","1","0","0","0.6164515281","","0.6","0.4","0.8","0.2","","","","","0.4055552053","0.2162043423","0.6164515281","0.7435052823","","","","","","","","75","K","2","","","165","main_expt",""
"","bandit","245","752870","0.0-206.0-0.0","90067935","wem/bandit_either_3","ABEJPX8HRQFAW","either","8","4380","","","","","","","1","0","0","0.4660222187","","0.6","0.4","0.8","0.2","","","","","0.4748236382","0.2573409732","0.4660222187","0.6545739251","","","","","","","","75","K","2","","","166","main_expt",""
"","bandit","246","757503","0.0-207.0-0.0","90067935","wem/bandit_either_3","ABEJPX8HRQFAW","either","8","3106","","","","","","","1","0","0","0.3336058786","","0.6","0.4","0.8","0.2","","","","","0.4725242185","0.4016088623","0.3336058786","0.6645907447","","","","","","","","75","K","2","","","167","main_expt",""
"","bandit","247","760474","0.0-208.0-0.0","90067935","wem/bandit_either_3","ABEJPX8HRQFAW","either","8","1450","","","","","","","0","1","0","","0.2887723434","0.6","0.4","0.8","0.2","0.4775208721","0.5522858252","0.2887723434","0.7243751722","","","","","","","","","","","","75","K","2","","","168","main_expt",""
"","bandit","248","764748","0.0-209.0-0.0","90067935","wem/bandit_either_3","ABEJPX8HRQFAW","either","8","2750","","","","","","","1","0","0","0.3357056981","","0.6","0.4","0.8","0.2","","","","","0.4682732781","0.5461138513","0.3357056981","0.6453105543","","","","","","","","75","K","2","","","169","main_expt",""
"","bandit","249","770881","0.0-210.0-0.0","90067935","wem/bandit_either_3","ABEJPX8HRQFAW","either","8","4604","","","","","","","0","0","1","0.4179693295","","0.6","0.4","0.8","0.2","","","","","0.4246621539","0.4402798015","0.4179693295","0.5334010147","","","","","","","","75","K","2","","","170","main_expt",""
"","bandit","250","773319","0.0-211.0-0.0","90067935","wem/bandit_either_3","ABEJPX8HRQFAW","either","8","912","","","","","","","0","0","1","0.3050406521","","0.6","0.4","0.8","0.2","","","","","0.2843380906","0.450294849","0.3050406521","0.498122785","","","","","","","","75","K","2","","","171","main_expt",""
"","bandit","251","777046","0.0-212.0-0.0","90067935","wem/bandit_either_3","ABEJPX8HRQFAW","either","8","2202","","","","","","","1","0","0","0.3364500029","","0.6","0.4","0.8","0.2","","","","","0.2668952485","0.6475755847","0.3364500029","0.4356988635","","","","","","","","75","K","2","","","172","main_expt",""
"","bandit","252","784218","0.0-213.0-0.0","90067935","wem/bandit_either_3","ABEJPX8HRQFAW","either","8","5651","","","","","","","1","0","0","0.421339117","","0.6","0.4","0.8","0.2","","","","","0.3802819164","0.6095255177","0.421339117","0.3964199688","","","","","","","","75","K","2","","","173","main_expt",""
"","bandit","253","787272","0.0-214.0-0.0","90067935","wem/bandit_either_3","ABEJPX8HRQFAW","either","8","1521","","","","","","","0","0","1","0.4913704717","","0.6","0.4","0.8","0.2","","","","","0.4042455133","0.5003628493","0.4913704717","0.3194345802","","","","","","","","75","K","2","","","174","main_expt",""
"","bandit","254","791701","0.0-215.0-0.0","90067935","wem/bandit_either_3","ABEJPX8HRQFAW","either","8","2889","","","","","","","1","0","0","0.5576212716","","0.6","0.4","0.8","0.2","","","","","0.4393989914","0.5576212716","0.5882611891","0.2865230234","","","","","","","","74","J","1","","","175","main_expt",""
"","bandit","255","794384","0.0-216.0-0.0","90067935","wem/bandit_either_3","ABEJPX8HRQFAW","either","8","1148","","","","","","","0","1","0","","0.6313830356","0.6","0.4","0.8","0.2","0.4705173801","0.6230679906","0.6313830356","0.3352692614","","","","","","","","","","","","75","K","2","","","176","main_expt",""
"","bandit","256","799469","0.0-217.0-0.0","90067935","wem/bandit_either_3","ABEJPX8HRQFAW","either","8","3554","","","","","","","0","0","1","0.3389264817","","0.6","0.4","0.8","0.2","","","","","0.4698597734","0.6501784685","0.5531265137","0.3389264817","","","","","","","","76","L","3","","","177","main_expt",""
"","bandit","257","804027","0.0-218.0-0.0","90067935","wem/bandit_either_3","ABEJPX8HRQFAW","either","8","3031","","","","","","","0","0","1","","0.4621004187","0.6","0.4","0.8","0.2","0.3570804947","0.6334155083","0.4621004187","0.3709673039","","","","","","","","","","","","75","K","2","","","178","main_expt",""
"","bandit","258","807927","0.0-219.0-0.0","90067935","wem/bandit_either_3","ABEJPX8HRQFAW","either","8","2380","","","","","","","0","0","1","0.512884041","","0.6","0.4","0.8","0.2","","","","","0.3441184995","0.7548338289","0.512884041","0.2940579202","","","","","","","","75","K","2","","","179","main_expt",""
"","bandit","259","815645","0.0-220.0-0.0","90067935","wem/bandit_either_3","ABEJPX8HRQFAW","either","8","6192","","","","","","","1","0","0","0.506744284","","0.6","0.4","0.8","0.2","","","","","0.3646136501","0.8074073351","0.506744284","0.3218724025","","","","","","","","75","K","2","","","180","main_expt",""
"","bandit","260","823041","0.0-221.0-0.0","90067935","wem/bandit_either_3","ABEJPX8HRQFAW","either","8","5873","","","","","","","1","0","0","0.4556494723","","0.6","0.4","0.8","0.2","","","","","0.3777688814","0.780721516","0.4556494723","0.3633286182","","","","","","","","75","K","2","","","181","main_expt",""
"","bandit","261","826671","0.0-222.0-0.0","90067935","wem/bandit_either_3","ABEJPX8HRQFAW","either","8","2109","","","","","","","1","0","0","0.4494525508","","0.6","0.4","0.8","0.2","","","","","0.4578236703","0.7647415088","0.4494525508","0.3324048704","","","","","","","","75","K","2","","","182","main_expt",""
"","bandit","262","828999","0.0-223.0-0.0","90067935","wem/bandit_either_3","ABEJPX8HRQFAW","either","8","805","","","","","","","0","0","1","","0.5189143621","0.6","0.4","0.8","0.2","0.4244895098","0.7349307529","0.5189143621","0.3092830871","","","","","","","","","","","","75","K","2","","","183","main_expt",""
"","bandit","263","836475","0.0-224.0-0.0","90067935","wem/bandit_either_3","ABEJPX8HRQFAW","either","8","5951","","","","","","","1","0","0","0.5167606333","","0.6","0.4","0.8","0.2","","","","","0.3566779322","0.8298088288","0.5167606333","0.3905692936","","","","","","","","75","K","2","","","184","main_expt",""
"","bandit","264","838775","0.0-225.0-0.0","90067935","wem/bandit_either_3","ABEJPX8HRQFAW","either","8","772","","","","","","","1","0","0","0.5270237034","","0.6","0.4","0.8","0.2","","","","","0.3737416658","0.7894193193","0.5270237034","0.4626192444","","","","","","","","75","K","2","","","185","main_expt",""
"","bandit","265","841151","0.0-226.0-0.0","90067935","wem/bandit_either_3","ABEJPX8HRQFAW","either","8","846","","","","","","","0","0","1","0.5556036571","","0.6","0.4","0.8","0.2","","","","","0.3120176694","0.7665022487","0.5556036571","0.6061762586","","","","","","","","75","K","2","","","186","main_expt",""
"","bandit","266","843426","0.0-227.0-0.0","90067935","wem/bandit_either_3","ABEJPX8HRQFAW","either","8","750","","","","","","","1","0","0","0.5865134094","","0.6","0.4","0.8","0.2","","","","","0.4134691065","0.7394266891","0.5865134094","0.530958695","","","","","","","","75","K","2","","","187","main_expt",""
"","bandit","267","847464","0.0-228.0-0.0","90067935","wem/bandit_either_3","ABEJPX8HRQFAW","either","8","2516","","","","","","","0","0","1","0.5034866795","","0.6","0.4","0.8","0.2","","","","","0.4637770407","0.6567361442","0.5034866795","0.380024655","","","","","","","","75","K","2","","","188","main_expt",""
"","bandit","268","853127","0.0-229.0-0.0","90067935","wem/bandit_either_3","ABEJPX8HRQFAW","either","8","4128","","","","","","","1","0","0","0.5761715841","","0.6","0.4","0.8","0.2","","","","","0.5739034088","0.6572443956","0.5761715841","0.4563575644","","","","","","","","75","K","2","","","189","main_expt",""
"","bandit","269","857505","0.0-230.0-0.0","90067935","wem/bandit_either_3","ABEJPX8HRQFAW","either","8","2840","","","","","","","0","0","1","","0.5325489933","0.6","0.4","0.8","0.2","0.5859504021","0.6735764162","0.5325489933","0.4540853102","","","","","","","","","","","","75","K","2","","","190","main_expt",""
"","bandit","270","860031","0.0-231.0-0.0","90067935","wem/bandit_either_3","ABEJPX8HRQFAW","either","8","992","","","","","","","0","0","1","","0.5614919892","0.6","0.4","0.8","0.2","0.5325822721","0.5997518312","0.5614919892","0.4328006462","","","","","","","","","","","","75","K","2","","","191","main_expt",""
"","bandit","271","862968","0.0-232.0-0.0","90067935","wem/bandit_either_3","ABEJPX8HRQFAW","either","8","1409","","","","","","","0","0","1","","0.5972832049","0.6","0.4","0.8","0.2","0.4622441745","0.6582178794","0.5972832049","0.4979354652","","","","","","","","","","","","75","K","2","","","192","main_expt",""
"","bandit","272","865855","0.0-233.0-0.0","90067935","wem/bandit_either_3","ABEJPX8HRQFAW","either","8","1362","","","","","","","1","0","0","0.6997951875","","0.6","0.4","0.8","0.2","","","","","0.4765036663","0.7246172867","0.6997951875","0.4887187701","","","","","","","","75","K","2","","","193","main_expt",""
"","bandit","273","878839","0.0-234.0-0.0","90067935","wem/bandit_either_3","ABEJPX8HRQFAW","either","8","11461","","","","","","","1","0","0","0.7511051992","","0.6","0.4","0.8","0.2","","","","","0.4504155567","0.7721250451","0.7511051992","0.4993882896","","","","","","","","75","K","2","","","194","main_expt",""
"","bandit","274","886220","0.0-235.0-0.0","90067935","wem/bandit_either_3","ABEJPX8HRQFAW","either","8","5846","","","","","","","1","0","0","0.8281457055","","0.6","0.4","0.8","0.2","","","","","0.4354252764","0.8366496483","0.8281457055","0.5011331455","","","","","","","","75","K","2","","","195","main_expt",""
"","bandit","275","890550","0.0-236.0-0.0","90067935","wem/bandit_either_3","ABEJPX8HRQFAW","either","8","2803","","","","","","","1","0","0","0.8248544968","","0.6","0.4","0.8","0.2","","","","","0.4170899215","0.8484646997","0.8248544968","0.4487960683","","","","","","","","75","K","2","","","196","main_expt",""
"","bandit","276","895567","0.0-237.0-0.0","90067935","wem/bandit_either_3","ABEJPX8HRQFAW","either","8","3488","","","","","","","0","0","1","0.8532714289","","0.6","0.4","0.8","0.2","","","","","0.4149059055","0.8734060335","0.8532714289","0.3975590019","","","","","","","","75","K","2","","","197","main_expt",""
"","bandit","277","898855","0.0-238.0-0.0","90067935","wem/bandit_either_3","ABEJPX8HRQFAW","either","8","1765","","","","","","","0","1","0","","0.7587337752","0.6","0.4","0.8","0.2","0.4737306044","0.8515360685","0.7587337752","0.4161601929","","","","","","","","","","","","75","K","2","","","198","main_expt",""
"","bandit","278","902636","0.0-239.0-0.0","90067935","wem/bandit_either_3","ABEJPX8HRQFAW","either","8","2252","","","","","","","0","1","0","","0.8805923715","0.6","0.4","0.8","0.2","0.4541760911","0.8805923715","0.8124408481","0.4483979408","","","","","","","","","","","","74","J","1","","","199","main_expt",""
"","bandit","279","905517","0.0-240.0-0.0","90067935","wem/bandit_either_3","ABEJPX8HRQFAW","either","8","1350","","","","","","","0","1","0","","0.7935778268","0.6","0.4","0.8","0.2","0.3964714959","0.9645818821","0.7935778268","0.5303380975","","","","","","","","","","","","75","K","2","","","200","main_expt",""
"","bandit","280","907802","0.0-241.0-0.0","90067935","wem/bandit_either_3","ABEJPX8HRQFAW","either","8","757","","","","","","","0","1","0","","0.4014045657","0.6","0.4","0.8","0.2","0.3815447649","0.9689478708","0.736942723","0.4014045657","","","","","","","","","","","","76","L","3","","","201","main_expt",""
"","bandit","281","911492","0.0-242.0-0.0","90067935","wem/bandit_either_3","ABEJPX8HRQFAW","either","8","2169","","","","","","","1","0","0","0.7001951276","","0.6","0.4","0.8","0.2","","","","","0.3726367513","0.9678291885","0.7001951276","0.5115169607","","","","","","","","75","K","2","","","202","main_expt",""
"","bandit","282","915727","0.0-243.0-0.0","90067935","wem/bandit_either_3","ABEJPX8HRQFAW","either","8","2703","","","","","","","1","0","0","0.7209300446","","0.6","0.4","0.8","0.2","","","","","0.3062653216","0.9633244117","0.7209300446","0.5026191452","","","","","","","","75","K","2","","","203","main_expt",""
"","bandit","283","918623","0.0-244.0-0.0","90067935","wem/bandit_either_3","ABEJPX8HRQFAW","either","8","1363","","","","","","","1","0","0","0.8574132932","","0.6","0.4","0.8","0.2","","","","","0.2848501254","0.9730812582","0.8574132932","0.4736298566","","","","","","","","75","K","2","","","204","main_expt",""
"","bandit","284","923676","0.0-245.0-0.0","90067935","wem/bandit_either_3","ABEJPX8HRQFAW","either","8","3511","","","","","","","0","1","0","","0.9038760074","0.6","0.4","0.8","0.2","0.3457586416","0.9521206422","0.9038760074","0.6121858428","","","","","","","","","","","","75","K","2","","","205","main_expt",""
"","bandit","285","927093","0.0-246.0-0.0","90067935","wem/bandit_either_3","ABEJPX8HRQFAW","either","8","1890","","","","","","","1","0","0","0.9273356803","","0.6","0.4","0.8","0.2","","","","","0.4609097875","0.9614764056","0.9273356803","0.6377028942","","","","","","","","75","K","2","","","206","main_expt",""
"","bandit","286","932127","0.0-247.0-0.0","90067935","wem/bandit_either_3","ABEJPX8HRQFAW","either","8","3502","","","","","","","1","0","0","0.9502037039","","0.6","0.4","0.8","0.2","","","","","0.4980316736","0.9625830716","0.9502037039","0.5700483165","","","","","","","","75","K","2","","","207","main_expt",""
"","bandit","287","937665","0.0-248.0-0.0","90067935","wem/bandit_either_3","ABEJPX8HRQFAW","either","8","4012","","","","","","","1","0","0","0.944094639","","0.6","0.4","0.8","0.2","","","","","0.4537691537","0.9359306517","0.944094639","0.624428721","","","","","","","","75","K","2","","","208","main_expt",""
"","bandit","288","940182","0.0-249.0-0.0","90067935","wem/bandit_either_3","ABEJPX8HRQFAW","either","8","992","","","","","","","1","0","0","0.9070839441","","0.6","0.4","0.8","0.2","","","","","0.4475842875","0.9632917203","0.9070839441","0.4861871301","","","","","","","","75","K","2","","","209","main_expt",""
"","bandit","289","943534","0.0-250.0-0.0","90067935","wem/bandit_either_3","ABEJPX8HRQFAW","either","8","1830","","","","","","","1","0","0","0.8960653589","","0.6","0.4","0.8","0.2","","","","","0.4803454055","0.9633226214","0.8960653589","0.3956361612","","","","","","","","75","K","2","","","210","main_expt",""
"","bandit","290","946389","0.0-251.0-0.0","90067935","wem/bandit_either_3","ABEJPX8HRQFAW","either","8","1331","","","","","","","1","0","0","0.9155455821","","0.6","0.4","0.8","0.2","","","","","0.4126443349","0.9719781217","0.9155455821","0.3599204452","","","","","","","","75","K","2","","","211","main_expt",""
"","bandit","291","948957","0.0-252.0-0.0","90067935","wem/bandit_either_3","ABEJPX8HRQFAW","either","8","1045","","","","","","","0","1","0","","0.9087954588","0.6","0.4","0.8","0.2","0.3384802849","0.9700781686","0.9087954588","0.3349000901","","","","","","","","","","","","75","K","2","","","212","main_expt",""
"","bandit","292","951639","0.0-253.0-0.0","90067935","wem/bandit_either_3","ABEJPX8HRQFAW","either","8","1157","","","","","","","0","0","1","0.3039242722","","0.6","0.4","0.8","0.2","","","","","0.3039242722","0.971165811","0.8528540962","0.3183344176","","","","","","","","72","H","0","img/none_selected.jpg","","213","main_expt",""
"","bandit","293","953729","0.0-254.0-0.0","90067935","wem/bandit_either_3","ABEJPX8HRQFAW","either","8","565","","","","","","","0","1","0","","0.9627117","0.6","0.4","0.8","0.2","0.4541530846","0.9627117","0.8506041988","0.2390758011","","","","","","","","","","","","74","J","1","","","214","main_expt",""
"","bandit","294","958154","0.0-255.0-0.0","90067935","wem/bandit_either_3","ABEJPX8HRQFAW","either","8","2906","","","","","","","1","0","0","0.8001829978","","0.6","0.4","0.8","0.2","","","","","0.5101749692","0.9552130497","0.8001829978","0.1997060473","","","","","","","","75","K","2","","","215","main_expt",""
"","bandit","295","960178","0.0-256.0-0.0","90067935","wem/bandit_either_3","ABEJPX8HRQFAW","either","8","505","","","","","","","0","0","1","0.2326539104","","0.6","0.4","0.8","0.2","","","","","0.5580520347","0.9220350188","0.733614842","0.2326539104","","","","","","","","76","L","3","","","216","main_expt",""
"","bandit","296","962209","0.0-257.0-0.0","90067935","wem/bandit_either_3","ABEJPX8HRQFAW","either","8","515","","","","","","","1","0","0","0.7479737912","","0.6","0.4","0.8","0.2","","","","","0.4368451062","0.8736667029","0.7479737912","0.2319826337","","","","","","","","75","K","2","","","217","main_expt",""
"","bandit","297","966800","0.0-258.0-0.0","90067935","wem/bandit_either_3","ABEJPX8HRQFAW","either","8","3068","","","","","","","0","0","1","","0.7713398237","0.6","0.4","0.8","0.2","0.3963441813","0.7602784417","0.7713398237","0.3143382807","","","","","","","","","","","","75","K","2","","","218","main_expt",""
"","bandit","298","970999","0.0-259.0-0.0","90067935","wem/bandit_either_3","ABEJPX8HRQFAW","either","8","2673","","","","","","","0","1","0","","0.8077055691","0.6","0.4","0.8","0.2","0.4809426617","0.7643050859","0.8077055691","0.3304972923","","","","","","","","","","","","75","K","2","","","219","main_expt",""
"","bandit","299","973387","0.0-260.0-0.0","90067935","wem/bandit_either_3","ABEJPX8HRQFAW","either","8","868","","","","","","","0","1","0","","0.7793587236","0.6","0.4","0.8","0.2","0.397759556","0.7793587236","0.7778114837","0.2866104843","","","","","","","","","","","","74","J","1","","","220","main_expt",""
"","bandit","300","975797","0.0-261.0-0.0","90067935","wem/bandit_either_3","ABEJPX8HRQFAW","either","8","885","","","","","","","0","0","1","0.7214198583","","0.6","0.4","0.8","0.2","","","","","0.4087677593","0.82086311","0.7214198583","0.3602561646","","","","","","","","75","K","2","","","221","main_expt",""
"","bandit","301","978141","0.0-262.0-0.0","90067935","wem/bandit_either_3","ABEJPX8HRQFAW","either","8","818","","","","","","","1","0","0","0.8091526303","","0.6","0.4","0.8","0.2","","","","","0.4561280915","0.8543662658","0.8091526303","0.3228749062","","","","","","","","75","K","2","","","222","main_expt",""
"","bandit","302","980676","0.0-263.0-0.0","90067935","wem/bandit_either_3","ABEJPX8HRQFAW","either","8","1004","","","","","","","1","0","0","0.8240838469","","0.6","0.4","0.8","0.2","","","","","0.4419858618","0.8599459829","0.8240838469","0.2549485676","","","","","","","","75","K","2","","","223","main_expt",""
"","bandit","303","986033","0.0-264.0-0.0","90067935","wem/bandit_either_3","ABEJPX8HRQFAW","either","8","3822","","","","","","","1","0","0","0.7670685714","","0.6","0.4","0.8","0.2","","","","","0.494409337","0.8747991669","0.7670685714","0.2389333491","","","","","","","","75","K","2","","","224","main_expt",""
"","bandit","304","1002075","0.0-265.0-0.0","90067935","wem/bandit_either_3","ABEJPX8HRQFAW","either","8","14504","","","","","","","0","1","0","","0.8775689376","0.6","0.4","0.8","0.2","0.3713348049","0.7910409491","0.8775689376","0.1517307125","","","","","","","","","","","","75","K","2","","","225","main_expt",""
"","bandit","305","1006362","0.0-266.0-0.0","90067935","wem/bandit_either_3","ABEJPX8HRQFAW","either","8","2752","","","","","","","0","1","0","","0.8846504348","0.6","0.4","0.8","0.2","0.4013452417","0.7212928749","0.8846504348","0.1002450003","","","","","","","","","","","","75","K","2","","","226","main_expt",""
"","bandit","306","1008546","0.0-267.0-0.0","90067935","wem/bandit_either_3","ABEJPX8HRQFAW","either","8","663","","","","","","","1","0","0","0.7090989562","","0.6","0.4","0.8","0.2","","","","","0.393451628","0.7090989562","0.851087938","0.1049945928","","","","","","","","74","J","1","","","227","main_expt",""
"","bandit","307","1012142","0.0-268.0-0.0","90067935","wem/bandit_either_3","ABEJPX8HRQFAW","either","8","2079","","","","","","","1","0","0","0.9074720337","","0.6","0.4","0.8","0.2","","","","","0.4175844788","0.6606736223","0.9074720337","0.03915988122","","","","","","","","75","K","2","","","228","main_expt",""
"","bandit","308","1016204","0.0-269.0-0.0","90067935","wem/bandit_either_3","ABEJPX8HRQFAW","either","8","2540","","","","","","","1","0","0","0.872332114","","0.6","0.4","0.8","0.2","","","","","0.408368909","0.6893924153","0.872332114","0.03767516843","","","","","","","","75","K","2","","","229","main_expt",""
"","bandit","309","1019154","0.0-270.0-0.0","90067935","wem/bandit_either_3","ABEJPX8HRQFAW","either","8","1427","","","","","","","1","0","0","0.7967167456","","0.6","0.4","0.8","0.2","","","","","0.4777699032","0.6067604319","0.7967167456","0.05804790214","","","","","","","","75","K","2","","","230","main_expt",""
"","bandit","310","1021605","0.0-271.0-0.0","90067935","wem/bandit_either_3","ABEJPX8HRQFAW","either","8","910","","","","","","","0","1","0","","0.7760618079","0.6","0.4","0.8","0.2","0.4935442242","0.5037419277","0.7760618079","0.04963095007","","","","","","","","","","","","75","K","2","","","231","main_expt",""
"","bandit","311","1023438","0.0-272.0-0.0","90067935","wem/bandit_either_3","ABEJPX8HRQFAW","either","8","313","","","","","","","0","0","1","","0.03759782928","0.6","0.4","0.8","0.2","0.4889590317","0.4339479185","0.7765467853","0.03759782928","","","","","","","","","","","","76","L","3","","","232","main_expt",""
"","bandit","312","1025350","0.0-273.0-0.0","90067935","wem/bandit_either_3","ABEJPX8HRQFAW","either","8","386","","","","","","","1","0","0","0.7895219362","","0.6","0.4","0.8","0.2","","","","","0.5212294662","0.4525546635","0.7895219362","0.03147013274","","","","","","","","75","K","2","","","233","main_expt",""
"","bandit","313","1027553","0.0-274.0-0.0","90067935","wem/bandit_either_3","ABEJPX8HRQFAW","either","8","681","","","","","","","1","0","0","0.7491899586","","0.6","0.4","0.8","0.2","","","","","0.4420617392","0.3680080929","0.7491899586","0.03547440544","","","","","","","","75","K","2","","","234","main_expt",""
"","bandit","314","1029596","0.0-275.0-0.0","90067935","wem/bandit_either_3","ABEJPX8HRQFAW","either","8","516","","","","","","","1","0","0","0.7397351474","","0.6","0.4","0.8","0.2","","","","","0.4816955248","0.3416373547","0.7397351474","0.04486782706","","","","","","","","75","K","2","","","235","main_expt",""
"","bandit","315","1033057","0.0-276.0-0.0","90067935","wem/bandit_either_3","ABEJPX8HRQFAW","either","8","1938","","","","","","","0","1","0","","0.6587673302","0.6","0.4","0.8","0.2","0.3028121716","0.3722877153","0.6587673302","0.03122339122","","","","","","","","","","","","75","K","2","","","236","main_expt",""
"","bandit","316","1036484","0.0-277.0-0.0","90067935","wem/bandit_either_3","ABEJPX8HRQFAW","either","8","1901","","","","","","","1","0","0","0.7534934878","","0.6","0.4","0.8","0.2","","","","","0.3802502189","0.3081002542","0.7534934878","0.04191117605","","","","","","","","75","K","2","","","237","main_expt",""
"","bandit","317","1038890","0.0-278.0-0.0","90067935","wem/bandit_either_3","ABEJPX8HRQFAW","either","8","875","","","","","","","1","0","0","0.8023031038","","0.6","0.4","0.8","0.2","","","","","0.4160754302","0.2546656634","0.8023031038","0.06367740527","","","","","","","","75","K","2","","","238","main_expt",""
"","bandit","318","1041133","0.0-279.0-0.0","90067935","wem/bandit_either_3","ABEJPX8HRQFAW","either","8","718","","","","","","","1","0","0","0.8333986962","","0.6","0.4","0.8","0.2","","","","","0.3510440385","0.3038323055","0.8333986962","0.06315957527","","","","","","","","75","K","2","","","239","main_expt",""
"","bandit","319","1047147","0.0-280.0-0.0","90067935","wem/bandit_either_3","ABEJPX8HRQFAW","either","8","4483","","","","","","","1","0","0","0.840768508","","0.6","0.4","0.8","0.2","","","","","0.4182550587","0.291884511","0.840768508","0.05324295338","","","","","","","","75","K","2","","","240","main_expt",""
"","bandit","320","1053410","0.0-281.0-0.0","90067935","wem/bandit_either_3","ABEJPX8HRQFAW","either","8","4726","","","","","","","1","0","0","0.823006268","","0.6","0.4","0.8","0.2","","","","","0.5037088371","0.3124975621","0.823006268","0.04641095239","","","","","","","","75","K","2","","","241","main_expt",""
"","bandit","321","1055674","0.0-282.0-0.0","90067935","wem/bandit_either_3","ABEJPX8HRQFAW","either","8","726","","","","","","","1","0","0","0.8152254121","","0.6","0.4","0.8","0.2","","","","","0.4877747003","0.3637146884","0.8152254121","0.04954190216","","","","","","","","75","K","2","","","242","main_expt",""
"","bandit","322","1057935","0.0-283.0-0.0","90067935","wem/bandit_either_3","ABEJPX8HRQFAW","either","8","727","","","","","","","0","1","0","","0.8377493118","0.6","0.4","0.8","0.2","0.5007011316","0.3304840913","0.8377493118","0.05592390002","","","","","","","","","","","","75","K","2","","","243","main_expt",""
"","bandit","323","1061320","0.0-284.0-0.0","90067935","wem/bandit_either_3","ABEJPX8HRQFAW","either","8","1861","","","","","","","0","0","1","0.5730304632","","0.6","0.4","0.8","0.2","","","","","0.5730304632","0.4067767971","0.8258586067","0.03808637997","","","","","","","","72","H","0","img/none_selected.jpg","","244","main_expt",""
"","bandit","324","1064605","0.0-285.0-0.0","90067935","wem/bandit_either_3","ABEJPX8HRQFAW","either","8","1758","","","","","","","0","0","1","0.4091901929","","0.6","0.4","0.8","0.2","","","","","0.6096531262","0.4091901929","0.7889424323","0.02077199453","","","","","","","","74","J","1","","","245","main_expt",""
"","bandit","325","1068638","0.0-286.0-0.0","90067935","wem/bandit_either_3","ABEJPX8HRQFAW","either","8","2507","","","","","","","1","0","0","0.7288058668","","0.6","0.4","0.8","0.2","","","","","0.6433625309","0.3814802778","0.7288058668","0.01756278659","","","","","","","","75","K","2","","","246","main_expt",""
"","bandit","326","1071233","0.0-287.0-0.0","90067935","wem/bandit_either_3","ABEJPX8HRQFAW","either","8","1071","","","","","","","1","0","0","0.6944890646","","0.6","0.4","0.8","0.2","","","","","0.5912901759","0.4081758168","0.6944890646","0.02612390617","","","","","","","","75","K","2","","","247","main_expt",""
"","bandit","327","1073916","0.0-288.0-0.0","90067935","wem/bandit_either_3","ABEJPX8HRQFAW","either","8","1157","","","","","","","0","0","1","0.6385844136","","0.6","0.4","0.8","0.2","","","","","0.6466434866","0.4901003336","0.6385844136","0.04126172158","","","","","","","","75","K","2","","","248","main_expt",""
"","bandit","328","1076522","0.0-289.0-0.0","90067935","wem/bandit_either_3","ABEJPX8HRQFAW","either","8","1081","","","","","","","0","0","1","0.754203258","","0.6","0.4","0.8","0.2","","","","","0.6870883775","0.4273606078","0.754203258","0.05104787405","","","","","","","","75","K","2","","","249","main_expt",""
