"consent","trial_type","trial_index","time_elapsed","internal_node_id","subjID","study","MID","cond","drift","rt","responses","key_press","expt_phase","like","value","connected","gems","bombs","no_reward","GemPrChosen","BombPrChosen","GainOverPainPr_0","GainOverPainPr_1","GainOverPainPr_2","GainOverPainPr_3","LosePr_0","LosePr_1","LosePr_2","LosePr_3","WinPr_0","WinPr_1","WinPr_2","WinPr_3","Q0","Q1","Q2","gender","age","ethnicity","target","respCharCode","respKey","respChoiceNum","respChoice","practice","trial_counter","trial_label","button_pressed"
"INL_behavioral_consent_30min_online.html","consent","0","21094","0.0-0.0","91600048","wem/bandit_either_3","A2R794P3E8X0MK","either","5","","","","","","","","","","","","","","","","","","","","","","","","","","","","","","","","","","","","","","",""
"","survey-text","1","27767","0.0-1.0","91600048","wem/bandit_either_3","A2R794P3E8X0MK","either","5","5661","{""Q0"":""A2R794P3E8X0MK""}","","","","","","","","","","","","","","","","","","","","","","","","","","","","","","","","","","","","",""
"","text","2","38358","0.0-2.0","91600048","wem/bandit_either_3","A2R794P3E8X0MK","either","5","9587","","32","","","","","","","","","","","","","","","","","","","","","","","","","","","","","","","","","","","",""
"","text","3","46786","0.0-3.0","91600048","wem/bandit_either_3","A2R794P3E8X0MK","either","5","8426","","32","","","","","","","","","","","","","","","","","","","","","","","","","","","","","","","","","","","",""
"","text","4","80175","0.0-4.0","91600048","wem/bandit_either_3","A2R794P3E8X0MK","either","5","33387","","32","","","","","","","","","","","","","","","","","","","","","","","","","","","","","","","","","","","",""
"","text","5","98083","0.0-5.0","91600048","wem/bandit_either_3","A2R794P3E8X0MK","either","5","17906","","32","","","","","","","","","","","","","","","","","","","","","","","","","","","","","","","","","","","",""
"","text","6","122800","0.0-6.0","91600048","wem/bandit_either_3","A2R794P3E8X0MK","either","5","24715","","32","","","","","","","","","","","","","","","","","","","","","","","","","","","","","","","","","","","",""
"","text","7","131133","0.0-7.0","91600048","wem/bandit_either_3","A2R794P3E8X0MK","either","5","8331","","32","","","","","","","","","","","","","","","","","","","","","","","","","","","","","","","","","","","",""
"","text","8","140229","0.0-8.0","91600048","wem/bandit_either_3","A2R794P3E8X0MK","either","5","9094","","32","","","","","","","","","","","","","","","","","","","","","","","","","","","","","","","","","","","",""
"","identification","9","154508","0.0-9.0-0.0","91600048","wem/bandit_either_3","A2R794P3E8X0MK","either","5","14252","","","","4","4","3","","","","","","","","","","","","","","","","","","","","","","","","the village of Zur","","","","","","","",""
"","identification","10","164379","0.0-9.0-1.0","91600048","wem/bandit_either_3","A2R794P3E8X0MK","either","5","8848","","","","0","0","0","","","","","","","","","","","","","","","","","","","","","","","","the village of Nyx","","","","","","","",""
"","text","11","179258","0.0-10.0","91600048","wem/bandit_either_3","A2R794P3E8X0MK","either","5","13877","","32","","","","","","","","","","","","","","","","","","","","","","","","","","","","","","","","","","","",""
"","text","12","181096","0.0-11.0","91600048","wem/bandit_either_3","A2R794P3E8X0MK","either","5","1836","","32","","","","","","","","","","","","","","","","","","","","","","","","","","","","","","","","","","","",""
"","text","13","183799","0.0-12.0","91600048","wem/bandit_either_3","A2R794P3E8X0MK","either","5","2702","","32","","","","","","","","","","","","","","","","","","","","","","","","","","","","","","","","","","","",""
"","text","14","187862","0.0-13.0","91600048","wem/bandit_either_3","A2R794P3E8X0MK","either","5","4061","","32","","","","","","","","","","","","","","","","","","","","","","","","","","","","","","","","","","","",""
"","bandit","15","190239","0.0-14.0-0.0","91600048","wem/bandit_either_3","A2R794P3E8X0MK","either","5","867","","","","","","","0","0","1","0","0","","","","","0","","","","0","","","","","","","","","","","74","J","0","img/none_selected_demo.jpg","true","0","",""
"","bandit","16","192837","0.0-15.0-0.0","91600048","wem/bandit_either_3","A2R794P3E8X0MK","either","5","1092","","","","","","","0","0","1","0","0","","","","","0","","","","0","","","","","","","","","","","75","K","0","img/none_selected_demo.jpg","true","0","",""
"","text","17","201293","0.0-16.0","91600048","wem/bandit_either_3","A2R794P3E8X0MK","either","5","8454","","32","","","","","","","","","","","","","","","","","","","","","","","","","","","","","","","","","","","",""
"","text","18","220524","0.0-17.0","91600048","wem/bandit_either_3","A2R794P3E8X0MK","either","5","19229","","32","","","","","","","","","","","","","","","","","","","","","","","","","","","","","","","","","","","",""
"","text","19","230691","0.0-18.0","91600048","wem/bandit_either_3","A2R794P3E8X0MK","either","5","10164","","32","","","","","","","","","","","","","","","","","","","","","","","","","","","","","","","","","","","",""
"","text","20","233761","0.0-19.0","91600048","wem/bandit_either_3","A2R794P3E8X0MK","either","5","3067","","32","","","","","","","","","","","","","","","","","","","","","","","","","","","","","","","","","","","",""
"","bandit","21","235967","0.0-20.0-0.0","91600048","wem/bandit_either_3","A2R794P3E8X0MK","either","5","699","","","","","","","0","1","0","","0.8","0.5","0.5","","","0.8","0.2","","","","","","","","","","","","","","74","J","0","img/none_selected_demo.jpg","true","0","80_20_practice",""
"","bandit","22","237975","0.0-20.0-1.0","91600048","wem/bandit_either_3","A2R794P3E8X0MK","either","5","500","","","","","","","1","0","0","0.2","","0.5","0.5","","","","","","","0.8","0.2","","","","","","","","","","75","K","1","","true","0","80_20_practice",""
"","bandit","23","239863","0.0-20.0-2.0","91600048","wem/bandit_either_3","A2R794P3E8X0MK","either","5","380","","","","","","","0","0","1","","0.2","0.5","0.5","","","0.8","0.2","","","","","","","","","","","","","","75","K","1","","true","0","80_20_practice",""
"","bandit","24","241766","0.0-20.0-3.0","91600048","wem/bandit_either_3","A2R794P3E8X0MK","either","5","397","","","","","","","0","1","0","","0.2","0.5","0.5","","","0.8","0.2","","","","","","","","","","","","","","75","K","1","","true","0","80_20_practice",""
"","bandit","25","243795","0.0-20.0-4.0","91600048","wem/bandit_either_3","A2R794P3E8X0MK","either","5","521","","","","","","","1","0","0","0.8","","0.5","0.5","","","","","","","0.8","0.2","","","","","","","","","","74","J","0","img/none_selected_demo.jpg","true","0","80_20_practice",""
"","bandit","26","245958","0.0-20.0-5.0","91600048","wem/bandit_either_3","A2R794P3E8X0MK","either","5","656","","","","","","","0","1","0","","0.8","0.5","0.5","","","0.8","0.2","","","","","","","","","","","","","","74","J","0","img/none_selected_demo.jpg","true","0","80_20_practice",""
"","bandit","27","247984","0.0-20.0-6.0","91600048","wem/bandit_either_3","A2R794P3E8X0MK","either","5","517","","","","","","","0","0","1","","0.8","0.5","0.5","","","0.8","0.2","","","","","","","","","","","","","","74","J","0","img/none_selected_demo.jpg","true","0","80_20_practice",""
"","bandit","28","249870","0.0-20.0-7.0","91600048","wem/bandit_either_3","A2R794P3E8X0MK","either","5","380","","","","","","","1","0","0","0.8","","0.5","0.5","","","","","","","0.8","0.2","","","","","","","","","","74","J","0","img/none_selected_demo.jpg","true","0","80_20_practice",""
"","bandit","29","252342","0.0-20.0-8.0","91600048","wem/bandit_either_3","A2R794P3E8X0MK","either","5","964","","","","","","","0","1","0","","0.8","0.5","0.5","","","0.8","0.2","","","","","","","","","","","","","","74","J","0","img/none_selected_demo.jpg","true","0","80_20_practice",""
"","bandit","30","254552","0.0-20.0-9.0","91600048","wem/bandit_either_3","A2R794P3E8X0MK","either","5","702","","","","","","","0","1","0","","0.2","0.5","0.5","","","0.8","0.2","","","","","","","","","","","","","","75","K","1","","true","0","80_20_practice",""
"","bandit","31","256934","0.0-20.0-10.0","91600048","wem/bandit_either_3","A2R794P3E8X0MK","either","5","874","","","","","","","0","0","1","0.2","","0.5","0.5","","","","","","","0.8","0.2","","","","","","","","","","75","K","1","","true","0","80_20_practice",""
"","bandit","32","258813","0.0-20.0-11.0","91600048","wem/bandit_either_3","A2R794P3E8X0MK","either","5","369","","","","","","","0","0","1","0.2","","0.5","0.5","","","","","","","0.8","0.2","","","","","","","","","","75","K","1","","true","0","80_20_practice",""
"","bandit","33","260660","0.0-20.0-12.0","91600048","wem/bandit_either_3","A2R794P3E8X0MK","either","5","339","","","","","","","0","0","1","","0.2","0.5","0.5","","","0.8","0.2","","","","","","","","","","","","","","75","K","1","","true","0","80_20_practice",""
"","bandit","34","262475","0.0-20.0-13.0","91600048","wem/bandit_either_3","A2R794P3E8X0MK","either","5","307","","","","","","","0","0","1","","0.2","0.5","0.5","","","0.8","0.2","","","","","","","","","","","","","","75","K","1","","true","0","80_20_practice",""
"","bandit","35","264027","0.0-20.0-14.0","91600048","wem/bandit_either_3","A2R794P3E8X0MK","either","5","42","","","","","","","0","0","1","","0.2","0.5","0.5","","","0.8","0.2","","","","","","","","","","","","","","75","K","1","","true","0","80_20_practice",""
"","bandit","36","265773","0.0-20.0-15.0","91600048","wem/bandit_either_3","A2R794P3E8X0MK","either","5","239","","","","","","","1","0","0","0.8","","0.5","0.5","","","","","","","0.8","0.2","","","","","","","","","","74","J","0","img/none_selected_demo.jpg","true","0","80_20_practice",""
"","bandit","37","267939","0.0-20.0-16.0","91600048","wem/bandit_either_3","A2R794P3E8X0MK","either","5","659","","","","","","","0","0","1","","0.8","0.5","0.5","","","0.8","0.2","","","","","","","","","","","","","","74","J","0","img/none_selected_demo.jpg","true","0","80_20_practice",""
"","bandit","38","269756","0.0-20.0-17.0","91600048","wem/bandit_either_3","A2R794P3E8X0MK","either","5","309","","","","","","","1","0","0","0.8","","0.5","0.5","","","","","","","0.8","0.2","","","","","","","","","","74","J","0","img/none_selected_demo.jpg","true","0","80_20_practice",""
"","bandit","39","271837","0.0-20.0-18.0","91600048","wem/bandit_either_3","A2R794P3E8X0MK","either","5","572","","","","","","","1","0","0","0.8","","0.5","0.5","","","","","","","0.8","0.2","","","","","","","","","","74","J","0","img/none_selected_demo.jpg","true","0","80_20_practice",""
"","bandit","40","273923","0.0-20.0-19.0","91600048","wem/bandit_either_3","A2R794P3E8X0MK","either","5","579","","","","","","","1","0","0","0.8","","0.5","0.5","","","","","","","0.8","0.2","","","","","","","","","","74","J","0","img/none_selected_demo.jpg","true","0","80_20_practice",""
"","text","41","277212","0.0-21.0","91600048","wem/bandit_either_3","A2R794P3E8X0MK","either","5","3286","","32","","","","","","","","","","","","","","","","","","","","","","","","","","","","","","","","","","","",""
"","bandit","42","279568","0.0-22.0-0.0","91600048","wem/bandit_either_3","A2R794P3E8X0MK","either","5","850","","","","","","","1","0","0","1","0","","","","","0","1","","","1","0","","","","","","","","","","74","J","0","img/none_selected_demo.jpg","true","0","",""
"","text","43","287771","0.0-23.0","91600048","wem/bandit_either_3","A2R794P3E8X0MK","either","5","8199","","32","","","","","","","","","","","","","","","","","","","","","","","","","","","","","","","","","","","",""
"","text","44","291689","0.0-24.0","91600048","wem/bandit_either_3","A2R794P3E8X0MK","either","5","3916","","32","","","","","","","","","","","","","","","","","","","","","","","","","","","","","","","","","","","",""
"","text","45","295425","0.0-25.0","91600048","wem/bandit_either_3","A2R794P3E8X0MK","either","5","3733","","32","","","","","","","","","","","","","","","","","","","","","","","","","","","","","","","","","","","",""
"","text","46","300802","0.0-26.0","91600048","wem/bandit_either_3","A2R794P3E8X0MK","either","5","5373","","32","","","","","","","","","","","","","","","","","","","","","","","","","","","","","","","","","","","",""
"","text","47","315039","0.0-27.0","91600048","wem/bandit_either_3","A2R794P3E8X0MK","either","5","14234","","32","","","","","","","","","","","","","","","","","","","","","","","","","","","","","","","","","","","",""
"","text","48","319573","0.0-28.0","91600048","wem/bandit_either_3","A2R794P3E8X0MK","either","5","4531","","32","","","","","","","","","","","","","","","","","","","","","","","","","","","","","","","","","","","",""
"","text","49","325966","0.0-29.0","91600048","wem/bandit_either_3","A2R794P3E8X0MK","either","5","6390","","32","","","","","","","","","","","","","","","","","","","","","","","","","","","","","","","","","","","",""
"","text","50","329701","0.0-30.0","91600048","wem/bandit_either_3","A2R794P3E8X0MK","either","5","3732","","32","","","","","","","","","","","","","","","","","","","","","","","","","","","","","","","","","","","",""
"","text","51","337972","0.0-31.0","91600048","wem/bandit_either_3","A2R794P3E8X0MK","either","5","8267","","32","","","","","","","","","","","","","","","","","","","","","","","","","","","","","","","","","","","",""
"","text","52","341346","0.0-32.0","91600048","wem/bandit_either_3","A2R794P3E8X0MK","either","5","3371","","32","","","","","","","","","","","","","","","","","","","","","","","","","","","","","","","","","","","",""
"","text","53","345699","0.0-33.0","91600048","wem/bandit_either_3","A2R794P3E8X0MK","either","5","4350","","32","","","","","","","","","","","","","","","","","","","","","","","","","","","","","","","","","","","",""
"","bandit","54","347945","0.0-34.0-0.0","91600048","wem/bandit_either_3","A2R794P3E8X0MK","either","5","735","","","","","","","0","0","1","","0.8","0.5","0.5","0.5","0.5","0.8","0.2","0.6","0.2","","","","","","","","","","","","72","H","0","img/none_selected.jpg","true","0","full_practice",""
"","bandit","55","349930","0.0-34.0-1.0","91600048","wem/bandit_either_3","A2R794P3E8X0MK","either","5","476","","","","","","","0","0","1","0.2","","0.5","0.5","0.5","0.5","","","","","0.8","0.2","0.6","0.2","","","","","","","","74","J","1","","true","0","full_practice",""
"","bandit","56","351753","0.0-34.0-2.0","91600048","wem/bandit_either_3","A2R794P3E8X0MK","either","5","314","","","","","","","1","0","0","0.6","","0.5","0.5","0.5","0.5","","","","","0.8","0.2","0.6","0.2","","","","","","","","75","K","2","","true","0","full_practice",""
"","bandit","57","353671","0.0-34.0-3.0","91600048","wem/bandit_either_3","A2R794P3E8X0MK","either","5","411","","","","","","","0","1","0","","0.6","0.5","0.5","0.5","0.5","0.8","0.2","0.6","0.2","","","","","","","","","","","","75","K","2","","true","0","full_practice",""
"","bandit","58","355488","0.0-34.0-4.0","91600048","wem/bandit_either_3","A2R794P3E8X0MK","either","5","308","","","","","","","0","0","1","","0.2","0.5","0.5","0.5","0.5","0.8","0.2","0.6","0.2","","","","","","","","","","","","76","L","3","","true","0","full_practice",""
"","bandit","59","357264","0.0-34.0-5.0","91600048","wem/bandit_either_3","A2R794P3E8X0MK","either","5","267","","","","","","","0","0","1","","0.2","0.5","0.5","0.5","0.5","0.8","0.2","0.6","0.2","","","","","","","","","","","","76","L","3","","true","0","full_practice",""
"","bandit","60","358789","0.0-34.0-6.0","91600048","wem/bandit_either_3","A2R794P3E8X0MK","either","5","19","","","","","","","0","0","1","","0.2","0.5","0.5","0.5","0.5","0.8","0.2","0.6","0.2","","","","","","","","","","","","76","L","3","","true","0","full_practice",""
"","bandit","61","360806","0.0-34.0-7.0","91600048","wem/bandit_either_3","A2R794P3E8X0MK","either","5","510","","","","","","","0","1","0","","0.6","0.5","0.5","0.5","0.5","0.8","0.2","0.6","0.2","","","","","","","","","","","","75","K","2","","true","0","full_practice",""
"","bandit","62","362439","0.0-34.0-8.0","91600048","wem/bandit_either_3","A2R794P3E8X0MK","either","5","125","","","","","","","0","0","1","0.2","","0.5","0.5","0.5","0.5","","","","","0.8","0.2","0.6","0.2","","","","","","","","74","J","1","","true","0","full_practice",""
"","bandit","63","364166","0.0-34.0-9.0","91600048","wem/bandit_either_3","A2R794P3E8X0MK","either","5","218","","","","","","","0","0","1","0.2","","0.5","0.5","0.5","0.5","","","","","0.8","0.2","0.6","0.2","","","","","","","","74","J","1","","true","0","full_practice",""
"","bandit","64","366094","0.0-34.0-10.0","91600048","wem/bandit_either_3","A2R794P3E8X0MK","either","5","420","","","","","","","0","0","1","0.2","","0.5","0.5","0.5","0.5","","","","","0.8","0.2","0.6","0.2","","","","","","","","74","J","1","","true","0","full_practice",""
"","bandit","65","368061","0.0-34.0-11.0","91600048","wem/bandit_either_3","A2R794P3E8X0MK","either","5","460","","","","","","","1","0","0","0.8","","0.5","0.5","0.5","0.5","","","","","0.8","0.2","0.6","0.2","","","","","","","","72","H","0","img/none_selected.jpg","true","0","full_practice",""
"","bandit","66","369854","0.0-34.0-12.0","91600048","wem/bandit_either_3","A2R794P3E8X0MK","either","5","283","","","","","","","1","0","0","0.8","","0.5","0.5","0.5","0.5","","","","","0.8","0.2","0.6","0.2","","","","","","","","72","H","0","img/none_selected.jpg","true","0","full_practice",""
"","bandit","67","371622","0.0-34.0-13.0","91600048","wem/bandit_either_3","A2R794P3E8X0MK","either","5","261","","","","","","","1","0","0","0.8","","0.5","0.5","0.5","0.5","","","","","0.8","0.2","0.6","0.2","","","","","","","","72","H","0","img/none_selected.jpg","true","0","full_practice",""
"","bandit","68","373390","0.0-34.0-14.0","91600048","wem/bandit_either_3","A2R794P3E8X0MK","either","5","259","","","","","","","0","1","0","","0.8","0.5","0.5","0.5","0.5","0.8","0.2","0.6","0.2","","","","","","","","","","","","72","H","0","img/none_selected.jpg","true","0","full_practice",""
"","bandit","69","375310","0.0-34.0-15.0","91600048","wem/bandit_either_3","A2R794P3E8X0MK","either","5","411","","","","","","","1","0","0","0.8","","0.5","0.5","0.5","0.5","","","","","0.8","0.2","0.6","0.2","","","","","","","","72","H","0","img/none_selected.jpg","true","0","full_practice",""
"","bandit","70","377192","0.0-34.0-16.0","91600048","wem/bandit_either_3","A2R794P3E8X0MK","either","5","369","","","","","","","0","0","1","","0.8","0.5","0.5","0.5","0.5","0.8","0.2","0.6","0.2","","","","","","","","","","","","72","H","0","img/none_selected.jpg","true","0","full_practice",""
"","bandit","71","379092","0.0-34.0-17.0","91600048","wem/bandit_either_3","A2R794P3E8X0MK","either","5","393","","","","","","","0","0","1","","0.8","0.5","0.5","0.5","0.5","0.8","0.2","0.6","0.2","","","","","","","","","","","","72","H","0","img/none_selected.jpg","true","0","full_practice",""
"","bandit","72","381093","0.0-34.0-18.0","91600048","wem/bandit_either_3","A2R794P3E8X0MK","either","5","486","","","","","","","0","1","0","","0.8","0.5","0.5","0.5","0.5","0.8","0.2","0.6","0.2","","","","","","","","","","","","72","H","0","img/none_selected.jpg","true","0","full_practice",""
"","bandit","73","383341","0.0-34.0-19.0","91600048","wem/bandit_either_3","A2R794P3E8X0MK","either","5","737","","","","","","","1","0","0","0.2","","0.5","0.5","0.5","0.5","","","","","0.8","0.2","0.6","0.2","","","","","","","","74","J","1","","true","0","full_practice",""
"","text","74","393933","0.0-35.0","91600048","wem/bandit_either_3","A2R794P3E8X0MK","either","5","10582","","32","","","","","","","","","","","","","","","","","","","","","","","","","","","","","","","","","","","",""
"","text","75","411857","0.0-36.0","91600048","wem/bandit_either_3","A2R794P3E8X0MK","either","5","16920","","32","","","","","","","","","","","","","","","","","","","","","","","","","","","","","","","","","","","",""
"","text","76","421695","0.0-37.0","91600048","wem/bandit_either_3","A2R794P3E8X0MK","either","5","9834","","32","","","","","","","","","","","","","","","","","","","","","","","","","","","","","","","","","","","",""
"","text","77","426752","0.0-38.0","91600048","wem/bandit_either_3","A2R794P3E8X0MK","either","5","5053","","32","","","","","","","","","","","","","","","","","","","","","","","","","","","","","","","","","","","",""
"","text","78","434022","0.0-39.0","91600048","wem/bandit_either_3","A2R794P3E8X0MK","either","5","7266","","32","","","","","","","","","","","","","","","","","","","","","","","","","","","","","","","","","","","",""
"","text","79","436702","0.0-40.0","91600048","wem/bandit_either_3","A2R794P3E8X0MK","either","5","2674","","32","","","","","","","","","","","","","","","","","","","","","","","","","","","","","","","","","","","",""
"","bandit","80","439838","0.0-41.0-0.0","91600048","wem/bandit_either_3","A2R794P3E8X0MK","either","5","1627","","","","","","","0","0","1","0.32692793","","0.4","0.8","0.2","0.6","","","","","0.4253928501","0.32692793","0.4909711759","0.6131215568","","","","","","","","74","J","1","","","1","main_expt",""
"","bandit","81","441635","0.0-42.0-0.0","91600048","wem/bandit_either_3","A2R794P3E8X0MK","either","5","288","","","","","","","0","0","1","0.3068321923","","0.4","0.8","0.2","0.6","","","","","0.5447097682","0.3068321923","0.5514346198","0.6783759564","","","","","","","","74","J","1","","","2","main_expt",""
"","bandit","82","443179","0.0-43.0-0.0","91600048","wem/bandit_either_3","A2R794P3E8X0MK","either","5","35","","","","","","","0","0","1","0.2871808385","","0.4","0.8","0.2","0.6","","","","","0.5631376832","0.2871808385","0.5966913043","0.6535049038","","","","","","","","74","J","1","","","3","main_expt",""
"","bandit","83","445170","0.0-44.0-0.0","91600048","wem/bandit_either_3","A2R794P3E8X0MK","either","5","482","","","","","","","1","0","0","0.3062311279","","0.4","0.8","0.2","0.6","","","","","0.5889355808","0.3062311279","0.6236804691","0.5433476707","","","","","","","","74","J","1","","","4","main_expt",""
"","bandit","84","447034","0.0-45.0-0.0","91600048","wem/bandit_either_3","A2R794P3E8X0MK","either","5","355","","","","","","","0","0","1","0.2453374439","","0.4","0.8","0.2","0.6","","","","","0.6125363118","0.2453374439","0.5844938386","0.4256320799","","","","","","","","74","J","1","","","5","main_expt",""
"","bandit","85","448586","0.0-46.0-0.0","91600048","wem/bandit_either_3","A2R794P3E8X0MK","either","5","41","","","","","","","0","1","0","","0.5204159956","0.4","0.8","0.2","0.6","0.5204159956","0.2258644136","0.4929788692","0.4097031487","","","","","","","","","","","","72","H","0","img/none_selected.jpg","","6","main_expt",""
"","bandit","86","450443","0.0-47.0-0.0","91600048","wem/bandit_either_3","A2R794P3E8X0MK","either","5","348","","","","","","","0","1","0","","0.5949894572","0.4","0.8","0.2","0.6","0.5949894572","0.2251512132","0.3978044106","0.4614862243","","","","","","","","","","","","72","H","0","img/none_selected.jpg","","7","main_expt",""
"","bandit","87","452227","0.0-48.0-0.0","91600048","wem/bandit_either_3","A2R794P3E8X0MK","either","5","275","","","","","","","0","1","0","","0.5080346622","0.4","0.8","0.2","0.6","0.7043393759","0.1597376121","0.5080346622","0.4305419438","","","","","","","","","","","","75","K","2","","","8","main_expt",""
"","bandit","88","454265","0.0-49.0-0.0","91600048","wem/bandit_either_3","A2R794P3E8X0MK","either","5","530","","","","","","","0","0","1","0.440708512","","0.4","0.8","0.2","0.6","","","","","0.6866437556","0.1395884133","0.440708512","0.6000641755","","","","","","","","75","K","2","","","9","main_expt",""
"","bandit","89","456617","0.0-50.0-0.0","91600048","wem/bandit_either_3","A2R794P3E8X0MK","either","5","843","","","","","","","0","0","1","","0.4862198985","0.4","0.8","0.2","0.6","0.6743415364","0.1529628815","0.4862198985","0.66675231","","","","","","","","","","","","75","K","2","","","10","main_expt",""
"","bandit","90","458561","0.0-51.0-0.0","91600048","wem/bandit_either_3","A2R794P3E8X0MK","either","5","434","","","","","","","0","0","1","0.538431352","","0.4","0.8","0.2","0.6","","","","","0.6907290289","0.1918890603","0.4942886423","0.538431352","","","","","","","","76","L","3","","","11","main_expt",""
"","bandit","91","460550","0.0-52.0-0.0","91600048","wem/bandit_either_3","A2R794P3E8X0MK","either","5","478","","","","","","","0","0","1","0.5683478731","","0.4","0.8","0.2","0.6","","","","","0.7254617755","0.1412308375","0.4999864232","0.5683478731","","","","","","","","76","L","3","","","12","main_expt",""
"","bandit","92","462249","0.0-53.0-0.0","91600048","wem/bandit_either_3","A2R794P3E8X0MK","either","5","191","","","","","","","0","1","0","","0.5870071372","0.4","0.8","0.2","0.6","0.7533793381","0.1854965676","0.3945724157","0.5870071372","","","","","","","","","","","","76","L","3","","","13","main_expt",""
"","bandit","93","464401","0.0-54.0-0.0","91600048","wem/bandit_either_3","A2R794P3E8X0MK","either","5","644","","","","","","","0","0","1","0.3389967741","","0.4","0.8","0.2","0.6","","","","","0.6909187676","0.2200151947","0.458684297","0.3389967741","","","","","","","","76","L","3","","","14","main_expt",""
"","bandit","94","466257","0.0-55.0-0.0","91600048","wem/bandit_either_3","A2R794P3E8X0MK","either","5","346","","","","","","","0","0","1","0.2927381815","","0.4","0.8","0.2","0.6","","","","","0.7916820586","0.1497743902","0.5338449271","0.2927381815","","","","","","","","76","L","3","","","15","main_expt",""
"","bandit","95","467960","0.0-56.0-0.0","91600048","wem/bandit_either_3","A2R794P3E8X0MK","either","5","193","","","","","","","0","0","1","0.1767244745","","0.4","0.8","0.2","0.6","","","","","0.7991661796","0.1767244745","0.6821016448","0.2268478953","","","","","","","","74","J","1","","","16","main_expt",""
"","bandit","96","469633","0.0-57.0-0.0","91600048","wem/bandit_either_3","A2R794P3E8X0MK","either","5","164","","","","","","","0","0","1","","0.2364877179","0.4","0.8","0.2","0.6","0.7352739439","0.1953364786","0.6963612506","0.2364877179","","","","","","","","","","","","76","L","3","","","17","main_expt",""
"","bandit","97","471634","0.0-58.0-0.0","91600048","wem/bandit_either_3","A2R794P3E8X0MK","either","5","489","","","","","","","0","1","0","","0.7035779666","0.4","0.8","0.2","0.6","0.6911569498","0.139355503","0.7035779666","0.280777314","","","","","","","","","","","","75","K","2","","","18","main_expt",""
"","bandit","98","473385","0.0-59.0-0.0","91600048","wem/bandit_either_3","A2R794P3E8X0MK","either","5","241","","","","","","","0","1","0","","0.677086514","0.4","0.8","0.2","0.6","0.6372159304","0.129677489","0.677086514","0.3280428268","","","","","","","","","","","","75","K","2","","","19","main_expt",""
"","bandit","99","475273","0.0-60.0-0.0","91600048","wem/bandit_either_3","A2R794P3E8X0MK","either","5","373","","","","","","","0","0","1","","0.5211019236","0.4","0.8","0.2","0.6","0.5917564331","0.1584506979","0.5211019236","0.213865824","","","","","","","","","","","","75","K","2","","","20","main_expt",""
"","bandit","100","477074","0.0-61.0-0.0","91600048","wem/bandit_either_3","A2R794P3E8X0MK","either","5","286","","","","","","","0","0","1","0.2755747612","","0.4","0.8","0.2","0.6","","","","","0.6351733259","0.1934985877","0.6040081297","0.2755747612","","","","","","","","76","L","3","","","21","main_expt",""
"","bandit","101","478950","0.0-62.0-0.0","91600048","wem/bandit_either_3","A2R794P3E8X0MK","either","5","368","","","","","","","0","1","0","","0.3096891892","0.4","0.8","0.2","0.6","0.57448168","0.1184813826","0.5276460007","0.3096891892","","","","","","","","","","","","76","L","3","","","22","main_expt",""
"","bandit","102","480598","0.0-63.0-0.0","91600048","wem/bandit_either_3","A2R794P3E8X0MK","either","5","138","","","","","","","0","1","0","","0.532235281","0.4","0.8","0.2","0.6","0.532235281","0.1387482349","0.4373756081","0.1855444332","","","","","","","","","","","","72","H","0","img/none_selected.jpg","","23","main_expt",""
"","bandit","103","482610","0.0-64.0-0.0","91600048","wem/bandit_either_3","A2R794P3E8X0MK","either","5","502","","","","","","","0","0","1","0.1275075135","","0.4","0.8","0.2","0.6","","","","","0.4695599312","0.1275075135","0.4051577966","0.2026045625","","","","","","","","74","J","1","","","24","main_expt",""
"","bandit","104","484551","0.0-65.0-0.0","91600048","wem/bandit_either_3","A2R794P3E8X0MK","either","5","431","","","","","","","0","0","1","0.1324238285","","0.4","0.8","0.2","0.6","","","","","0.3710761786","0.1324238285","0.3583026632","0.2610081957","","","","","","","","74","J","1","","","25","main_expt",""
"","bandit","105","486367","0.0-66.0-0.0","91600048","wem/bandit_either_3","A2R794P3E8X0MK","either","5","307","","","","","","","0","0","1","0.2222282692","","0.4","0.8","0.2","0.6","","","","","0.3104834237","0.2222282692","0.4070676783","0.2068764453","","","","","","","","74","J","1","","","26","main_expt",""
"","bandit","106","488065","0.0-67.0-0.0","91600048","wem/bandit_either_3","A2R794P3E8X0MK","either","5","185","","","","","","","0","0","1","0.2367528544","","0.4","0.8","0.2","0.6","","","","","0.4250638914","0.2367528544","0.3962805628","0.1387354037","","","","","","","","74","J","1","","","27","main_expt",""
"","bandit","107","489797","0.0-68.0-0.0","91600048","wem/bandit_either_3","A2R794P3E8X0MK","either","5","221","","","","","","","0","1","0","","0.3738912408","0.4","0.8","0.2","0.6","0.3738912408","0.1581712713","0.3381264529","0.2065421522","","","","","","","","","","","","72","H","0","img/none_selected.jpg","","28","main_expt",""
"","bandit","108","492414","0.0-69.0-0.0","91600048","wem/bandit_either_3","A2R794P3E8X0MK","either","5","1106","","","","","","","0","0","1","0.2361440946","","0.4","0.8","0.2","0.6","","","","","0.411092256","0.2361440946","0.3405446746","0.2452437498","","","","","","","","74","J","1","","","29","main_expt",""
"","bandit","109","494207","0.0-70.0-0.0","91600048","wem/bandit_either_3","A2R794P3E8X0MK","either","5","284","","","","","","","0","0","1","0.3051502752","","0.4","0.8","0.2","0.6","","","","","0.306262239","0.3051502752","0.3536414415","0.3076129501","","","","","","","","74","J","1","","","30","main_expt",""
"","bandit","110","495965","0.0-71.0-0.0","91600048","wem/bandit_either_3","A2R794P3E8X0MK","either","5","246","","","","","","","0","0","1","","0.3201297868","0.4","0.8","0.2","0.6","0.2846857217","0.3588845582","0.3201297868","0.275744379","","","","","","","","","","","","75","K","2","","","31","main_expt",""
"","bandit","111","497806","0.0-72.0-0.0","91600048","wem/bandit_either_3","A2R794P3E8X0MK","either","5","331","","","","","","","0","0","1","","0.414050106","0.4","0.8","0.2","0.6","0.260797537","0.3351264969","0.414050106","0.1582224348","","","","","","","","","","","","75","K","2","","","32","main_expt",""
"","bandit","112","499693","0.0-73.0-0.0","91600048","wem/bandit_either_3","A2R794P3E8X0MK","either","5","375","","","","","","","0","1","0","","0.4846208784","0.4","0.8","0.2","0.6","0.3108282978","0.3369799553","0.4846208784","0.07234251762","","","","","","","","","","","","75","K","2","","","33","main_expt",""
"","bandit","113","501635","0.0-74.0-0.0","91600048","wem/bandit_either_3","A2R794P3E8X0MK","either","5","434","","","","","","","0","1","0","","0.07244310326","0.4","0.8","0.2","0.6","0.3996464291","0.3040676539","0.4250330595","0.07244310326","","","","","","","","","","","","76","L","3","","","34","main_expt",""
"","bandit","114","503611","0.0-75.0-0.0","91600048","wem/bandit_either_3","A2R794P3E8X0MK","either","5","468","","","","","","","1","0","0","0.2974236485","","0.4","0.8","0.2","0.6","","","","","0.4368131495","0.2974236485","0.499329675","0.07140094546","","","","","","","","74","J","1","","","35","main_expt",""
"","bandit","115","505524","0.0-76.0-0.0","91600048","wem/bandit_either_3","A2R794P3E8X0MK","either","5","402","","","","","","","0","0","1","0.310238309","","0.4","0.8","0.2","0.6","","","","","0.3396719642","0.310238309","0.3892953339","0.08624361683","","","","","","","","74","J","1","","","36","main_expt",""
"","bandit","116","507371","0.0-77.0-0.0","91600048","wem/bandit_either_3","A2R794P3E8X0MK","either","5","337","","","","","","","0","0","1","0.2818719109","","0.4","0.8","0.2","0.6","","","","","0.4409026667","0.2818719109","0.3680424748","0.07543251018","","","","","","","","74","J","1","","","37","main_expt",""
"","bandit","117","509284","0.0-78.0-0.0","91600048","wem/bandit_either_3","A2R794P3E8X0MK","either","5","404","","","","","","","0","0","1","0.2925765749","","0.4","0.8","0.2","0.6","","","","","0.489392614","0.2925765749","0.4909804269","0.1324785543","","","","","","","","74","J","1","","","38","main_expt",""
"","bandit","118","510886","0.0-79.0-0.0","91600048","wem/bandit_either_3","A2R794P3E8X0MK","either","5","88","","","","","","","0","0","1","0.3033582507","","0.4","0.8","0.2","0.6","","","","","0.4403114744","0.3033582507","0.5165168671","0.1824024676","","","","","","","","74","J","1","","","39","main_expt",""
"","bandit","119","512489","0.0-80.0-0.0","91600048","wem/bandit_either_3","A2R794P3E8X0MK","either","5","91","","","","","","","0","0","1","","0.2371445562","0.4","0.8","0.2","0.6","0.343221944","0.2371445562","0.6036007873","0.09861269436","","","","","","","","","","","","74","J","1","","","40","main_expt",""
"","bandit","120","514348","0.0-81.0-0.0","91600048","wem/bandit_either_3","A2R794P3E8X0MK","either","5","348","","","","","","","0","0","1","0.2072661203","","0.4","0.8","0.2","0.6","","","","","0.450343793","0.2072661203","0.6078828369","0.1028082326","","","","","","","","74","J","1","","","41","main_expt",""
"","bandit","121","516450","0.0-82.0-0.0","91600048","wem/bandit_either_3","A2R794P3E8X0MK","either","5","592","","","","","","","0","0","1","0.4422822993","","0.4","0.8","0.2","0.6","","","","","0.4422822993","0.1850700716","0.5757077757","0.1326350751","","","","","","","","72","H","0","img/none_selected.jpg","","42","main_expt",""
"","bandit","122","517970","0.0-83.0-0.0","91600048","wem/bandit_either_3","A2R794P3E8X0MK","either","5","9","","","","","","","1","0","0","0.4755437476","","0.4","0.8","0.2","0.6","","","","","0.4755437476","0.1700345657","0.504524575","0.1591685393","","","","","","","","72","H","0","img/none_selected.jpg","","43","main_expt",""
"","bandit","123","520058","0.0-84.0-0.0","91600048","wem/bandit_either_3","A2R794P3E8X0MK","either","5","577","","","","","","","1","0","0","0.6211160782","","0.4","0.8","0.2","0.6","","","","","0.6211160782","0.150922449","0.3354744533","0.1558361793","","","","","","","","72","H","0","img/none_selected.jpg","","44","main_expt",""
"","bandit","124","521907","0.0-85.0-0.0","91600048","wem/bandit_either_3","A2R794P3E8X0MK","either","5","335","","","","","","","1","0","0","0.5950963145","","0.4","0.8","0.2","0.6","","","","","0.5950963145","0.08792573626","0.2259933845","0.08224127908","","","","","","","","72","H","0","img/none_selected.jpg","","45","main_expt",""
"","bandit","125","523818","0.0-86.0-0.0","91600048","wem/bandit_either_3","A2R794P3E8X0MK","either","5","400","","","","","","","0","0","1","","0.600883672","0.4","0.8","0.2","0.6","0.600883672","0.05210962111","0.1991815266","0.05681632526","","","","","","","","","","","","72","H","0","img/none_selected.jpg","","46","main_expt",""
"","bandit","126","525802","0.0-87.0-0.0","91600048","wem/bandit_either_3","A2R794P3E8X0MK","either","5","474","","","","","","","0","0","1","","0.6018426621","0.4","0.8","0.2","0.6","0.6018426621","0.1658512007","0.1821259253","0.02046531905","","","","","","","","","","","","72","H","0","img/none_selected.jpg","","47","main_expt",""
"","bandit","127","528912","0.0-88.0-0.0","91600048","wem/bandit_either_3","A2R794P3E8X0MK","either","5","1600","","","","","","","1","0","0","0.6719149388","","0.4","0.8","0.2","0.6","","","","","0.6719149388","0.2171730843","0.1850219792","0.02793369594","","","","","","","","72","H","0","img/none_selected.jpg","","48","main_expt",""
"","bandit","128","531025","0.0-89.0-0.0","91600048","wem/bandit_either_3","A2R794P3E8X0MK","either","5","601","","","","","","","0","1","0","","0.5824093935","0.4","0.8","0.2","0.6","0.5824093935","0.2545874694","0.2843491098","0.01520235592","","","","","","","","","","","","72","H","0","img/none_selected.jpg","","49","main_expt",""
"","bandit","129","533335","0.0-90.0-0.0","91600048","wem/bandit_either_3","A2R794P3E8X0MK","either","5","801","","","","","","","0","1","0","","0.1971443839","0.4","0.8","0.2","0.6","0.5697547833","0.1971443839","0.2385085868","0.008868670712","","","","","","","","","","","","74","J","1","","","50","main_expt",""
"","bandit","130","535167","0.0-91.0-0.0","91600048","wem/bandit_either_3","A2R794P3E8X0MK","either","5","322","","","","","","","0","0","1","","0.004668439046","0.4","0.8","0.2","0.6","0.5875551098","0.1743954459","0.2762119933","0.004668439046","","","","","","","","","","","","76","L","3","","","51","main_expt",""
"","bandit","131","537002","0.0-92.0-0.0","91600048","wem/bandit_either_3","A2R794P3E8X0MK","either","5","323","","","","","","","0","0","1","0.2350807626","","0.4","0.8","0.2","0.6","","","","","0.691822337","0.1007451992","0.2350807626","0.003090075005","","","","","","","","75","K","2","","","52","main_expt",""
"","bandit","132","539112","0.0-93.0-0.0","91600048","wem/bandit_either_3","A2R794P3E8X0MK","either","5","597","","","","","","","0","0","1","","0.2301492847","0.4","0.8","0.2","0.6","0.7363191169","0.1648918076","0.2301492847","0.003474758773","","","","","","","","","","","","75","K","2","","","53","main_expt",""
"","bandit","133","541080","0.0-94.0-0.0","91600048","wem/bandit_either_3","A2R794P3E8X0MK","either","5","453","","","","","","","0","1","0","","0.2779325162","0.4","0.8","0.2","0.6","0.7639548597","0.1761014763","0.2779325162","0.003279238457","","","","","","","","","","","","75","K","2","","","54","main_expt",""
"","bandit","134","543143","0.0-95.0-0.0","91600048","wem/bandit_either_3","A2R794P3E8X0MK","either","5","552","","","","","","","0","0","1","","0.2882189161","0.4","0.8","0.2","0.6","0.7264154962","0.1460392243","0.2882189161","0.001847339967","","","","","","","","","","","","75","K","2","","","55","main_expt",""
"","bandit","135","546413","0.0-96.0-0.0","91600048","wem/bandit_either_3","A2R794P3E8X0MK","either","5","1761","","","","","","","0","0","1","","0.2646822794","0.4","0.8","0.2","0.6","0.7511403137","0.1882527018","0.2646822794","0.001186331615","","","","","","","","","","","","75","K","2","","","56","main_expt",""
"","bandit","136","549341","0.0-97.0-0.0","91600048","wem/bandit_either_3","A2R794P3E8X0MK","either","5","1417","","","","","","","0","0","1","0.001917609755","","0.4","0.8","0.2","0.6","","","","","0.6292194553","0.1836596221","0.3080117871","0.001917609755","","","","","","","","76","L","3","","","57","main_expt",""
"","bandit","137","551748","0.0-98.0-0.0","91600048","wem/bandit_either_3","A2R794P3E8X0MK","either","5","898","","","","","","","0","0","1","0.004115025419","","0.4","0.8","0.2","0.6","","","","","0.5622591622","0.2259562874","0.2609020091","0.004115025419","","","","","","","","76","L","3","","","58","main_expt",""
"","bandit","138","553446","0.0-99.0-0.0","91600048","wem/bandit_either_3","A2R794P3E8X0MK","either","5","187","","","","","","","0","0","1","0.007083433589","","0.4","0.8","0.2","0.6","","","","","0.6394190939","0.1673227733","0.3014652953","0.007083433589","","","","","","","","76","L","3","","","59","main_expt",""
"","bandit","139","555197","0.0-100.0-0.0","91600048","wem/bandit_either_3","A2R794P3E8X0MK","either","5","238","","","","","","","0","0","1","0.0100473459","","0.4","0.8","0.2","0.6","","","","","0.502148976","0.1404143731","0.2872544729","0.0100473459","","","","","","","","76","L","3","","","60","main_expt",""
"","bandit","140","556725","0.0-101.0-0.0","91600048","wem/bandit_either_3","A2R794P3E8X0MK","either","5","19","","","","","","","0","0","1","0.02288810402","","0.4","0.8","0.2","0.6","","","","","0.5541662771","0.1087230511","0.2347068593","0.02288810402","","","","","","","","76","L","3","","","61","main_expt",""
"","bandit","141","558293","0.0-102.0-0.0","91600048","wem/bandit_either_3","A2R794P3E8X0MK","either","5","58","","","","","","","0","0","1","0.04890713094","","0.4","0.8","0.2","0.6","","","","","0.6016144889","0.1173770395","0.1786743828","0.04890713094","","","","","","","","76","L","3","","","62","main_expt",""
"","bandit","142","559987","0.0-103.0-0.0","91600048","wem/bandit_either_3","A2R794P3E8X0MK","either","5","183","","","","","","","0","0","1","","0.06015841579","0.4","0.8","0.2","0.6","0.6306423252","0.1173961002","0.1627017484","0.06015841579","","","","","","","","","","","","76","L","3","","","63","main_expt",""
"","bandit","143","562179","0.0-104.0-0.0","91600048","wem/bandit_either_3","A2R794P3E8X0MK","either","5","681","","","","","","","0","0","1","","0.5963496952","0.4","0.8","0.2","0.6","0.5963496952","0.1093057248","0.2220220934","0.0697324588","","","","","","","","","","","","72","H","0","img/none_selected.jpg","","64","main_expt",""
"","bandit","144","564171","0.0-105.0-0.0","91600048","wem/bandit_either_3","A2R794P3E8X0MK","either","5","481","","","","","","","0","1","0","","0.5835424673","0.4","0.8","0.2","0.6","0.5835424673","0.1437581537","0.1387290973","0.03955641554","","","","","","","","","","","","72","H","0","img/none_selected.jpg","","65","main_expt",""
"","bandit","145","566628","0.0-106.0-0.0","91600048","wem/bandit_either_3","A2R794P3E8X0MK","either","5","945","","","","","","","0","0","1","0.1321246006","","0.4","0.8","0.2","0.6","","","","","0.5789137396","0.1321246006","0.1481952943","0.04104317144","","","","","","","","74","J","1","","","66","main_expt",""
"","bandit","146","568782","0.0-107.0-0.0","91600048","wem/bandit_either_3","A2R794P3E8X0MK","either","5","643","","","","","","","0","0","1","0.1441415222","","0.4","0.8","0.2","0.6","","","","","0.6503196648","0.1441415222","0.1354395346","0.07749417123","","","","","","","","74","J","1","","","67","main_expt",""
"","bandit","147","570963","0.0-108.0-0.0","91600048","wem/bandit_either_3","A2R794P3E8X0MK","either","5","670","","","","","","","1","0","0","0.1794787892","","0.4","0.8","0.2","0.6","","","","","0.7295955131","0.1794787892","0.09431815687","0.1606162296","","","","","","","","74","J","1","","","68","main_expt",""
"","bandit","148","573771","0.0-109.0-0.0","91600048","wem/bandit_either_3","A2R794P3E8X0MK","either","5","1293","","","","","","","0","0","1","0.2467892919","","0.4","0.8","0.2","0.6","","","","","0.7924649224","0.2467892919","0.09491494314","0.1458723802","","","","","","","","74","J","1","","","69","main_expt",""
"","bandit","149","576234","0.0-110.0-0.0","91600048","wem/bandit_either_3","A2R794P3E8X0MK","either","5","952","","","","","","","0","0","1","0.2683381141","","0.4","0.8","0.2","0.6","","","","","0.7104550926","0.2683381141","0.144379617","0.09936082334","","","","","","","","74","J","1","","","70","main_expt",""
"","bandit","150","578233","0.0-111.0-0.0","91600048","wem/bandit_either_3","A2R794P3E8X0MK","either","5","490","","","","","","","0","0","1","","0.3513633517","0.4","0.8","0.2","0.6","0.6350436987","0.3513633517","0.1522740794","0.08487306657","","","","","","","","","","","","74","J","1","","","71","main_expt",""
"","bandit","151","580330","0.0-112.0-0.0","91600048","wem/bandit_either_3","A2R794P3E8X0MK","either","5","588","","","","","","","1","0","0","0.2914052368","","0.4","0.8","0.2","0.6","","","","","0.5987872161","0.2914052368","0.1668466162","0.08819471669","","","","","","","","74","J","1","","","72","main_expt",""
"","bandit","152","582575","0.0-113.0-0.0","91600048","wem/bandit_either_3","A2R794P3E8X0MK","either","5","734","","","","","","","0","0","1","0.2877488323","","0.4","0.8","0.2","0.6","","","","","0.5985066563","0.2877488323","0.1896474075","0.1283432424","","","","","","","","74","J","1","","","73","main_expt",""
"","bandit","153","584553","0.0-114.0-0.0","91600048","wem/bandit_either_3","A2R794P3E8X0MK","either","5","467","","","","","","","0","0","1","0.2562899571","","0.4","0.8","0.2","0.6","","","","","0.6384302553","0.2562899571","0.2374421278","0.09379917772","","","","","","","","74","J","1","","","74","main_expt",""
"","bandit","154","586466","0.0-115.0-0.0","91600048","wem/bandit_either_3","A2R794P3E8X0MK","either","5","403","","","","","","","1","0","0","0.2733605005","","0.4","0.8","0.2","0.6","","","","","0.5658832615","0.2733605005","0.2083661751","0.09049970266","","","","","","","","74","J","1","","","75","main_expt",""
"","bandit","155","588528","0.0-116.0-0.0","91600048","wem/bandit_either_3","A2R794P3E8X0MK","either","5","550","","","","","","","0","0","1","0.3937912108","","0.4","0.8","0.2","0.6","","","","","0.6242699585","0.3937912108","0.2438220339","0.08721668036","","","","","","","","74","J","1","","","76","main_expt",""
"","bandit","156","590684","0.0-117.0-0.0","91600048","wem/bandit_either_3","A2R794P3E8X0MK","either","5","639","","","","","","","0","0","1","0.2317864895","","0.4","0.8","0.2","0.6","","","","","0.5744400186","0.2317864895","0.2688374605","0.06435523183","","","","","","","","74","J","1","","","77","main_expt",""
"","bandit","157","593166","0.0-118.0-0.0","91600048","wem/bandit_either_3","A2R794P3E8X0MK","either","5","970","","","","","","","0","1","0","","0.1809738678","0.4","0.8","0.2","0.6","0.5888420407","0.1809738678","0.354885782","0.0482567949","","","","","","","","","","","","74","J","1","","","78","main_expt",""
"","bandit","158","597758","0.0-119.0-0.0","91600048","wem/bandit_either_3","A2R794P3E8X0MK","either","5","3079","","","","","","","0","1","0","","0.6367332082","0.4","0.8","0.2","0.6","0.6367332082","0.1139783564","0.3618930149","0.0437210955","","","","","","","","","","","","72","H","0","img/none_selected.jpg","","79","main_expt",""
"","bandit","159","599703","0.0-120.0-0.0","91600048","wem/bandit_either_3","A2R794P3E8X0MK","either","5","432","","","","","","","0","0","1","","0.2656346555","0.4","0.8","0.2","0.6","0.6870764151","0.08785846653","0.2656346555","0.02877808334","","","","","","","","","","","","75","K","2","","","80","main_expt",""
"","bandit","160","601632","0.0-121.0-0.0","91600048","wem/bandit_either_3","A2R794P3E8X0MK","either","5","418","","","","","","","0","0","1","0.01921293631","","0.4","0.8","0.2","0.6","","","","","0.594282643","0.09113866108","0.4245431589","0.01921293631","","","","","","","","76","L","3","","","81","main_expt",""
"","bandit","161","603575","0.0-122.0-0.0","91600048","wem/bandit_either_3","A2R794P3E8X0MK","either","5","430","","","","","","","0","0","1","0.04933803159","","0.4","0.8","0.2","0.6","","","","","0.6134463007","0.1055231707","0.4469352605","0.04933803159","","","","","","","","76","L","3","","","82","main_expt",""
"","bandit","162","605365","0.0-123.0-0.0","91600048","wem/bandit_either_3","A2R794P3E8X0MK","either","5","279","","","","","","","0","0","1","","0.03134335394","0.4","0.8","0.2","0.6","0.573719985","0.09865920741","0.4492602846","0.03134335394","","","","","","","","","","","","76","L","3","","","83","main_expt",""
"","bandit","163","607365","0.0-124.0-0.0","91600048","wem/bandit_either_3","A2R794P3E8X0MK","either","5","489","","","","","","","0","0","1","0.08181594064","","0.4","0.8","0.2","0.6","","","","","0.5666188995","0.06745845416","0.4800113203","0.08181594064","","","","","","","","76","L","3","","","84","main_expt",""
"","bandit","164","609165","0.0-125.0-0.0","91600048","wem/bandit_either_3","A2R794P3E8X0MK","either","5","286","","","","","","","0","0","1","0.09326949564","","0.4","0.8","0.2","0.6","","","","","0.5161506384","0.05723787215","0.53417275","0.09326949564","","","","","","","","76","L","3","","","85","main_expt",""
"","bandit","165","611005","0.0-126.0-0.0","91600048","wem/bandit_either_3","A2R794P3E8X0MK","either","5","327","","","","","","","0","0","1","0.1365856799","","0.4","0.8","0.2","0.6","","","","","0.4408304524","0.04283717318","0.4431594274","0.1365856799","","","","","","","","76","L","3","","","86","main_expt",""
"","bandit","166","612862","0.0-127.0-0.0","91600048","wem/bandit_either_3","A2R794P3E8X0MK","either","5","344","","","","","","","0","0","1","0.1845868617","","0.4","0.8","0.2","0.6","","","","","0.4926691315","0.04801612347","0.4135642243","0.1845868617","","","","","","","","76","L","3","","","87","main_expt",""
"","bandit","167","615014","0.0-128.0-0.0","91600048","wem/bandit_either_3","A2R794P3E8X0MK","either","5","637","","","","","","","0","1","0","","0.4785462387","0.4","0.8","0.2","0.6","0.6047228172","0.1154775412","0.4785462387","0.2304222619","","","","","","","","","","","","75","K","2","","","88","main_expt",""
"","bandit","168","617005","0.0-129.0-0.0","91600048","wem/bandit_either_3","A2R794P3E8X0MK","either","5","474","","","","","","","0","0","1","0.1308375778","","0.4","0.8","0.2","0.6","","","","","0.5311406509","0.1308375778","0.6395163219","0.1408060154","","","","","","","","74","J","1","","","89","main_expt",""
"","bandit","169","618924","0.0-130.0-0.0","91600048","wem/bandit_either_3","A2R794P3E8X0MK","either","5","408","","","","","","","0","0","1","0.07282967421","","0.4","0.8","0.2","0.6","","","","","0.6262376813","0.07282967421","0.6143207643","0.1870966622","","","","","","","","74","J","1","","","90","main_expt",""
"","bandit","170","621068","0.0-131.0-0.0","91600048","wem/bandit_either_3","A2R794P3E8X0MK","either","5","631","","","","","","","0","0","1","0.07599207753","","0.4","0.8","0.2","0.6","","","","","0.690423555","0.07599207753","0.446485487","0.192698437","","","","","","","","74","J","1","","","91","main_expt",""
"","bandit","171","623020","0.0-132.0-0.0","91600048","wem/bandit_either_3","A2R794P3E8X0MK","either","5","442","","","","","","","0","0","1","0.04323911508","","0.4","0.8","0.2","0.6","","","","","0.6517149298","0.04323911508","0.5169677416","0.1683480261","","","","","","","","74","J","1","","","92","main_expt",""
"","bandit","172","625012","0.0-133.0-0.0","91600048","wem/bandit_either_3","A2R794P3E8X0MK","either","5","476","","","","","","","0","0","1","0.04253576945","","0.4","0.8","0.2","0.6","","","","","0.5656193004","0.04253576945","0.4242737166","0.1330499919","","","","","","","","74","J","1","","","93","main_expt",""
"","bandit","173","626779","0.0-134.0-0.0","91600048","wem/bandit_either_3","A2R794P3E8X0MK","either","5","255","","","","","","","0","0","1","","0.04534385772","0.4","0.8","0.2","0.6","0.4344563295","0.04534385772","0.3479993201","0.1880917327","","","","","","","","","","","","74","J","1","","","94","main_expt",""
"","bandit","174","628404","0.0-135.0-0.0","91600048","wem/bandit_either_3","A2R794P3E8X0MK","either","5","113","","","","","","","0","0","1","","0.5651083109","0.4","0.8","0.2","0.6","0.5651083109","0.03318992591","0.3701135783","0.1867575465","","","","","","","","","","","","72","H","0","img/none_selected.jpg","","95","main_expt",""
"","bandit","175","630101","0.0-136.0-0.0","91600048","wem/bandit_either_3","A2R794P3E8X0MK","either","5","180","","","","","","","1","0","0","0.5348041914","","0.4","0.8","0.2","0.6","","","","","0.5348041914","0.03408771876","0.3430407586","0.2231999883","","","","","","","","72","H","0","img/none_selected.jpg","","96","main_expt",""
"","bandit","176","632177","0.0-137.0-0.0","91600048","wem/bandit_either_3","A2R794P3E8X0MK","either","5","565","","","","","","","0","1","0","","0.5627844697","0.4","0.8","0.2","0.6","0.5627844697","0.05013144164","0.2876443713","0.2149045243","","","","","","","","","","","","72","H","0","img/none_selected.jpg","","97","main_expt",""
"","bandit","177","634043","0.0-138.0-0.0","91600048","wem/bandit_either_3","A2R794P3E8X0MK","either","5","355","","","","","","","0","1","0","","0.6177525637","0.4","0.8","0.2","0.6","0.6177525637","0.03739082544","0.3310412313","0.1963416079","","","","","","","","","","","","72","H","0","img/none_selected.jpg","","98","main_expt",""
"","bandit","178","636001","0.0-139.0-0.0","91600048","wem/bandit_either_3","A2R794P3E8X0MK","either","5","444","","","","","","","0","0","1","0.7429557604","","0.4","0.8","0.2","0.6","","","","","0.7429557604","0.1018336486","0.3893078888","0.1659387142","","","","","","","","72","H","0","img/none_selected.jpg","","99","main_expt",""
"","bandit","179","637784","0.0-140.0-0.0","91600048","wem/bandit_either_3","A2R794P3E8X0MK","either","5","273","","","","","","","1","0","0","0.6717563967","","0.4","0.8","0.2","0.6","","","","","0.6717563967","0.1398961818","0.4049224607","0.145948344","","","","","","","","72","H","0","img/none_selected.jpg","","100","main_expt",""
"","bandit","180","639945","0.0-141.0-0.0","91600048","wem/bandit_either_3","A2R794P3E8X0MK","either","5","648","","","","","","","1","0","0","0.6929666651","","0.4","0.8","0.2","0.6","","","","","0.6929666651","0.1830356504","0.3259939159","0.1366695263","","","","","","","","72","H","0","img/none_selected.jpg","","101","main_expt",""
"","bandit","181","642416","0.0-142.0-0.0","91600048","wem/bandit_either_3","A2R794P3E8X0MK","either","5","960","","","","","","","0","1","0","","0.6827494989","0.4","0.8","0.2","0.6","0.6827494989","0.1396005595","0.3598161211","0.1543059156","","","","","","","","","","","","72","H","0","img/none_selected.jpg","","102","main_expt",""
"","bandit","182","644745","0.0-143.0-0.0","91600048","wem/bandit_either_3","A2R794P3E8X0MK","either","5","817","","","","","","","0","1","0","","0.7315485361","0.4","0.8","0.2","0.6","0.7315485361","0.0853830874","0.3385951472","0.1484193465","","","","","","","","","","","","72","H","0","img/none_selected.jpg","","103","main_expt",""
"","bandit","183","647016","0.0-144.0-0.0","91600048","wem/bandit_either_3","A2R794P3E8X0MK","either","5","758","","","","","","","0","0","1","","0.6852971926","0.4","0.8","0.2","0.6","0.6852971926","0.09317924201","0.4881545817","0.1516288854","","","","","","","","","","","","72","H","0","img/none_selected.jpg","","104","main_expt",""
"","bandit","184","649480","0.0-145.0-0.0","91600048","wem/bandit_either_3","A2R794P3E8X0MK","either","5","951","","","","","","","0","1","0","","0.693594393","0.4","0.8","0.2","0.6","0.693594393","0.08203708102","0.4790883063","0.1283123627","","","","","","","","","","","","72","H","0","img/none_selected.jpg","","105","main_expt",""
"","bandit","185","652201","0.0-146.0-0.0","91600048","wem/bandit_either_3","A2R794P3E8X0MK","either","5","1208","","","","","","","0","1","0","","0.6101065231","0.4","0.8","0.2","0.6","0.6101065231","0.07160056992","0.4354998123","0.2016068708","","","","","","","","","","","","72","H","0","img/none_selected.jpg","","106","main_expt",""
"","bandit","186","655728","0.0-147.0-0.0","91600048","wem/bandit_either_3","A2R794P3E8X0MK","either","5","2016","","","","","","","1","0","0","0.09799112372","","0.4","0.8","0.2","0.6","","","","","0.5549317608","0.09799112372","0.4789065637","0.2344181992","","","","","","","","74","J","1","","","107","main_expt",""
"","bandit","187","657734","0.0-148.0-0.0","91600048","wem/bandit_either_3","A2R794P3E8X0MK","either","5","494","","","","","","","0","0","1","","0.1101799882","0.4","0.8","0.2","0.6","0.5753690117","0.1101799882","0.2921896665","0.2234564856","","","","","","","","","","","","74","J","1","","","108","main_expt",""
"","bandit","188","660895","0.0-149.0-0.0","91600048","wem/bandit_either_3","A2R794P3E8X0MK","either","5","1647","","","","","","","0","0","1","0.07189968831","","0.4","0.8","0.2","0.6","","","","","0.5748544728","0.07189968831","0.3545905428","0.2494485671","","","","","","","","74","J","1","","","109","main_expt",""
"","bandit","189","662943","0.0-150.0-0.0","91600048","wem/bandit_either_3","A2R794P3E8X0MK","either","5","535","","","","","","","0","0","1","0.06101418375","","0.4","0.8","0.2","0.6","","","","","0.6473038793","0.06101418375","0.3110769573","0.2804015825","","","","","","","","74","J","1","","","110","main_expt",""
"","bandit","190","664862","0.0-151.0-0.0","91600048","wem/bandit_either_3","A2R794P3E8X0MK","either","5","405","","","","","","","0","1","0","","0.3673577619","0.4","0.8","0.2","0.6","0.6296147118","0.1032726654","0.3673577619","0.254644275","","","","","","","","","","","","75","K","2","","","111","main_expt",""
"","bandit","191","667183","0.0-152.0-0.0","91600048","wem/bandit_either_3","A2R794P3E8X0MK","either","5","809","","","","","","","0","0","1","","0.3439961468","0.4","0.8","0.2","0.6","0.6174722021","0.1061240248","0.3439961468","0.2686709136","","","","","","","","","","","","75","K","2","","","112","main_expt",""
"","bandit","192","669014","0.0-153.0-0.0","91600048","wem/bandit_either_3","A2R794P3E8X0MK","either","5","317","","","","","","","1","0","0","0.3389202036","","0.4","0.8","0.2","0.6","","","","","0.7467975424","0.1150632514","0.3389202036","0.3211503982","","","","","","","","75","K","2","","","113","main_expt",""
"","bandit","193","671060","0.0-154.0-0.0","91600048","wem/bandit_either_3","A2R794P3E8X0MK","either","5","534","","","","","","","0","0","1","","0.3122185675","0.4","0.8","0.2","0.6","0.7797220863","0.1491479201","0.3122185675","0.3067152309","","","","","","","","","","","","75","K","2","","","114","main_expt",""
"","bandit","194","672788","0.0-155.0-0.0","91600048","wem/bandit_either_3","A2R794P3E8X0MK","either","5","215","","","","","","","0","0","1","","0.2431064996","0.4","0.8","0.2","0.6","0.8152411921","0.08304421353","0.2431064996","0.3274584286","","","","","","","","","","","","75","K","2","","","115","main_expt",""
"","bandit","195","674628","0.0-156.0-0.0","91600048","wem/bandit_either_3","A2R794P3E8X0MK","either","5","327","","","","","","","0","0","1","","0.2225404561","0.4","0.8","0.2","0.6","0.7362727539","0.1391191417","0.2225404561","0.2491959293","","","","","","","","","","","","75","K","2","","","116","main_expt",""
"","bandit","196","676314","0.0-157.0-0.0","91600048","wem/bandit_either_3","A2R794P3E8X0MK","either","5","175","","","","","","","0","0","1","","0.2891792411","0.4","0.8","0.2","0.6","0.7051771602","0.1689833708","0.2891792411","0.1425156065","","","","","","","","","","","","75","K","2","","","117","main_expt",""
"","bandit","197","678135","0.0-158.0-0.0","91600048","wem/bandit_either_3","A2R794P3E8X0MK","either","5","306","","","","","","","0","0","1","","0.3147139712","0.4","0.8","0.2","0.6","0.7099604309","0.1341186766","0.3147139712","0.1550025764","","","","","","","","","","","","75","K","2","","","118","main_expt",""
"","bandit","198","679844","0.0-159.0-0.0","91600048","wem/bandit_either_3","A2R794P3E8X0MK","either","5","197","","","","","","","0","0","1","0.4890071061","","0.4","0.8","0.2","0.6","","","","","0.6633752461","0.1211065448","0.4890071061","0.1733664784","","","","","","","","75","K","2","","","119","main_expt",""
"","bandit","199","682388","0.0-160.0-0.0","91600048","wem/bandit_either_3","A2R794P3E8X0MK","either","5","1030","","","","","","","0","0","1","0.1317257861","","0.4","0.8","0.2","0.6","","","","","0.6748815414","0.1317257861","0.5238994176","0.2091577514","","","","","","","","74","J","1","","","120","main_expt",""
"","bandit","200","686029","0.0-161.0-0.0","91600048","wem/bandit_either_3","A2R794P3E8X0MK","either","5","2125","","","","","","","1","0","0","0.694041989","","0.4","0.8","0.2","0.6","","","","","0.694041989","0.08851148741","0.4821854017","0.2038206067","","","","","","","","72","H","0","img/none_selected.jpg","","121","main_expt",""
"","bandit","201","688843","0.0-162.0-0.0","91600048","wem/bandit_either_3","A2R794P3E8X0MK","either","5","1301","","","","","","","0","0","1","","0.7808088803","0.4","0.8","0.2","0.6","0.7808088803","0.1313095228","0.5695824443","0.1646827865","","","","","","","","","","","","72","H","0","img/none_selected.jpg","","122","main_expt",""
"","bandit","202","690801","0.0-163.0-0.0","91600048","wem/bandit_either_3","A2R794P3E8X0MK","either","5","447","","","","","","","0","1","0","","0.7513243775","0.4","0.8","0.2","0.6","0.7513243775","0.1990721176","0.5884468641","0.08951947698","","","","","","","","","","","","72","H","0","img/none_selected.jpg","","123","main_expt",""
"","bandit","203","692905","0.0-164.0-0.0","91600048","wem/bandit_either_3","A2R794P3E8X0MK","either","5","591","","","","","","","0","1","0","","0.3510587203","0.4","0.8","0.2","0.6","0.7095593687","0.3510587203","0.6578864121","0.09676311751","","","","","","","","","","","","74","J","1","","","124","main_expt",""
"","bandit","204","694720","0.0-165.0-0.0","91600048","wem/bandit_either_3","A2R794P3E8X0MK","either","5","304","","","","","","","0","0","1","0.2829787335","","0.4","0.8","0.2","0.6","","","","","0.6464373278","0.2829787335","0.6610648035","0.08914634913","","","","","","","","74","J","1","","","125","main_expt",""
"","bandit","205","696313","0.0-166.0-0.0","91600048","wem/bandit_either_3","A2R794P3E8X0MK","either","5","80","","","","","","","0","0","1","0.3253732313","","0.4","0.8","0.2","0.6","","","","","0.69855693","0.3253732313","0.6745370829","0.1104844084","","","","","","","","74","J","1","","","126","main_expt",""
"","bandit","206","698850","0.0-167.0-0.0","91600048","wem/bandit_either_3","A2R794P3E8X0MK","either","5","1026","","","","","","","0","0","1","0.2969307539","","0.4","0.8","0.2","0.6","","","","","0.6394960802","0.2969307539","0.6357656308","0.1302598269","","","","","","","","74","J","1","","","127","main_expt",""
"","bandit","207","700857","0.0-168.0-0.0","91600048","wem/bandit_either_3","A2R794P3E8X0MK","either","5","492","","","","","","","0","0","1","0.5912569563","","0.4","0.8","0.2","0.6","","","","","0.5912569563","0.3862322559","0.6746479632","0.1739983423","","","","","","","","72","H","0","img/none_selected.jpg","","128","main_expt",""
"","bandit","208","702696","0.0-169.0-0.0","91600048","wem/bandit_either_3","A2R794P3E8X0MK","either","5","328","","","","","","","0","0","1","0.3399993615","","0.4","0.8","0.2","0.6","","","","","0.6408154383","0.3399993615","0.609360971","0.2144078185","","","","","","","","74","J","1","","","129","main_expt",""
"","bandit","209","704553","0.0-170.0-0.0","91600048","wem/bandit_either_3","A2R794P3E8X0MK","either","5","342","","","","","","","0","0","1","","0.5791775941","0.4","0.8","0.2","0.6","0.6160079471","0.4343217783","0.5791775941","0.2133227205","","","","","","","","","","","","75","K","2","","","130","main_expt",""
"","bandit","210","706560","0.0-171.0-0.0","91600048","wem/bandit_either_3","A2R794P3E8X0MK","either","5","494","","","","","","","0","1","0","","0.6039133906","0.4","0.8","0.2","0.6","0.6639311205","0.4116870082","0.6039133906","0.3009586135","","","","","","","","","","","","75","K","2","","","131","main_expt",""
"","bandit","211","708888","0.0-172.0-0.0","91600048","wem/bandit_either_3","A2R794P3E8X0MK","either","5","814","","","","","","","0","0","1","0.3257006372","","0.4","0.8","0.2","0.6","","","","","0.7314418876","0.3235444519","0.5564977279","0.3257006372","","","","","","","","76","L","3","","","132","main_expt",""
"","bandit","212","710775","0.0-173.0-0.0","91600048","wem/bandit_either_3","A2R794P3E8X0MK","either","5","375","","","","","","","0","0","1","0.3286432436","","0.4","0.8","0.2","0.6","","","","","0.7343064015","0.4204005917","0.5453182718","0.3286432436","","","","","","","","76","L","3","","","133","main_expt",""
"","bandit","213","712360","0.0-174.0-0.0","91600048","wem/bandit_either_3","A2R794P3E8X0MK","either","5","70","","","","","","","0","0","1","","0.3343575241","0.4","0.8","0.2","0.6","0.6345074403","0.5326734174","0.5557967555","0.3343575241","","","","","","","","","","","","76","L","3","","","134","main_expt",""
"","bandit","214","714591","0.0-175.0-0.0","91600048","wem/bandit_either_3","A2R794P3E8X0MK","either","5","717","","","","","","","0","0","1","0.2917270645","","0.4","0.8","0.2","0.6","","","","","0.752921597","0.6096825818","0.5719827955","0.2917270645","","","","","","","","76","L","3","","","135","main_expt",""
"","bandit","215","716847","0.0-176.0-0.0","91600048","wem/bandit_either_3","A2R794P3E8X0MK","either","5","740","","","","","","","1","0","0","0.3972485531","","0.4","0.8","0.2","0.6","","","","","0.7642539739","0.6827328332","0.4756276611","0.3972485531","","","","","","","","76","L","3","","","136","main_expt",""
"","bandit","216","718863","0.0-177.0-0.0","91600048","wem/bandit_either_3","A2R794P3E8X0MK","either","5","502","","","","","","","0","1","0","","0.4294090248","0.4","0.8","0.2","0.6","0.7166238274","0.6604068036","0.5078949877","0.4294090248","","","","","","","","","","","","76","L","3","","","137","main_expt",""
"","bandit","217","720984","0.0-178.0-0.0","91600048","wem/bandit_either_3","A2R794P3E8X0MK","either","5","605","","","","","","","0","0","1","","0.5009988565","0.4","0.8","0.2","0.6","0.713549589","0.653661868","0.4938131475","0.5009988565","","","","","","","","","","","","76","L","3","","","138","main_expt",""
"","bandit","218","723239","0.0-179.0-0.0","91600048","wem/bandit_either_3","A2R794P3E8X0MK","either","5","741","","","","","","","0","0","1","0.4993746949","","0.4","0.8","0.2","0.6","","","","","0.6905374229","0.6169918179","0.654612375","0.4993746949","","","","","","","","76","L","3","","","139","main_expt",""
"","bandit","219","725285","0.0-180.0-0.0","91600048","wem/bandit_either_3","A2R794P3E8X0MK","either","5","532","","","","","","","0","0","1","0.5448973659","","0.4","0.8","0.2","0.6","","","","","0.6614813372","0.6657435074","0.52663091","0.5448973659","","","","","","","","76","L","3","","","140","main_expt",""
"","bandit","220","727245","0.0-181.0-0.0","91600048","wem/bandit_either_3","A2R794P3E8X0MK","either","5","448","","","","","","","0","0","1","0.4829720837","","0.4","0.8","0.2","0.6","","","","","0.7024355817","0.6349341703","0.5976356642","0.4829720837","","","","","","","","76","L","3","","","141","main_expt",""
"","bandit","221","728949","0.0-182.0-0.0","91600048","wem/bandit_either_3","A2R794P3E8X0MK","either","5","189","","","","","","","1","0","0","0.6379356982","","0.4","0.8","0.2","0.6","","","","","0.7185929435","0.6379356982","0.5956183516","0.5402580016","","","","","","","","74","J","1","","","142","main_expt",""
"","bandit","222","730775","0.0-183.0-0.0","91600048","wem/bandit_either_3","A2R794P3E8X0MK","either","5","313","","","","","","","0","0","1","0.6022688156","","0.4","0.8","0.2","0.6","","","","","0.6240660549","0.6022688156","0.6432894639","0.5478015274","","","","","","","","74","J","1","","","143","main_expt",""
"","bandit","223","732622","0.0-184.0-0.0","91600048","wem/bandit_either_3","A2R794P3E8X0MK","either","5","332","","","","","","","1","0","0","0.5806731621","","0.4","0.8","0.2","0.6","","","","","0.5797935966","0.5806731621","0.6691106198","0.5189832842","","","","","","","","74","J","1","","","144","main_expt",""
"","bandit","224","734501","0.0-185.0-0.0","91600048","wem/bandit_either_3","A2R794P3E8X0MK","either","5","367","","","","","","","0","0","1","","0.5512406412","0.4","0.8","0.2","0.6","0.520403766","0.5512406412","0.677031803","0.4556604905","","","","","","","","","","","","74","J","1","","","145","main_expt",""
"","bandit","225","736460","0.0-186.0-0.0","91600048","wem/bandit_either_3","A2R794P3E8X0MK","either","5","444","","","","","","","0","1","0","","0.6055708535","0.4","0.8","0.2","0.6","0.5330345992","0.6055708535","0.6697886415","0.48011385","","","","","","","","","","","","74","J","1","","","146","main_expt",""
"","bandit","226","738445","0.0-187.0-0.0","91600048","wem/bandit_either_3","A2R794P3E8X0MK","either","5","471","","","","","","","1","0","0","0.5711328773","","0.4","0.8","0.2","0.6","","","","","0.5692896821","0.5711328773","0.7101623398","0.5363471167","","","","","","","","74","J","1","","","147","main_expt",""
"","bandit","227","740954","0.0-188.0-0.0","91600048","wem/bandit_either_3","A2R794P3E8X0MK","either","5","996","","","","","","","0","0","1","0.4258462921","","0.4","0.8","0.2","0.6","","","","","0.4877368026","0.4258462921","0.733230793","0.4929714004","","","","","","","","74","J","1","","","148","main_expt",""
"","bandit","228","742933","0.0-189.0-0.0","91600048","wem/bandit_either_3","A2R794P3E8X0MK","either","5","466","","","","","","","1","0","0","0.327967402","","0.4","0.8","0.2","0.6","","","","","0.5936336812","0.327967402","0.7010449773","0.4356177925","","","","","","","","74","J","1","","","149","main_expt",""
"","bandit","229","745939","0.0-190.0-0.0","91600048","wem/bandit_either_3","A2R794P3E8X0MK","either","5","1489","","","","","","","0","0","1","","0.4343474627","0.4","0.8","0.2","0.6","0.7027445866","0.4343474627","0.6668672445","0.4054894896","","","","","","","","","","","","74","J","1","","","150","main_expt",""
"","bandit","230","749026","0.0-191.0-0.0","91600048","wem/bandit_either_3","A2R794P3E8X0MK","either","5","1573","","","","","","","0","0","1","0.7690633033","","0.4","0.8","0.2","0.6","","","","","0.7690633033","0.5382828223","0.5612636021","0.5283130311","","","","","","","","72","H","0","img/none_selected.jpg","","151","main_expt",""
"","bandit","231","751104","0.0-192.0-0.0","91600048","wem/bandit_either_3","A2R794P3E8X0MK","either","5","566","","","","","","","0","1","0","","0.5989969619","0.4","0.8","0.2","0.6","0.5989969619","0.6572277468","0.7032448324","0.6323123958","","","","","","","","","","","","72","H","0","img/none_selected.jpg","","152","main_expt",""
"","bandit","232","753371","0.0-193.0-0.0","91600048","wem/bandit_either_3","A2R794P3E8X0MK","either","5","755","","","","","","","0","0","1","","0.668560183","0.4","0.8","0.2","0.6","0.6126787421","0.668560183","0.6918543646","0.5847243132","","","","","","","","","","","","74","J","1","","","153","main_expt",""
"","bandit","233","755673","0.0-194.0-0.0","91600048","wem/bandit_either_3","A2R794P3E8X0MK","either","5","788","","","","","","","0","0","1","0.6954524596","","0.4","0.8","0.2","0.6","","","","","0.5461115941","0.6954524596","0.647195156","0.4285456013","","","","","","","","74","J","1","","","154","main_expt",""
"","bandit","234","757954","0.0-195.0-0.0","91600048","wem/bandit_either_3","A2R794P3E8X0MK","either","5","767","","","","","","","0","0","1","0.5684527538","","0.4","0.8","0.2","0.6","","","","","0.5456348337","0.5684527538","0.6135998722","0.4772645207","","","","","","","","74","J","1","","","155","main_expt",""
"","bandit","235","760130","0.0-196.0-0.0","91600048","wem/bandit_either_3","A2R794P3E8X0MK","either","5","661","","","","","","","1","0","0","0.6034375159","","0.4","0.8","0.2","0.6","","","","","0.4782917504","0.6034375159","0.5591033916","0.4982711843","","","","","","","","74","J","1","","","156","main_expt",""
"","bandit","236","762138","0.0-197.0-0.0","91600048","wem/bandit_either_3","A2R794P3E8X0MK","either","5","492","","","","","","","0","1","0","","0.4868537485","0.4","0.8","0.2","0.6","0.4868537485","0.5835723018","0.5090787948","0.5275183668","","","","","","","","","","","","72","H","0","img/none_selected.jpg","","157","main_expt",""
"","bandit","237","764379","0.0-198.0-0.0","91600048","wem/bandit_either_3","A2R794P3E8X0MK","either","5","726","","","","","","","0","0","1","0.5234712835","","0.4","0.8","0.2","0.6","","","","","0.5361642224","0.5234712835","0.6087372924","0.4489423754","","","","","","","","74","J","1","","","158","main_expt",""
"","bandit","238","766673","0.0-199.0-0.0","91600048","wem/bandit_either_3","A2R794P3E8X0MK","either","5","781","","","","","","","0","0","1","0.5636881177","","0.4","0.8","0.2","0.6","","","","","0.4947944436","0.5636881177","0.6064578463","0.4933275403","","","","","","","","74","J","1","","","159","main_expt",""
"","bandit","239","769072","0.0-200.0-0.0","91600048","wem/bandit_either_3","A2R794P3E8X0MK","either","5","884","","","","","","","0","0","1","0.4785340868","","0.4","0.8","0.2","0.6","","","","","0.5106889885","0.4785340868","0.6951258233","0.4521998099","","","","","","","","74","J","1","","","160","main_expt",""
"","bandit","240","771033","0.0-201.0-0.0","91600048","wem/bandit_either_3","A2R794P3E8X0MK","either","5","448","","","","","","","0","1","0","","0.7129510734","0.4","0.8","0.2","0.6","0.4566704777","0.5038962889","0.7129510734","0.5114636712","","","","","","","","","","","","75","K","2","","","161","main_expt",""
"","bandit","241","772913","0.0-202.0-0.0","91600048","wem/bandit_either_3","A2R794P3E8X0MK","either","5","365","","","","","","","0","1","0","","0.5242674757","0.4","0.8","0.2","0.6","0.3259271754","0.4448395692","0.7028034005","0.5242674757","","","","","","","","","","","","76","L","3","","","162","main_expt",""
"","bandit","242","774858","0.0-203.0-0.0","91600048","wem/bandit_either_3","A2R794P3E8X0MK","either","5","430","","","","","","","1","0","0","0.5687322637","","0.4","0.8","0.2","0.6","","","","","0.2806734392","0.471982621","0.6293758899","0.5687322637","","","","","","","","76","L","3","","","163","main_expt",""
"","bandit","243","776808","0.0-204.0-0.0","91600048","wem/bandit_either_3","A2R794P3E8X0MK","either","5","436","","","","","","","0","0","1","","0.5635146256","0.4","0.8","0.2","0.6","0.2973163189","0.6517066897","0.6813427096","0.5635146256","","","","","","","","","","","","76","L","3","","","164","main_expt",""
"","bandit","244","778504","0.0-205.0-0.0","91600048","wem/bandit_either_3","A2R794P3E8X0MK","either","5","182","","","","","","","1","0","0","0.6588968294","","0.4","0.8","0.2","0.6","","","","","0.2872552927","0.6339143586","0.7231406025","0.6588968294","","","","","","","","76","L","3","","","165","main_expt",""
"","bandit","245","780191","0.0-206.0-0.0","91600048","wem/bandit_either_3","A2R794P3E8X0MK","either","5","173","","","","","","","0","1","0","","0.74872254","0.4","0.8","0.2","0.6","0.325395791","0.6507743373","0.6274448994","0.74872254","","","","","","","","","","","","76","L","3","","","166","main_expt",""
"","bandit","246","782870","0.0-207.0-0.0","91600048","wem/bandit_either_3","A2R794P3E8X0MK","either","5","1166","","","","","","","0","0","1","0.7741304825","","0.4","0.8","0.2","0.6","","","","","0.3307719744","0.6753437353","0.6778384319","0.7741304825","","","","","","","","76","L","3","","","167","main_expt",""
"","bandit","247","784766","0.0-208.0-0.0","91600048","wem/bandit_either_3","A2R794P3E8X0MK","either","5","384","","","","","","","1","0","0","0.8873722237","","0.4","0.8","0.2","0.6","","","","","0.4033689778","0.6308788189","0.6928942004","0.8873722237","","","","","","","","76","L","3","","","168","main_expt",""
"","bandit","248","786695","0.0-209.0-0.0","91600048","wem/bandit_either_3","A2R794P3E8X0MK","either","5","415","","","","","","","1","0","0","0.8649989169","","0.4","0.8","0.2","0.6","","","","","0.4089274666","0.6289357746","0.6181376835","0.8649989169","","","","","","","","76","L","3","","","169","main_expt",""
"","bandit","249","789146","0.0-210.0-0.0","91600048","wem/bandit_either_3","A2R794P3E8X0MK","either","5","932","","","","","","","1","0","0","0.8634323334","","0.4","0.8","0.2","0.6","","","","","0.4033631647","0.6308829817","0.6539136718","0.8634323334","","","","","","","","76","L","3","","","170","main_expt",""
"","bandit","250","791065","0.0-211.0-0.0","91600048","wem/bandit_either_3","A2R794P3E8X0MK","either","5","399","","","","","","","0","0","1","0.8050812792","","0.4","0.8","0.2","0.6","","","","","0.3743415885","0.6008061885","0.7935188527","0.8050812792","","","","","","","","76","L","3","","","171","main_expt",""
"","bandit","251","793276","0.0-212.0-0.0","91600048","wem/bandit_either_3","A2R794P3E8X0MK","either","5","697","","","","","","","1","0","0","0.7635000848","","0.4","0.8","0.2","0.6","","","","","0.4145867416","0.6498855282","0.7959482017","0.7635000848","","","","","","","","76","L","3","","","172","main_expt",""
"","bandit","252","795412","0.0-213.0-0.0","91600048","wem/bandit_either_3","A2R794P3E8X0MK","either","5","622","","","","","","","1","0","0","0.7793560846","","0.4","0.8","0.2","0.6","","","","","0.4421490518","0.6361658802","0.7720377381","0.7793560846","","","","","","","","76","L","3","","","173","main_expt",""
"","bandit","253","797542","0.0-214.0-0.0","91600048","wem/bandit_either_3","A2R794P3E8X0MK","either","5","617","","","","","","","0","1","0","","0.7290013271","0.4","0.8","0.2","0.6","0.373112653","0.5494915933","0.7751150559","0.7290013271","","","","","","","","","","","","76","L","3","","","174","main_expt",""
"","bandit","254","799453","0.0-215.0-0.0","91600048","wem/bandit_either_3","A2R794P3E8X0MK","either","5","397","","","","","","","0","1","0","","0.8353873757","0.4","0.8","0.2","0.6","0.372221374","0.6292002022","0.7699246652","0.8353873757","","","","","","","","","","","","76","L","3","","","175","main_expt",""
"","bandit","255","801277","0.0-216.0-0.0","91600048","wem/bandit_either_3","A2R794P3E8X0MK","either","5","309","","","","","","","1","0","0","0.8589437223","","0.4","0.8","0.2","0.6","","","","","0.3594456443","0.4999600136","0.8092821718","0.8589437223","","","","","","","","76","L","3","","","176","main_expt",""
"","bandit","256","803123","0.0-217.0-0.0","91600048","wem/bandit_either_3","A2R794P3E8X0MK","either","5","331","","","","","","","0","1","0","","0.8824379228","0.4","0.8","0.2","0.6","0.3705823864","0.4500304274","0.7728258073","0.8824379228","","","","","","","","","","","","76","L","3","","","177","main_expt",""
"","bandit","257","804819","0.0-218.0-0.0","91600048","wem/bandit_either_3","A2R794P3E8X0MK","either","5","182","","","","","","","1","0","0","0.8862787626","","0.4","0.8","0.2","0.6","","","","","0.3042584581","0.4626099748","0.8128952128","0.8862787626","","","","","","","","76","L","3","","","178","main_expt",""
"","bandit","258","806675","0.0-219.0-0.0","91600048","wem/bandit_either_3","A2R794P3E8X0MK","either","5","342","","","","","","","1","0","0","0.8851661012","","0.4","0.8","0.2","0.6","","","","","0.3056645996","0.3074659707","0.7878088044","0.8851661012","","","","","","","","76","L","3","","","179","main_expt",""
"","bandit","259","808493","0.0-220.0-0.0","91600048","wem/bandit_either_3","A2R794P3E8X0MK","either","5","302","","","","","","","1","0","0","0.8623840347","","0.4","0.8","0.2","0.6","","","","","0.3124458775","0.2445312817","0.7626215198","0.8623840347","","","","","","","","76","L","3","","","180","main_expt",""
"","bandit","260","810452","0.0-221.0-0.0","91600048","wem/bandit_either_3","A2R794P3E8X0MK","either","5","444","","","","","","","0","1","0","","0.8815853427","0.4","0.8","0.2","0.6","0.2597333415","0.2284870313","0.7059637017","0.8815853427","","","","","","","","","","","","76","L","3","","","181","main_expt",""
"","bandit","261","812205","0.0-222.0-0.0","91600048","wem/bandit_either_3","A2R794P3E8X0MK","either","5","235","","","","","","","0","1","0","","0.8955826305","0.4","0.8","0.2","0.6","0.2117009826","0.2195648065","0.6691747745","0.8955826305","","","","","","","","","","","","76","L","3","","","182","main_expt",""
"","bandit","262","814036","0.0-223.0-0.0","91600048","wem/bandit_either_3","A2R794P3E8X0MK","either","5","316","","","","","","","1","0","0","0.9362873759","","0.4","0.8","0.2","0.6","","","","","0.2327762041","0.2327716204","0.5523838876","0.9362873759","","","","","","","","76","L","3","","","183","main_expt",""
"","bandit","263","815987","0.0-224.0-0.0","91600048","wem/bandit_either_3","A2R794P3E8X0MK","either","5","437","","","","","","","0","0","1","0.9484326647","","0.4","0.8","0.2","0.6","","","","","0.2750618684","0.3207903029","0.5451875246","0.9484326647","","","","","","","","76","L","3","","","184","main_expt",""
"","bandit","264","817546","0.0-225.0-0.0","91600048","wem/bandit_either_3","A2R794P3E8X0MK","either","5","45","","","","","","","0","0","1","","0.6090771744","0.4","0.8","0.2","0.6","0.2305846964","0.3609723674","0.6090771744","0.9660783121","","","","","","","","","","","","75","K","2","","","185","main_expt",""
"","bandit","265","819364","0.0-226.0-0.0","91600048","wem/bandit_either_3","A2R794P3E8X0MK","either","5","303","","","","","","","0","1","0","","0.5810996076","0.4","0.8","0.2","0.6","0.2597669424","0.4442397518","0.5810996076","0.9665376101","","","","","","","","","","","","75","K","2","","","186","main_expt",""
"","bandit","266","821178","0.0-227.0-0.0","91600048","wem/bandit_either_3","A2R794P3E8X0MK","either","5","299","","","","","","","0","0","1","0.4478442549","","0.4","0.8","0.2","0.6","","","","","0.2143742246","0.4478442549","0.4445572548","0.9644184371","","","","","","","","74","J","1","","","187","main_expt",""
"","bandit","267","823122","0.0-228.0-0.0","91600048","wem/bandit_either_3","A2R794P3E8X0MK","either","5","428","","","","","","","0","0","1","0.4026396634","","0.4","0.8","0.2","0.6","","","","","0.2294707647","0.4026396634","0.4113554433","0.9731237162","","","","","","","","74","J","1","","","188","main_expt",""
"","bandit","268","824906","0.0-229.0-0.0","91600048","wem/bandit_either_3","A2R794P3E8X0MK","either","5","267","","","","","","","0","0","1","0.5072589837","","0.4","0.8","0.2","0.6","","","","","0.2469430613","0.5072589837","0.4053553249","0.9787475226","","","","","","","","74","J","1","","","189","main_expt",""
"","bandit","269","826737","0.0-230.0-0.0","91600048","wem/bandit_either_3","A2R794P3E8X0MK","either","5","317","","","","","","","1","0","0","0.5234843415","","0.4","0.8","0.2","0.6","","","","","0.2437728268","0.5234843415","0.4927633492","0.9847816181","","","","","","","","74","J","1","","","190","main_expt",""
"","bandit","270","828593","0.0-231.0-0.0","91600048","wem/bandit_either_3","A2R794P3E8X0MK","either","5","340","","","","","","","0","0","1","","0.5054414672","0.4","0.8","0.2","0.6","0.1655579887","0.5054414672","0.428678546","0.9713064587","","","","","","","","","","","","74","J","1","","","191","main_expt",""
"","bandit","271","830443","0.0-232.0-0.0","91600048","wem/bandit_either_3","A2R794P3E8X0MK","either","5","334","","","","","","","1","0","0","0.7037613703","","0.4","0.8","0.2","0.6","","","","","0.1501427492","0.7037613703","0.3358015867","0.9558555722","","","","","","","","74","J","1","","","192","main_expt",""
"","bandit","272","832335","0.0-233.0-0.0","91600048","wem/bandit_either_3","A2R794P3E8X0MK","either","5","379","","","","","","","1","0","0","0.5980286963","","0.4","0.8","0.2","0.6","","","","","0.2062706367","0.5980286963","0.2816430679","0.9443800135","","","","","","","","74","J","1","","","193","main_expt",""
"","bandit","273","834361","0.0-234.0-0.0","91600048","wem/bandit_either_3","A2R794P3E8X0MK","either","5","509","","","","","","","0","0","1","0.5607231578","","0.4","0.8","0.2","0.6","","","","","0.2782937815","0.5607231578","0.2951519504","0.947825408","","","","","","","","74","J","1","","","194","main_expt",""
"","bandit","274","837271","0.0-235.0-0.0","91600048","wem/bandit_either_3","A2R794P3E8X0MK","either","5","1394","","","","","","","0","1","0","","0.6222063369","0.4","0.8","0.2","0.6","0.2393938873","0.6222063369","0.2482291913","0.9531013361","","","","","","","","","","","","74","J","1","","","195","main_expt",""
"","bandit","275","838832","0.0-236.0-0.0","91600048","wem/bandit_either_3","A2R794P3E8X0MK","either","5","45","","","","","","","0","1","0","","0.3385483064","0.4","0.8","0.2","0.6","0.3385483064","0.7092042058","0.2548661126","0.9653581558","","","","","","","","","","","","72","H","0","img/none_selected.jpg","","196","main_expt",""
"","bandit","276","841328","0.0-237.0-0.0","91600048","wem/bandit_either_3","A2R794P3E8X0MK","either","5","980","","","","","","","1","0","0","0.7397780251","","0.4","0.8","0.2","0.6","","","","","0.3474357388","0.7397780251","0.2789697966","0.9774234012","","","","","","","","74","J","1","","","197","main_expt",""
"","bandit","277","843925","0.0-238.0-0.0","91600048","wem/bandit_either_3","A2R794P3E8X0MK","either","5","1082","","","","","","","1","0","0","0.6977166648","","0.4","0.8","0.2","0.6","","","","","0.4511600961","0.6977166648","0.2893473624","0.9866112083","","","","","","","","74","J","1","","","198","main_expt",""
"","bandit","278","846622","0.0-239.0-0.0","91600048","wem/bandit_either_3","A2R794P3E8X0MK","either","5","1183","","","","","","","1","0","0","0.591703898","","0.4","0.8","0.2","0.6","","","","","0.4387406867","0.591703898","0.2499124536","0.9889390623","","","","","","","","74","J","1","","","199","main_expt",""
"","bandit","279","849366","0.0-240.0-0.0","91600048","wem/bandit_either_3","A2R794P3E8X0MK","either","5","1228","","","","","","","0","0","1","0.5107967375","","0.4","0.8","0.2","0.6","","","","","0.4368135332","0.5107967375","0.2643429758","0.9894921125","","","","","","","","74","J","1","","","200","main_expt",""
"","bandit","280","851896","0.0-241.0-0.0","91600048","wem/bandit_either_3","A2R794P3E8X0MK","either","5","1012","","","","","","","1","0","0","0.6528148869","","0.4","0.8","0.2","0.6","","","","","0.3070084091","0.6528148869","0.2382870841","0.989248002","","","","","","","","74","J","1","","","201","main_expt",""
"","bandit","281","855333","0.0-242.0-0.0","91600048","wem/bandit_either_3","A2R794P3E8X0MK","either","5","1922","","","","","","","0","1","0","","0.6892998309","0.4","0.8","0.2","0.6","0.3603585946","0.6892998309","0.1604624283","0.9957983392","","","","","","","","","","","","74","J","1","","","202","main_expt",""
"","bandit","282","857253","0.0-243.0-0.0","91600048","wem/bandit_either_3","A2R794P3E8X0MK","either","5","404","","","","","","","0","1","0","","0.9958893","0.4","0.8","0.2","0.6","0.260320329","0.6989476798","0.1407610566","0.9958893","","","","","","","","","","","","76","L","3","","","203","main_expt",""
"","bandit","283","859093","0.0-244.0-0.0","91600048","wem/bandit_either_3","A2R794P3E8X0MK","either","5","324","","","","","","","1","0","0","0.9955962674","","0.4","0.8","0.2","0.6","","","","","0.2003029851","0.772264117","0.1343245238","0.9955962674","","","","","","","","76","L","3","","","204","main_expt",""
"","bandit","284","861190","0.0-245.0-0.0","91600048","wem/bandit_either_3","A2R794P3E8X0MK","either","5","580","","","","","","","0","1","0","","0.9943432705","0.4","0.8","0.2","0.6","0.1922312923","0.7366863645","0.1715400642","0.9943432705","","","","","","","","","","","","76","L","3","","","205","main_expt",""
"","bandit","285","862893","0.0-246.0-0.0","91600048","wem/bandit_either_3","A2R794P3E8X0MK","either","5","182","","","","","","","0","0","1","","0.117617648","0.4","0.8","0.2","0.6","0.1936085521","0.7477287432","0.117617648","0.9982320458","","","","","","","","","","","","75","K","2","","","206","main_expt",""
"","bandit","286","864802","0.0-247.0-0.0","91600048","wem/bandit_either_3","A2R794P3E8X0MK","either","5","395","","","","","","","0","0","1","0.1182717864","","0.4","0.8","0.2","0.6","","","","","0.1821705986","0.8185776196","0.1182717864","0.9976530308","","","","","","","","75","K","2","","","207","main_expt",""
"","bandit","287","866420","0.0-248.0-0.0","91600048","wem/bandit_either_3","A2R794P3E8X0MK","either","5","102","","","","","","","0","0","1","","0.1445047472","0.4","0.8","0.2","0.6","0.1145050302","0.8161769506","0.1445047472","0.9961811318","","","","","","","","","","","","75","K","2","","","208","main_expt",""
"","bandit","288","868540","0.0-249.0-0.0","91600048","wem/bandit_either_3","A2R794P3E8X0MK","either","5","604","","","","","","","1","0","0","0.8224464957","","0.4","0.8","0.2","0.6","","","","","0.1206637037","0.8224464957","0.1264159314","0.9977639941","","","","","","","","74","J","1","","","209","main_expt",""
"","bandit","289","871396","0.0-250.0-0.0","91600048","wem/bandit_either_3","A2R794P3E8X0MK","either","5","1339","","","","","","","1","0","0","0.7392866018","","0.4","0.8","0.2","0.6","","","","","0.1422927172","0.7392866018","0.1208777168","0.9953783407","","","","","","","","74","J","1","","","210","main_expt",""
"","bandit","290","874108","0.0-251.0-0.0","91600048","wem/bandit_either_3","A2R794P3E8X0MK","either","5","1197","","","","","","","1","0","0","0.7125411919","","0.4","0.8","0.2","0.6","","","","","0.1811219169","0.7125411919","0.1733448518","0.9976351195","","","","","","","","74","J","1","","","211","main_expt",""
"","bandit","291","875948","0.0-252.0-0.0","91600048","wem/bandit_either_3","A2R794P3E8X0MK","either","5","324","","","","","","","0","0","1","0.7191881067","","0.4","0.8","0.2","0.6","","","","","0.1982527665","0.7191881067","0.1085262221","0.9983589292","","","","","","","","74","J","1","","","212","main_expt",""
"","bandit","292","877746","0.0-253.0-0.0","91600048","wem/bandit_either_3","A2R794P3E8X0MK","either","5","283","","","","","","","0","0","1","","0.7523845147","0.4","0.8","0.2","0.6","0.124448309","0.7523845147","0.08145678985","0.9960427138","","","","","","","","","","","","74","J","1","","","213","main_expt",""
"","bandit","293","879658","0.0-254.0-0.0","91600048","wem/bandit_either_3","A2R794P3E8X0MK","either","5","396","","","","","","","1","0","0","0.7193420906","","0.4","0.8","0.2","0.6","","","","","0.1036015692","0.7193420906","0.05725631888","0.9924650588","","","","","","","","74","J","1","","","214","main_expt",""
"","bandit","294","881490","0.0-255.0-0.0","91600048","wem/bandit_either_3","A2R794P3E8X0MK","either","5","317","","","","","","","0","0","1","0.6784461291","","0.4","0.8","0.2","0.6","","","","","0.14458031","0.6784461291","0.04356988172","0.9858211903","","","","","","","","74","J","1","","","215","main_expt",""
"","bandit","295","884915","0.0-256.0-0.0","91600048","wem/bandit_either_3","A2R794P3E8X0MK","either","5","1908","","","","","","","0","0","1","0.5658185063","","0.4","0.8","0.2","0.6","","","","","0.2094876981","0.5658185063","0.04316154837","0.9915289077","","","","","","","","74","J","1","","","216","main_expt",""
"","bandit","296","886559","0.0-257.0-0.0","91600048","wem/bandit_either_3","A2R794P3E8X0MK","either","5","127","","","","","","","0","0","1","","0.24936904","0.4","0.8","0.2","0.6","0.24936904","0.4886301847","0.03453558383","0.9929544916","","","","","","","","","","","","72","H","0","img/none_selected.jpg","","217","main_expt",""
"","bandit","297","889360","0.0-258.0-0.0","91600048","wem/bandit_either_3","A2R794P3E8X0MK","either","5","1287","","","","","","","0","0","1","","0.03800932399","0.4","0.8","0.2","0.6","0.2006789107","0.5674985979","0.03800932399","0.9741721496","","","","","","","","","","","","75","K","2","","","218","main_expt",""
"","bandit","298","891671","0.0-259.0-0.0","91600048","wem/bandit_either_3","A2R794P3E8X0MK","either","5","796","","","","","","","1","0","0","0.9413517393","","0.4","0.8","0.2","0.6","","","","","0.2118480588","0.6088772151","0.07914639327","0.9413517393","","","","","","","","76","L","3","","","219","main_expt",""
"","bandit","299","893535","0.0-260.0-0.0","91600048","wem/bandit_either_3","A2R794P3E8X0MK","either","5","351","","","","","","","0","1","0","","0.9230346446","0.4","0.8","0.2","0.6","0.2159213458","0.5856238885","0.07044987786","0.9230346446","","","","","","","","","","","","76","L","3","","","220","main_expt",""
"","bandit","300","895395","0.0-261.0-0.0","91600048","wem/bandit_either_3","A2R794P3E8X0MK","either","5","340","","","","","","","1","0","0","0.9216350241","","0.4","0.8","0.2","0.6","","","","","0.2097338805","0.6601978635","0.1351506501","0.9216350241","","","","","","","","76","L","3","","","221","main_expt",""
"","bandit","301","897575","0.0-262.0-0.0","91600048","wem/bandit_either_3","A2R794P3E8X0MK","either","5","663","","","","","","","1","0","0","0.9093406134","","0.4","0.8","0.2","0.6","","","","","0.1468233299","0.6540659739","0.2099108548","0.9093406134","","","","","","","","76","L","3","","","222","main_expt",""
"","bandit","302","900214","0.0-263.0-0.0","91600048","wem/bandit_either_3","A2R794P3E8X0MK","either","5","1124","","","","","","","1","0","0","0.8361447498","","0.4","0.8","0.2","0.6","","","","","0.1379540926","0.7010542315","0.2971693323","0.8361447498","","","","","","","","76","L","3","","","223","main_expt",""
"","bandit","303","902255","0.0-264.0-0.0","91600048","wem/bandit_either_3","A2R794P3E8X0MK","either","5","523","","","","","","","0","1","0","","0.8626161161","0.4","0.8","0.2","0.6","0.1943723139","0.7972730751","0.2754671199","0.8626161161","","","","","","","","","","","","76","L","3","","","224","main_expt",""
"","bandit","304","904213","0.0-265.0-0.0","91600048","wem/bandit_either_3","A2R794P3E8X0MK","either","5","443","","","","","","","0","1","0","","0.9176165053","0.4","0.8","0.2","0.6","0.2949344278","0.8726314772","0.2483133052","0.9176165053","","","","","","","","","","","","76","L","3","","","225","main_expt",""
"","bandit","305","905958","0.0-266.0-0.0","91600048","wem/bandit_either_3","A2R794P3E8X0MK","either","5","230","","","","","","","0","1","0","","0.8569150835","0.4","0.8","0.2","0.6","0.4040967375","0.8569150835","0.2945032007","0.9516545376","","","","","","","","","","","","74","J","1","","","226","main_expt",""
"","bandit","306","907820","0.0-267.0-0.0","91600048","wem/bandit_either_3","A2R794P3E8X0MK","either","5","345","","","","","","","0","1","0","","0.2544933329","0.4","0.8","0.2","0.6","0.4369809926","0.8773762417","0.2544933329","0.9448551655","","","","","","","","","","","","75","K","2","","","227","main_expt",""
"","bandit","307","909742","0.0-268.0-0.0","91600048","wem/bandit_either_3","A2R794P3E8X0MK","either","5","405","","","","","","","0","0","1","","0.4228749262","0.4","0.8","0.2","0.6","0.4228749262","0.8514828757","0.22227057","0.9298030406","","","","","","","","","","","","72","H","0","img/none_selected.jpg","","228","main_expt",""
"","bandit","308","911349","0.0-269.0-0.0","91600048","wem/bandit_either_3","A2R794P3E8X0MK","either","5","90","","","","","","","1","0","0","0.4953143479","","0.4","0.8","0.2","0.6","","","","","0.4953143479","0.893786405","0.2319557967","0.9022116856","","","","","","","","72","H","0","img/none_selected.jpg","","229","main_expt",""
"","bandit","309","913883","0.0-270.0-0.0","91600048","wem/bandit_either_3","A2R794P3E8X0MK","either","5","1020","","","","","","","0","1","0","","0.4752889979","0.4","0.8","0.2","0.6","0.4752889979","0.9350514117","0.3107577299","0.8934587516","","","","","","","","","","","","72","H","0","img/none_selected.jpg","","230","main_expt",""
"","bandit","310","915764","0.0-271.0-0.0","91600048","wem/bandit_either_3","A2R794P3E8X0MK","either","5","363","","","","","","","1","0","0","0.9139197991","","0.4","0.8","0.2","0.6","","","","","0.4887049862","0.9139197991","0.3046703461","0.8403693225","","","","","","","","74","J","1","","","231","main_expt",""
"","bandit","311","917557","0.0-272.0-0.0","91600048","wem/bandit_either_3","A2R794P3E8X0MK","either","5","274","","","","","","","0","1","0","","0.8753904063","0.4","0.8","0.2","0.6","0.6065944358","0.8753904063","0.4259459217","0.7373772703","","","","","","","","","","","","74","J","1","","","232","main_expt",""
"","bandit","312","919403","0.0-273.0-0.0","91600048","wem/bandit_either_3","A2R794P3E8X0MK","either","5","331","","","","","","","1","0","0","0.807664976","","0.4","0.8","0.2","0.6","","","","","0.5320380184","0.807664976","0.3391655585","0.7275490615","","","","","","","","74","J","1","","","233","main_expt",""
"","bandit","313","921515","0.0-274.0-0.0","91600048","wem/bandit_either_3","A2R794P3E8X0MK","either","5","597","","","","","","","1","0","0","0.817303243","","0.4","0.8","0.2","0.6","","","","","0.5845689413","0.817303243","0.3380141995","0.6910989812","","","","","","","","74","J","1","","","234","main_expt",""
"","bandit","314","923595","0.0-275.0-0.0","91600048","wem/bandit_either_3","A2R794P3E8X0MK","either","5","562","","","","","","","0","0","1","0.8320050337","","0.4","0.8","0.2","0.6","","","","","0.4424117598","0.8320050337","0.2949514339","0.6506848601","","","","","","","","74","J","1","","","235","main_expt",""
"","bandit","315","925571","0.0-276.0-0.0","91600048","wem/bandit_either_3","A2R794P3E8X0MK","either","5","459","","","","","","","1","0","0","0.8539654836","","0.4","0.8","0.2","0.6","","","","","0.4411324282","0.8539654836","0.2575094814","0.589166471","","","","","","","","74","J","1","","","236","main_expt",""
"","bandit","316","927505","0.0-277.0-0.0","91600048","wem/bandit_either_3","A2R794P3E8X0MK","either","5","418","","","","","","","1","0","0","0.8151920012","","0.4","0.8","0.2","0.6","","","","","0.5792865955","0.8151920012","0.3298960346","0.5475273787","","","","","","","","74","J","1","","","237","main_expt",""
"","bandit","317","929698","0.0-278.0-0.0","91600048","wem/bandit_either_3","A2R794P3E8X0MK","either","5","680","","","","","","","1","0","0","0.8724257749","","0.4","0.8","0.2","0.6","","","","","0.6435093149","0.8724257749","0.3922637729","0.5644141111","","","","","","","","74","J","1","","","238","main_expt",""
"","bandit","318","931718","0.0-279.0-0.0","91600048","wem/bandit_either_3","A2R794P3E8X0MK","either","5","503","","","","","","","1","0","0","0.8232187668","","0.4","0.8","0.2","0.6","","","","","0.571754567","0.8232187668","0.3200188668","0.557522906","","","","","","","","74","J","1","","","239","main_expt",""
"","bandit","319","933947","0.0-280.0-0.0","91600048","wem/bandit_either_3","A2R794P3E8X0MK","either","5","713","","","","","","","1","0","0","0.8306623225","","0.4","0.8","0.2","0.6","","","","","0.6642130709","0.8306623225","0.3427015143","0.603497511","","","","","","","","74","J","1","","","240","main_expt",""
"","bandit","320","936097","0.0-281.0-0.0","91600048","wem/bandit_either_3","A2R794P3E8X0MK","either","5","633","","","","","","","1","0","0","0.7592816599","","0.4","0.8","0.2","0.6","","","","","0.702894688","0.7592816599","0.3027961335","0.5998739494","","","","","","","","74","J","1","","","241","main_expt",""
"","bandit","321","938433","0.0-282.0-0.0","91600048","wem/bandit_either_3","A2R794P3E8X0MK","either","5","818","","","","","","","1","0","0","0.8354326854","","0.4","0.8","0.2","0.6","","","","","0.6468691102","0.8354326854","0.2916945226","0.5674661637","","","","","","","","74","J","1","","","242","main_expt",""
"","bandit","322","940706","0.0-283.0-0.0","91600048","wem/bandit_either_3","A2R794P3E8X0MK","either","5","754","","","","","","","1","0","0","0.8387573723","","0.4","0.8","0.2","0.6","","","","","0.7073159297","0.8387573723","0.2703759756","0.620083209","","","","","","","","74","J","1","","","243","main_expt",""
"","bandit","323","942824","0.0-284.0-0.0","91600048","wem/bandit_either_3","A2R794P3E8X0MK","either","5","601","","","","","","","0","1","0","","0.8683205951","0.4","0.8","0.2","0.6","0.6719420595","0.8683205951","0.2055036404","0.7089992968","","","","","","","","","","","","74","J","1","","","244","main_expt",""
"","bandit","324","945147","0.0-285.0-0.0","91600048","wem/bandit_either_3","A2R794P3E8X0MK","either","5","805","","","","","","","1","0","0","0.7825192054","","0.4","0.8","0.2","0.6","","","","","0.7396289485","0.7825192054","0.2458168489","0.6816226354","","","","","","","","74","J","1","","","245","main_expt",""
"","bandit","325","947353","0.0-286.0-0.0","91600048","wem/bandit_either_3","A2R794P3E8X0MK","either","5","688","","","","","","","1","0","0","0.7198633651","","0.4","0.8","0.2","0.6","","","","","0.7441215906","0.7198633651","0.1926258913","0.7150612665","","","","","","","","74","J","1","","","246","main_expt",""
