"consent","trial_type","trial_index","time_elapsed","internal_node_id","subjID","study","MID","cond","drift","rt","responses","key_press","expt_phase","like","value","connected","gems","bombs","no_reward","GemPrChosen","BombPrChosen","GainOverPainPr_0","GainOverPainPr_1","GainOverPainPr_2","GainOverPainPr_3","LosePr_0","LosePr_1","LosePr_2","LosePr_3","WinPr_0","WinPr_1","WinPr_2","WinPr_3","Q0","Q1","Q2","gender","age","ethnicity","target","respCharCode","respKey","respChoiceNum","respChoice","practice","trial_counter","trial_label","button_pressed"
"INL_behavioral_consent_30min_online.html","consent","0","5857","0.0-0.0","92442854","wem/bandit_either_3","A3MJ47AD05HGC","either","2","","","","","","","","","","","","","","","","","","","","","","","","","","","","","","","","","","","","","","",""
"","survey-text","1","15633","0.0-1.0","92442854","wem/bandit_either_3","A3MJ47AD05HGC","either","2","8770","{""Q0"":""A3MJ47AD05HGC""}","","","","","","","","","","","","","","","","","","","","","","","","","","","","","","","","","","","","",""
"","text","2","44752","0.0-2.0","92442854","wem/bandit_either_3","A3MJ47AD05HGC","either","2","28115","","32","","","","","","","","","","","","","","","","","","","","","","","","","","","","","","","","","","","",""
"","text","3","52935","0.0-3.0","92442854","wem/bandit_either_3","A3MJ47AD05HGC","either","2","8183","","32","","","","","","","","","","","","","","","","","","","","","","","","","","","","","","","","","","","",""
"","text","4","75743","0.0-4.0","92442854","wem/bandit_either_3","A3MJ47AD05HGC","either","2","22808","","32","","","","","","","","","","","","","","","","","","","","","","","","","","","","","","","","","","","",""
"","text","5","88775","0.0-5.0","92442854","wem/bandit_either_3","A3MJ47AD05HGC","either","2","13030","","32","","","","","","","","","","","","","","","","","","","","","","","","","","","","","","","","","","","",""
"","text","6","108648","0.0-6.0","92442854","wem/bandit_either_3","A3MJ47AD05HGC","either","2","19872","","32","","","","","","","","","","","","","","","","","","","","","","","","","","","","","","","","","","","",""
"","text","7","117087","0.0-7.0","92442854","wem/bandit_either_3","A3MJ47AD05HGC","either","2","8439","","32","","","","","","","","","","","","","","","","","","","","","","","","","","","","","","","","","","","",""
"","text","8","121015","0.0-8.0","92442854","wem/bandit_either_3","A3MJ47AD05HGC","either","2","3926","","32","","","","","","","","","","","","","","","","","","","","","","","","","","","","","","","","","","","",""
"","identification","9","134224","0.0-9.0-0.0","92442854","wem/bandit_either_3","A3MJ47AD05HGC","either","2","13202","","","","0","0","0","","","","","","","","","","","","","","","","","","","","","","","","the village of Zur","","","","","","","",""
"","identification","10","141351","0.0-9.0-1.0","92442854","wem/bandit_either_3","A3MJ47AD05HGC","either","2","6120","","","","0","0","0","","","","","","","","","","","","","","","","","","","","","","","","the village of Nyx","","","","","","","",""
"","text","11","148448","0.0-10.0","92442854","wem/bandit_either_3","A3MJ47AD05HGC","either","2","6095","","32","","","","","","","","","","","","","","","","","","","","","","","","","","","","","","","","","","","",""
"","text","12","153559","0.0-11.0","92442854","wem/bandit_either_3","A3MJ47AD05HGC","either","2","5111","","32","","","","","","","","","","","","","","","","","","","","","","","","","","","","","","","","","","","",""
"","text","13","156159","0.0-12.0","92442854","wem/bandit_either_3","A3MJ47AD05HGC","either","2","2599","","32","","","","","","","","","","","","","","","","","","","","","","","","","","","","","","","","","","","",""
"","text","14","162295","0.0-13.0","92442854","wem/bandit_either_3","A3MJ47AD05HGC","either","2","6135","","32","","","","","","","","","","","","","","","","","","","","","","","","","","","","","","","","","","","",""
"","bandit","15","166407","0.0-14.0-0.0","92442854","wem/bandit_either_3","A3MJ47AD05HGC","either","2","2605","","","","","","","0","0","1","0","0","","","","","0","","","","0","","","","","","","","","","","74","J","0","img/none_selected_demo.jpg","true","0","",""
"","bandit","16","169766","0.0-15.0-0.0","92442854","wem/bandit_either_3","A3MJ47AD05HGC","either","2","1854","","","","","","","0","0","1","0","0","","","","","0","","","","0","","","","","","","","","","","75","K","0","img/none_selected_demo.jpg","true","0","",""
"","text","17","178135","0.0-16.0","92442854","wem/bandit_either_3","A3MJ47AD05HGC","either","2","8367","","32","","","","","","","","","","","","","","","","","","","","","","","","","","","","","","","","","","","",""
"","text","18","188311","0.0-17.0","92442854","wem/bandit_either_3","A3MJ47AD05HGC","either","2","10176","","32","","","","","","","","","","","","","","","","","","","","","","","","","","","","","","","","","","","",""
"","text","19","195855","0.0-18.0","92442854","wem/bandit_either_3","A3MJ47AD05HGC","either","2","7543","","32","","","","","","","","","","","","","","","","","","","","","","","","","","","","","","","","","","","",""
"","text","20","202710","0.0-19.0","92442854","wem/bandit_either_3","A3MJ47AD05HGC","either","2","6854","","32","","","","","","","","","","","","","","","","","","","","","","","","","","","","","","","","","","","",""
"","bandit","21","204676","0.0-20.0-0.0","92442854","wem/bandit_either_3","A3MJ47AD05HGC","either","2","462","","","","","","","1","0","0","0.8","","0.5","0.5","","","","","","","0.8","0.2","","","","","","","","","","74","J","0","img/none_selected_demo.jpg","true","0","80_20_practice",""
"","bandit","22","206989","0.0-20.0-1.0","92442854","wem/bandit_either_3","A3MJ47AD05HGC","either","2","808","","","","","","","0","1","0","","0.8","0.5","0.5","","","0.8","0.2","","","","","","","","","","","","","","74","J","0","img/none_selected_demo.jpg","true","0","80_20_practice",""
"","bandit","23","208844","0.0-20.0-2.0","92442854","wem/bandit_either_3","A3MJ47AD05HGC","either","2","351","","","","","","","0","1","0","","0.8","0.5","0.5","","","0.8","0.2","","","","","","","","","","","","","","74","J","0","img/none_selected_demo.jpg","true","0","80_20_practice",""
"","bandit","24","210645","0.0-20.0-3.0","92442854","wem/bandit_either_3","A3MJ47AD05HGC","either","2","296","","","","","","","0","0","1","0.8","","0.5","0.5","","","","","","","0.8","0.2","","","","","","","","","","74","J","0","img/none_selected_demo.jpg","true","0","80_20_practice",""
"","bandit","25","212436","0.0-20.0-4.0","92442854","wem/bandit_either_3","A3MJ47AD05HGC","either","2","287","","","","","","","0","0","1","","0.8","0.5","0.5","","","0.8","0.2","","","","","","","","","","","","","","74","J","0","img/none_selected_demo.jpg","true","0","80_20_practice",""
"","bandit","26","214158","0.0-20.0-5.0","92442854","wem/bandit_either_3","A3MJ47AD05HGC","either","2","217","","","","","","","0","1","0","","0.8","0.5","0.5","","","0.8","0.2","","","","","","","","","","","","","","74","J","0","img/none_selected_demo.jpg","true","0","80_20_practice",""
"","bandit","27","216310","0.0-20.0-6.0","92442854","wem/bandit_either_3","A3MJ47AD05HGC","either","2","647","","","","","","","1","0","0","0.8","","0.5","0.5","","","","","","","0.8","0.2","","","","","","","","","","74","J","0","img/none_selected_demo.jpg","true","0","80_20_practice",""
"","bandit","28","217957","0.0-20.0-7.0","92442854","wem/bandit_either_3","A3MJ47AD05HGC","either","2","142","","","","","","","0","0","1","0.8","","0.5","0.5","","","","","","","0.8","0.2","","","","","","","","","","74","J","0","img/none_selected_demo.jpg","true","0","80_20_practice",""
"","bandit","29","219605","0.0-20.0-8.0","92442854","wem/bandit_either_3","A3MJ47AD05HGC","either","2","144","","","","","","","0","0","1","","0.8","0.5","0.5","","","0.8","0.2","","","","","","","","","","","","","","74","J","0","img/none_selected_demo.jpg","true","0","80_20_practice",""
"","bandit","30","221197","0.0-20.0-9.0","92442854","wem/bandit_either_3","A3MJ47AD05HGC","either","2","88","","","","","","","1","0","0","0.8","","0.5","0.5","","","","","","","0.8","0.2","","","","","","","","","","74","J","0","img/none_selected_demo.jpg","true","0","80_20_practice",""
"","bandit","31","223100","0.0-20.0-10.0","92442854","wem/bandit_either_3","A3MJ47AD05HGC","either","2","399","","","","","","","1","0","0","0.8","","0.5","0.5","","","","","","","0.8","0.2","","","","","","","","","","74","J","0","img/none_selected_demo.jpg","true","0","80_20_practice",""
"","bandit","32","224733","0.0-20.0-11.0","92442854","wem/bandit_either_3","A3MJ47AD05HGC","either","2","129","","","","","","","0","1","0","","0.2","0.5","0.5","","","0.8","0.2","","","","","","","","","","","","","","75","K","1","","true","0","80_20_practice",""
"","bandit","33","226309","0.0-20.0-12.0","92442854","wem/bandit_either_3","A3MJ47AD05HGC","either","2","71","","","","","","","0","0","1","","0.2","0.5","0.5","","","0.8","0.2","","","","","","","","","","","","","","75","K","1","","true","0","80_20_practice",""
"","bandit","34","227820","0.0-20.0-13.0","92442854","wem/bandit_either_3","A3MJ47AD05HGC","either","2","7","","","","","","","1","0","0","0.2","","0.5","0.5","","","","","","","0.8","0.2","","","","","","","","","","75","K","1","","true","0","80_20_practice",""
"","bandit","35","229452","0.0-20.0-14.0","92442854","wem/bandit_either_3","A3MJ47AD05HGC","either","2","128","","","","","","","0","0","1","","0.2","0.5","0.5","","","0.8","0.2","","","","","","","","","","","","","","75","K","1","","true","0","80_20_practice",""
"","bandit","36","231029","0.0-20.0-15.0","92442854","wem/bandit_either_3","A3MJ47AD05HGC","either","2","73","","","","","","","0","0","1","","0.2","0.5","0.5","","","0.8","0.2","","","","","","","","","","","","","","75","K","1","","true","0","80_20_practice",""
"","bandit","37","232925","0.0-20.0-16.0","92442854","wem/bandit_either_3","A3MJ47AD05HGC","either","2","391","","","","","","","0","0","1","","0.2","0.5","0.5","","","0.8","0.2","","","","","","","","","","","","","","75","K","1","","true","0","80_20_practice",""
"","bandit","38","234429","0.0-20.0-17.0","92442854","wem/bandit_either_3","A3MJ47AD05HGC","either","2","1","","","","","","","0","0","1","","0.2","0.5","0.5","","","0.8","0.2","","","","","","","","","","","","","","75","K","1","","true","0","80_20_practice",""
"","bandit","39","236262","0.0-20.0-18.0","92442854","wem/bandit_either_3","A3MJ47AD05HGC","either","2","327","","","","","","","0","0","1","0.2","","0.5","0.5","","","","","","","0.8","0.2","","","","","","","","","","75","K","1","","true","0","80_20_practice",""
"","bandit","40","237772","0.0-20.0-19.0","92442854","wem/bandit_either_3","A3MJ47AD05HGC","either","2","6","","","","","","","0","0","1","0.2","","0.5","0.5","","","","","","","0.8","0.2","","","","","","","","","","75","K","1","","true","0","80_20_practice",""
"","text","41","240918","0.0-21.0","92442854","wem/bandit_either_3","A3MJ47AD05HGC","either","2","3145","","32","","","","","","","","","","","","","","","","","","","","","","","","","","","","","","","","","","","",""
"","bandit","42","243693","0.0-22.0-0.0","92442854","wem/bandit_either_3","A3MJ47AD05HGC","either","2","1269","","","","","","","1","0","0","1","0","","","","","0","1","","","1","0","","","","","","","","","","74","J","0","img/none_selected_demo.jpg","true","0","",""
"","text","43","251662","0.0-23.0","92442854","wem/bandit_either_3","A3MJ47AD05HGC","either","2","7967","","32","","","","","","","","","","","","","","","","","","","","","","","","","","","","","","","","","","","",""
"","text","44","253950","0.0-24.0","92442854","wem/bandit_either_3","A3MJ47AD05HGC","either","2","2288","","32","","","","","","","","","","","","","","","","","","","","","","","","","","","","","","","","","","","",""
"","text","45","256534","0.0-25.0","92442854","wem/bandit_either_3","A3MJ47AD05HGC","either","2","2582","","32","","","","","","","","","","","","","","","","","","","","","","","","","","","","","","","","","","","",""
"","text","46","259918","0.0-26.0","92442854","wem/bandit_either_3","A3MJ47AD05HGC","either","2","3384","","32","","","","","","","","","","","","","","","","","","","","","","","","","","","","","","","","","","","",""
"","text","47","272007","0.0-27.0","92442854","wem/bandit_either_3","A3MJ47AD05HGC","either","2","12087","","32","","","","","","","","","","","","","","","","","","","","","","","","","","","","","","","","","","","",""
"","text","48","279623","0.0-28.0","92442854","wem/bandit_either_3","A3MJ47AD05HGC","either","2","7615","","32","","","","","","","","","","","","","","","","","","","","","","","","","","","","","","","","","","","",""
"","text","49","290575","0.0-29.0","92442854","wem/bandit_either_3","A3MJ47AD05HGC","either","2","10950","","32","","","","","","","","","","","","","","","","","","","","","","","","","","","","","","","","","","","",""
"","text","50","293302","0.0-30.0","92442854","wem/bandit_either_3","A3MJ47AD05HGC","either","2","2727","","32","","","","","","","","","","","","","","","","","","","","","","","","","","","","","","","","","","","",""
"","text","51","298191","0.0-31.0","92442854","wem/bandit_either_3","A3MJ47AD05HGC","either","2","4887","","32","","","","","","","","","","","","","","","","","","","","","","","","","","","","","","","","","","","",""
"","text","52","300511","0.0-32.0","92442854","wem/bandit_either_3","A3MJ47AD05HGC","either","2","2318","","32","","","","","","","","","","","","","","","","","","","","","","","","","","","","","","","","","","","",""
"","text","53","303510","0.0-33.0","92442854","wem/bandit_either_3","A3MJ47AD05HGC","either","2","2999","","32","","","","","","","","","","","","","","","","","","","","","","","","","","","","","","","","","","","",""
"","bandit","54","305605","0.0-34.0-0.0","92442854","wem/bandit_either_3","A3MJ47AD05HGC","either","2","591","","","","","","","0","1","0","","0.8","0.5","0.5","0.5","0.5","0.8","0.2","0.6","0.2","","","","","","","","","","","","72","H","0","img/none_selected.jpg","true","0","full_practice",""
"","bandit","55","307341","0.0-34.0-1.0","92442854","wem/bandit_either_3","A3MJ47AD05HGC","either","2","231","","","","","","","0","1","0","","0.8","0.5","0.5","0.5","0.5","0.8","0.2","0.6","0.2","","","","","","","","","","","","72","H","0","img/none_selected.jpg","true","0","full_practice",""
"","bandit","56","309056","0.0-34.0-2.0","92442854","wem/bandit_either_3","A3MJ47AD05HGC","either","2","207","","","","","","","0","0","1","0.8","","0.5","0.5","0.5","0.5","","","","","0.8","0.2","0.6","0.2","","","","","","","","72","H","0","img/none_selected.jpg","true","0","full_practice",""
"","bandit","57","310951","0.0-34.0-3.0","92442854","wem/bandit_either_3","A3MJ47AD05HGC","either","2","390","","","","","","","0","0","1","0.2","","0.5","0.5","0.5","0.5","","","","","0.8","0.2","0.6","0.2","","","","","","","","74","J","1","","true","0","full_practice",""
"","bandit","58","312706","0.0-34.0-4.0","92442854","wem/bandit_either_3","A3MJ47AD05HGC","either","2","249","","","","","","","0","0","1","","0.6","0.5","0.5","0.5","0.5","0.8","0.2","0.6","0.2","","","","","","","","","","","","75","K","2","","true","0","full_practice",""
"","bandit","59","314557","0.0-34.0-5.0","92442854","wem/bandit_either_3","A3MJ47AD05HGC","either","2","346","","","","","","","0","0","1","0.2","","0.5","0.5","0.5","0.5","","","","","0.8","0.2","0.6","0.2","","","","","","","","76","L","3","","true","0","full_practice",""
"","bandit","60","316190","0.0-34.0-6.0","92442854","wem/bandit_either_3","A3MJ47AD05HGC","either","2","127","","","","","","","0","0","1","0.8","","0.5","0.5","0.5","0.5","","","","","0.8","0.2","0.6","0.2","","","","","","","","72","H","0","img/none_selected.jpg","true","0","full_practice",""
"","bandit","61","317709","0.0-34.0-7.0","92442854","wem/bandit_either_3","A3MJ47AD05HGC","either","2","14","","","","","","","0","0","1","0.2","","0.5","0.5","0.5","0.5","","","","","0.8","0.2","0.6","0.2","","","","","","","","74","J","1","","true","0","full_practice",""
"","bandit","62","319436","0.0-34.0-8.0","92442854","wem/bandit_either_3","A3MJ47AD05HGC","either","2","223","","","","","","","0","0","1","0.2","","0.5","0.5","0.5","0.5","","","","","0.8","0.2","0.6","0.2","","","","","","","","74","J","1","","true","0","full_practice",""
"","bandit","63","321117","0.0-34.0-9.0","92442854","wem/bandit_either_3","A3MJ47AD05HGC","either","2","176","","","","","","","0","1","0","","0.6","0.5","0.5","0.5","0.5","0.8","0.2","0.6","0.2","","","","","","","","","","","","75","K","2","","true","0","full_practice",""
"","bandit","64","322774","0.0-34.0-10.0","92442854","wem/bandit_either_3","A3MJ47AD05HGC","either","2","153","","","","","","","0","0","1","","0.6","0.5","0.5","0.5","0.5","0.8","0.2","0.6","0.2","","","","","","","","","","","","75","K","2","","true","0","full_practice",""
"","bandit","65","324597","0.0-34.0-11.0","92442854","wem/bandit_either_3","A3MJ47AD05HGC","either","2","318","","","","","","","0","1","0","","0.8","0.5","0.5","0.5","0.5","0.8","0.2","0.6","0.2","","","","","","","","","","","","72","H","0","img/none_selected.jpg","true","0","full_practice",""
"","bandit","66","326302","0.0-34.0-12.0","92442854","wem/bandit_either_3","A3MJ47AD05HGC","either","2","199","","","","","","","0","1","0","","0.8","0.5","0.5","0.5","0.5","0.8","0.2","0.6","0.2","","","","","","","","","","","","72","H","0","img/none_selected.jpg","true","0","full_practice",""
"","bandit","67","328069","0.0-34.0-13.0","92442854","wem/bandit_either_3","A3MJ47AD05HGC","either","2","263","","","","","","","0","1","0","","0.8","0.5","0.5","0.5","0.5","0.8","0.2","0.6","0.2","","","","","","","","","","","","72","H","0","img/none_selected.jpg","true","0","full_practice",""
"","bandit","68","329798","0.0-34.0-14.0","92442854","wem/bandit_either_3","A3MJ47AD05HGC","either","2","223","","","","","","","0","1","0","","0.8","0.5","0.5","0.5","0.5","0.8","0.2","0.6","0.2","","","","","","","","","","","","72","H","0","img/none_selected.jpg","true","0","full_practice",""
"","bandit","69","331423","0.0-34.0-15.0","92442854","wem/bandit_either_3","A3MJ47AD05HGC","either","2","119","","","","","","","1","0","0","0.8","","0.5","0.5","0.5","0.5","","","","","0.8","0.2","0.6","0.2","","","","","","","","72","H","0","img/none_selected.jpg","true","0","full_practice",""
"","bandit","70","332974","0.0-34.0-16.0","92442854","wem/bandit_either_3","A3MJ47AD05HGC","either","2","45","","","","","","","0","0","1","","0.8","0.5","0.5","0.5","0.5","0.8","0.2","0.6","0.2","","","","","","","","","","","","72","H","0","img/none_selected.jpg","true","0","full_practice",""
"","bandit","71","334588","0.0-34.0-17.0","92442854","wem/bandit_either_3","A3MJ47AD05HGC","either","2","111","","","","","","","1","0","0","0.8","","0.5","0.5","0.5","0.5","","","","","0.8","0.2","0.6","0.2","","","","","","","","72","H","0","img/none_selected.jpg","true","0","full_practice",""
"","bandit","72","336149","0.0-34.0-18.0","92442854","wem/bandit_either_3","A3MJ47AD05HGC","either","2","57","","","","","","","1","0","0","0.8","","0.5","0.5","0.5","0.5","","","","","0.8","0.2","0.6","0.2","","","","","","","","72","H","0","img/none_selected.jpg","true","0","full_practice",""
"","bandit","73","337710","0.0-34.0-19.0","92442854","wem/bandit_either_3","A3MJ47AD05HGC","either","2","56","","","","","","","0","1","0","","0.8","0.5","0.5","0.5","0.5","0.8","0.2","0.6","0.2","","","","","","","","","","","","72","H","0","img/none_selected.jpg","true","0","full_practice",""
"","text","74","339798","0.0-35.0","92442854","wem/bandit_either_3","A3MJ47AD05HGC","either","2","2086","","32","","","","","","","","","","","","","","","","","","","","","","","","","","","","","","","","","","","",""
"","text","75","355687","0.0-36.0","92442854","wem/bandit_either_3","A3MJ47AD05HGC","either","2","14886","","32","","","","","","","","","","","","","","","","","","","","","","","","","","","","","","","","","","","",""
"","text","76","367015","0.0-37.0","92442854","wem/bandit_either_3","A3MJ47AD05HGC","either","2","11326","","32","","","","","","","","","","","","","","","","","","","","","","","","","","","","","","","","","","","",""
"","text","77","372246","0.0-38.0","92442854","wem/bandit_either_3","A3MJ47AD05HGC","either","2","5230","","32","","","","","","","","","","","","","","","","","","","","","","","","","","","","","","","","","","","",""
"","text","78","379647","0.0-39.0","92442854","wem/bandit_either_3","A3MJ47AD05HGC","either","2","7399","","32","","","","","","","","","","","","","","","","","","","","","","","","","","","","","","","","","","","",""
"","text","79","430591","0.0-40.0","92442854","wem/bandit_either_3","A3MJ47AD05HGC","either","2","50942","","32","","","","","","","","","","","","","","","","","","","","","","","","","","","","","","","","","","","",""
"","bandit","80","433590","0.0-41.0-0.0","92442854","wem/bandit_either_3","A3MJ47AD05HGC","either","2","1493","","","","","","","0","1","0","","0.7961415707","0.2","0.8","0.6","0.4","0.4841938304","0.9925337928","0.7092854079","0.7961415707","","","","","","","","","","","","76","L","3","","","1","main_expt",""
"","bandit","81","435246","0.0-42.0-0.0","92442854","wem/bandit_either_3","A3MJ47AD05HGC","either","2","152","","","","","","","0","1","0","","0.7739630809","0.2","0.8","0.6","0.4","0.5300888233","0.9909612399","0.7343230146","0.7739630809","","","","","","","","","","","","76","L","3","","","2","main_expt",""
"","bandit","82","436829","0.0-43.0-0.0","92442854","wem/bandit_either_3","A3MJ47AD05HGC","either","2","79","","","","","","","0","0","1","","0.807852523","0.2","0.8","0.6","0.4","0.4747636274","0.9875934203","0.7616266478","0.807852523","","","","","","","","","","","","76","L","3","","","3","main_expt",""
"","bandit","83","438454","0.0-44.0-0.0","92442854","wem/bandit_either_3","A3MJ47AD05HGC","either","2","120","","","","","","","0","1","0","","0.7922386472","0.2","0.8","0.6","0.4","0.4841015375","0.9782241123","0.7555889459","0.7922386472","","","","","","","","","","","","76","L","3","","","4","main_expt",""
"","bandit","84","440166","0.0-45.0-0.0","92442854","wem/bandit_either_3","A3MJ47AD05HGC","either","2","206","","","","","","","0","0","1","","0.865094385","0.2","0.8","0.6","0.4","0.5545204825","0.9756627961","0.733520678","0.865094385","","","","","","","","","","","","76","L","3","","","5","main_expt",""
"","bandit","85","441805","0.0-46.0-0.0","92442854","wem/bandit_either_3","A3MJ47AD05HGC","either","2","134","","","","","","","1","0","0","0.800956518","","0.2","0.8","0.6","0.4","","","","","0.6032406034","0.967089612","0.6705264102","0.800956518","","","","","","","","76","L","3","","","6","main_expt",""
"","bandit","86","443517","0.0-47.0-0.0","92442854","wem/bandit_either_3","A3MJ47AD05HGC","either","2","206","","","","","","","0","1","0","","0.826484282","0.2","0.8","0.6","0.4","0.6629125932","0.9581374084","0.6395389268","0.826484282","","","","","","","","","","","","76","L","3","","","7","main_expt",""
"","bandit","87","445061","0.0-48.0-0.0","92442854","wem/bandit_either_3","A3MJ47AD05HGC","either","2","39","","","","","","","1","0","0","0.8721258401","","0.2","0.8","0.6","0.4","","","","","0.6179372523","0.9470057872","0.6463283336","0.8721258401","","","","","","","","76","L","3","","","8","main_expt",""
"","bandit","88","446718","0.0-49.0-0.0","92442854","wem/bandit_either_3","A3MJ47AD05HGC","either","2","151","","","","","","","0","1","0","","0.9123847657","0.2","0.8","0.6","0.4","0.7126464358","0.9776699295","0.5257156782","0.9123847657","","","","","","","","","","","","76","L","3","","","9","main_expt",""
"","bandit","89","448484","0.0-50.0-0.0","92442854","wem/bandit_either_3","A3MJ47AD05HGC","either","2","263","","","","","","","1","0","0","0.8996742502","","0.2","0.8","0.6","0.4","","","","","0.7356985298","0.9728878591","0.4763364632","0.8996742502","","","","","","","","76","L","3","","","10","main_expt",""
"","bandit","90","450221","0.0-51.0-0.0","92442854","wem/bandit_either_3","A3MJ47AD05HGC","either","2","232","","","","","","","0","1","0","","0.9131723876","0.2","0.8","0.6","0.4","0.768711937","0.9593139104","0.4284616273","0.9131723876","","","","","","","","","","","","76","L","3","","","11","main_expt",""
"","bandit","91","451973","0.0-52.0-0.0","92442854","wem/bandit_either_3","A3MJ47AD05HGC","either","2","246","","","","","","","0","1","0","","0.8766857583","0.2","0.8","0.6","0.4","0.775032537","0.9498917819","0.3846657661","0.8766857583","","","","","","","","","","","","76","L","3","","","12","main_expt",""
"","bandit","92","453702","0.0-53.0-0.0","92442854","wem/bandit_either_3","A3MJ47AD05HGC","either","2","224","","","","","","","0","1","0","","0.8395211377","0.2","0.8","0.6","0.4","0.8005481332","0.9541602679","0.4534267517","0.8395211377","","","","","","","","","","","","76","L","3","","","13","main_expt",""
"","bandit","93","455444","0.0-54.0-0.0","92442854","wem/bandit_either_3","A3MJ47AD05HGC","either","2","238","","","","","","","1","0","0","0.8716273459","","0.2","0.8","0.6","0.4","","","","","0.8437703121","0.9457654821","0.5781166702","0.8716273459","","","","","","","","76","L","3","","","14","main_expt",""
"","bandit","94","457190","0.0-55.0-0.0","92442854","wem/bandit_either_3","A3MJ47AD05HGC","either","2","240","","","","","","","0","1","0","","0.8884181174","0.2","0.8","0.6","0.4","0.7878475566","0.961431504","0.6683268695","0.8884181174","","","","","","","","","","","","76","L","3","","","15","main_expt",""
"","bandit","95","458909","0.0-56.0-0.0","92442854","wem/bandit_either_3","A3MJ47AD05HGC","either","2","215","","","","","","","1","0","0","0.9144873871","","0.2","0.8","0.6","0.4","","","","","0.7873795395","0.9614480804","0.6948649322","0.9144873871","","","","","","","","76","L","3","","","16","main_expt",""
"","bandit","96","460702","0.0-57.0-0.0","92442854","wem/bandit_either_3","A3MJ47AD05HGC","either","2","288","","","","","","","1","0","0","0.915766025","","0.2","0.8","0.6","0.4","","","","","0.8084550093","0.981184269","0.7674725463","0.915766025","","","","","","","","76","L","3","","","17","main_expt",""
"","bandit","97","462438","0.0-58.0-0.0","92442854","wem/bandit_either_3","A3MJ47AD05HGC","either","2","231","","","","","","","1","0","0","0.9357816117","","0.2","0.8","0.6","0.4","","","","","0.8436933745","0.9861919244","0.7706733977","0.9357816117","","","","","","","","76","L","3","","","18","main_expt",""
"","bandit","98","464278","0.0-59.0-0.0","92442854","wem/bandit_either_3","A3MJ47AD05HGC","either","2","333","","","","","","","0","1","0","","0.9482019282","0.2","0.8","0.6","0.4","0.8059530903","0.986789567","0.7396491891","0.9482019282","","","","","","","","","","","","76","L","3","","","19","main_expt",""
"","bandit","99","466070","0.0-60.0-0.0","92442854","wem/bandit_either_3","A3MJ47AD05HGC","either","2","284","","","","","","","0","1","0","","0.9433726768","0.2","0.8","0.6","0.4","0.7839513496","0.986183881","0.6712916173","0.9433726768","","","","","","","","","","","","76","L","3","","","20","main_expt",""
"","bandit","100","467838","0.0-61.0-0.0","92442854","wem/bandit_either_3","A3MJ47AD05HGC","either","2","259","","","","","","","1","0","0","0.9488284628","","0.2","0.8","0.6","0.4","","","","","0.7841815244","0.9887099493","0.6728887443","0.9488284628","","","","","","","","76","L","3","","","21","main_expt",""
"","bandit","101","469606","0.0-62.0-0.0","92442854","wem/bandit_either_3","A3MJ47AD05HGC","either","2","262","","","","","","","1","0","0","0.9500515088","","0.2","0.8","0.6","0.4","","","","","0.8256278583","0.992558567","0.7838502077","0.9500515088","","","","","","","","76","L","3","","","22","main_expt",""
"","bandit","102","471357","0.0-63.0-0.0","92442854","wem/bandit_either_3","A3MJ47AD05HGC","either","2","247","","","","","","","0","1","0","","0.9645760881","0.2","0.8","0.6","0.4","0.7043778873","0.9906074595","0.8711917965","0.9645760881","","","","","","","","","","","","76","L","3","","","23","main_expt",""
"","bandit","103","473174","0.0-64.0-0.0","92442854","wem/bandit_either_3","A3MJ47AD05HGC","either","2","311","","","","","","","0","1","0","","0.946785539","0.2","0.8","0.6","0.4","0.7662705475","0.9828703082","0.861124964","0.946785539","","","","","","","","","","","","76","L","3","","","24","main_expt",""
"","bandit","104","474950","0.0-65.0-0.0","92442854","wem/bandit_either_3","A3MJ47AD05HGC","either","2","271","","","","","","","0","1","0","","0.9229473608","0.2","0.8","0.6","0.4","0.6915147264","0.984618899","0.8551403996","0.9229473608","","","","","","","","","","","","76","L","3","","","25","main_expt",""
"","bandit","105","476837","0.0-66.0-0.0","92442854","wem/bandit_either_3","A3MJ47AD05HGC","either","2","382","","","","","","","0","1","0","","0.8729820127","0.2","0.8","0.6","0.4","0.6844606422","0.9780938917","0.8959771014","0.8729820127","","","","","","","","","","","","76","L","3","","","26","main_expt",""
"","bandit","106","478622","0.0-67.0-0.0","92442854","wem/bandit_either_3","A3MJ47AD05HGC","either","2","278","","","","","","","0","1","0","","0.859067388","0.2","0.8","0.6","0.4","0.7953701942","0.9634866904","0.8786292531","0.859067388","","","","","","","","","","","","76","L","3","","","27","main_expt",""
"","bandit","107","480453","0.0-68.0-0.0","92442854","wem/bandit_either_3","A3MJ47AD05HGC","either","2","326","","","","","","","0","1","0","","0.836267867","0.2","0.8","0.6","0.4","0.622657036","0.946494378","0.8920593834","0.836267867","","","","","","","","","","","","76","L","3","","","28","main_expt",""
"","bandit","108","482324","0.0-69.0-0.0","92442854","wem/bandit_either_3","A3MJ47AD05HGC","either","2","367","","","","","","","0","1","0","","0.7158546556","0.2","0.8","0.6","0.4","0.5757463716","0.9338647731","0.8234517222","0.7158546556","","","","","","","","","","","","76","L","3","","","29","main_expt",""
"","bandit","109","484076","0.0-70.0-0.0","92442854","wem/bandit_either_3","A3MJ47AD05HGC","either","2","248","","","","","","","1","0","0","0.7262950886","","0.2","0.8","0.6","0.4","","","","","0.6048158844","0.9354801528","0.7963444676","0.7262950886","","","","","","","","76","L","3","","","30","main_expt",""
"","bandit","110","485871","0.0-71.0-0.0","92442854","wem/bandit_either_3","A3MJ47AD05HGC","either","2","289","","","","","","","0","0","1","","0.7049485024","0.2","0.8","0.6","0.4","0.4831208743","0.9323861487","0.6847131082","0.7049485024","","","","","","","","","","","","76","L","3","","","31","main_expt",""
"","bandit","111","487725","0.0-72.0-0.0","92442854","wem/bandit_either_3","A3MJ47AD05HGC","either","2","348","","","","","","","0","0","1","0.6294605358","","0.2","0.8","0.6","0.4","","","","","0.4413454117","0.9159531952","0.7745616343","0.6294605358","","","","","","","","76","L","3","","","32","main_expt",""
"","bandit","112","489764","0.0-73.0-0.0","92442854","wem/bandit_either_3","A3MJ47AD05HGC","either","2","536","","","","","","","0","1","0","","0.9501333659","0.2","0.8","0.6","0.4","0.589686364","0.9501333659","0.8111568365","0.7097184707","","","","","","","","","","","","74","J","1","","","33","main_expt",""
"","bandit","113","491508","0.0-74.0-0.0","92442854","wem/bandit_either_3","A3MJ47AD05HGC","either","2","240","","","","","","","1","0","0","0.9485118263","","0.2","0.8","0.6","0.4","","","","","0.5789977489","0.9485118263","0.7291364049","0.6324728327","","","","","","","","74","J","1","","","34","main_expt",""
"","bandit","114","493357","0.0-75.0-0.0","92442854","wem/bandit_either_3","A3MJ47AD05HGC","either","2","343","","","","","","","1","0","0","0.959491173","","0.2","0.8","0.6","0.4","","","","","0.5605822786","0.959491173","0.7920219322","0.6809104991","","","","","","","","74","J","1","","","35","main_expt",""
"","bandit","115","495198","0.0-76.0-0.0","92442854","wem/bandit_either_3","A3MJ47AD05HGC","either","2","334","","","","","","","1","0","0","0.9523687656","","0.2","0.8","0.6","0.4","","","","","0.3330948712","0.9523687656","0.7889809596","0.5745256001","","","","","","","","74","J","1","","","36","main_expt",""
"","bandit","116","497132","0.0-77.0-0.0","92442854","wem/bandit_either_3","A3MJ47AD05HGC","either","2","430","","","","","","","0","0","1","","0.9504344127","0.2","0.8","0.6","0.4","0.2430176499","0.9504344127","0.8060385269","0.6249275122","","","","","","","","","","","","74","J","1","","","37","main_expt",""
"","bandit","117","498887","0.0-78.0-0.0","92442854","wem/bandit_either_3","A3MJ47AD05HGC","either","2","248","","","","","","","1","0","0","0.9321408283","","0.2","0.8","0.6","0.4","","","","","0.3106083343","0.9321408283","0.7188782676","0.5582777804","","","","","","","","74","J","1","","","38","main_expt",""
"","bandit","118","500597","0.0-79.0-0.0","92442854","wem/bandit_either_3","A3MJ47AD05HGC","either","2","204","","","","","","","0","1","0","","0.9135525369","0.2","0.8","0.6","0.4","0.3239447463","0.9135525369","0.7387945131","0.6619895395","","","","","","","","","","","","74","J","1","","","39","main_expt",""
"","bandit","119","502333","0.0-80.0-0.0","92442854","wem/bandit_either_3","A3MJ47AD05HGC","either","2","231","","","","","","","1","0","0","0.8840916364","","0.2","0.8","0.6","0.4","","","","","0.2946631509","0.8840916364","0.7478035428","0.6522152691","","","","","","","","74","J","1","","","40","main_expt",""
"","bandit","120","504150","0.0-81.0-0.0","92442854","wem/bandit_either_3","A3MJ47AD05HGC","either","2","311","","","","","","","1","0","0","0.8747037504","","0.2","0.8","0.6","0.4","","","","","0.193597671","0.8747037504","0.7802386085","0.6714070371","","","","","","","","74","J","1","","","41","main_expt",""
"","bandit","121","505951","0.0-82.0-0.0","92442854","wem/bandit_either_3","A3MJ47AD05HGC","either","2","294","","","","","","","1","0","0","0.826315498","","0.2","0.8","0.6","0.4","","","","","0.1834529884","0.826315498","0.7994277013","0.6390104416","","","","","","","","74","J","1","","","42","main_expt",""
"","bandit","122","507621","0.0-83.0-0.0","92442854","wem/bandit_either_3","A3MJ47AD05HGC","either","2","165","","","","","","","1","0","0","0.7681371561","","0.2","0.8","0.6","0.4","","","","","0.1558663495","0.7681371561","0.8718069658","0.6318841448","","","","","","","","74","J","1","","","43","main_expt",""
"","bandit","123","509228","0.0-84.0-0.0","92442854","wem/bandit_either_3","A3MJ47AD05HGC","either","2","103","","","","","","","0","0","1","0.7584360225","","0.2","0.8","0.6","0.4","","","","","0.1573065196","0.7584360225","0.7725207311","0.5708139437","","","","","","","","74","J","1","","","44","main_expt",""
"","bandit","124","510910","0.0-85.0-0.0","92442854","wem/bandit_either_3","A3MJ47AD05HGC","either","2","176","","","","","","","0","1","0","","0.816959585","0.2","0.8","0.6","0.4","0.1743203636","0.816959585","0.8399140445","0.5703812278","","","","","","","","","","","","74","J","1","","","45","main_expt",""
"","bandit","125","512644","0.0-86.0-0.0","92442854","wem/bandit_either_3","A3MJ47AD05HGC","either","2","229","","","","","","","1","0","0","0.7571269921","","0.2","0.8","0.6","0.4","","","","","0.1234040722","0.7571269921","0.7830678696","0.4520700595","","","","","","","","74","J","1","","","46","main_expt",""
"","bandit","126","514398","0.0-87.0-0.0","92442854","wem/bandit_either_3","A3MJ47AD05HGC","either","2","247","","","","","","","1","0","0","0.7086567283","","0.2","0.8","0.6","0.4","","","","","0.1592846429","0.7086567283","0.8255209912","0.4953600952","","","","","","","","74","J","1","","","47","main_expt",""
"","bandit","127","516180","0.0-88.0-0.0","92442854","wem/bandit_either_3","A3MJ47AD05HGC","either","2","278","","","","","","","1","0","0","0.6428227569","","0.2","0.8","0.6","0.4","","","","","0.1880090658","0.6428227569","0.7728754614","0.4912921637","","","","","","","","74","J","1","","","48","main_expt",""
"","bandit","128","517981","0.0-89.0-0.0","92442854","wem/bandit_either_3","A3MJ47AD05HGC","either","2","296","","","","","","","1","0","0","0.7004196772","","0.2","0.8","0.6","0.4","","","","","0.3190576765","0.7004196772","0.8607162984","0.4694413912","","","","","","","","74","J","1","","","49","main_expt",""
"","bandit","129","519685","0.0-90.0-0.0","92442854","wem/bandit_either_3","A3MJ47AD05HGC","either","2","198","","","","","","","1","0","0","0.6418514465","","0.2","0.8","0.6","0.4","","","","","0.277770718","0.6418514465","0.8526113732","0.5835687148","","","","","","","","74","J","1","","","50","main_expt",""
"","bandit","130","521388","0.0-91.0-0.0","92442854","wem/bandit_either_3","A3MJ47AD05HGC","either","2","198","","","","","","","0","0","1","","0.6322169777","0.2","0.8","0.6","0.4","0.3304163056","0.6322169777","0.8630835666","0.581499138","","","","","","","","","","","","74","J","1","","","51","main_expt",""
"","bandit","131","523148","0.0-92.0-0.0","92442854","wem/bandit_either_3","A3MJ47AD05HGC","either","2","255","","","","","","","1","0","0","0.6160259873","","0.2","0.8","0.6","0.4","","","","","0.3074301744","0.6160259873","0.8689990829","0.6521379128","","","","","","","","74","J","1","","","52","main_expt",""
"","bandit","132","524941","0.0-93.0-0.0","92442854","wem/bandit_either_3","A3MJ47AD05HGC","either","2","287","","","","","","","1","0","0","0.6635838846","","0.2","0.8","0.6","0.4","","","","","0.3292402402","0.6635838846","0.8829627288","0.5743957808","","","","","","","","74","J","1","","","53","main_expt",""
"","bandit","133","526596","0.0-94.0-0.0","92442854","wem/bandit_either_3","A3MJ47AD05HGC","either","2","151","","","","","","","0","1","0","","0.7334380463","0.2","0.8","0.6","0.4","0.3701383524","0.7334380463","0.8577096669","0.4765250731","","","","","","","","","","","","74","J","1","","","54","main_expt",""
"","bandit","134","528133","0.0-95.0-0.0","92442854","wem/bandit_either_3","A3MJ47AD05HGC","either","2","32","","","","","","","0","1","0","","0.6625049704","0.2","0.8","0.6","0.4","0.4023440482","0.6625049704","0.7951355038","0.472038817","","","","","","","","","","","","74","J","1","","","55","main_expt",""
"","bandit","135","530165","0.0-96.0-0.0","92442854","wem/bandit_either_3","A3MJ47AD05HGC","either","2","526","","","","","","","0","0","1","0.6244126183","","0.2","0.8","0.6","0.4","","","","","0.3320470731","0.6244126183","0.7832403428","0.6060805283","","","","","","","","74","J","1","","","56","main_expt",""
"","bandit","136","531901","0.0-97.0-0.0","92442854","wem/bandit_either_3","A3MJ47AD05HGC","either","2","230","","","","","","","0","1","0","","0.693445159","0.2","0.8","0.6","0.4","0.3398704556","0.693445159","0.7165346004","0.5733746242","","","","","","","","","","","","74","J","1","","","57","main_expt",""
"","bandit","137","533613","0.0-98.0-0.0","92442854","wem/bandit_either_3","A3MJ47AD05HGC","either","2","207","","","","","","","1","0","0","0.6603141298","","0.2","0.8","0.6","0.4","","","","","0.3171476707","0.6603141298","0.7840704931","0.5268086549","","","","","","","","74","J","1","","","58","main_expt",""
"","bandit","138","535398","0.0-99.0-0.0","92442854","wem/bandit_either_3","A3MJ47AD05HGC","either","2","279","","","","","","","1","0","0","0.6435133917","","0.2","0.8","0.6","0.4","","","","","0.1868584885","0.6435133917","0.7166558068","0.5298916697","","","","","","","","74","J","1","","","59","main_expt",""
"","bandit","139","537165","0.0-100.0-0.0","92442854","wem/bandit_either_3","A3MJ47AD05HGC","either","2","262","","","","","","","1","0","0","0.6720075741","","0.2","0.8","0.6","0.4","","","","","0.2163153633","0.6720075741","0.6505055492","0.5547432704","","","","","","","","74","J","1","","","60","main_expt",""
"","bandit","140","538925","0.0-101.0-0.0","92442854","wem/bandit_either_3","A3MJ47AD05HGC","either","2","254","","","","","","","1","0","0","0.6703611074","","0.2","0.8","0.6","0.4","","","","","0.2086512551","0.6703611074","0.6465946667","0.5407031957","","","","","","","","74","J","1","","","61","main_expt",""
"","bandit","141","540718","0.0-102.0-0.0","92442854","wem/bandit_either_3","A3MJ47AD05HGC","either","2","289","","","","","","","1","0","0","0.64477312","","0.2","0.8","0.6","0.4","","","","","0.2250062338","0.64477312","0.709990362","0.6993449034","","","","","","","","74","J","1","","","62","main_expt",""
"","bandit","142","542565","0.0-103.0-0.0","92442854","wem/bandit_either_3","A3MJ47AD05HGC","either","2","342","","","","","","","0","0","1","","0.509049177","0.2","0.8","0.6","0.4","0.2739380208","0.509049177","0.7542168012","0.6342967703","","","","","","","","","","","","74","J","1","","","63","main_expt",""
"","bandit","143","544285","0.0-104.0-0.0","92442854","wem/bandit_either_3","A3MJ47AD05HGC","either","2","215","","","","","","","1","0","0","0.5535424332","","0.2","0.8","0.6","0.4","","","","","0.3449536465","0.5535424332","0.7660604158","0.5961490325","","","","","","","","74","J","1","","","64","main_expt",""
"","bandit","144","546116","0.0-105.0-0.0","92442854","wem/bandit_either_3","A3MJ47AD05HGC","either","2","327","","","","","","","1","0","0","0.6608621899","","0.2","0.8","0.6","0.4","","","","","0.34640195","0.6608621899","0.7572602099","0.5771190674","","","","","","","","74","J","1","","","65","main_expt",""
"","bandit","145","547964","0.0-106.0-0.0","92442854","wem/bandit_either_3","A3MJ47AD05HGC","either","2","343","","","","","","","1","0","0","0.6535341977","","0.2","0.8","0.6","0.4","","","","","0.5266288285","0.6535341977","0.686926195","0.4765921407","","","","","","","","74","J","1","","","66","main_expt",""
"","bandit","146","549805","0.0-107.0-0.0","92442854","wem/bandit_either_3","A3MJ47AD05HGC","either","2","335","","","","","","","0","0","1","","0.6592628399","0.2","0.8","0.6","0.4","0.5588671697","0.6592628399","0.7334195653","0.5714361875","","","","","","","","","","","","74","J","1","","","67","main_expt",""
"","bandit","147","551604","0.0-108.0-0.0","92442854","wem/bandit_either_3","A3MJ47AD05HGC","either","2","295","","","","","","","1","0","0","0.6735013879","","0.2","0.8","0.6","0.4","","","","","0.6097536784","0.6735013879","0.6114245881","0.6231829193","","","","","","","","74","J","1","","","68","main_expt",""
"","bandit","148","553421","0.0-109.0-0.0","92442854","wem/bandit_either_3","A3MJ47AD05HGC","either","2","311","","","","","","","1","0","0","0.7209687993","","0.2","0.8","0.6","0.4","","","","","0.533457584","0.7209687993","0.6460921668","0.5130256365","","","","","","","","74","J","1","","","69","main_expt",""
"","bandit","149","555220","0.0-110.0-0.0","92442854","wem/bandit_either_3","A3MJ47AD05HGC","either","2","293","","","","","","","1","0","0","0.690528825","","0.2","0.8","0.6","0.4","","","","","0.4124750721","0.690528825","0.6700702736","0.5167166","","","","","","","","74","J","1","","","70","main_expt",""
"","bandit","150","557028","0.0-111.0-0.0","92442854","wem/bandit_either_3","A3MJ47AD05HGC","either","2","303","","","","","","","0","1","0","","0.6453310316","0.2","0.8","0.6","0.4","0.4486526525","0.6453310316","0.6388012411","0.6448170737","","","","","","","","","","","","74","J","1","","","71","main_expt",""
"","bandit","151","559357","0.0-112.0-0.0","92442854","wem/bandit_either_3","A3MJ47AD05HGC","either","2","823","","","","","","","1","0","0","0.8140348339","","0.2","0.8","0.6","0.4","","","","","0.4313602212","0.8140348339","0.6046900378","0.5640434706","","","","","","","","74","J","1","","","72","main_expt",""
"","bandit","152","561108","0.0-113.0-0.0","92442854","wem/bandit_either_3","A3MJ47AD05HGC","either","2","246","","","","","","","1","0","0","0.820931829","","0.2","0.8","0.6","0.4","","","","","0.3639072561","0.820931829","0.6062428704","0.6296110197","","","","","","","","74","J","1","","","73","main_expt",""
"","bandit","153","562908","0.0-114.0-0.0","92442854","wem/bandit_either_3","A3MJ47AD05HGC","either","2","294","","","","","","","1","0","0","0.8096233945","","0.2","0.8","0.6","0.4","","","","","0.2882181569","0.8096233945","0.6237194739","0.6730210969","","","","","","","","74","J","1","","","74","main_expt",""
"","bandit","154","564749","0.0-115.0-0.0","92442854","wem/bandit_either_3","A3MJ47AD05HGC","either","2","335","","","","","","","0","1","0","","0.7615001707","0.2","0.8","0.6","0.4","0.3561187133","0.7615001707","0.5971007372","0.5720403827","","","","","","","","","","","","74","J","1","","","75","main_expt",""
"","bandit","155","566612","0.0-116.0-0.0","92442854","wem/bandit_either_3","A3MJ47AD05HGC","either","2","357","","","","","","","1","0","0","0.8147365981","","0.2","0.8","0.6","0.4","","","","","0.4480894403","0.8147365981","0.5810032438","0.6303512149","","","","","","","","74","J","1","","","76","main_expt",""
"","bandit","156","568821","0.0-117.0-0.0","92442854","wem/bandit_either_3","A3MJ47AD05HGC","either","2","703","","","","","","","1","0","0","0.8926338818","","0.2","0.8","0.6","0.4","","","","","0.3220850356","0.8926338818","0.5792233978","0.5531797874","","","","","","","","74","J","1","","","77","main_expt",""
"","bandit","157","571284","0.0-118.0-0.0","92442854","wem/bandit_either_3","A3MJ47AD05HGC","either","2","957","","","","","","","0","0","1","0.8669072201","","0.2","0.8","0.6","0.4","","","","","0.3281133775","0.8669072201","0.692511921","0.5449672882","","","","","","","","74","J","1","","","78","main_expt",""
"","bandit","158","573300","0.0-119.0-0.0","92442854","wem/bandit_either_3","A3MJ47AD05HGC","either","2","510","","","","","","","1","0","0","0.9114006046","","0.2","0.8","0.6","0.4","","","","","0.3814329202","0.9114006046","0.7019625083","0.4484013318","","","","","","","","74","J","1","","","79","main_expt",""
"","bandit","159","575284","0.0-120.0-0.0","92442854","wem/bandit_either_3","A3MJ47AD05HGC","either","2","479","","","","","","","1","0","0","0.9268398106","","0.2","0.8","0.6","0.4","","","","","0.3512572076","0.9268398106","0.6785675641","0.5041425745","","","","","","","","74","J","1","","","80","main_expt",""
"","bandit","160","577244","0.0-121.0-0.0","92442854","wem/bandit_either_3","A3MJ47AD05HGC","either","2","454","","","","","","","0","1","0","","0.9582858862","0.2","0.8","0.6","0.4","0.3624285329","0.9582858862","0.7101061672","0.3462078978","","","","","","","","","","","","74","J","1","","","81","main_expt",""
"","bandit","161","579292","0.0-122.0-0.0","92442854","wem/bandit_either_3","A3MJ47AD05HGC","either","2","544","","","","","","","1","0","0","0.9590071975","","0.2","0.8","0.6","0.4","","","","","0.3111883408","0.9590071975","0.7217376576","0.3226795418","","","","","","","","74","J","1","","","82","main_expt",""
"","bandit","162","581628","0.0-123.0-0.0","92442854","wem/bandit_either_3","A3MJ47AD05HGC","either","2","830","","","","","","","1","0","0","0.9379973093","","0.2","0.8","0.6","0.4","","","","","0.243162563","0.9379973093","0.6437777395","0.3023868023","","","","","","","","74","J","1","","","83","main_expt",""
"","bandit","163","585524","0.0-124.0-0.0","92442854","wem/bandit_either_3","A3MJ47AD05HGC","either","2","2391","","","","","","","0","0","1","","0.9411979228","0.2","0.8","0.6","0.4","0.347146949","0.9411979228","0.6533183273","0.4040419094","","","","","","","","","","","","74","J","1","","","84","main_expt",""
"","bandit","164","587669","0.0-125.0-0.0","92442854","wem/bandit_either_3","A3MJ47AD05HGC","either","2","638","","","","","","","1","0","0","0.9441700551","","0.2","0.8","0.6","0.4","","","","","0.4416309426","0.9441700551","0.7469548387","0.4716136817","","","","","","","","74","J","1","","","85","main_expt",""
"","bandit","165","589643","0.0-126.0-0.0","92442854","wem/bandit_either_3","A3MJ47AD05HGC","either","2","468","","","","","","","1","0","0","0.9323605113","","0.2","0.8","0.6","0.4","","","","","0.4523797492","0.9323605113","0.7366570046","0.4455883603","","","","","","","","74","J","1","","","86","main_expt",""
"","bandit","166","591516","0.0-127.0-0.0","92442854","wem/bandit_either_3","A3MJ47AD05HGC","either","2","368","","","","","","","1","0","0","0.8871332711","","0.2","0.8","0.6","0.4","","","","","0.4621103264","0.8871332711","0.7142428019","0.5952575165","","","","","","","","74","J","1","","","87","main_expt",""
"","bandit","167","593478","0.0-128.0-0.0","92442854","wem/bandit_either_3","A3MJ47AD05HGC","either","2","455","","","","","","","0","0","1","","0.8520973281","0.2","0.8","0.6","0.4","0.3800084876","0.8520973281","0.7057172343","0.5333825583","","","","","","","","","","","","74","J","1","","","88","main_expt",""
"","bandit","168","595549","0.0-129.0-0.0","92442854","wem/bandit_either_3","A3MJ47AD05HGC","either","2","564","","","","","","","0","0","1","0.7882210871","","0.2","0.8","0.6","0.4","","","","","0.2354372355","0.7882210871","0.7289934888","0.4583166828","","","","","","","","74","J","1","","","89","main_expt",""
"","bandit","169","597308","0.0-130.0-0.0","92442854","wem/bandit_either_3","A3MJ47AD05HGC","either","2","254","","","","","","","0","0","1","","0.7475354559","0.2","0.8","0.6","0.4","0.2978482647","0.720110267","0.7475354559","0.4782349553","","","","","","","","","","","","75","K","2","","","90","main_expt",""
"","bandit","170","599108","0.0-131.0-0.0","92442854","wem/bandit_either_3","A3MJ47AD05HGC","either","2","295","","","","","","","1","0","0","0.6316706059","","0.2","0.8","0.6","0.4","","","","","0.3723871884","0.7390342074","0.6316706059","0.464138054","","","","","","","","75","K","2","","","91","main_expt",""
"","bandit","171","600844","0.0-132.0-0.0","92442854","wem/bandit_either_3","A3MJ47AD05HGC","either","2","230","","","","","","","0","0","1","","0.6957908828","0.2","0.8","0.6","0.4","0.5400298203","0.8135224625","0.6957908828","0.5084128334","","","","","","","","","","","","75","K","2","","","92","main_expt",""
"","bandit","172","602629","0.0-133.0-0.0","92442854","wem/bandit_either_3","A3MJ47AD05HGC","either","2","279","","","","","","","1","0","0","0.6812665662","","0.2","0.8","0.6","0.4","","","","","0.5134744583","0.7814404678","0.6812665662","0.5211356389","","","","","","","","75","K","2","","","93","main_expt",""
"","bandit","173","604372","0.0-134.0-0.0","92442854","wem/bandit_either_3","A3MJ47AD05HGC","either","2","237","","","","","","","0","1","0","","0.6412933588","0.2","0.8","0.6","0.4","0.4101580275","0.7672416568","0.6412933588","0.4554037602","","","","","","","","","","","","75","K","2","","","94","main_expt",""
"","bandit","174","606092","0.0-135.0-0.0","92442854","wem/bandit_either_3","A3MJ47AD05HGC","either","2","215","","","","","","","0","1","0","","0.5696630174","0.2","0.8","0.6","0.4","0.2995167601","0.7573973965","0.5696630174","0.4195046205","","","","","","","","","","","","75","K","2","","","95","main_expt",""
"","bandit","175","607940","0.0-136.0-0.0","92442854","wem/bandit_either_3","A3MJ47AD05HGC","either","2","340","","","","","","","0","0","1","","0.6076398096","0.2","0.8","0.6","0.4","0.2934894425","0.8177369732","0.6076398096","0.3638478563","","","","","","","","","","","","75","K","2","","","96","main_expt",""
"","bandit","176","609676","0.0-137.0-0.0","92442854","wem/bandit_either_3","A3MJ47AD05HGC","either","2","231","","","","","","","0","0","1","","0.5551612935","0.2","0.8","0.6","0.4","0.2802715202","0.8124666872","0.5551612935","0.2839735208","","","","","","","","","","","","75","K","2","","","97","main_expt",""
"","bandit","177","611453","0.0-138.0-0.0","92442854","wem/bandit_either_3","A3MJ47AD05HGC","either","2","270","","","","","","","0","0","1","0.2703087955","","0.2","0.8","0.6","0.4","","","","","0.2703087955","0.881496875","0.6354974245","0.2109275999","","","","","","","","72","H","0","img/none_selected.jpg","","98","main_expt",""
"","bandit","178","613148","0.0-139.0-0.0","92442854","wem/bandit_either_3","A3MJ47AD05HGC","either","2","190","","","","","","","0","0","1","","0.3027543159","0.2","0.8","0.6","0.4","0.3027543159","0.8785981907","0.5945745664","0.1531506719","","","","","","","","","","","","72","H","0","img/none_selected.jpg","","99","main_expt",""
"","bandit","179","614876","0.0-140.0-0.0","92442854","wem/bandit_either_3","A3MJ47AD05HGC","either","2","222","","","","","","","0","0","1","","0.1262108991","0.2","0.8","0.6","0.4","0.3645318829","0.8494581726","0.5679097985","0.1262108991","","","","","","","","","","","","76","L","3","","","100","main_expt",""
"","bandit","180","616654","0.0-141.0-0.0","92442854","wem/bandit_either_3","A3MJ47AD05HGC","either","2","270","","","","","","","0","0","1","","0.1340220502","0.2","0.8","0.6","0.4","0.4315832637","0.7754784616","0.6430580454","0.1340220502","","","","","","","","","","","","76","L","3","","","101","main_expt",""
"","bandit","181","618307","0.0-142.0-0.0","92442854","wem/bandit_either_3","A3MJ47AD05HGC","either","2","148","","","","","","","0","0","1","0.6340200926","","0.2","0.8","0.6","0.4","","","","","0.3608531129","0.7626736499","0.6340200926","0.2167126086","","","","","","","","75","K","2","","","102","main_expt",""
"","bandit","182","620060","0.0-143.0-0.0","92442854","wem/bandit_either_3","A3MJ47AD05HGC","either","2","247","","","","","","","0","0","1","","0.6377668076","0.2","0.8","0.6","0.4","0.3688981903","0.7329996306","0.6377668076","0.2796352144","","","","","","","","","","","","75","K","2","","","103","main_expt",""
"","bandit","183","621717","0.0-144.0-0.0","92442854","wem/bandit_either_3","A3MJ47AD05HGC","either","2","151","","","","","","","1","0","0","0.7467689404","","0.2","0.8","0.6","0.4","","","","","0.3758155051","0.7467689404","0.6578341575","0.3556406549","","","","","","","","74","J","1","","","104","main_expt",""
"","bandit","184","623437","0.0-145.0-0.0","92442854","wem/bandit_either_3","A3MJ47AD05HGC","either","2","213","","","","","","","1","0","0","0.737018723","","0.2","0.8","0.6","0.4","","","","","0.4508947075","0.737018723","0.6727034752","0.3233911601","","","","","","","","74","J","1","","","105","main_expt",""
"","bandit","185","625172","0.0-146.0-0.0","92442854","wem/bandit_either_3","A3MJ47AD05HGC","either","2","229","","","","","","","0","0","1","0.655194185","","0.2","0.8","0.6","0.4","","","","","0.4132181144","0.655194185","0.6386482702","0.2024631506","","","","","","","","74","J","1","","","106","main_expt",""
"","bandit","186","626876","0.0-147.0-0.0","92442854","wem/bandit_either_3","A3MJ47AD05HGC","either","2","197","","","","","","","0","0","1","0.7122819559","","0.2","0.8","0.6","0.4","","","","","0.4393512677","0.7122819559","0.6788938686","0.2290393164","","","","","","","","74","J","1","","","107","main_expt",""
"","bandit","187","628571","0.0-148.0-0.0","92442854","wem/bandit_either_3","A3MJ47AD05HGC","either","2","190","","","","","","","0","0","1","0.7326995505","","0.2","0.8","0.6","0.4","","","","","0.4964319729","0.7326995505","0.7076498576","0.2217712157","","","","","","","","74","J","1","","","108","main_expt",""
"","bandit","188","630212","0.0-149.0-0.0","92442854","wem/bandit_either_3","A3MJ47AD05HGC","either","2","135","","","","","","","0","0","1","0.4790921069","","0.2","0.8","0.6","0.4","","","","","0.4790921069","0.7165499475","0.6932550908","0.1566860935","","","","","","","","72","H","0","img/none_selected.jpg","","109","main_expt",""
"","bandit","189","631891","0.0-150.0-0.0","92442854","wem/bandit_either_3","A3MJ47AD05HGC","either","2","174","","","","","","","0","1","0","","0.5856434505","0.2","0.8","0.6","0.4","0.5856434505","0.6058017554","0.7436061547","0.1083987113","","","","","","","","","","","","72","H","0","img/none_selected.jpg","","110","main_expt",""
"","bandit","190","633460","0.0-151.0-0.0","92442854","wem/bandit_either_3","A3MJ47AD05HGC","either","2","63","","","","","","","0","0","1","0.6444230696","","0.2","0.8","0.6","0.4","","","","","0.6444230696","0.5476823758","0.657194241","0.217828795","","","","","","","","72","H","0","img/none_selected.jpg","","111","main_expt",""
"","bandit","191","635500","0.0-152.0-0.0","92442854","wem/bandit_either_3","A3MJ47AD05HGC","either","2","533","","","","","","","0","0","1","","0.6317228327","0.2","0.8","0.6","0.4","0.603417252","0.5688313193","0.6317228327","0.2212119155","","","","","","","","","","","","75","K","2","","","112","main_expt",""
"","bandit","192","637123","0.0-153.0-0.0","92442854","wem/bandit_either_3","A3MJ47AD05HGC","either","2","118","","","","","","","0","0","1","","0.4985892417","0.2","0.8","0.6","0.4","0.420613871","0.50852785","0.4985892417","0.2374112476","","","","","","","","","","","","75","K","2","","","113","main_expt",""
"","bandit","193","638764","0.0-154.0-0.0","92442854","wem/bandit_either_3","A3MJ47AD05HGC","either","2","137","","","","","","","0","0","1","0.2851569533","","0.2","0.8","0.6","0.4","","","","","0.2851569533","0.5711084253","0.579071345","0.2703699348","","","","","","","","72","H","0","img/none_selected.jpg","","114","main_expt",""
"","bandit","194","640508","0.0-155.0-0.0","92442854","wem/bandit_either_3","A3MJ47AD05HGC","either","2","237","","","","","","","0","0","1","","0.3166589884","0.2","0.8","0.6","0.4","0.3166589884","0.4177754351","0.4595939904","0.1928485376","","","","","","","","","","","","72","H","0","img/none_selected.jpg","","115","main_expt",""
"","bandit","195","642107","0.0-156.0-0.0","92442854","wem/bandit_either_3","A3MJ47AD05HGC","either","2","94","","","","","","","0","0","1","","0.136356343","0.2","0.8","0.6","0.4","0.3928451607","0.387840809","0.3744567546","0.136356343","","","","","","","","","","","","76","L","3","","","116","main_expt",""
"","bandit","196","643844","0.0-157.0-0.0","92442854","wem/bandit_either_3","A3MJ47AD05HGC","either","2","231","","","","","","","0","0","1","0.2193113504","","0.2","0.8","0.6","0.4","","","","","0.560845346","0.4456731606","0.302145019","0.2193113504","","","","","","","","76","L","3","","","117","main_expt",""
"","bandit","197","645580","0.0-158.0-0.0","92442854","wem/bandit_either_3","A3MJ47AD05HGC","either","2","229","","","","","","","0","0","1","0.3045880574","","0.2","0.8","0.6","0.4","","","","","0.5536818424","0.3045880574","0.3522466686","0.2686792008","","","","","","","","74","J","1","","","118","main_expt",""
"","bandit","198","647573","0.0-159.0-0.0","92442854","wem/bandit_either_3","A3MJ47AD05HGC","either","2","487","","","","","","","0","0","1","0.3994134075","","0.2","0.8","0.6","0.4","","","","","0.3617659687","0.3994134075","0.4425542362","0.2668270476","","","","","","","","74","J","1","","","119","main_expt",""
"","bandit","199","649171","0.0-160.0-0.0","92442854","wem/bandit_either_3","A3MJ47AD05HGC","either","2","94","","","","","","","0","0","1","0.3377532805","","0.2","0.8","0.6","0.4","","","","","0.3454740543","0.351449483","0.3377532805","0.3723992114","","","","","","","","75","K","2","","","120","main_expt",""
"","bandit","200","650877","0.0-161.0-0.0","92442854","wem/bandit_either_3","A3MJ47AD05HGC","either","2","199","","","","","","","0","0","1","0.2929504356","","0.2","0.8","0.6","0.4","","","","","0.2798257893","0.3641911367","0.2929504356","0.4001238515","","","","","","","","75","K","2","","","121","main_expt",""
"","bandit","201","652636","0.0-162.0-0.0","92442854","wem/bandit_either_3","A3MJ47AD05HGC","either","2","255","","","","","","","0","0","1","","0.4090120715","0.2","0.8","0.6","0.4","0.2261540995","0.2673706252","0.2504028886","0.4090120715","","","","","","","","","","","","76","L","3","","","122","main_expt",""
"","bandit","202","654372","0.0-163.0-0.0","92442854","wem/bandit_either_3","A3MJ47AD05HGC","either","2","230","","","","","","","0","0","1","0.4746108064","","0.2","0.8","0.6","0.4","","","","","0.2766663047","0.3455372181","0.2414849785","0.4746108064","","","","","","","","76","L","3","","","123","main_expt",""
"","bandit","203","656379","0.0-164.0-0.0","92442854","wem/bandit_either_3","A3MJ47AD05HGC","either","2","501","","","","","","","0","0","1","","0.453231646","0.2","0.8","0.6","0.4","0.3126864395","0.3524137631","0.1791255979","0.453231646","","","","","","","","","","","","76","L","3","","","124","main_expt",""
"","bandit","204","658196","0.0-165.0-0.0","92442854","wem/bandit_either_3","A3MJ47AD05HGC","either","2","309","","","","","","","0","0","1","0.1952456852","","0.2","0.8","0.6","0.4","","","","","0.2772507379","0.3680881866","0.1952456852","0.4888945922","","","","","","","","75","K","2","","","125","main_expt",""
"","bandit","205","659949","0.0-166.0-0.0","92442854","wem/bandit_either_3","A3MJ47AD05HGC","either","2","247","","","","","","","0","0","1","0.2614303707","","0.2","0.8","0.6","0.4","","","","","0.2441417391","0.2884444508","0.2614303707","0.396932523","","","","","","","","75","K","2","","","126","main_expt",""
"","bandit","206","662035","0.0-167.0-0.0","92442854","wem/bandit_either_3","A3MJ47AD05HGC","either","2","581","","","","","","","0","0","1","0.2931854252","","0.2","0.8","0.6","0.4","","","","","0.2304038214","0.2931854252","0.267511235","0.4026562496","","","","","","","","74","J","1","","","127","main_expt",""
"","bandit","207","664005","0.0-168.0-0.0","92442854","wem/bandit_either_3","A3MJ47AD05HGC","either","2","464","","","","","","","0","1","0","","0.2463692943","0.2","0.8","0.6","0.4","0.2463692943","0.3115494401","0.2582460394","0.3072143153","","","","","","","","","","","","72","H","0","img/none_selected.jpg","","128","main_expt",""
"","bandit","208","665731","0.0-169.0-0.0","92442854","wem/bandit_either_3","A3MJ47AD05HGC","either","2","220","","","","","","","0","0","1","","0.262841392","0.2","0.8","0.6","0.4","0.262841392","0.287093163","0.249100023","0.3024431642","","","","","","","","","","","","72","H","0","img/none_selected.jpg","","129","main_expt",""
"","bandit","209","667514","0.0-170.0-0.0","92442854","wem/bandit_either_3","A3MJ47AD05HGC","either","2","278","","","","","","","0","0","1","0.3044503748","","0.2","0.8","0.6","0.4","","","","","0.3044503748","0.242368994","0.2014680341","0.383823705","","","","","","","","72","H","0","img/none_selected.jpg","","130","main_expt",""
"","bandit","210","669427","0.0-171.0-0.0","92442854","wem/bandit_either_3","A3MJ47AD05HGC","either","2","407","","","","","","","0","0","1","","0.2231782293","0.2","0.8","0.6","0.4","0.2231782293","0.3141093292","0.2514612397","0.5448185218","","","","","","","","","","","","72","H","0","img/none_selected.jpg","","131","main_expt",""
"","bandit","211","671861","0.0-172.0-0.0","92442854","wem/bandit_either_3","A3MJ47AD05HGC","either","2","927","","","","","","","0","0","1","","0.265126842","0.2","0.8","0.6","0.4","0.265126842","0.3186943837","0.1719215191","0.5741986762","","","","","","","","","","","","72","H","0","img/none_selected.jpg","","132","main_expt",""
"","bandit","212","673612","0.0-173.0-0.0","92442854","wem/bandit_either_3","A3MJ47AD05HGC","either","2","245","","","","","","","1","0","0","0.3218599317","","0.2","0.8","0.6","0.4","","","","","0.1996467811","0.3218599317","0.151851594","0.54298015","","","","","","","","74","J","1","","","133","main_expt",""
"","bandit","213","675404","0.0-174.0-0.0","92442854","wem/bandit_either_3","A3MJ47AD05HGC","either","2","287","","","","","","","1","0","0","0.3372263261","","0.2","0.8","0.6","0.4","","","","","0.1900899503","0.3372263261","0.1693242304","0.5504084981","","","","","","","","74","J","1","","","134","main_expt",""
"","bandit","214","677996","0.0-175.0-0.0","92442854","wem/bandit_either_3","A3MJ47AD05HGC","either","2","1086","","","","","","","0","0","1","0.3515125386","","0.2","0.8","0.6","0.4","","","","","0.172295534","0.3515125386","0.1541174352","0.4874659601","","","","","","","","74","J","1","","","135","main_expt",""
"","bandit","215","680251","0.0-176.0-0.0","92442854","wem/bandit_either_3","A3MJ47AD05HGC","either","2","750","","","","","","","0","0","1","0.2312583875","","0.2","0.8","0.6","0.4","","","","","0.1171098277","0.2312583875","0.1374012581","0.3677382912","","","","","","","","74","J","1","","","136","main_expt",""
"","bandit","216","682076","0.0-177.0-0.0","92442854","wem/bandit_either_3","A3MJ47AD05HGC","either","2","319","","","","","","","0","0","1","0.3496768842","","0.2","0.8","0.6","0.4","","","","","0.1390909791","0.3496768842","0.2889288236","0.2944012193","","","","","","","","74","J","1","","","137","main_expt",""
"","bandit","217","683788","0.0-178.0-0.0","92442854","wem/bandit_either_3","A3MJ47AD05HGC","either","2","206","","","","","","","0","0","1","0.2177367931","","0.2","0.8","0.6","0.4","","","","","0.1209370274","0.4217982028","0.2177367931","0.3020033879","","","","","","","","75","K","2","","","138","main_expt",""
"","bandit","218","685558","0.0-179.0-0.0","92442854","wem/bandit_either_3","A3MJ47AD05HGC","either","2","264","","","","","","","1","0","0","0.1704259453","","0.2","0.8","0.6","0.4","","","","","0.1441291996","0.5123523738","0.1704259453","0.2908104057","","","","","","","","75","K","2","","","139","main_expt",""
"","bandit","219","687324","0.0-180.0-0.0","92442854","wem/bandit_either_3","A3MJ47AD05HGC","either","2","261","","","","","","","0","0","1","","0.1827322183","0.2","0.8","0.6","0.4","0.1380406349","0.3892042576","0.1827322183","0.2738290205","","","","","","","","","","","","75","K","2","","","140","main_expt",""
"","bandit","220","689028","0.0-181.0-0.0","92442854","wem/bandit_either_3","A3MJ47AD05HGC","either","2","198","","","","","","","0","0","1","0.2030288612","","0.2","0.8","0.6","0.4","","","","","0.1312769784","0.4680147771","0.2030288612","0.3865798498","","","","","","","","75","K","2","","","141","main_expt",""
"","bandit","221","690748","0.0-182.0-0.0","92442854","wem/bandit_either_3","A3MJ47AD05HGC","either","2","215","","","","","","","0","0","1","","0.3507917403","0.2","0.8","0.6","0.4","0.1880730553","0.3970866904","0.1760536641","0.3507917403","","","","","","","","","","","","76","L","3","","","142","main_expt",""
"","bandit","222","692443","0.0-183.0-0.0","92442854","wem/bandit_either_3","A3MJ47AD05HGC","either","2","189","","","","","","","0","1","0","","0.2787839286","0.2","0.8","0.6","0.4","0.1798266991","0.3609481858","0.1428921374","0.2787839286","","","","","","","","","","","","76","L","3","","","143","main_expt",""
"","bandit","223","694252","0.0-184.0-0.0","92442854","wem/bandit_either_3","A3MJ47AD05HGC","either","2","303","","","","","","","0","0","1","0.2106619402","","0.2","0.8","0.6","0.4","","","","","0.1881666754","0.3701270871","0.1260474704","0.2106619402","","","","","","","","76","L","3","","","144","main_expt",""
"","bandit","224","695939","0.0-185.0-0.0","92442854","wem/bandit_either_3","A3MJ47AD05HGC","either","2","182","","","","","","","0","0","1","0.3211677341","","0.2","0.8","0.6","0.4","","","","","0.1683386122","0.3110645609","0.151337539","0.3211677341","","","","","","","","76","L","3","","","145","main_expt",""
"","bandit","225","697683","0.0-186.0-0.0","92442854","wem/bandit_either_3","A3MJ47AD05HGC","either","2","237","","","","","","","0","0","1","0.2609121533","","0.2","0.8","0.6","0.4","","","","","0.2609121533","0.356964637","0.1600114734","0.4417580917","","","","","","","","72","H","0","img/none_selected.jpg","","146","main_expt",""
"","bandit","226","699388","0.0-187.0-0.0","92442854","wem/bandit_either_3","A3MJ47AD05HGC","either","2","199","","","","","","","0","0","1","","0.280259565","0.2","0.8","0.6","0.4","0.280259565","0.5143633813","0.1262446547","0.278611551","","","","","","","","","","","","72","H","0","img/none_selected.jpg","","147","main_expt",""
"","bandit","227","701091","0.0-188.0-0.0","92442854","wem/bandit_either_3","A3MJ47AD05HGC","either","2","199","","","","","","","1","0","0","0.5086187798","","0.2","0.8","0.6","0.4","","","","","0.2972918914","0.5086187798","0.1030311585","0.2811332351","","","","","","","","74","J","1","","","148","main_expt",""
"","bandit","228","702884","0.0-189.0-0.0","92442854","wem/bandit_either_3","A3MJ47AD05HGC","either","2","287","","","","","","","1","0","0","0.4676315778","","0.2","0.8","0.6","0.4","","","","","0.3284309668","0.4676315778","0.123834606","0.2606345315","","","","","","","","74","J","1","","","149","main_expt",""
"","bandit","229","704587","0.0-190.0-0.0","92442854","wem/bandit_either_3","A3MJ47AD05HGC","either","2","197","","","","","","","1","0","0","0.4737351686","","0.2","0.8","0.6","0.4","","","","","0.3186890608","0.4737351686","0.06566206942","0.260677327","","","","","","","","74","J","1","","","150","main_expt",""
"","bandit","230","706427","0.0-191.0-0.0","92442854","wem/bandit_either_3","A3MJ47AD05HGC","either","2","335","","","","","","","0","0","1","","0.5387476985","0.2","0.8","0.6","0.4","0.3331747037","0.5387476985","0.06342121736","0.2579624968","","","","","","","","","","","","74","J","1","","","151","main_expt",""
"","bandit","231","708156","0.0-192.0-0.0","92442854","wem/bandit_either_3","A3MJ47AD05HGC","either","2","223","","","","","","","0","0","1","","0.5065138565","0.2","0.8","0.6","0.4","0.364096089","0.5065138565","0.1162046696","0.2536911072","","","","","","","","","","","","74","J","1","","","152","main_expt",""
"","bandit","232","709869","0.0-193.0-0.0","92442854","wem/bandit_either_3","A3MJ47AD05HGC","either","2","206","","","","","","","0","0","1","0.1388943584","","0.2","0.8","0.6","0.4","","","","","0.3189440566","0.5190676077","0.1388943584","0.1427943183","","","","","","","","75","K","2","","","153","main_expt",""
"","bandit","233","712100","0.0-194.0-0.0","92442854","wem/bandit_either_3","A3MJ47AD05HGC","either","2","724","","","","","","","0","0","1","","0.486858514","0.2","0.8","0.6","0.4","0.486858514","0.4944482457","0.1188489222","0.08934943386","","","","","","","","","","","","72","H","0","img/none_selected.jpg","","154","main_expt",""
"","bandit","234","714445","0.0-195.0-0.0","92442854","wem/bandit_either_3","A3MJ47AD05HGC","either","2","838","","","","","","","0","0","1","","0.1048919666","0.2","0.8","0.6","0.4","0.398958755","0.4987902374","0.1255079792","0.1048919666","","","","","","","","","","","","76","L","3","","","155","main_expt",""
"","bandit","235","716020","0.0-196.0-0.0","92442854","wem/bandit_either_3","A3MJ47AD05HGC","either","2","68","","","","","","","0","0","1","0.1348874752","","0.2","0.8","0.6","0.4","","","","","0.3508932217","0.4151199053","0.1705129017","0.1348874752","","","","","","","","76","L","3","","","156","main_expt",""
"","bandit","236","717532","0.0-197.0-0.0","92442854","wem/bandit_either_3","A3MJ47AD05HGC","either","2","4","","","","","","","0","0","1","","0.1892203872","0.2","0.8","0.6","0.4","0.3736640956","0.4215128153","0.1892203872","0.1197456909","","","","","","","","","","","","75","K","2","","","157","main_expt",""
"","bandit","237","719172","0.0-198.0-0.0","92442854","wem/bandit_either_3","A3MJ47AD05HGC","either","2","135","","","","","","","0","0","1","","0.3215678611","0.2","0.8","0.6","0.4","0.3215678611","0.3666899102","0.1589595026","0.1343935597","","","","","","","","","","","","72","H","0","img/none_selected.jpg","","158","main_expt",""
"","bandit","238","720995","0.0-199.0-0.0","92442854","wem/bandit_either_3","A3MJ47AD05HGC","either","2","319","","","","","","","1","0","0","0.3906786657","","0.2","0.8","0.6","0.4","","","","","0.2732838962","0.3906786657","0.1426383857","0.04604274909","","","","","","","","74","J","1","","","159","main_expt",""
"","bandit","239","722923","0.0-200.0-0.0","92442854","wem/bandit_either_3","A3MJ47AD05HGC","either","2","423","","","","","","","0","0","1","","0.4769972016","0.2","0.8","0.6","0.4","0.2323229575","0.4769972016","0.2747613825","0.08927965808","","","","","","","","","","","","74","J","1","","","160","main_expt",""
"","bandit","240","724717","0.0-201.0-0.0","92442854","wem/bandit_either_3","A3MJ47AD05HGC","either","2","287","","","","","","","0","1","0","","0.4405879513","0.2","0.8","0.6","0.4","0.399022808","0.4405879513","0.2046882866","0.1038156196","","","","","","","","","","","","74","J","1","","","161","main_expt",""
"","bandit","241","726500","0.0-202.0-0.0","92442854","wem/bandit_either_3","A3MJ47AD05HGC","either","2","277","","","","","","","0","0","1","0.44055992","","0.2","0.8","0.6","0.4","","","","","0.4967313539","0.44055992","0.1715152701","0.1470739062","","","","","","","","74","J","1","","","162","main_expt",""
"","bandit","242","728412","0.0-203.0-0.0","92442854","wem/bandit_either_3","A3MJ47AD05HGC","either","2","406","","","","","","","1","0","0","0.3434222481","","0.2","0.8","0.6","0.4","","","","","0.5245029489","0.3434222481","0.2396687428","0.1214264794","","","","","","","","74","J","1","","","163","main_expt",""
"","bandit","243","730341","0.0-204.0-0.0","92442854","wem/bandit_either_3","A3MJ47AD05HGC","either","2","422","","","","","","","1","0","0","0.3862652833","","0.2","0.8","0.6","0.4","","","","","0.5808119749","0.3862652833","0.3359744524","0.1563758897","","","","","","","","74","J","1","","","164","main_expt",""
"","bandit","244","732572","0.0-205.0-0.0","92442854","wem/bandit_either_3","A3MJ47AD05HGC","either","2","725","","","","","","","1","0","0","0.4270444342","","0.2","0.8","0.6","0.4","","","","","0.6473032069","0.4270444342","0.4940159592","0.1311500467","","","","","","","","74","J","1","","","165","main_expt",""
"","bandit","245","737453","0.0-206.0-0.0","92442854","wem/bandit_either_3","A3MJ47AD05HGC","either","2","3375","","","","","","","0","0","1","0.5073102058","","0.2","0.8","0.6","0.4","","","","","0.6790689848","0.5073102058","0.5922229292","0.1419689761","","","","","","","","74","J","1","","","166","main_expt",""
"","bandit","246","739292","0.0-207.0-0.0","92442854","wem/bandit_either_3","A3MJ47AD05HGC","either","2","334","","","","","","","0","1","0","","0.5417092253","0.2","0.8","0.6","0.4","0.5959653185","0.5417092253","0.5562626425","0.150246256","","","","","","","","","","","","74","J","1","","","167","main_expt",""
"","bandit","247","743349","0.0-208.0-0.0","92442854","wem/bandit_either_3","A3MJ47AD05HGC","either","2","2550","","","","","","","0","0","1","","0.6505471885","0.2","0.8","0.6","0.4","0.361841396","0.6505471885","0.6489587791","0.2070971521","","","","","","","","","","","","74","J","1","","","168","main_expt",""
"","bandit","248","745198","0.0-209.0-0.0","92442854","wem/bandit_either_3","A3MJ47AD05HGC","either","2","342","","","","","","","0","0","1","0.6226729341","","0.2","0.8","0.6","0.4","","","","","0.2594844845","0.6226729341","0.5652428614","0.2564452127","","","","","","","","74","J","1","","","169","main_expt",""
"","bandit","249","747749","0.0-210.0-0.0","92442854","wem/bandit_either_3","A3MJ47AD05HGC","either","2","1043","","","","","","","1","0","0","0.7574543886","","0.2","0.8","0.6","0.4","","","","","0.1987556041","0.7574543886","0.5344749526","0.2845729388","","","","","","","","74","J","1","","","170","main_expt",""
"","bandit","250","749275","0.0-211.0-0.0","92442854","wem/bandit_either_3","A3MJ47AD05HGC","either","2","20","","","","","","","1","0","0","0.774201251","","0.2","0.8","0.6","0.4","","","","","0.1583585206","0.774201251","0.6364900983","0.2360657399","","","","","","","","74","J","1","","","171","main_expt",""
"","bandit","251","751733","0.0-212.0-0.0","92442854","wem/bandit_either_3","A3MJ47AD05HGC","either","2","953","","","","","","","1","0","0","0.7739789177","","0.2","0.8","0.6","0.4","","","","","0.1494938987","0.7739789177","0.5516193693","0.3453554921","","","","","","","","74","J","1","","","172","main_expt",""
"","bandit","252","753589","0.0-213.0-0.0","92442854","wem/bandit_either_3","A3MJ47AD05HGC","either","2","349","","","","","","","1","0","0","0.7146420849","","0.2","0.8","0.6","0.4","","","","","0.1996494969","0.7146420849","0.5081608063","0.2909261263","","","","","","","","74","J","1","","","173","main_expt",""
"","bandit","253","755660","0.0-214.0-0.0","92442854","wem/bandit_either_3","A3MJ47AD05HGC","either","2","566","","","","","","","0","1","0","","0.683245412","0.2","0.8","0.6","0.4","0.2200767262","0.683245412","0.5247340446","0.3807546558","","","","","","","","","","","","74","J","1","","","174","main_expt",""
"","bandit","254","757445","0.0-215.0-0.0","92442854","wem/bandit_either_3","A3MJ47AD05HGC","either","2","277","","","","","","","0","1","0","","0.7163731774","0.2","0.8","0.6","0.4","0.1929710708","0.7163731774","0.5823110366","0.3889518003","","","","","","","","","","","","74","J","1","","","175","main_expt",""
"","bandit","255","759501","0.0-216.0-0.0","92442854","wem/bandit_either_3","A3MJ47AD05HGC","either","2","550","","","","","","","1","0","0","0.6676116703","","0.2","0.8","0.6","0.4","","","","","0.1756556012","0.6676116703","0.7693722391","0.3662842853","","","","","","","","74","J","1","","","176","main_expt",""
"","bandit","256","772877","0.0-217.0-0.0","92442854","wem/bandit_either_3","A3MJ47AD05HGC","either","2","11868","","","","","","","1","0","0","0.711116056","","0.2","0.8","0.6","0.4","","","","","0.2404611203","0.711116056","0.8048595062","0.3102656016","","","","","","","","74","J","1","","","177","main_expt",""
"","bandit","257","774741","0.0-218.0-0.0","92442854","wem/bandit_either_3","A3MJ47AD05HGC","either","2","358","","","","","","","1","0","0","0.6541247318","","0.2","0.8","0.6","0.4","","","","","0.1651874793","0.6541247318","0.8147320782","0.3272385177","","","","","","","","74","J","1","","","178","main_expt",""
"","bandit","258","776523","0.0-219.0-0.0","92442854","wem/bandit_either_3","A3MJ47AD05HGC","either","2","277","","","","","","","0","0","1","0.600925469","","0.2","0.8","0.6","0.4","","","","","0.1297692321","0.600925469","0.7755432213","0.3185807274","","","","","","","","74","J","1","","","179","main_expt",""
"","bandit","259","778229","0.0-220.0-0.0","92442854","wem/bandit_either_3","A3MJ47AD05HGC","either","2","199","","","","","","","1","0","0","0.6321701674","","0.2","0.8","0.6","0.4","","","","","0.1311169289","0.6321701674","0.7309951384","0.3896265469","","","","","","","","74","J","1","","","180","main_expt",""
"","bandit","260","780180","0.0-221.0-0.0","92442854","wem/bandit_either_3","A3MJ47AD05HGC","either","2","445","","","","","","","1","0","0","0.7040606398","","0.2","0.8","0.6","0.4","","","","","0.2184653543","0.7040606398","0.8068071681","0.4381139349","","","","","","","","74","J","1","","","181","main_expt",""
"","bandit","261","782179","0.0-222.0-0.0","92442854","wem/bandit_either_3","A3MJ47AD05HGC","either","2","493","","","","","","","0","0","1","0.6551517927","","0.2","0.8","0.6","0.4","","","","","0.156745214","0.6551517927","0.8096694819","0.4339703771","","","","","","","","74","J","1","","","182","main_expt",""
"","bandit","262","792892","0.0-223.0-0.0","92442854","wem/bandit_either_3","A3MJ47AD05HGC","either","2","9206","","","","","","","1","0","0","0.7709035389","","0.2","0.8","0.6","0.4","","","","","0.07710569088","0.7709035389","0.8522040983","0.5270594011","","","","","","","","74","J","1","","","183","main_expt",""
"","bandit","263","794821","0.0-224.0-0.0","92442854","wem/bandit_either_3","A3MJ47AD05HGC","either","2","421","","","","","","","1","0","0","0.7869666122","","0.2","0.8","0.6","0.4","","","","","0.07901501252","0.7869666122","0.8636776132","0.4791569234","","","","","","","","74","J","1","","","184","main_expt",""
"","bandit","264","797451","0.0-225.0-0.0","92442854","wem/bandit_either_3","A3MJ47AD05HGC","either","2","1125","","","","","","","1","0","0","0.804571828","","0.2","0.8","0.6","0.4","","","","","0.05695362571","0.804571828","0.8605951951","0.464074867","","","","","","","","74","J","1","","","185","main_expt",""
"","bandit","265","807620","0.0-226.0-0.0","92442854","wem/bandit_either_3","A3MJ47AD05HGC","either","2","8662","","","","","","","1","0","0","0.7866627628","","0.2","0.8","0.6","0.4","","","","","0.03796608352","0.7866627628","0.8578427848","0.4654947356","","","","","","","","74","J","1","","","186","main_expt",""
"","bandit","266","810684","0.0-227.0-0.0","92442854","wem/bandit_either_3","A3MJ47AD05HGC","either","2","1556","","","","","","","0","1","0","","0.8006736442","0.2","0.8","0.6","0.4","0.05986429342","0.8006736442","0.8253306036","0.4338668179","","","","","","","","","","","","74","J","1","","","187","main_expt",""
"","bandit","267","815389","0.0-228.0-0.0","92442854","wem/bandit_either_3","A3MJ47AD05HGC","either","2","3198","","","","","","","0","1","0","","0.7687627789","0.2","0.8","0.6","0.4","0.05827831728","0.7687627789","0.8118593573","0.4679469354","","","","","","","","","","","","74","J","1","","","188","main_expt",""
"","bandit","268","816901","0.0-229.0-0.0","92442854","wem/bandit_either_3","A3MJ47AD05HGC","either","2","5","","","","","","","0","0","1","","0.7009429779","0.2","0.8","0.6","0.4","0.06499387038","0.7009429779","0.8319104568","0.4645116859","","","","","","","","","","","","74","J","1","","","189","main_expt",""
"","bandit","269","825163","0.0-230.0-0.0","92442854","wem/bandit_either_3","A3MJ47AD05HGC","either","2","6757","","","","","","","0","0","1","0.7531121838","","0.2","0.8","0.6","0.4","","","","","0.0878029059","0.7531121838","0.8949986836","0.4260553166","","","","","","","","74","J","1","","","190","main_expt",""
"","bandit","270","826988","0.0-231.0-0.0","92442854","wem/bandit_either_3","A3MJ47AD05HGC","either","2","318","","","","","","","1","0","0","0.6174616994","","0.2","0.8","0.6","0.4","","","","","0.1101088583","0.6174616994","0.9258368343","0.5323747461","","","","","","","","74","J","1","","","191","main_expt",""
"","bandit","271","828827","0.0-232.0-0.0","92442854","wem/bandit_either_3","A3MJ47AD05HGC","either","2","332","","","","","","","0","0","1","0.6331996982","","0.2","0.8","0.6","0.4","","","","","0.1559643099","0.6331996982","0.9221438833","0.6013900654","","","","","","","","74","J","1","","","192","main_expt",""
"","bandit","272","830573","0.0-233.0-0.0","92442854","wem/bandit_either_3","A3MJ47AD05HGC","either","2","239","","","","","","","1","0","0","0.5596167322","","0.2","0.8","0.6","0.4","","","","","0.1348882638","0.5596167322","0.878376231","0.5332063066","","","","","","","","74","J","1","","","193","main_expt",""
"","bandit","273","832363","0.0-234.0-0.0","92442854","wem/bandit_either_3","A3MJ47AD05HGC","either","2","283","","","","","","","1","0","0","0.5887018809","","0.2","0.8","0.6","0.4","","","","","0.243093686","0.5887018809","0.7914694382","0.5499496643","","","","","","","","74","J","1","","","194","main_expt",""
"","bandit","274","834251","0.0-235.0-0.0","92442854","wem/bandit_either_3","A3MJ47AD05HGC","either","2","381","","","","","","","0","1","0","","0.561552955","0.2","0.8","0.6","0.4","0.2792315856","0.561552955","0.7843027812","0.4170732774","","","","","","","","","","","","74","J","1","","","195","main_expt",""
"","bandit","275","836147","0.0-236.0-0.0","92442854","wem/bandit_either_3","A3MJ47AD05HGC","either","2","390","","","","","","","0","0","1","","0.6199522587","0.2","0.8","0.6","0.4","0.2075419965","0.6199522587","0.7888241066","0.4050854298","","","","","","","","","","","","74","J","1","","","196","main_expt",""
"","bandit","276","838019","0.0-237.0-0.0","92442854","wem/bandit_either_3","A3MJ47AD05HGC","either","2","364","","","","","","","1","0","0","0.6886125155","","0.2","0.8","0.6","0.4","","","","","0.1899284635","0.6886125155","0.8145025162","0.4522405917","","","","","","","","74","J","1","","","197","main_expt",""
"","bandit","277","840235","0.0-238.0-0.0","92442854","wem/bandit_either_3","A3MJ47AD05HGC","either","2","709","","","","","","","1","0","0","0.6468609917","","0.2","0.8","0.6","0.4","","","","","0.1632143895","0.6468609917","0.8795467387","0.4547961131","","","","","","","","74","J","1","","","198","main_expt",""
"","bandit","278","842149","0.0-239.0-0.0","92442854","wem/bandit_either_3","A3MJ47AD05HGC","either","2","405","","","","","","","1","0","0","0.7134983028","","0.2","0.8","0.6","0.4","","","","","0.1580048483","0.7134983028","0.8716255916","0.456709553","","","","","","","","74","J","1","","","199","main_expt",""
"","bandit","279","843899","0.0-240.0-0.0","92442854","wem/bandit_either_3","A3MJ47AD05HGC","either","2","244","","","","","","","0","0","1","","0.6545285445","0.2","0.8","0.6","0.4","0.1815025648","0.6545285445","0.8596876402","0.4197111003","","","","","","","","","","","","74","J","1","","","200","main_expt",""
"","bandit","280","847147","0.0-241.0-0.0","92442854","wem/bandit_either_3","A3MJ47AD05HGC","either","2","1741","","","","","","","1","0","0","0.6827561938","","0.2","0.8","0.6","0.4","","","","","0.1453003075","0.6827561938","0.8714244785","0.4468864226","","","","","","","","74","J","1","","","201","main_expt",""
"","bandit","281","848812","0.0-242.0-0.0","92442854","wem/bandit_either_3","A3MJ47AD05HGC","either","2","159","","","","","","","1","0","0","0.6590680519","","0.2","0.8","0.6","0.4","","","","","0.1061510446","0.6590680519","0.8679491409","0.3852152277","","","","","","","","74","J","1","","","202","main_expt",""
"","bandit","282","859918","0.0-243.0-0.0","92442854","wem/bandit_either_3","A3MJ47AD05HGC","either","2","9598","","","","","","","0","1","0","","0.67998256","0.2","0.8","0.6","0.4","0.09667757311","0.67998256","0.8421855008","0.3481501846","","","","","","","","","","","","74","J","1","","","203","main_expt",""
"","bandit","283","861811","0.0-244.0-0.0","92442854","wem/bandit_either_3","A3MJ47AD05HGC","either","2","388","","","","","","","0","1","0","","0.7157802034","0.2","0.8","0.6","0.4","0.109576977","0.7157802034","0.8741547355","0.3688904748","","","","","","","","","","","","74","J","1","","","204","main_expt",""
"","bandit","284","863614","0.0-245.0-0.0","92442854","wem/bandit_either_3","A3MJ47AD05HGC","either","2","295","","","","","","","1","0","0","0.6750594522","","0.2","0.8","0.6","0.4","","","","","0.1370524017","0.6750594522","0.8589537271","0.4196025605","","","","","","","","74","J","1","","","205","main_expt",""
"","bandit","285","865429","0.0-246.0-0.0","92442854","wem/bandit_either_3","A3MJ47AD05HGC","either","2","306","","","","","","","1","0","0","0.7170784861","","0.2","0.8","0.6","0.4","","","","","0.1005848846","0.7170784861","0.8009191088","0.3558717694","","","","","","","","74","J","1","","","206","main_expt",""
"","bandit","286","867229","0.0-247.0-0.0","92442854","wem/bandit_either_3","A3MJ47AD05HGC","either","2","293","","","","","","","0","1","0","","0.6886550294","0.2","0.8","0.6","0.4","0.1100528349","0.6886550294","0.8146279372","0.3978287694","","","","","","","","","","","","74","J","1","","","207","main_expt",""
"","bandit","287","869205","0.0-248.0-0.0","92442854","wem/bandit_either_3","A3MJ47AD05HGC","either","2","466","","","","","","","0","0","1","0.7340041914","","0.2","0.8","0.6","0.4","","","","","0.1165568201","0.7340041914","0.7498886323","0.3647175361","","","","","","","","74","J","1","","","208","main_expt",""
"","bandit","288","871160","0.0-249.0-0.0","92442854","wem/bandit_either_3","A3MJ47AD05HGC","either","2","449","","","","","","","0","0","1","0.7108339061","","0.2","0.8","0.6","0.4","","","","","0.1607141963","0.7108339061","0.781298432","0.2942091963","","","","","","","","74","J","1","","","209","main_expt",""
"","bandit","289","881356","0.0-250.0-0.0","92442854","wem/bandit_either_3","A3MJ47AD05HGC","either","2","8688","","","","","","","0","0","1","0.7322658343","","0.2","0.8","0.6","0.4","","","","","0.2005879304","0.7322658343","0.8374694261","0.3228874634","","","","","","","","74","J","1","","","210","main_expt",""
"","bandit","290","883229","0.0-251.0-0.0","92442854","wem/bandit_either_3","A3MJ47AD05HGC","either","2","365","","","","","","","0","0","1","0.7461264045","","0.2","0.8","0.6","0.4","","","","","0.1999716741","0.6220956771","0.7461264045","0.3300931135","","","","","","","","75","K","2","","","211","main_expt",""
"","bandit","291","884988","0.0-252.0-0.0","92442854","wem/bandit_either_3","A3MJ47AD05HGC","either","2","252","","","","","","","1","0","0","0.7267359419","","0.2","0.8","0.6","0.4","","","","","0.2135957141","0.5400145011","0.7267359419","0.4044608811","","","","","","","","75","K","2","","","212","main_expt",""
"","bandit","292","886789","0.0-253.0-0.0","92442854","wem/bandit_either_3","A3MJ47AD05HGC","either","2","293","","","","","","","0","0","1","0.6529835343","","0.2","0.8","0.6","0.4","","","","","0.2041793084","0.5419994818","0.6529835343","0.4916994921","","","","","","","","75","K","2","","","213","main_expt",""
"","bandit","293","888509","0.0-254.0-0.0","92442854","wem/bandit_either_3","A3MJ47AD05HGC","either","2","214","","","","","","","0","0","1","","0.5734554779","0.2","0.8","0.6","0.4","0.2563089198","0.6195319152","0.5734554779","0.5387088508","","","","","","","","","","","","75","K","2","","","214","main_expt",""
"","bandit","294","890229","0.0-255.0-0.0","92442854","wem/bandit_either_3","A3MJ47AD05HGC","either","2","212","","","","","","","0","1","0","","0.567041903","0.2","0.8","0.6","0.4","0.2870699064","0.7405966814","0.7056003711","0.567041903","","","","","","","","","","","","76","L","3","","","215","main_expt",""
"","bandit","295","891951","0.0-256.0-0.0","92442854","wem/bandit_either_3","A3MJ47AD05HGC","either","2","215","","","","","","","0","0","1","","0.539749723","0.2","0.8","0.6","0.4","0.2715554895","0.8005734678","0.7717913507","0.539749723","","","","","","","","","","","","76","L","3","","","216","main_expt",""
"","bandit","296","893716","0.0-257.0-0.0","92442854","wem/bandit_either_3","A3MJ47AD05HGC","either","2","258","","","","","","","0","0","1","","0.3803352486","0.2","0.8","0.6","0.4","0.2027777883","0.8392159132","0.834894728","0.3803352486","","","","","","","","","","","","76","L","3","","","217","main_expt",""
"","bandit","297","895828","0.0-258.0-0.0","92442854","wem/bandit_either_3","A3MJ47AD05HGC","either","2","604","","","","","","","0","0","1","","0.3236333655","0.2","0.8","0.6","0.4","0.2169787163","0.7445585264","0.868580258","0.3236333655","","","","","","","","","","","","76","L","3","","","218","main_expt",""
"","bandit","298","911740","0.0-259.0-0.0","92442854","wem/bandit_either_3","A3MJ47AD05HGC","either","2","14406","","","","","","","0","0","1","","0.2612589469","0.2","0.8","0.6","0.4","0.2292932202","0.7174829008","0.8236231074","0.2612589469","","","","","","","","","","","","76","L","3","","","219","main_expt",""
"","bandit","299","914148","0.0-260.0-0.0","92442854","wem/bandit_either_3","A3MJ47AD05HGC","either","2","902","","","","","","","1","0","0","0.2829053382","","0.2","0.8","0.6","0.4","","","","","0.2829053382","0.6601767392","0.7719294443","0.2228319794","","","","","","","","72","H","0","img/none_selected.jpg","","220","main_expt",""
"","bandit","300","915853","0.0-261.0-0.0","92442854","wem/bandit_either_3","A3MJ47AD05HGC","either","2","197","","","","","","","0","0","1","","0.2691731019","0.2","0.8","0.6","0.4","0.2691731019","0.703996204","0.7609360252","0.2204856404","","","","","","","","","","","","72","H","0","img/none_selected.jpg","","221","main_expt",""
"","bandit","301","917557","0.0-262.0-0.0","92442854","wem/bandit_either_3","A3MJ47AD05HGC","either","2","197","","","","","","","0","1","0","","0.1974112065","0.2","0.8","0.6","0.4","0.1974112065","0.6188024556","0.7319851961","0.2269951902","","","","","","","","","","","","72","H","0","img/none_selected.jpg","","222","main_expt",""
"","bandit","302","919382","0.0-263.0-0.0","92442854","wem/bandit_either_3","A3MJ47AD05HGC","either","2","316","","","","","","","0","0","1","","0.08486155027","0.2","0.8","0.6","0.4","0.08486155027","0.5695888615","0.6994646324","0.3417830843","","","","","","","","","","","","72","H","0","img/none_selected.jpg","","223","main_expt",""
"","bandit","303","921092","0.0-264.0-0.0","92442854","wem/bandit_either_3","A3MJ47AD05HGC","either","2","203","","","","","","","0","0","1","","0.1930609847","0.2","0.8","0.6","0.4","0.1930609847","0.6590173842","0.6817307813","0.4057490183","","","","","","","","","","","","72","H","0","img/none_selected.jpg","","224","main_expt",""
"","bandit","304","922924","0.0-265.0-0.0","92442854","wem/bandit_either_3","A3MJ47AD05HGC","either","2","325","","","","","","","0","0","1","0.6779124893","","0.2","0.8","0.6","0.4","","","","","0.2026087193","0.6779124893","0.67394888","0.4266979185","","","","","","","","74","J","1","","","225","main_expt",""
"","bandit","305","925524","0.0-266.0-0.0","92442854","wem/bandit_either_3","A3MJ47AD05HGC","either","2","1093","","","","","","","1","0","0","0.6433757785","","0.2","0.8","0.6","0.4","","","","","0.1295559036","0.6433757785","0.6520670614","0.4723095555","","","","","","","","74","J","1","","","226","main_expt",""
"","bandit","306","927300","0.0-267.0-0.0","92442854","wem/bandit_either_3","A3MJ47AD05HGC","either","2","269","","","","","","","0","0","1","0.6050090536","","0.2","0.8","0.6","0.4","","","","","0.1014701128","0.6050090536","0.6598054912","0.4396274322","","","","","","","","74","J","1","","","227","main_expt",""
"","bandit","307","929109","0.0-268.0-0.0","92442854","wem/bandit_either_3","A3MJ47AD05HGC","either","2","301","","","","","","","1","0","0","0.5614220587","","0.2","0.8","0.6","0.4","","","","","0.1374428951","0.5614220587","0.7313296172","0.4581465293","","","","","","","","74","J","1","","","228","main_expt",""
"","bandit","308","930893","0.0-269.0-0.0","92442854","wem/bandit_either_3","A3MJ47AD05HGC","either","2","277","","","","","","","1","0","0","0.536938762","","0.2","0.8","0.6","0.4","","","","","0.2147377822","0.536938762","0.5771612872","0.3635076811","","","","","","","","74","J","1","","","229","main_expt",""
"","bandit","309","932669","0.0-270.0-0.0","92442854","wem/bandit_either_3","A3MJ47AD05HGC","either","2","268","","","","","","","0","0","1","","0.4691369301","0.2","0.8","0.6","0.4","0.2128984172","0.4691369301","0.6474737632","0.4109812081","","","","","","","","","","","","74","J","1","","","230","main_expt",""
"","bandit","310","934404","0.0-271.0-0.0","92442854","wem/bandit_either_3","A3MJ47AD05HGC","either","2","228","","","","","","","0","0","1","0.3801843724","","0.2","0.8","0.6","0.4","","","","","0.2566260117","0.3801843724","0.77083729","0.3769467169","","","","","","","","74","J","1","","","231","main_expt",""
"","bandit","311","936084","0.0-272.0-0.0","92442854","wem/bandit_either_3","A3MJ47AD05HGC","either","2","173","","","","","","","0","0","1","0.4401380948","","0.2","0.8","0.6","0.4","","","","","0.307190163","0.4401380948","0.7372448464","0.4489681289","","","","","","","","74","J","1","","","232","main_expt",""
"","bandit","312","945292","0.0-273.0-0.0","92442854","wem/bandit_either_3","A3MJ47AD05HGC","either","2","7701","","","","","","","1","0","0","0.4589823784","","0.2","0.8","0.6","0.4","","","","","0.3235632008","0.4589823784","0.8061851957","0.5191563331","","","","","","","","74","J","1","","","233","main_expt",""
"","bandit","313","947390","0.0-274.0-0.0","92442854","wem/bandit_either_3","A3MJ47AD05HGC","either","2","590","","","","","","","0","0","1","","0.412850409","0.2","0.8","0.6","0.4","0.2229472669","0.412850409","0.7628128465","0.5635532962","","","","","","","","","","","","74","J","1","","","234","main_expt",""
"","bandit","314","949204","0.0-275.0-0.0","92442854","wem/bandit_either_3","A3MJ47AD05HGC","either","2","308","","","","","","","0","0","1","","0.3071086281","0.2","0.8","0.6","0.4","0.3245092944","0.3071086281","0.7139354314","0.6059211115","","","","","","","","","","","","74","J","1","","","235","main_expt",""
"","bandit","315","950861","0.0-276.0-0.0","92442854","wem/bandit_either_3","A3MJ47AD05HGC","either","2","150","","","","","","","1","0","0","0.3088172556","","0.2","0.8","0.6","0.4","","","","","0.3817813951","0.3088172556","0.8459685894","0.5767319418","","","","","","","","74","J","1","","","236","main_expt",""
"","bandit","316","953548","0.0-277.0-0.0","92442854","wem/bandit_either_3","A3MJ47AD05HGC","either","2","1179","","","","","","","0","0","1","","0.2725525041","0.2","0.8","0.6","0.4","0.5108794425","0.2725525041","0.8258062243","0.6195352853","","","","","","","","","","","","74","J","1","","","237","main_expt",""
"","bandit","317","959205","0.0-278.0-0.0","92442854","wem/bandit_either_3","A3MJ47AD05HGC","either","2","4149","","","","","","","0","0","1","","0.2929581335","0.2","0.8","0.6","0.4","0.545868674","0.2929581335","0.7390020401","0.7504070514","","","","","","","","","","","","74","J","1","","","238","main_expt",""
"","bandit","318","961037","0.0-279.0-0.0","92442854","wem/bandit_either_3","A3MJ47AD05HGC","either","2","325","","","","","","","0","1","0","","0.7159327665","0.2","0.8","0.6","0.4","0.5696008367","0.3009301418","0.7159327665","0.7863609923","","","","","","","","","","","","75","K","2","","","239","main_expt",""
"","bandit","319","962733","0.0-280.0-0.0","92442854","wem/bandit_either_3","A3MJ47AD05HGC","either","2","189","","","","","","","0","0","1","","0.7704913736","0.2","0.8","0.6","0.4","0.7175907516","0.1757133805","0.7704913736","0.7472107855","","","","","","","","","","","","75","K","2","","","240","main_expt",""
"","bandit","320","966139","0.0-281.0-0.0","92442854","wem/bandit_either_3","A3MJ47AD05HGC","either","2","1900","","","","","","","0","0","1","","0.1490953818","0.2","0.8","0.6","0.4","0.8333566257","0.1490953818","0.7832900934","0.7633099306","","","","","","","","","","","","74","J","1","","","241","main_expt",""
"","bandit","321","973918","0.0-282.0-0.0","92442854","wem/bandit_either_3","A3MJ47AD05HGC","either","2","6271","","","","","","","0","1","0","","0.746364214","0.2","0.8","0.6","0.4","0.8661582331","0.1187436938","0.746364214","0.8192624891","","","","","","","","","","","","75","K","2","","","242","main_expt",""
"","bandit","322","976356","0.0-283.0-0.0","92442854","wem/bandit_either_3","A3MJ47AD05HGC","either","2","931","","","","","","","0","0","1","","0.7014576998","0.2","0.8","0.6","0.4","0.8970489214","0.07814629235","0.7014576998","0.7500708258","","","","","","","","","","","","75","K","2","","","243","main_expt",""
"","bandit","323","984468","0.0-284.0-0.0","92442854","wem/bandit_either_3","A3MJ47AD05HGC","either","2","6605","","","","","","","1","0","0","0.6810302351","","0.2","0.8","0.6","0.4","","","","","0.8760308497","0.06497313331","0.6810302351","0.7656319196","","","","","","","","75","K","2","","","244","main_expt",""
"","bandit","324","986300","0.0-285.0-0.0","92442854","wem/bandit_either_3","A3MJ47AD05HGC","either","2","325","","","","","","","0","1","0","","0.5349569219","0.2","0.8","0.6","0.4","0.9080051643","0.1053527342","0.5349569219","0.7726297554","","","","","","","","","","","","75","K","2","","","245","main_expt",""
"","bandit","325","988085","0.0-286.0-0.0","92442854","wem/bandit_either_3","A3MJ47AD05HGC","either","2","277","","","","","","","0","1","0","","0.4945526892","0.2","0.8","0.6","0.4","0.8951486804","0.1410713538","0.4945526892","0.8033922047","","","","","","","","","","","","75","K","2","","","246","main_expt",""
"","bandit","326","989868","0.0-287.0-0.0","92442854","wem/bandit_either_3","A3MJ47AD05HGC","either","2","277","","","","","","","1","0","0","0.5460387822","","0.2","0.8","0.6","0.4","","","","","0.9334174588","0.09435183819","0.5460387822","0.7526368735","","","","","","","","75","K","2","","","247","main_expt",""
"","bandit","327","991565","0.0-288.0-0.0","92442854","wem/bandit_either_3","A3MJ47AD05HGC","either","2","190","","","","","","","1","0","0","0.6153021798","","0.2","0.8","0.6","0.4","","","","","0.9099381955","0.1258691647","0.6153021798","0.8092581246","","","","","","","","75","K","2","","","248","main_expt",""
