"consent","trial_type","trial_index","time_elapsed","internal_node_id","subjID","study","MID","cond","drift","rt","responses","key_press","expt_phase","like","value","connected","gems","bombs","no_reward","GemPrChosen","BombPrChosen","GainOverPainPr_0","GainOverPainPr_1","GainOverPainPr_2","GainOverPainPr_3","LosePr_0","LosePr_1","LosePr_2","LosePr_3","WinPr_0","WinPr_1","WinPr_2","WinPr_3","Q0","Q1","Q2","gender","age","ethnicity","target","respCharCode","respKey","respChoiceNum","respChoice","practice","trial_counter","trial_label","button_pressed"
"INL_behavioral_consent_30min_online.html","consent","0","7613","0.0-0.0","92922785","wem/bandit_either_3","ATGUAXNWCW8NI","either","2","","","","","","","","","","","","","","","","","","","","","","","","","","","","","","","","","","","","","","",""
"","survey-text","1","11830","0.0-1.0","92922785","wem/bandit_either_3","ATGUAXNWCW8NI","either","2","3206","{""Q0"":""ATGUAXNWCW8NI""}","","","","","","","","","","","","","","","","","","","","","","","","","","","","","","","","","","","","",""
"","text","2","20073","0.0-2.0","92922785","wem/bandit_either_3","ATGUAXNWCW8NI","either","2","7226","","32","","","","","","","","","","","","","","","","","","","","","","","","","","","","","","","","","","","",""
"","text","3","25270","0.0-3.0","92922785","wem/bandit_either_3","ATGUAXNWCW8NI","either","2","5197","","32","","","","","","","","","","","","","","","","","","","","","","","","","","","","","","","","","","","",""
"","text","4","27655","0.0-4.0","92922785","wem/bandit_either_3","ATGUAXNWCW8NI","either","2","2385","","32","","","","","","","","","","","","","","","","","","","","","","","","","","","","","","","","","","","",""
"","text","5","35851","0.0-5.0","92922785","wem/bandit_either_3","ATGUAXNWCW8NI","either","2","8195","","32","","","","","","","","","","","","","","","","","","","","","","","","","","","","","","","","","","","",""
"","text","6","49462","0.0-6.0","92922785","wem/bandit_either_3","ATGUAXNWCW8NI","either","2","13610","","32","","","","","","","","","","","","","","","","","","","","","","","","","","","","","","","","","","","",""
"","text","7","54114","0.0-7.0","92922785","wem/bandit_either_3","ATGUAXNWCW8NI","either","2","4652","","32","","","","","","","","","","","","","","","","","","","","","","","","","","","","","","","","","","","",""
"","text","8","58198","0.0-8.0","92922785","wem/bandit_either_3","ATGUAXNWCW8NI","either","2","4084","","32","","","","","","","","","","","","","","","","","","","","","","","","","","","","","","","","","","","",""
"","identification","9","70352","0.0-9.0-0.0","92922785","wem/bandit_either_3","ATGUAXNWCW8NI","either","2","12130","","","","4","4","4","","","","","","","","","","","","","","","","","","","","","","","","the village of Zur","","","","","","","",""
"","identification","10","83972","0.0-9.0-1.0","92922785","wem/bandit_either_3","ATGUAXNWCW8NI","either","2","12599","","","","4","4","4","","","","","","","","","","","","","","","","","","","","","","","","the village of Nyx","","","","","","","",""
"","text","11","90198","0.0-10.0","92922785","wem/bandit_either_3","ATGUAXNWCW8NI","either","2","5220","","32","","","","","","","","","","","","","","","","","","","","","","","","","","","","","","","","","","","",""
"","text","12","92819","0.0-11.0","92922785","wem/bandit_either_3","ATGUAXNWCW8NI","either","2","2621","","32","","","","","","","","","","","","","","","","","","","","","","","","","","","","","","","","","","","",""
"","text","13","94388","0.0-12.0","92922785","wem/bandit_either_3","ATGUAXNWCW8NI","either","2","1559","","32","","","","","","","","","","","","","","","","","","","","","","","","","","","","","","","","","","","",""
"","text","14","100378","0.0-13.0","92922785","wem/bandit_either_3","ATGUAXNWCW8NI","either","2","5990","","32","","","","","","","","","","","","","","","","","","","","","","","","","","","","","","","","","","","",""
"","bandit","15","103492","0.0-14.0-0.0","92922785","wem/bandit_either_3","ATGUAXNWCW8NI","either","2","1600","","","","","","","0","0","1","0","0","","","","","0","","","","0","","","","","","","","","","","74","J","0","img/none_selected_demo.jpg","true","0","",""
"","bandit","16","106272","0.0-15.0-0.0","92922785","wem/bandit_either_3","ATGUAXNWCW8NI","either","2","1265","","","","","","","0","0","1","0","0","","","","","0","","","","0","","","","","","","","","","","75","K","0","img/none_selected_demo.jpg","true","0","",""
"","text","17","108964","0.0-16.0","92922785","wem/bandit_either_3","ATGUAXNWCW8NI","either","2","2692","","32","","","","","","","","","","","","","","","","","","","","","","","","","","","","","","","","","","","",""
"","text","18","112104","0.0-17.0","92922785","wem/bandit_either_3","ATGUAXNWCW8NI","either","2","3140","","32","","","","","","","","","","","","","","","","","","","","","","","","","","","","","","","","","","","",""
"","text","19","115707","0.0-18.0","92922785","wem/bandit_either_3","ATGUAXNWCW8NI","either","2","3603","","32","","","","","","","","","","","","","","","","","","","","","","","","","","","","","","","","","","","",""
"","text","20","118249","0.0-19.0","92922785","wem/bandit_either_3","ATGUAXNWCW8NI","either","2","2542","","32","","","","","","","","","","","","","","","","","","","","","","","","","","","","","","","","","","","",""
"","bandit","21","120493","0.0-20.0-0.0","92922785","wem/bandit_either_3","ATGUAXNWCW8NI","either","2","731","","","","","","","0","1","0","","0.8","0.5","0.5","","","0.8","0.2","","","","","","","","","","","","","","74","J","0","img/none_selected_demo.jpg","true","0","80_20_practice",""
"","bandit","22","122407","0.0-20.0-1.0","92922785","wem/bandit_either_3","ATGUAXNWCW8NI","either","2","397","","","","","","","1","0","0","0.8","","0.5","0.5","","","","","","","0.8","0.2","","","","","","","","","","74","J","0","img/none_selected_demo.jpg","true","0","80_20_practice",""
"","bandit","23","124195","0.0-20.0-2.0","92922785","wem/bandit_either_3","ATGUAXNWCW8NI","either","2","272","","","","","","","0","0","1","","0.8","0.5","0.5","","","0.8","0.2","","","","","","","","","","","","","","74","J","0","img/none_selected_demo.jpg","true","0","80_20_practice",""
"","bandit","24","125999","0.0-20.0-3.0","92922785","wem/bandit_either_3","ATGUAXNWCW8NI","either","2","294","","","","","","","0","1","0","","0.8","0.5","0.5","","","0.8","0.2","","","","","","","","","","","","","","74","J","0","img/none_selected_demo.jpg","true","0","80_20_practice",""
"","bandit","25","127780","0.0-20.0-4.0","92922785","wem/bandit_either_3","ATGUAXNWCW8NI","either","2","260","","","","","","","1","0","0","0.8","","0.5","0.5","","","","","","","0.8","0.2","","","","","","","","","","74","J","0","img/none_selected_demo.jpg","true","0","80_20_practice",""
"","bandit","26","129602","0.0-20.0-5.0","92922785","wem/bandit_either_3","ATGUAXNWCW8NI","either","2","308","","","","","","","0","0","1","0.2","","0.5","0.5","","","","","","","0.8","0.2","","","","","","","","","","75","K","1","","true","0","80_20_practice",""
"","bandit","27","131569","0.0-20.0-6.0","92922785","wem/bandit_either_3","ATGUAXNWCW8NI","either","2","450","","","","","","","1","0","0","0.2","","0.5","0.5","","","","","","","0.8","0.2","","","","","","","","","","75","K","1","","true","0","80_20_practice",""
"","bandit","28","133377","0.0-20.0-7.0","92922785","wem/bandit_either_3","ATGUAXNWCW8NI","either","2","289","","","","","","","1","0","0","0.8","","0.5","0.5","","","","","","","0.8","0.2","","","","","","","","","","74","J","0","img/none_selected_demo.jpg","true","0","80_20_practice",""
"","bandit","29","136305","0.0-20.0-8.0","92922785","wem/bandit_either_3","ATGUAXNWCW8NI","either","2","1415","","","","","","","0","0","1","","0.2","0.5","0.5","","","0.8","0.2","","","","","","","","","","","","","","75","K","1","","true","0","80_20_practice",""
"","bandit","30","139011","0.0-20.0-9.0","92922785","wem/bandit_either_3","ATGUAXNWCW8NI","either","2","1194","","","","","","","0","1","0","","0.2","0.5","0.5","","","0.8","0.2","","","","","","","","","","","","","","75","K","1","","true","0","80_20_practice",""
"","bandit","31","140920","0.0-20.0-10.0","92922785","wem/bandit_either_3","ATGUAXNWCW8NI","either","2","384","","","","","","","0","0","1","0.2","","0.5","0.5","","","","","","","0.8","0.2","","","","","","","","","","75","K","1","","true","0","80_20_practice",""
"","bandit","32","142630","0.0-20.0-11.0","92922785","wem/bandit_either_3","ATGUAXNWCW8NI","either","2","185","","","","","","","0","0","1","0.2","","0.5","0.5","","","","","","","0.8","0.2","","","","","","","","","","75","K","1","","true","0","80_20_practice",""
"","bandit","33","144457","0.0-20.0-12.0","92922785","wem/bandit_either_3","ATGUAXNWCW8NI","either","2","306","","","","","","","0","0","1","","0.2","0.5","0.5","","","0.8","0.2","","","","","","","","","","","","","","75","K","1","","true","0","80_20_practice",""
"","bandit","34","146180","0.0-20.0-13.0","92922785","wem/bandit_either_3","ATGUAXNWCW8NI","either","2","209","","","","","","","1","0","0","0.8","","0.5","0.5","","","","","","","0.8","0.2","","","","","","","","","","74","J","0","img/none_selected_demo.jpg","true","0","80_20_practice",""
"","bandit","35","147979","0.0-20.0-14.0","92922785","wem/bandit_either_3","ATGUAXNWCW8NI","either","2","287","","","","","","","1","0","0","0.8","","0.5","0.5","","","","","","","0.8","0.2","","","","","","","","","","74","J","0","img/none_selected_demo.jpg","true","0","80_20_practice",""
"","bandit","36","149781","0.0-20.0-15.0","92922785","wem/bandit_either_3","ATGUAXNWCW8NI","either","2","286","","","","","","","0","0","1","","0.8","0.5","0.5","","","0.8","0.2","","","","","","","","","","","","","","74","J","0","img/none_selected_demo.jpg","true","0","80_20_practice",""
"","bandit","37","151446","0.0-20.0-16.0","92922785","wem/bandit_either_3","ATGUAXNWCW8NI","either","2","147","","","","","","","0","1","0","","0.2","0.5","0.5","","","0.8","0.2","","","","","","","","","","","","","","75","K","1","","true","0","80_20_practice",""
"","bandit","38","153210","0.0-20.0-17.0","92922785","wem/bandit_either_3","ATGUAXNWCW8NI","either","2","254","","","","","","","1","0","0","0.8","","0.5","0.5","","","","","","","0.8","0.2","","","","","","","","","","74","J","0","img/none_selected_demo.jpg","true","0","80_20_practice",""
"","bandit","39","154980","0.0-20.0-18.0","92922785","wem/bandit_either_3","ATGUAXNWCW8NI","either","2","256","","","","","","","1","0","0","0.8","","0.5","0.5","","","","","","","0.8","0.2","","","","","","","","","","74","J","0","img/none_selected_demo.jpg","true","0","80_20_practice",""
"","bandit","40","156593","0.0-20.0-19.0","92922785","wem/bandit_either_3","ATGUAXNWCW8NI","either","2","95","","","","","","","0","0","1","","0.8","0.5","0.5","","","0.8","0.2","","","","","","","","","","","","","","74","J","0","img/none_selected_demo.jpg","true","0","80_20_practice",""
"","text","41","159336","0.0-21.0","92922785","wem/bandit_either_3","ATGUAXNWCW8NI","either","2","2743","","32","","","","","","","","","","","","","","","","","","","","","","","","","","","","","","","","","","","",""
"","bandit","42","161590","0.0-22.0-0.0","92922785","wem/bandit_either_3","ATGUAXNWCW8NI","either","2","732","","","","","","","1","0","0","1","0","","","","","0","1","","","1","0","","","","","","","","","","74","J","0","img/none_selected_demo.jpg","true","0","",""
"","text","43","163752","0.0-23.0","92922785","wem/bandit_either_3","ATGUAXNWCW8NI","either","2","2162","","32","","","","","","","","","","","","","","","","","","","","","","","","","","","","","","","","","","","",""
"","text","44","166466","0.0-24.0","92922785","wem/bandit_either_3","ATGUAXNWCW8NI","either","2","2714","","32","","","","","","","","","","","","","","","","","","","","","","","","","","","","","","","","","","","",""
"","text","45","169093","0.0-25.0","92922785","wem/bandit_either_3","ATGUAXNWCW8NI","either","2","2617","","32","","","","","","","","","","","","","","","","","","","","","","","","","","","","","","","","","","","",""
"","text","46","171466","0.0-26.0","92922785","wem/bandit_either_3","ATGUAXNWCW8NI","either","2","2373","","32","","","","","","","","","","","","","","","","","","","","","","","","","","","","","","","","","","","",""
"","text","47","172660","0.0-27.0","92922785","wem/bandit_either_3","ATGUAXNWCW8NI","either","2","1194","","32","","","","","","","","","","","","","","","","","","","","","","","","","","","","","","","","","","","",""
"","text","48","173274","0.0-28.0","92922785","wem/bandit_either_3","ATGUAXNWCW8NI","either","2","614","","32","","","","","","","","","","","","","","","","","","","","","","","","","","","","","","","","","","","",""
"","text","49","173831","0.0-29.0","92922785","wem/bandit_either_3","ATGUAXNWCW8NI","either","2","557","","32","","","","","","","","","","","","","","","","","","","","","","","","","","","","","","","","","","","",""
"","text","50","175366","0.0-30.0","92922785","wem/bandit_either_3","ATGUAXNWCW8NI","either","2","1535","","32","","","","","","","","","","","","","","","","","","","","","","","","","","","","","","","","","","","",""
"","text","51","181211","0.0-31.0","92922785","wem/bandit_either_3","ATGUAXNWCW8NI","either","2","5835","","32","","","","","","","","","","","","","","","","","","","","","","","","","","","","","","","","","","","",""
"","text","52","181944","0.0-32.0","92922785","wem/bandit_either_3","ATGUAXNWCW8NI","either","2","733","","32","","","","","","","","","","","","","","","","","","","","","","","","","","","","","","","","","","","",""
"","text","53","184331","0.0-33.0","92922785","wem/bandit_either_3","ATGUAXNWCW8NI","either","2","2386","","32","","","","","","","","","","","","","","","","","","","","","","","","","","","","","","","","","","","",""
"","bandit","54","186701","0.0-34.0-0.0","92922785","wem/bandit_either_3","ATGUAXNWCW8NI","either","2","858","","","","","","","0","1","0","","0.8","0.5","0.5","0.5","0.5","0.8","0.2","0.6","0.2","","","","","","","","","","","","72","H","0","img/none_selected.jpg","true","0","full_practice",""
"","bandit","55","188763","0.0-34.0-1.0","92922785","wem/bandit_either_3","ATGUAXNWCW8NI","either","2","556","","","","","","","0","0","1","","0.8","0.5","0.5","0.5","0.5","0.8","0.2","0.6","0.2","","","","","","","","","","","","72","H","0","img/none_selected.jpg","true","0","full_practice",""
"","bandit","56","190300","0.0-34.0-2.0","92922785","wem/bandit_either_3","ATGUAXNWCW8NI","either","2","31","","","","","","","1","0","0","0.8","","0.5","0.5","0.5","0.5","","","","","0.8","0.2","0.6","0.2","","","","","","","","72","H","0","img/none_selected.jpg","true","0","full_practice",""
"","bandit","57","192068","0.0-34.0-3.0","92922785","wem/bandit_either_3","ATGUAXNWCW8NI","either","2","250","","","","","","","1","0","0","0.8","","0.5","0.5","0.5","0.5","","","","","0.8","0.2","0.6","0.2","","","","","","","","72","H","0","img/none_selected.jpg","true","0","full_practice",""
"","bandit","58","193581","0.0-34.0-4.0","92922785","wem/bandit_either_3","ATGUAXNWCW8NI","either","2","0","","","","","","","0","0","1","0.2","","0.5","0.5","0.5","0.5","","","","","0.8","0.2","0.6","0.2","","","","","","","","74","J","1","","true","0","full_practice",""
"","bandit","59","196600","0.0-34.0-5.0","92922785","wem/bandit_either_3","ATGUAXNWCW8NI","either","2","1499","","","","","","","0","0","1","0.2","","0.5","0.5","0.5","0.5","","","","","0.8","0.2","0.6","0.2","","","","","","","","74","J","1","","true","0","full_practice",""
"","bandit","60","198375","0.0-34.0-6.0","92922785","wem/bandit_either_3","ATGUAXNWCW8NI","either","2","252","","","","","","","1","0","0","0.6","","0.5","0.5","0.5","0.5","","","","","0.8","0.2","0.6","0.2","","","","","","","","75","K","2","","true","0","full_practice",""
"","bandit","61","200112","0.0-34.0-7.0","92922785","wem/bandit_either_3","ATGUAXNWCW8NI","either","2","221","","","","","","","0","1","0","","0.6","0.5","0.5","0.5","0.5","0.8","0.2","0.6","0.2","","","","","","","","","","","","75","K","2","","true","0","full_practice",""
"","bandit","62","201861","0.0-34.0-8.0","92922785","wem/bandit_either_3","ATGUAXNWCW8NI","either","2","234","","","","","","","0","1","0","","0.6","0.5","0.5","0.5","0.5","0.8","0.2","0.6","0.2","","","","","","","","","","","","75","K","2","","true","0","full_practice",""
"","bandit","63","203506","0.0-34.0-9.0","92922785","wem/bandit_either_3","ATGUAXNWCW8NI","either","2","126","","","","","","","0","0","1","","0.2","0.5","0.5","0.5","0.5","0.8","0.2","0.6","0.2","","","","","","","","","","","","76","L","3","","true","0","full_practice",""
"","bandit","64","206491","0.0-34.0-10.0","92922785","wem/bandit_either_3","ATGUAXNWCW8NI","either","2","1481","","","","","","","0","0","1","","0.2","0.5","0.5","0.5","0.5","0.8","0.2","0.6","0.2","","","","","","","","","","","","76","L","3","","true","0","full_practice",""
"","bandit","65","208006","0.0-34.0-11.0","92922785","wem/bandit_either_3","ATGUAXNWCW8NI","either","2","1","","","","","","","0","0","1","","0.2","0.5","0.5","0.5","0.5","0.8","0.2","0.6","0.2","","","","","","","","","","","","74","J","1","","true","0","full_practice",""
"","bandit","66","209791","0.0-34.0-12.0","92922785","wem/bandit_either_3","ATGUAXNWCW8NI","either","2","274","","","","","","","1","0","0","0.8","","0.5","0.5","0.5","0.5","","","","","0.8","0.2","0.6","0.2","","","","","","","","72","H","0","img/none_selected.jpg","true","0","full_practice",""
"","bandit","67","211436","0.0-34.0-13.0","92922785","wem/bandit_either_3","ATGUAXNWCW8NI","either","2","118","","","","","","","1","0","0","0.8","","0.5","0.5","0.5","0.5","","","","","0.8","0.2","0.6","0.2","","","","","","","","72","H","0","img/none_selected.jpg","true","0","full_practice",""
"","bandit","68","212990","0.0-34.0-14.0","92922785","wem/bandit_either_3","ATGUAXNWCW8NI","either","2","47","","","","","","","0","0","1","","0.6","0.5","0.5","0.5","0.5","0.8","0.2","0.6","0.2","","","","","","","","","","","","75","K","2","","true","0","full_practice",""
"","bandit","69","214523","0.0-34.0-15.0","92922785","wem/bandit_either_3","ATGUAXNWCW8NI","either","2","31","","","","","","","1","0","0","0.6","","0.5","0.5","0.5","0.5","","","","","0.8","0.2","0.6","0.2","","","","","","","","75","K","2","","true","0","full_practice",""
"","bandit","70","216182","0.0-34.0-16.0","92922785","wem/bandit_either_3","ATGUAXNWCW8NI","either","2","137","","","","","","","0","1","0","","0.6","0.5","0.5","0.5","0.5","0.8","0.2","0.6","0.2","","","","","","","","","","","","75","K","2","","true","0","full_practice",""
"","bandit","71","217761","0.0-34.0-17.0","92922785","wem/bandit_either_3","ATGUAXNWCW8NI","either","2","67","","","","","","","0","0","1","","0.2","0.5","0.5","0.5","0.5","0.8","0.2","0.6","0.2","","","","","","","","","","","","74","J","1","","true","0","full_practice",""
"","bandit","72","219365","0.0-34.0-18.0","92922785","wem/bandit_either_3","ATGUAXNWCW8NI","either","2","85","","","","","","","0","0","1","","0.2","0.5","0.5","0.5","0.5","0.8","0.2","0.6","0.2","","","","","","","","","","","","76","L","3","","true","0","full_practice",""
"","bandit","73","222631","0.0-34.0-19.0","92922785","wem/bandit_either_3","ATGUAXNWCW8NI","either","2","1746","","","","","","","0","0","1","","0.2","0.5","0.5","0.5","0.5","0.8","0.2","0.6","0.2","","","","","","","","","","","","76","L","3","","true","0","full_practice",""
"","text","74","222937","0.0-35.0","92922785","wem/bandit_either_3","ATGUAXNWCW8NI","either","2","306","","32","","","","","","","","","","","","","","","","","","","","","","","","","","","","","","","","","","","",""
"","text","75","233672","0.0-36.0","92922785","wem/bandit_either_3","ATGUAXNWCW8NI","either","2","9723","","32","","","","","","","","","","","","","","","","","","","","","","","","","","","","","","","","","","","",""
"","text","76","237395","0.0-37.0","92922785","wem/bandit_either_3","ATGUAXNWCW8NI","either","2","3723","","32","","","","","","","","","","","","","","","","","","","","","","","","","","","","","","","","","","","",""
"","text","77","237846","0.0-38.0","92922785","wem/bandit_either_3","ATGUAXNWCW8NI","either","2","441","","32","","","","","","","","","","","","","","","","","","","","","","","","","","","","","","","","","","","",""
"","text","78","238137","0.0-39.0","92922785","wem/bandit_either_3","ATGUAXNWCW8NI","either","2","291","","32","","","","","","","","","","","","","","","","","","","","","","","","","","","","","","","","","","","",""
"","text","79","238460","0.0-40.0","92922785","wem/bandit_either_3","ATGUAXNWCW8NI","either","2","322","","32","","","","","","","","","","","","","","","","","","","","","","","","","","","","","","","","","","","",""
"","bandit","80","240501","0.0-41.0-0.0","92922785","wem/bandit_either_3","ATGUAXNWCW8NI","either","2","520","","","","","","","1","0","0","0.7961415707","","0.8","0.2","0.4","0.6","","","","","0.4841938304","0.7961415707","0.9925337928","0.7092854079","","","","","","","","74","J","1","","","1","main_expt",""
"","bandit","81","242531","0.0-42.0-0.0","92922785","wem/bandit_either_3","ATGUAXNWCW8NI","either","2","510","","","","","","","0","1","0","","0.7739630809","0.8","0.2","0.4","0.6","0.5300888233","0.7739630809","0.9909612399","0.7343230146","","","","","","","","","","","","74","J","1","","","2","main_expt",""
"","bandit","82","244178","0.0-43.0-0.0","92922785","wem/bandit_either_3","ATGUAXNWCW8NI","either","2","134","","","","","","","0","0","1","0.4747636274","","0.8","0.2","0.4","0.6","","","","","0.4747636274","0.807852523","0.9875934203","0.7616266478","","","","","","","","72","H","0","img/none_selected.jpg","","3","main_expt",""
"","bandit","83","245812","0.0-44.0-0.0","92922785","wem/bandit_either_3","ATGUAXNWCW8NI","either","2","121","","","","","","","0","1","0","","0.9782241123","0.8","0.2","0.4","0.6","0.4841015375","0.7922386472","0.9782241123","0.7555889459","","","","","","","","","","","","75","K","2","","","4","main_expt",""
"","bandit","84","247482","0.0-45.0-0.0","92922785","wem/bandit_either_3","ATGUAXNWCW8NI","either","2","164","","","","","","","0","0","1","0.733520678","","0.8","0.2","0.4","0.6","","","","","0.5545204825","0.865094385","0.9756627961","0.733520678","","","","","","","","76","L","3","","","5","main_expt",""
"","bandit","85","249057","0.0-46.0-0.0","92922785","wem/bandit_either_3","ATGUAXNWCW8NI","either","2","58","","","","","","","0","1","0","","0.6705264102","0.8","0.2","0.4","0.6","0.6032406034","0.800956518","0.967089612","0.6705264102","","","","","","","","","","","","76","L","3","","","6","main_expt",""
"","bandit","86","250792","0.0-47.0-0.0","92922785","wem/bandit_either_3","ATGUAXNWCW8NI","either","2","216","","","","","","","0","1","0","","0.6395389268","0.8","0.2","0.4","0.6","0.6629125932","0.826484282","0.9581374084","0.6395389268","","","","","","","","","","","","76","L","3","","","7","main_expt",""
"","bandit","87","252474","0.0-48.0-0.0","92922785","wem/bandit_either_3","ATGUAXNWCW8NI","either","2","177","","","","","","","0","0","1","","0.9470057872","0.8","0.2","0.4","0.6","0.6179372523","0.8721258401","0.9470057872","0.6463283336","","","","","","","","","","","","75","K","2","","","8","main_expt",""
"","bandit","88","254053","0.0-49.0-0.0","92922785","wem/bandit_either_3","ATGUAXNWCW8NI","either","2","61","","","","","","","1","0","0","0.9776699295","","0.8","0.2","0.4","0.6","","","","","0.7126464358","0.9123847657","0.9776699295","0.5257156782","","","","","","","","75","K","2","","","9","main_expt",""
"","bandit","89","255652","0.0-50.0-0.0","92922785","wem/bandit_either_3","ATGUAXNWCW8NI","either","2","78","","","","","","","1","0","0","0.9728878591","","0.8","0.2","0.4","0.6","","","","","0.7356985298","0.8996742502","0.9728878591","0.4763364632","","","","","","","","75","K","2","","","10","main_expt",""
"","bandit","90","257802","0.0-51.0-0.0","92922785","wem/bandit_either_3","ATGUAXNWCW8NI","either","2","623","","","","","","","0","0","1","","0.9131723876","0.8","0.2","0.4","0.6","0.768711937","0.9131723876","0.9593139104","0.4284616273","","","","","","","","","","","","74","J","1","","","11","main_expt",""
"","bandit","91","259986","0.0-52.0-0.0","92922785","wem/bandit_either_3","ATGUAXNWCW8NI","either","2","673","","","","","","","0","1","0","","0.8766857583","0.8","0.2","0.4","0.6","0.775032537","0.8766857583","0.9498917819","0.3846657661","","","","","","","","","","","","74","J","1","","","12","main_expt",""
"","bandit","92","261772","0.0-53.0-0.0","92922785","wem/bandit_either_3","ATGUAXNWCW8NI","either","2","257","","","","","","","0","0","1","","0.8005481332","0.8","0.2","0.4","0.6","0.8005481332","0.8395211377","0.9541602679","0.4534267517","","","","","","","","","","","","72","H","0","img/none_selected.jpg","","13","main_expt",""
"","bandit","93","263572","0.0-54.0-0.0","92922785","wem/bandit_either_3","ATGUAXNWCW8NI","either","2","280","","","","","","","1","0","0","0.8437703121","","0.8","0.2","0.4","0.6","","","","","0.8437703121","0.8716273459","0.9457654821","0.5781166702","","","","","","","","72","H","0","img/none_selected.jpg","","14","main_expt",""
"","bandit","94","265354","0.0-55.0-0.0","92922785","wem/bandit_either_3","ATGUAXNWCW8NI","either","2","259","","","","","","","1","0","0","0.7878475566","","0.8","0.2","0.4","0.6","","","","","0.7878475566","0.8884181174","0.961431504","0.6683268695","","","","","","","","72","H","0","img/none_selected.jpg","","15","main_expt",""
"","bandit","95","267173","0.0-56.0-0.0","92922785","wem/bandit_either_3","ATGUAXNWCW8NI","either","2","298","","","","","","","0","1","0","","0.9614480804","0.8","0.2","0.4","0.6","0.7873795395","0.9144873871","0.9614480804","0.6948649322","","","","","","","","","","","","75","K","2","","","16","main_expt",""
"","bandit","96","268736","0.0-57.0-0.0","92922785","wem/bandit_either_3","ATGUAXNWCW8NI","either","2","54","","","","","","","0","1","0","","0.915766025","0.8","0.2","0.4","0.6","0.8084550093","0.915766025","0.981184269","0.7674725463","","","","","","","","","","","","74","J","1","","","17","main_expt",""
"","bandit","97","270272","0.0-58.0-0.0","92922785","wem/bandit_either_3","ATGUAXNWCW8NI","either","2","28","","","","","","","1","0","0","0.9861919244","","0.8","0.2","0.4","0.6","","","","","0.8436933745","0.9357816117","0.9861919244","0.7706733977","","","","","","","","75","K","2","","","18","main_expt",""
"","bandit","98","271856","0.0-59.0-0.0","92922785","wem/bandit_either_3","ATGUAXNWCW8NI","either","2","69","","","","","","","0","1","0","","0.7396491891","0.8","0.2","0.4","0.6","0.8059530903","0.9482019282","0.986789567","0.7396491891","","","","","","","","","","","","76","L","3","","","19","main_expt",""
"","bandit","99","273384","0.0-60.0-0.0","92922785","wem/bandit_either_3","ATGUAXNWCW8NI","either","2","10","","","","","","","0","0","1","0.7839513496","","0.8","0.2","0.4","0.6","","","","","0.7839513496","0.9433726768","0.986183881","0.6712916173","","","","","","","","72","H","0","img/none_selected.jpg","","20","main_expt",""
"","bandit","100","274962","0.0-61.0-0.0","92922785","wem/bandit_either_3","ATGUAXNWCW8NI","either","2","69","","","","","","","0","0","1","","0.7841815244","0.8","0.2","0.4","0.6","0.7841815244","0.9488284628","0.9887099493","0.6728887443","","","","","","","","","","","","72","H","0","img/none_selected.jpg","","21","main_expt",""
"","bandit","101","276582","0.0-62.0-0.0","92922785","wem/bandit_either_3","ATGUAXNWCW8NI","either","2","99","","","","","","","1","0","0","0.8256278583","","0.8","0.2","0.4","0.6","","","","","0.8256278583","0.9500515088","0.992558567","0.7838502077","","","","","","","","72","H","0","img/none_selected.jpg","","22","main_expt",""
"","bandit","102","278143","0.0-63.0-0.0","92922785","wem/bandit_either_3","ATGUAXNWCW8NI","either","2","53","","","","","","","0","1","0","","0.9645760881","0.8","0.2","0.4","0.6","0.7043778873","0.9645760881","0.9906074595","0.8711917965","","","","","","","","","","","","74","J","1","","","23","main_expt",""
"","bandit","103","279732","0.0-64.0-0.0","92922785","wem/bandit_either_3","ATGUAXNWCW8NI","either","2","72","","","","","","","1","0","0","0.7662705475","","0.8","0.2","0.4","0.6","","","","","0.7662705475","0.946785539","0.9828703082","0.861124964","","","","","","","","72","H","0","img/none_selected.jpg","","24","main_expt",""
"","bandit","104","281353","0.0-65.0-0.0","92922785","wem/bandit_either_3","ATGUAXNWCW8NI","either","2","98","","","","","","","0","1","0","","0.984618899","0.8","0.2","0.4","0.6","0.6915147264","0.9229473608","0.984618899","0.8551403996","","","","","","","","","","","","75","K","2","","","25","main_expt",""
"","bandit","105","282962","0.0-66.0-0.0","92922785","wem/bandit_either_3","ATGUAXNWCW8NI","either","2","98","","","","","","","0","1","0","","0.8729820127","0.8","0.2","0.4","0.6","0.6844606422","0.8729820127","0.9780938917","0.8959771014","","","","","","","","","","","","74","J","1","","","26","main_expt",""
"","bandit","106","284582","0.0-67.0-0.0","92922785","wem/bandit_either_3","ATGUAXNWCW8NI","either","2","97","","","","","","","1","0","0","0.7953701942","","0.8","0.2","0.4","0.6","","","","","0.7953701942","0.859067388","0.9634866904","0.8786292531","","","","","","","","72","H","0","img/none_selected.jpg","","27","main_expt",""
"","bandit","107","286330","0.0-68.0-0.0","92922785","wem/bandit_either_3","ATGUAXNWCW8NI","either","2","244","","","","","","","1","0","0","0.622657036","","0.8","0.2","0.4","0.6","","","","","0.622657036","0.836267867","0.946494378","0.8920593834","","","","","","","","72","H","0","img/none_selected.jpg","","28","main_expt",""
"","bandit","108","288052","0.0-69.0-0.0","92922785","wem/bandit_either_3","ATGUAXNWCW8NI","either","2","198","","","","","","","0","1","0","","0.8234517222","0.8","0.2","0.4","0.6","0.5757463716","0.7158546556","0.9338647731","0.8234517222","","","","","","","","","","","","76","L","3","","","29","main_expt",""
"","bandit","109","289792","0.0-70.0-0.0","92922785","wem/bandit_either_3","ATGUAXNWCW8NI","either","2","229","","","","","","","1","0","0","0.6048158844","","0.8","0.2","0.4","0.6","","","","","0.6048158844","0.7262950886","0.9354801528","0.7963444676","","","","","","","","72","H","0","img/none_selected.jpg","","30","main_expt",""
"","bandit","110","291566","0.0-71.0-0.0","92922785","wem/bandit_either_3","ATGUAXNWCW8NI","either","2","261","","","","","","","0","0","1","0.4831208743","","0.8","0.2","0.4","0.6","","","","","0.4831208743","0.7049485024","0.9323861487","0.6847131082","","","","","","","","72","H","0","img/none_selected.jpg","","31","main_expt",""
"","bandit","111","293223","0.0-72.0-0.0","92922785","wem/bandit_either_3","ATGUAXNWCW8NI","either","2","133","","","","","","","0","1","0","","0.6294605358","0.8","0.2","0.4","0.6","0.4413454117","0.6294605358","0.9159531952","0.7745616343","","","","","","","","","","","","74","J","1","","","32","main_expt",""
"","bandit","112","294803","0.0-73.0-0.0","92922785","wem/bandit_either_3","ATGUAXNWCW8NI","either","2","68","","","","","","","1","0","0","0.589686364","","0.8","0.2","0.4","0.6","","","","","0.589686364","0.7097184707","0.9501333659","0.8111568365","","","","","","","","72","H","0","img/none_selected.jpg","","33","main_expt",""
"","bandit","113","297182","0.0-74.0-0.0","92922785","wem/bandit_either_3","ATGUAXNWCW8NI","either","2","869","","","","","","","0","0","1","","0.5789977489","0.8","0.2","0.4","0.6","0.5789977489","0.6324728327","0.9485118263","0.7291364049","","","","","","","","","","","","72","H","0","img/none_selected.jpg","","34","main_expt",""
"","bandit","114","299893","0.0-75.0-0.0","92922785","wem/bandit_either_3","ATGUAXNWCW8NI","either","2","1193","","","","","","","1","0","0","0.5605822786","","0.8","0.2","0.4","0.6","","","","","0.5605822786","0.6809104991","0.959491173","0.7920219322","","","","","","","","72","H","0","img/none_selected.jpg","","35","main_expt",""
"","bandit","115","301463","0.0-76.0-0.0","92922785","wem/bandit_either_3","ATGUAXNWCW8NI","either","2","54","","","","","","","0","0","1","","0.3330948712","0.8","0.2","0.4","0.6","0.3330948712","0.5745256001","0.9523687656","0.7889809596","","","","","","","","","","","","72","H","0","img/none_selected.jpg","","36","main_expt",""
"","bandit","116","303222","0.0-77.0-0.0","92922785","wem/bandit_either_3","ATGUAXNWCW8NI","either","2","244","","","","","","","0","1","0","","0.6249275122","0.8","0.2","0.4","0.6","0.2430176499","0.6249275122","0.9504344127","0.8060385269","","","","","","","","","","","","74","J","1","","","37","main_expt",""
"","bandit","117","305142","0.0-78.0-0.0","92922785","wem/bandit_either_3","ATGUAXNWCW8NI","either","2","398","","","","","","","0","1","0","","0.3106083343","0.8","0.2","0.4","0.6","0.3106083343","0.5582777804","0.9321408283","0.7188782676","","","","","","","","","","","","72","H","0","img/none_selected.jpg","","38","main_expt",""
"","bandit","118","307281","0.0-79.0-0.0","92922785","wem/bandit_either_3","ATGUAXNWCW8NI","either","2","632","","","","","","","0","0","1","0.3239447463","","0.8","0.2","0.4","0.6","","","","","0.3239447463","0.6619895395","0.9135525369","0.7387945131","","","","","","","","72","H","0","img/none_selected.jpg","","39","main_expt",""
"","bandit","119","309343","0.0-80.0-0.0","92922785","wem/bandit_either_3","ATGUAXNWCW8NI","either","2","553","","","","","","","0","0","1","","0.2946631509","0.8","0.2","0.4","0.6","0.2946631509","0.6522152691","0.8840916364","0.7478035428","","","","","","","","","","","","72","H","0","img/none_selected.jpg","","40","main_expt",""
"","bandit","120","311532","0.0-81.0-0.0","92922785","wem/bandit_either_3","ATGUAXNWCW8NI","either","2","656","","","","","","","0","0","1","0.193597671","","0.8","0.2","0.4","0.6","","","","","0.193597671","0.6714070371","0.8747037504","0.7802386085","","","","","","","","72","H","0","img/none_selected.jpg","","41","main_expt",""
"","bandit","121","313855","0.0-82.0-0.0","92922785","wem/bandit_either_3","ATGUAXNWCW8NI","either","2","810","","","","","","","1","0","0","0.1834529884","","0.8","0.2","0.4","0.6","","","","","0.1834529884","0.6390104416","0.826315498","0.7994277013","","","","","","","","72","H","0","img/none_selected.jpg","","42","main_expt",""
"","bandit","122","315692","0.0-83.0-0.0","92922785","wem/bandit_either_3","ATGUAXNWCW8NI","either","2","307","","","","","","","0","0","1","","0.1558663495","0.8","0.2","0.4","0.6","0.1558663495","0.6318841448","0.7681371561","0.8718069658","","","","","","","","","","","","72","H","0","img/none_selected.jpg","","43","main_expt",""
"","bandit","123","317462","0.0-84.0-0.0","92922785","wem/bandit_either_3","ATGUAXNWCW8NI","either","2","247","","","","","","","0","0","1","","0.5708139437","0.8","0.2","0.4","0.6","0.1573065196","0.5708139437","0.7584360225","0.7725207311","","","","","","","","","","","","74","J","1","","","44","main_expt",""
"","bandit","124","319281","0.0-85.0-0.0","92922785","wem/bandit_either_3","ATGUAXNWCW8NI","either","2","305","","","","","","","1","0","0","0.5703812278","","0.8","0.2","0.4","0.6","","","","","0.1743203636","0.5703812278","0.816959585","0.8399140445","","","","","","","","74","J","1","","","45","main_expt",""
"","bandit","125","321126","0.0-86.0-0.0","92922785","wem/bandit_either_3","ATGUAXNWCW8NI","either","2","331","","","","","","","0","1","0","","0.7571269921","0.8","0.2","0.4","0.6","0.1234040722","0.4520700595","0.7571269921","0.7830678696","","","","","","","","","","","","75","K","2","","","46","main_expt",""
"","bandit","126","322952","0.0-87.0-0.0","92922785","wem/bandit_either_3","ATGUAXNWCW8NI","either","2","303","","","","","","","0","0","1","","0.4953600952","0.8","0.2","0.4","0.6","0.1592846429","0.4953600952","0.7086567283","0.8255209912","","","","","","","","","","","","74","J","1","","","47","main_expt",""
"","bandit","127","324865","0.0-88.0-0.0","92922785","wem/bandit_either_3","ATGUAXNWCW8NI","either","2","401","","","","","","","1","0","0","0.6428227569","","0.8","0.2","0.4","0.6","","","","","0.1880090658","0.4912921637","0.6428227569","0.7728754614","","","","","","","","75","K","2","","","48","main_expt",""
"","bandit","128","332494","0.0-89.0-0.0","92922785","wem/bandit_either_3","ATGUAXNWCW8NI","either","2","6118","","","","","","","0","0","1","0.3190576765","","0.8","0.2","0.4","0.6","","","","","0.3190576765","0.4694413912","0.7004196772","0.8607162984","","","","","","","","72","H","0","img/none_selected.jpg","","49","main_expt",""
"","bandit","129","336944","0.0-90.0-0.0","92922785","wem/bandit_either_3","ATGUAXNWCW8NI","either","2","2934","","","","","","","1","0","0","0.277770718","","0.8","0.2","0.4","0.6","","","","","0.277770718","0.5835687148","0.6418514465","0.8526113732","","","","","","","","72","H","0","img/none_selected.jpg","","50","main_expt",""
"","bandit","130","340284","0.0-91.0-0.0","92922785","wem/bandit_either_3","ATGUAXNWCW8NI","either","2","1834","","","","","","","0","0","1","0.3304163056","","0.8","0.2","0.4","0.6","","","","","0.3304163056","0.581499138","0.6322169777","0.8630835666","","","","","","","","72","H","0","img/none_selected.jpg","","51","main_expt",""
"","bandit","131","342513","0.0-92.0-0.0","92922785","wem/bandit_either_3","ATGUAXNWCW8NI","either","2","712","","","","","","","1","0","0","0.3074301744","","0.8","0.2","0.4","0.6","","","","","0.3074301744","0.6521379128","0.6160259873","0.8689990829","","","","","","","","72","H","0","img/none_selected.jpg","","52","main_expt",""
"","bandit","132","344347","0.0-93.0-0.0","92922785","wem/bandit_either_3","ATGUAXNWCW8NI","either","2","326","","","","","","","0","0","1","","0.3292402402","0.8","0.2","0.4","0.6","0.3292402402","0.5743957808","0.6635838846","0.8829627288","","","","","","","","","","","","72","H","0","img/none_selected.jpg","","53","main_expt",""
"","bandit","133","346314","0.0-94.0-0.0","92922785","wem/bandit_either_3","ATGUAXNWCW8NI","either","2","442","","","","","","","0","0","1","0.8577096669","","0.8","0.2","0.4","0.6","","","","","0.3701383524","0.4765250731","0.7334380463","0.8577096669","","","","","","","","76","L","3","","","54","main_expt",""
"","bandit","134","348523","0.0-95.0-0.0","92922785","wem/bandit_either_3","ATGUAXNWCW8NI","either","2","686","","","","","","","0","1","0","","0.7951355038","0.8","0.2","0.4","0.6","0.4023440482","0.472038817","0.6625049704","0.7951355038","","","","","","","","","","","","76","L","3","","","55","main_expt",""
"","bandit","135","351943","0.0-96.0-0.0","92922785","wem/bandit_either_3","ATGUAXNWCW8NI","either","2","1902","","","","","","","0","1","0","","0.6244126183","0.8","0.2","0.4","0.6","0.3320470731","0.6060805283","0.6244126183","0.7832403428","","","","","","","","","","","","75","K","2","","","56","main_expt",""
"","bandit","136","354289","0.0-97.0-0.0","92922785","wem/bandit_either_3","ATGUAXNWCW8NI","either","2","830","","","","","","","1","0","0","0.693445159","","0.8","0.2","0.4","0.6","","","","","0.3398704556","0.5733746242","0.693445159","0.7165346004","","","","","","","","75","K","2","","","57","main_expt",""
"","bandit","137","356363","0.0-98.0-0.0","92922785","wem/bandit_either_3","ATGUAXNWCW8NI","either","2","565","","","","","","","0","0","1","","0.6603141298","0.8","0.2","0.4","0.6","0.3171476707","0.5268086549","0.6603141298","0.7840704931","","","","","","","","","","","","75","K","2","","","58","main_expt",""
"","bandit","138","358315","0.0-99.0-0.0","92922785","wem/bandit_either_3","ATGUAXNWCW8NI","either","2","443","","","","","","","1","0","0","0.6435133917","","0.8","0.2","0.4","0.6","","","","","0.1868584885","0.5298916697","0.6435133917","0.7166558068","","","","","","","","75","K","2","","","59","main_expt",""
"","bandit","139","360971","0.0-100.0-0.0","92922785","wem/bandit_either_3","ATGUAXNWCW8NI","either","2","1141","","","","","","","0","1","0","","0.5547432704","0.8","0.2","0.4","0.6","0.2163153633","0.5547432704","0.6720075741","0.6505055492","","","","","","","","","","","","74","J","1","","","60","main_expt",""
"","bandit","140","370042","0.0-101.0-0.0","92922785","wem/bandit_either_3","ATGUAXNWCW8NI","either","2","7563","","","","","","","0","1","0","","0.5407031957","0.8","0.2","0.4","0.6","0.2086512551","0.5407031957","0.6703611074","0.6465946667","","","","","","","","","","","","74","J","1","","","61","main_expt",""
"","bandit","141","371888","0.0-102.0-0.0","92922785","wem/bandit_either_3","ATGUAXNWCW8NI","either","2","334","","","","","","","0","1","0","","0.6993449034","0.8","0.2","0.4","0.6","0.2250062338","0.6993449034","0.64477312","0.709990362","","","","","","","","","","","","74","J","1","","","62","main_expt",""
"","bandit","142","373613","0.0-103.0-0.0","92922785","wem/bandit_either_3","ATGUAXNWCW8NI","either","2","212","","","","","","","0","0","1","","0.6342967703","0.8","0.2","0.4","0.6","0.2739380208","0.6342967703","0.509049177","0.7542168012","","","","","","","","","","","","74","J","1","","","63","main_expt",""
"","bandit","143","380028","0.0-104.0-0.0","92922785","wem/bandit_either_3","ATGUAXNWCW8NI","either","2","4904","","","","","","","0","1","0","","0.5961490325","0.8","0.2","0.4","0.6","0.3449536465","0.5961490325","0.5535424332","0.7660604158","","","","","","","","","","","","74","J","1","","","64","main_expt",""
"","bandit","144","381585","0.0-105.0-0.0","92922785","wem/bandit_either_3","ATGUAXNWCW8NI","either","2","46","","","","","","","0","0","1","","0.34640195","0.8","0.2","0.4","0.6","0.34640195","0.5771190674","0.6608621899","0.7572602099","","","","","","","","","","","","72","H","0","img/none_selected.jpg","","65","main_expt",""
"","bandit","145","383100","0.0-106.0-0.0","92922785","wem/bandit_either_3","ATGUAXNWCW8NI","either","2","10","","","","","","","0","1","0","","0.6535341977","0.8","0.2","0.4","0.6","0.5266288285","0.4765921407","0.6535341977","0.686926195","","","","","","","","","","","","75","K","2","","","66","main_expt",""
"","bandit","146","384765","0.0-107.0-0.0","92922785","wem/bandit_either_3","ATGUAXNWCW8NI","either","2","156","","","","","","","0","1","0","","0.7334195653","0.8","0.2","0.4","0.6","0.5588671697","0.5714361875","0.6592628399","0.7334195653","","","","","","","","","","","","76","L","3","","","67","main_expt",""
"","bandit","147","386299","0.0-108.0-0.0","92922785","wem/bandit_either_3","ATGUAXNWCW8NI","either","2","10","","","","","","","0","0","1","","0.6114245881","0.8","0.2","0.4","0.6","0.6097536784","0.6231829193","0.6735013879","0.6114245881","","","","","","","","","","","","76","L","3","","","68","main_expt",""
"","bandit","148","388004","0.0-109.0-0.0","92922785","wem/bandit_either_3","ATGUAXNWCW8NI","either","2","179","","","","","","","0","0","1","0.6460921668","","0.8","0.2","0.4","0.6","","","","","0.533457584","0.5130256365","0.7209687993","0.6460921668","","","","","","","","76","L","3","","","69","main_expt",""
"","bandit","149","389716","0.0-110.0-0.0","92922785","wem/bandit_either_3","ATGUAXNWCW8NI","either","2","192","","","","","","","0","0","1","0.690528825","","0.8","0.2","0.4","0.6","","","","","0.4124750721","0.5167166","0.690528825","0.6700702736","","","","","","","","75","K","2","","","70","main_expt",""
"","bandit","150","391237","0.0-111.0-0.0","92922785","wem/bandit_either_3","ATGUAXNWCW8NI","either","2","0","","","","","","","0","1","0","","0.6448170737","0.8","0.2","0.4","0.6","0.4486526525","0.6448170737","0.6453310316","0.6388012411","","","","","","","","","","","","74","J","1","","","71","main_expt",""
"","bandit","151","392824","0.0-112.0-0.0","92922785","wem/bandit_either_3","ATGUAXNWCW8NI","either","2","72","","","","","","","0","1","0","","0.5640434706","0.8","0.2","0.4","0.6","0.4313602212","0.5640434706","0.8140348339","0.6046900378","","","","","","","","","","","","74","J","1","","","72","main_expt",""
"","bandit","152","394421","0.0-113.0-0.0","92922785","wem/bandit_either_3","ATGUAXNWCW8NI","either","2","80","","","","","","","0","1","0","","0.6296110197","0.8","0.2","0.4","0.6","0.3639072561","0.6296110197","0.820931829","0.6062428704","","","","","","","","","","","","74","J","1","","","73","main_expt",""
"","bandit","153","395984","0.0-114.0-0.0","92922785","wem/bandit_either_3","ATGUAXNWCW8NI","either","2","56","","","","","","","0","1","0","","0.6730210969","0.8","0.2","0.4","0.6","0.2882181569","0.6730210969","0.8096233945","0.6237194739","","","","","","","","","","","","74","J","1","","","74","main_expt",""
"","bandit","154","397954","0.0-115.0-0.0","92922785","wem/bandit_either_3","ATGUAXNWCW8NI","either","2","457","","","","","","","1","0","0","0.7615001707","","0.8","0.2","0.4","0.6","","","","","0.3561187133","0.5720403827","0.7615001707","0.5971007372","","","","","","","","75","K","2","","","75","main_expt",""
"","bandit","155","399663","0.0-116.0-0.0","92922785","wem/bandit_either_3","ATGUAXNWCW8NI","either","2","190","","","","","","","0","1","0","","0.8147365981","0.8","0.2","0.4","0.6","0.4480894403","0.6303512149","0.8147365981","0.5810032438","","","","","","","","","","","","75","K","2","","","76","main_expt",""
"","bandit","156","401473","0.0-117.0-0.0","92922785","wem/bandit_either_3","ATGUAXNWCW8NI","either","2","290","","","","","","","1","0","0","0.3220850356","","0.8","0.2","0.4","0.6","","","","","0.3220850356","0.5531797874","0.8926338818","0.5792233978","","","","","","","","72","H","0","img/none_selected.jpg","","77","main_expt",""
"","bandit","157","403227","0.0-118.0-0.0","92922785","wem/bandit_either_3","ATGUAXNWCW8NI","either","2","241","","","","","","","0","0","1","","0.3281133775","0.8","0.2","0.4","0.6","0.3281133775","0.5449672882","0.8669072201","0.692511921","","","","","","","","","","","","72","H","0","img/none_selected.jpg","","78","main_expt",""
"","bandit","158","405084","0.0-119.0-0.0","92922785","wem/bandit_either_3","ATGUAXNWCW8NI","either","2","354","","","","","","","0","0","1","0.3814329202","","0.8","0.2","0.4","0.6","","","","","0.3814329202","0.4484013318","0.9114006046","0.7019625083","","","","","","","","72","H","0","img/none_selected.jpg","","79","main_expt",""
"","bandit","159","407387","0.0-120.0-0.0","92922785","wem/bandit_either_3","ATGUAXNWCW8NI","either","2","794","","","","","","","1","0","0","0.3512572076","","0.8","0.2","0.4","0.6","","","","","0.3512572076","0.5041425745","0.9268398106","0.6785675641","","","","","","","","72","H","0","img/none_selected.jpg","","80","main_expt",""
"","bandit","160","415734","0.0-121.0-0.0","92922785","wem/bandit_either_3","ATGUAXNWCW8NI","either","2","6824","","","","","","","0","0","1","","0.3462078978","0.8","0.2","0.4","0.6","0.3624285329","0.3462078978","0.9582858862","0.7101061672","","","","","","","","","","","","74","J","1","","","81","main_expt",""
"","bandit","161","417367","0.0-122.0-0.0","92922785","wem/bandit_either_3","ATGUAXNWCW8NI","either","2","116","","","","","","","0","0","1","","0.3226795418","0.8","0.2","0.4","0.6","0.3111883408","0.3226795418","0.9590071975","0.7217376576","","","","","","","","","","","","74","J","1","","","82","main_expt",""
"","bandit","162","418954","0.0-123.0-0.0","92922785","wem/bandit_either_3","ATGUAXNWCW8NI","either","2","70","","","","","","","0","1","0","","0.3023868023","0.8","0.2","0.4","0.6","0.243162563","0.3023868023","0.9379973093","0.6437777395","","","","","","","","","","","","74","J","1","","","83","main_expt",""
"","bandit","163","420470","0.0-124.0-0.0","92922785","wem/bandit_either_3","ATGUAXNWCW8NI","either","2","0","","","","","","","0","1","0","","0.4040419094","0.8","0.2","0.4","0.6","0.347146949","0.4040419094","0.9411979228","0.6533183273","","","","","","","","","","","","74","J","1","","","84","main_expt",""
"","bandit","164","422111","0.0-125.0-0.0","92922785","wem/bandit_either_3","ATGUAXNWCW8NI","either","2","128","","","","","","","0","1","0","","0.9441700551","0.8","0.2","0.4","0.6","0.4416309426","0.4716136817","0.9441700551","0.7469548387","","","","","","","","","","","","75","K","2","","","85","main_expt",""
"","bandit","165","423666","0.0-126.0-0.0","92922785","wem/bandit_either_3","ATGUAXNWCW8NI","either","2","46","","","","","","","0","0","1","0.4523797492","","0.8","0.2","0.4","0.6","","","","","0.4523797492","0.4455883603","0.9323605113","0.7366570046","","","","","","","","72","H","0","img/none_selected.jpg","","86","main_expt",""
"","bandit","166","425470","0.0-127.0-0.0","92922785","wem/bandit_either_3","ATGUAXNWCW8NI","either","2","276","","","","","","","0","0","1","0.4621103264","","0.8","0.2","0.4","0.6","","","","","0.4621103264","0.5952575165","0.8871332711","0.7142428019","","","","","","","","72","H","0","img/none_selected.jpg","","87","main_expt",""
"","bandit","167","427167","0.0-128.0-0.0","92922785","wem/bandit_either_3","ATGUAXNWCW8NI","either","2","188","","","","","","","1","0","0","0.3800084876","","0.8","0.2","0.4","0.6","","","","","0.3800084876","0.5333825583","0.8520973281","0.7057172343","","","","","","","","72","H","0","img/none_selected.jpg","","88","main_expt",""
"","bandit","168","428845","0.0-129.0-0.0","92922785","wem/bandit_either_3","ATGUAXNWCW8NI","either","2","173","","","","","","","0","0","1","0.2354372355","","0.8","0.2","0.4","0.6","","","","","0.2354372355","0.4583166828","0.7882210871","0.7289934888","","","","","","","","72","H","0","img/none_selected.jpg","","89","main_expt",""
"","bandit","169","430614","0.0-130.0-0.0","92922785","wem/bandit_either_3","ATGUAXNWCW8NI","either","2","240","","","","","","","1","0","0","0.2978482647","","0.8","0.2","0.4","0.6","","","","","0.2978482647","0.4782349553","0.720110267","0.7475354559","","","","","","","","72","H","0","img/none_selected.jpg","","90","main_expt",""
"","bandit","170","432286","0.0-131.0-0.0","92922785","wem/bandit_either_3","ATGUAXNWCW8NI","either","2","167","","","","","","","0","0","1","0.3723871884","","0.8","0.2","0.4","0.6","","","","","0.3723871884","0.464138054","0.7390342074","0.6316706059","","","","","","","","72","H","0","img/none_selected.jpg","","91","main_expt",""
"","bandit","171","434093","0.0-132.0-0.0","92922785","wem/bandit_either_3","ATGUAXNWCW8NI","either","2","286","","","","","","","0","1","0","","0.8135224625","0.8","0.2","0.4","0.6","0.5400298203","0.5084128334","0.8135224625","0.6957908828","","","","","","","","","","","","75","K","2","","","92","main_expt",""
"","bandit","172","436104","0.0-133.0-0.0","92922785","wem/bandit_either_3","ATGUAXNWCW8NI","either","2","491","","","","","","","0","1","0","","0.5134744583","0.8","0.2","0.4","0.6","0.5134744583","0.5211356389","0.7814404678","0.6812665662","","","","","","","","","","","","72","H","0","img/none_selected.jpg","","93","main_expt",""
"","bandit","173","437814","0.0-134.0-0.0","92922785","wem/bandit_either_3","ATGUAXNWCW8NI","either","2","188","","","","","","","0","0","1","","0.4554037602","0.8","0.2","0.4","0.6","0.4101580275","0.4554037602","0.7672416568","0.6412933588","","","","","","","","","","","","74","J","1","","","94","main_expt",""
"","bandit","174","439355","0.0-135.0-0.0","92922785","wem/bandit_either_3","ATGUAXNWCW8NI","either","2","39","","","","","","","0","1","0","","0.7573973965","0.8","0.2","0.4","0.6","0.2995167601","0.4195046205","0.7573973965","0.5696630174","","","","","","","","","","","","75","K","2","","","95","main_expt",""
"","bandit","175","441123","0.0-136.0-0.0","92922785","wem/bandit_either_3","ATGUAXNWCW8NI","either","2","242","","","","","","","0","0","1","0.2934894425","","0.8","0.2","0.4","0.6","","","","","0.2934894425","0.3638478563","0.8177369732","0.6076398096","","","","","","","","72","H","0","img/none_selected.jpg","","96","main_expt",""
"","bandit","176","442664","0.0-137.0-0.0","92922785","wem/bandit_either_3","ATGUAXNWCW8NI","either","2","26","","","","","","","0","0","1","0.5551612935","","0.8","0.2","0.4","0.6","","","","","0.2802715202","0.2839735208","0.8124666872","0.5551612935","","","","","","","","76","L","3","","","97","main_expt",""
"","bandit","177","444304","0.0-138.0-0.0","92922785","wem/bandit_either_3","ATGUAXNWCW8NI","either","2","128","","","","","","","0","0","1","","0.2109275999","0.8","0.2","0.4","0.6","0.2703087955","0.2109275999","0.881496875","0.6354974245","","","","","","","","","","","","74","J","1","","","98","main_expt",""
"","bandit","178","445954","0.0-139.0-0.0","92922785","wem/bandit_either_3","ATGUAXNWCW8NI","either","2","135","","","","","","","0","1","0","","0.8785981907","0.8","0.2","0.4","0.6","0.3027543159","0.1531506719","0.8785981907","0.5945745664","","","","","","","","","","","","75","K","2","","","99","main_expt",""
"","bandit","179","447624","0.0-140.0-0.0","92922785","wem/bandit_either_3","ATGUAXNWCW8NI","either","2","156","","","","","","","0","0","1","0.3645318829","","0.8","0.2","0.4","0.6","","","","","0.3645318829","0.1262108991","0.8494581726","0.5679097985","","","","","","","","72","H","0","img/none_selected.jpg","","100","main_expt",""
"","bandit","180","449244","0.0-141.0-0.0","92922785","wem/bandit_either_3","ATGUAXNWCW8NI","either","2","97","","","","","","","1","0","0","0.4315832637","","0.8","0.2","0.4","0.6","","","","","0.4315832637","0.1340220502","0.7754784616","0.6430580454","","","","","","","","72","H","0","img/none_selected.jpg","","101","main_expt",""
"","bandit","181","450804","0.0-142.0-0.0","92922785","wem/bandit_either_3","ATGUAXNWCW8NI","either","2","49","","","","","","","0","0","1","0.2167126086","","0.8","0.2","0.4","0.6","","","","","0.3608531129","0.2167126086","0.7626736499","0.6340200926","","","","","","","","74","J","1","","","102","main_expt",""
"","bandit","182","452318","0.0-143.0-0.0","92922785","wem/bandit_either_3","ATGUAXNWCW8NI","either","2","0","","","","","","","0","0","1","0.7329996306","","0.8","0.2","0.4","0.6","","","","","0.3688981903","0.2796352144","0.7329996306","0.6377668076","","","","","","","","75","K","2","","","103","main_expt",""
"","bandit","183","453944","0.0-144.0-0.0","92922785","wem/bandit_either_3","ATGUAXNWCW8NI","either","2","104","","","","","","","1","0","0","0.6578341575","","0.8","0.2","0.4","0.6","","","","","0.3758155051","0.3556406549","0.7467689404","0.6578341575","","","","","","","","76","L","3","","","104","main_expt",""
"","bandit","184","455575","0.0-145.0-0.0","92922785","wem/bandit_either_3","ATGUAXNWCW8NI","either","2","109","","","","","","","0","0","1","0.6727034752","","0.8","0.2","0.4","0.6","","","","","0.4508947075","0.3233911601","0.737018723","0.6727034752","","","","","","","","76","L","3","","","105","main_expt",""
"","bandit","185","457388","0.0-146.0-0.0","92922785","wem/bandit_either_3","ATGUAXNWCW8NI","either","2","306","","","","","","","0","1","0","","0.655194185","0.8","0.2","0.4","0.6","0.4132181144","0.2024631506","0.655194185","0.6386482702","","","","","","","","","","","","75","K","2","","","106","main_expt",""
"","bandit","186","459024","0.0-147.0-0.0","92922785","wem/bandit_either_3","ATGUAXNWCW8NI","either","2","117","","","","","","","0","0","1","","0.6788938686","0.8","0.2","0.4","0.6","0.4393512677","0.2290393164","0.7122819559","0.6788938686","","","","","","","","","","","","76","L","3","","","107","main_expt",""
"","bandit","187","460635","0.0-148.0-0.0","92922785","wem/bandit_either_3","ATGUAXNWCW8NI","either","2","85","","","","","","","0","0","1","","0.2217712157","0.8","0.2","0.4","0.6","0.4964319729","0.2217712157","0.7326995505","0.7076498576","","","","","","","","","","","","74","J","1","","","108","main_expt",""
"","bandit","188","462176","0.0-149.0-0.0","92922785","wem/bandit_either_3","ATGUAXNWCW8NI","either","2","35","","","","","","","0","1","0","","0.4790921069","0.8","0.2","0.4","0.6","0.4790921069","0.1566860935","0.7165499475","0.6932550908","","","","","","","","","","","","72","H","0","img/none_selected.jpg","","109","main_expt",""
"","bandit","189","463804","0.0-150.0-0.0","92922785","wem/bandit_either_3","ATGUAXNWCW8NI","either","2","125","","","","","","","0","1","0","","0.6058017554","0.8","0.2","0.4","0.6","0.5856434505","0.1083987113","0.6058017554","0.7436061547","","","","","","","","","","","","75","K","2","","","110","main_expt",""
"","bandit","190","465416","0.0-151.0-0.0","92922785","wem/bandit_either_3","ATGUAXNWCW8NI","either","2","94","","","","","","","1","0","0","0.657194241","","0.8","0.2","0.4","0.6","","","","","0.6444230696","0.217828795","0.5476823758","0.657194241","","","","","","","","76","L","3","","","111","main_expt",""
"","bandit","191","467083","0.0-152.0-0.0","92922785","wem/bandit_either_3","ATGUAXNWCW8NI","either","2","150","","","","","","","0","0","1","0.2212119155","","0.8","0.2","0.4","0.6","","","","","0.603417252","0.2212119155","0.5688313193","0.6317228327","","","","","","","","74","J","1","","","112","main_expt",""
"","bandit","192","468709","0.0-153.0-0.0","92922785","wem/bandit_either_3","ATGUAXNWCW8NI","either","2","126","","","","","","","1","0","0","0.4985892417","","0.8","0.2","0.4","0.6","","","","","0.420613871","0.2374112476","0.50852785","0.4985892417","","","","","","","","76","L","3","","","113","main_expt",""
"","bandit","193","470426","0.0-154.0-0.0","92922785","wem/bandit_either_3","ATGUAXNWCW8NI","either","2","185","","","","","","","1","0","0","0.579071345","","0.8","0.2","0.4","0.6","","","","","0.2851569533","0.2703699348","0.5711084253","0.579071345","","","","","","","","76","L","3","","","114","main_expt",""
"","bandit","194","471956","0.0-155.0-0.0","92922785","wem/bandit_either_3","ATGUAXNWCW8NI","either","2","20","","","","","","","0","0","1","0.4595939904","","0.8","0.2","0.4","0.6","","","","","0.3166589884","0.1928485376","0.4177754351","0.4595939904","","","","","","","","76","L","3","","","115","main_expt",""
"","bandit","195","473713","0.0-156.0-0.0","92922785","wem/bandit_either_3","ATGUAXNWCW8NI","either","2","245","","","","","","","1","0","0","0.387840809","","0.8","0.2","0.4","0.6","","","","","0.3928451607","0.136356343","0.387840809","0.3744567546","","","","","","","","75","K","2","","","116","main_expt",""
"","bandit","196","475436","0.0-157.0-0.0","92922785","wem/bandit_either_3","ATGUAXNWCW8NI","either","2","201","","","","","","","0","0","1","0.4456731606","","0.8","0.2","0.4","0.6","","","","","0.560845346","0.2193113504","0.4456731606","0.302145019","","","","","","","","75","K","2","","","117","main_expt",""
"","bandit","197","477096","0.0-158.0-0.0","92922785","wem/bandit_either_3","ATGUAXNWCW8NI","either","2","139","","","","","","","0","0","1","0.2686792008","","0.8","0.2","0.4","0.6","","","","","0.5536818424","0.2686792008","0.3045880574","0.3522466686","","","","","","","","74","J","1","","","118","main_expt",""
"","bandit","198","478806","0.0-159.0-0.0","92922785","wem/bandit_either_3","ATGUAXNWCW8NI","either","2","190","","","","","","","0","0","1","","0.3617659687","0.8","0.2","0.4","0.6","0.3617659687","0.2668270476","0.3994134075","0.4425542362","","","","","","","","","","","","72","H","0","img/none_selected.jpg","","119","main_expt",""
"","bandit","199","480406","0.0-160.0-0.0","92922785","wem/bandit_either_3","ATGUAXNWCW8NI","either","2","82","","","","","","","0","1","0","","0.3723992114","0.8","0.2","0.4","0.6","0.3454740543","0.3723992114","0.351449483","0.3377532805","","","","","","","","","","","","74","J","1","","","120","main_expt",""
"","bandit","200","481977","0.0-161.0-0.0","92922785","wem/bandit_either_3","ATGUAXNWCW8NI","either","2","56","","","","","","","0","0","1","0.2798257893","","0.8","0.2","0.4","0.6","","","","","0.2798257893","0.4001238515","0.3641911367","0.2929504356","","","","","","","","72","H","0","img/none_selected.jpg","","121","main_expt",""
"","bandit","201","483596","0.0-162.0-0.0","92922785","wem/bandit_either_3","ATGUAXNWCW8NI","either","2","101","","","","","","","0","1","0","","0.4090120715","0.8","0.2","0.4","0.6","0.2261540995","0.4090120715","0.2673706252","0.2504028886","","","","","","","","","","","","74","J","1","","","122","main_expt",""
"","bandit","202","485116","0.0-163.0-0.0","92922785","wem/bandit_either_3","ATGUAXNWCW8NI","either","2","10","","","","","","","0","1","0","","0.3455372181","0.8","0.2","0.4","0.6","0.2766663047","0.4746108064","0.3455372181","0.2414849785","","","","","","","","","","","","75","K","2","","","123","main_expt",""
"","bandit","203","486696","0.0-164.0-0.0","92922785","wem/bandit_either_3","ATGUAXNWCW8NI","either","2","57","","","","","","","0","0","1","0.3126864395","","0.8","0.2","0.4","0.6","","","","","0.3126864395","0.453231646","0.3524137631","0.1791255979","","","","","","","","72","H","0","img/none_selected.jpg","","124","main_expt",""
"","bandit","204","488526","0.0-165.0-0.0","92922785","wem/bandit_either_3","ATGUAXNWCW8NI","either","2","305","","","","","","","0","0","1","","0.1952456852","0.8","0.2","0.4","0.6","0.2772507379","0.4888945922","0.3680881866","0.1952456852","","","","","","","","","","","","76","L","3","","","125","main_expt",""
"","bandit","205","490086","0.0-166.0-0.0","92922785","wem/bandit_either_3","ATGUAXNWCW8NI","either","2","49","","","","","","","0","0","1","0.2614303707","","0.8","0.2","0.4","0.6","","","","","0.2441417391","0.396932523","0.2884444508","0.2614303707","","","","","","","","76","L","3","","","126","main_expt",""
"","bandit","206","491722","0.0-167.0-0.0","92922785","wem/bandit_either_3","ATGUAXNWCW8NI","either","2","120","","","","","","","1","0","0","0.267511235","","0.8","0.2","0.4","0.6","","","","","0.2304038214","0.4026562496","0.2931854252","0.267511235","","","","","","","","76","L","3","","","127","main_expt",""
"","bandit","207","493484","0.0-168.0-0.0","92922785","wem/bandit_either_3","ATGUAXNWCW8NI","either","2","252","","","","","","","0","0","1","","0.2582460394","0.8","0.2","0.4","0.6","0.2463692943","0.3072143153","0.3115494401","0.2582460394","","","","","","","","","","","","76","L","3","","","128","main_expt",""
"","bandit","208","495126","0.0-169.0-0.0","92922785","wem/bandit_either_3","ATGUAXNWCW8NI","either","2","115","","","","","","","0","0","1","0.249100023","","0.8","0.2","0.4","0.6","","","","","0.262841392","0.3024431642","0.287093163","0.249100023","","","","","","","","76","L","3","","","129","main_expt",""
"","bandit","209","496743","0.0-170.0-0.0","92922785","wem/bandit_either_3","ATGUAXNWCW8NI","either","2","104","","","","","","","0","0","1","","0.2014680341","0.8","0.2","0.4","0.6","0.3044503748","0.383823705","0.242368994","0.2014680341","","","","","","","","","","","","76","L","3","","","130","main_expt",""
"","bandit","210","498276","0.0-171.0-0.0","92922785","wem/bandit_either_3","ATGUAXNWCW8NI","either","2","23","","","","","","","0","0","1","0.2514612397","","0.8","0.2","0.4","0.6","","","","","0.2231782293","0.5448185218","0.3141093292","0.2514612397","","","","","","","","76","L","3","","","131","main_expt",""
"","bandit","211","499866","0.0-172.0-0.0","92922785","wem/bandit_either_3","ATGUAXNWCW8NI","either","2","69","","","","","","","0","0","1","0.1719215191","","0.8","0.2","0.4","0.6","","","","","0.265126842","0.5741986762","0.3186943837","0.1719215191","","","","","","","","76","L","3","","","132","main_expt",""
"","bandit","212","501476","0.0-173.0-0.0","92922785","wem/bandit_either_3","ATGUAXNWCW8NI","either","2","100","","","","","","","0","0","1","0.151851594","","0.8","0.2","0.4","0.6","","","","","0.1996467811","0.54298015","0.3218599317","0.151851594","","","","","","","","76","L","3","","","133","main_expt",""
"","bandit","213","503050","0.0-174.0-0.0","92922785","wem/bandit_either_3","ATGUAXNWCW8NI","either","2","51","","","","","","","0","0","1","","0.3372263261","0.8","0.2","0.4","0.6","0.1900899503","0.5504084981","0.3372263261","0.1693242304","","","","","","","","","","","","75","K","2","","","134","main_expt",""
"","bandit","214","504616","0.0-175.0-0.0","92922785","wem/bandit_either_3","ATGUAXNWCW8NI","either","2","52","","","","","","","0","0","1","0.4874659601","","0.8","0.2","0.4","0.6","","","","","0.172295534","0.4874659601","0.3515125386","0.1541174352","","","","","","","","74","J","1","","","135","main_expt",""
"","bandit","215","506146","0.0-176.0-0.0","92922785","wem/bandit_either_3","ATGUAXNWCW8NI","either","2","22","","","","","","","0","0","1","0.1171098277","","0.8","0.2","0.4","0.6","","","","","0.1171098277","0.3677382912","0.2312583875","0.1374012581","","","","","","","","72","H","0","img/none_selected.jpg","","136","main_expt",""
"","bandit","216","507726","0.0-177.0-0.0","92922785","wem/bandit_either_3","ATGUAXNWCW8NI","either","2","60","","","","","","","0","0","1","0.1390909791","","0.8","0.2","0.4","0.6","","","","","0.1390909791","0.2944012193","0.3496768842","0.2889288236","","","","","","","","72","H","0","img/none_selected.jpg","","137","main_expt",""
"","bandit","217","509316","0.0-178.0-0.0","92922785","wem/bandit_either_3","ATGUAXNWCW8NI","either","2","78","","","","","","","0","0","1","0.3020033879","","0.8","0.2","0.4","0.6","","","","","0.1209370274","0.3020033879","0.4217982028","0.2177367931","","","","","","","","74","J","1","","","138","main_expt",""
"","bandit","218","511566","0.0-179.0-0.0","92922785","wem/bandit_either_3","ATGUAXNWCW8NI","either","2","716","","","","","","","0","0","1","","0.1704259453","0.8","0.2","0.4","0.6","0.1441291996","0.2908104057","0.5123523738","0.1704259453","","","","","","","","","","","","76","L","3","","","139","main_expt",""
"","bandit","219","513116","0.0-180.0-0.0","92922785","wem/bandit_either_3","ATGUAXNWCW8NI","either","2","48","","","","","","","0","1","0","","0.3892042576","0.8","0.2","0.4","0.6","0.1380406349","0.2738290205","0.3892042576","0.1827322183","","","","","","","","","","","","75","K","2","","","140","main_expt",""
"","bandit","220","514876","0.0-181.0-0.0","92922785","wem/bandit_either_3","ATGUAXNWCW8NI","either","2","239","","","","","","","0","0","1","0.2030288612","","0.8","0.2","0.4","0.6","","","","","0.1312769784","0.3865798498","0.4680147771","0.2030288612","","","","","","","","76","L","3","","","141","main_expt",""
"","bandit","221","516455","0.0-182.0-0.0","92922785","wem/bandit_either_3","ATGUAXNWCW8NI","either","2","60","","","","","","","0","0","1","0.1760536641","","0.8","0.2","0.4","0.6","","","","","0.1880730553","0.3507917403","0.3970866904","0.1760536641","","","","","","","","76","L","3","","","142","main_expt",""
"","bandit","222","518056","0.0-183.0-0.0","92922785","wem/bandit_either_3","ATGUAXNWCW8NI","either","2","77","","","","","","","0","0","1","0.3609481858","","0.8","0.2","0.4","0.6","","","","","0.1798266991","0.2787839286","0.3609481858","0.1428921374","","","","","","","","75","K","2","","","143","main_expt",""
"","bandit","223","519756","0.0-184.0-0.0","92922785","wem/bandit_either_3","ATGUAXNWCW8NI","either","2","177","","","","","","","0","0","1","","0.2106619402","0.8","0.2","0.4","0.6","0.1881666754","0.2106619402","0.3701270871","0.1260474704","","","","","","","","","","","","74","J","1","","","144","main_expt",""
"","bandit","224","521434","0.0-185.0-0.0","92922785","wem/bandit_either_3","ATGUAXNWCW8NI","either","2","161","","","","","","","0","0","1","0.1683386122","","0.8","0.2","0.4","0.6","","","","","0.1683386122","0.3211677341","0.3110645609","0.151337539","","","","","","","","72","H","0","img/none_selected.jpg","","145","main_expt",""
"","bandit","225","523206","0.0-186.0-0.0","92922785","wem/bandit_either_3","ATGUAXNWCW8NI","either","2","257","","","","","","","0","0","1","0.2609121533","","0.8","0.2","0.4","0.6","","","","","0.2609121533","0.4417580917","0.356964637","0.1600114734","","","","","","","","72","H","0","img/none_selected.jpg","","146","main_expt",""
"","bandit","226","524746","0.0-187.0-0.0","92922785","wem/bandit_either_3","ATGUAXNWCW8NI","either","2","40","","","","","","","0","0","1","","0.280259565","0.8","0.2","0.4","0.6","0.280259565","0.278611551","0.5143633813","0.1262446547","","","","","","","","","","","","72","H","0","img/none_selected.jpg","","147","main_expt",""
"","bandit","227","527092","0.0-188.0-0.0","92922785","wem/bandit_either_3","ATGUAXNWCW8NI","either","2","820","","","","","","","0","0","1","","0.2811332351","0.8","0.2","0.4","0.6","0.2972918914","0.2811332351","0.5086187798","0.1030311585","","","","","","","","","","","","74","J","1","","","148","main_expt",""
"","bandit","228","528739","0.0-189.0-0.0","92922785","wem/bandit_either_3","ATGUAXNWCW8NI","either","2","134","","","","","","","0","0","1","","0.123834606","0.8","0.2","0.4","0.6","0.3284309668","0.2606345315","0.4676315778","0.123834606","","","","","","","","","","","","76","L","3","","","149","main_expt",""
"","bandit","229","530256","0.0-190.0-0.0","92922785","wem/bandit_either_3","ATGUAXNWCW8NI","either","2","10","","","","","","","0","0","1","","0.06566206942","0.8","0.2","0.4","0.6","0.3186890608","0.260677327","0.4737351686","0.06566206942","","","","","","","","","","","","76","L","3","","","150","main_expt",""
"","bandit","230","532051","0.0-191.0-0.0","92922785","wem/bandit_either_3","ATGUAXNWCW8NI","either","2","280","","","","","","","0","0","1","","0.5387476985","0.8","0.2","0.4","0.6","0.3331747037","0.2579624968","0.5387476985","0.06342121736","","","","","","","","","","","","75","K","2","","","151","main_expt",""
"","bandit","231","533810","0.0-192.0-0.0","92922785","wem/bandit_either_3","ATGUAXNWCW8NI","either","2","245","","","","","","","0","1","0","","0.1162046696","0.8","0.2","0.4","0.6","0.364096089","0.2536911072","0.5065138565","0.1162046696","","","","","","","","","","","","76","L","3","","","152","main_expt",""
"","bandit","232","535506","0.0-193.0-0.0","92922785","wem/bandit_either_3","ATGUAXNWCW8NI","either","2","188","","","","","","","0","0","1","0.1388943584","","0.8","0.2","0.4","0.6","","","","","0.3189440566","0.1427943183","0.5190676077","0.1388943584","","","","","","","","76","L","3","","","153","main_expt",""
"","bandit","233","537116","0.0-194.0-0.0","92922785","wem/bandit_either_3","ATGUAXNWCW8NI","either","2","87","","","","","","","0","0","1","0.1188489222","","0.8","0.2","0.4","0.6","","","","","0.486858514","0.08934943386","0.4944482457","0.1188489222","","","","","","","","76","L","3","","","154","main_expt",""
"","bandit","234","538646","0.0-195.0-0.0","92922785","wem/bandit_either_3","ATGUAXNWCW8NI","either","2","10","","","","","","","0","0","1","","0.1255079792","0.8","0.2","0.4","0.6","0.398958755","0.1048919666","0.4987902374","0.1255079792","","","","","","","","","","","","76","L","3","","","155","main_expt",""
"","bandit","235","540196","0.0-196.0-0.0","92922785","wem/bandit_either_3","ATGUAXNWCW8NI","either","2","40","","","","","","","0","1","0","","0.4151199053","0.8","0.2","0.4","0.6","0.3508932217","0.1348874752","0.4151199053","0.1705129017","","","","","","","","","","","","75","K","2","","","156","main_expt",""
"","bandit","236","541900","0.0-197.0-0.0","92922785","wem/bandit_either_3","ATGUAXNWCW8NI","either","2","198","","","","","","","0","1","0","","0.1197456909","0.8","0.2","0.4","0.6","0.3736640956","0.1197456909","0.4215128153","0.1892203872","","","","","","","","","","","","74","J","1","","","157","main_expt",""
"","bandit","237","543639","0.0-198.0-0.0","92922785","wem/bandit_either_3","ATGUAXNWCW8NI","either","2","212","","","","","","","0","0","1","0.3215678611","","0.8","0.2","0.4","0.6","","","","","0.3215678611","0.1343935597","0.3666899102","0.1589595026","","","","","","","","72","H","0","img/none_selected.jpg","","158","main_expt",""
"","bandit","238","545340","0.0-199.0-0.0","92922785","wem/bandit_either_3","ATGUAXNWCW8NI","either","2","190","","","","","","","0","0","1","","0.2732838962","0.8","0.2","0.4","0.6","0.2732838962","0.04604274909","0.3906786657","0.1426383857","","","","","","","","","","","","72","H","0","img/none_selected.jpg","","159","main_expt",""
"","bandit","239","547206","0.0-200.0-0.0","92922785","wem/bandit_either_3","ATGUAXNWCW8NI","either","2","337","","","","","","","1","0","0","0.2747613825","","0.8","0.2","0.4","0.6","","","","","0.2323229575","0.08927965808","0.4769972016","0.2747613825","","","","","","","","76","L","3","","","160","main_expt",""
"","bandit","240","548821","0.0-201.0-0.0","92922785","wem/bandit_either_3","ATGUAXNWCW8NI","either","2","99","","","","","","","0","0","1","0.4405879513","","0.8","0.2","0.4","0.6","","","","","0.399022808","0.1038156196","0.4405879513","0.2046882866","","","","","","","","75","K","2","","","161","main_expt",""
"","bandit","241","550686","0.0-202.0-0.0","92922785","wem/bandit_either_3","ATGUAXNWCW8NI","either","2","344","","","","","","","0","0","1","","0.1715152701","0.8","0.2","0.4","0.6","0.4967313539","0.1470739062","0.44055992","0.1715152701","","","","","","","","","","","","76","L","3","","","162","main_expt",""
"","bandit","242","552247","0.0-203.0-0.0","92922785","wem/bandit_either_3","ATGUAXNWCW8NI","either","2","48","","","","","","","0","0","1","","0.1214264794","0.8","0.2","0.4","0.6","0.5245029489","0.1214264794","0.3434222481","0.2396687428","","","","","","","","","","","","74","J","1","","","163","main_expt",""
"","bandit","243","554024","0.0-204.0-0.0","92922785","wem/bandit_either_3","ATGUAXNWCW8NI","either","2","261","","","","","","","1","0","0","0.3359744524","","0.8","0.2","0.4","0.6","","","","","0.5808119749","0.1563758897","0.3862652833","0.3359744524","","","","","","","","76","L","3","","","164","main_expt",""
"","bandit","244","555599","0.0-205.0-0.0","92922785","wem/bandit_either_3","ATGUAXNWCW8NI","either","2","65","","","","","","","0","0","1","","0.4270444342","0.8","0.2","0.4","0.6","0.6473032069","0.1311500467","0.4270444342","0.4940159592","","","","","","","","","","","","75","K","2","","","165","main_expt",""
"","bandit","245","557453","0.0-206.0-0.0","92922785","wem/bandit_either_3","ATGUAXNWCW8NI","either","2","326","","","","","","","0","0","1","0.5922229292","","0.8","0.2","0.4","0.6","","","","","0.6790689848","0.1419689761","0.5073102058","0.5922229292","","","","","","","","76","L","3","","","166","main_expt",""
"","bandit","246","559205","0.0-207.0-0.0","92922785","wem/bandit_either_3","ATGUAXNWCW8NI","either","2","239","","","","","","","0","0","1","","0.5959653185","0.8","0.2","0.4","0.6","0.5959653185","0.150246256","0.5417092253","0.5562626425","","","","","","","","","","","","72","H","0","img/none_selected.jpg","","167","main_expt",""
"","bandit","247","560989","0.0-208.0-0.0","92922785","wem/bandit_either_3","ATGUAXNWCW8NI","either","2","281","","","","","","","1","0","0","0.6489587791","","0.8","0.2","0.4","0.6","","","","","0.361841396","0.2070971521","0.6505471885","0.6489587791","","","","","","","","76","L","3","","","168","main_expt",""
"","bandit","248","562731","0.0-209.0-0.0","92922785","wem/bandit_either_3","ATGUAXNWCW8NI","either","2","209","","","","","","","0","1","0","","0.5652428614","0.8","0.2","0.4","0.6","0.2594844845","0.2564452127","0.6226729341","0.5652428614","","","","","","","","","","","","76","L","3","","","169","main_expt",""
"","bandit","249","564334","0.0-210.0-0.0","92922785","wem/bandit_either_3","ATGUAXNWCW8NI","either","2","99","","","","","","","1","0","0","0.7574543886","","0.8","0.2","0.4","0.6","","","","","0.1987556041","0.2845729388","0.7574543886","0.5344749526","","","","","","","","75","K","2","","","170","main_expt",""
"","bandit","250","565926","0.0-211.0-0.0","92922785","wem/bandit_either_3","ATGUAXNWCW8NI","either","2","72","","","","","","","0","0","1","","0.2360657399","0.8","0.2","0.4","0.6","0.1583585206","0.2360657399","0.774201251","0.6364900983","","","","","","","","","","","","74","J","1","","","171","main_expt",""
"","bandit","251","567473","0.0-212.0-0.0","92922785","wem/bandit_either_3","ATGUAXNWCW8NI","either","2","40","","","","","","","0","0","1","0.5516193693","","0.8","0.2","0.4","0.6","","","","","0.1494938987","0.3453554921","0.7739789177","0.5516193693","","","","","","","","76","L","3","","","172","main_expt",""
"","bandit","252","569186","0.0-213.0-0.0","92922785","wem/bandit_either_3","ATGUAXNWCW8NI","either","2","196","","","","","","","0","0","1","0.1996494969","","0.8","0.2","0.4","0.6","","","","","0.1996494969","0.2909261263","0.7146420849","0.5081608063","","","","","","","","72","H","0","img/none_selected.jpg","","173","main_expt",""
"","bandit","253","570719","0.0-214.0-0.0","92922785","wem/bandit_either_3","ATGUAXNWCW8NI","either","2","10","","","","","","","1","0","0","0.5247340446","","0.8","0.2","0.4","0.6","","","","","0.2200767262","0.3807546558","0.683245412","0.5247340446","","","","","","","","76","L","3","","","174","main_expt",""
"","bandit","254","572506","0.0-215.0-0.0","92922785","wem/bandit_either_3","ATGUAXNWCW8NI","either","2","264","","","","","","","0","1","0","","0.5823110366","0.8","0.2","0.4","0.6","0.1929710708","0.3889518003","0.7163731774","0.5823110366","","","","","","","","","","","","76","L","3","","","175","main_expt",""
"","bandit","255","574221","0.0-216.0-0.0","92922785","wem/bandit_either_3","ATGUAXNWCW8NI","either","2","187","","","","","","","0","0","1","","0.6676116703","0.8","0.2","0.4","0.6","0.1756556012","0.3662842853","0.6676116703","0.7693722391","","","","","","","","","","","","75","K","2","","","176","main_expt",""
"","bandit","256","575756","0.0-217.0-0.0","92922785","wem/bandit_either_3","ATGUAXNWCW8NI","either","2","10","","","","","","","0","0","1","0.3102656016","","0.8","0.2","0.4","0.6","","","","","0.2404611203","0.3102656016","0.711116056","0.8048595062","","","","","","","","74","J","1","","","177","main_expt",""
"","bandit","257","577340","0.0-218.0-0.0","92922785","wem/bandit_either_3","ATGUAXNWCW8NI","either","2","81","","","","","","","1","0","0","0.1651874793","","0.8","0.2","0.4","0.6","","","","","0.1651874793","0.3272385177","0.6541247318","0.8147320782","","","","","","","","72","H","0","img/none_selected.jpg","","178","main_expt",""
"","bandit","258","579087","0.0-219.0-0.0","92922785","wem/bandit_either_3","ATGUAXNWCW8NI","either","2","228","","","","","","","0","0","1","","0.1297692321","0.8","0.2","0.4","0.6","0.1297692321","0.3185807274","0.600925469","0.7755432213","","","","","","","","","","","","72","H","0","img/none_selected.jpg","","179","main_expt",""
"","bandit","259","580698","0.0-220.0-0.0","92922785","wem/bandit_either_3","ATGUAXNWCW8NI","either","2","89","","","","","","","0","0","1","0.1311169289","","0.8","0.2","0.4","0.6","","","","","0.1311169289","0.3896265469","0.6321701674","0.7309951384","","","","","","","","72","H","0","img/none_selected.jpg","","180","main_expt",""
"","bandit","260","582423","0.0-221.0-0.0","92922785","wem/bandit_either_3","ATGUAXNWCW8NI","either","2","213","","","","","","","0","1","0","","0.4381139349","0.8","0.2","0.4","0.6","0.2184653543","0.4381139349","0.7040606398","0.8068071681","","","","","","","","","","","","74","J","1","","","181","main_expt",""
"","bandit","261","585463","0.0-222.0-0.0","92922785","wem/bandit_either_3","ATGUAXNWCW8NI","either","2","1528","","","","","","","0","0","1","","0.156745214","0.8","0.2","0.4","0.6","0.156745214","0.4339703771","0.6551517927","0.8096694819","","","","","","","","","","","","72","H","0","img/none_selected.jpg","","182","main_expt",""
"","bandit","262","587085","0.0-223.0-0.0","92922785","wem/bandit_either_3","ATGUAXNWCW8NI","either","2","117","","","","","","","0","0","1","0.07710569088","","0.8","0.2","0.4","0.6","","","","","0.07710569088","0.5270594011","0.7709035389","0.8522040983","","","","","","","","72","H","0","img/none_selected.jpg","","183","main_expt",""
"","bandit","263","588756","0.0-224.0-0.0","92922785","wem/bandit_either_3","ATGUAXNWCW8NI","either","2","152","","","","","","","0","0","1","0.07901501252","","0.8","0.2","0.4","0.6","","","","","0.07901501252","0.4791569234","0.7869666122","0.8636776132","","","","","","","","72","H","0","img/none_selected.jpg","","184","main_expt",""
"","bandit","264","590627","0.0-225.0-0.0","92922785","wem/bandit_either_3","ATGUAXNWCW8NI","either","2","352","","","","","","","0","0","1","0.05695362571","","0.8","0.2","0.4","0.6","","","","","0.05695362571","0.464074867","0.804571828","0.8605951951","","","","","","","","72","H","0","img/none_selected.jpg","","185","main_expt",""
"","bandit","265","593727","0.0-226.0-0.0","92922785","wem/bandit_either_3","ATGUAXNWCW8NI","either","2","1571","","","","","","","0","0","1","0.03796608352","","0.8","0.2","0.4","0.6","","","","","0.03796608352","0.4654947356","0.7866627628","0.8578427848","","","","","","","","72","H","0","img/none_selected.jpg","","186","main_expt",""
"","bandit","266","609110","0.0-227.0-0.0","92922785","wem/bandit_either_3","ATGUAXNWCW8NI","either","2","13871","","","","","","","0","0","1","","0.4338668179","0.8","0.2","0.4","0.6","0.05986429342","0.4338668179","0.8006736442","0.8253306036","","","","","","","","","","","","74","J","1","","","187","main_expt",""
"","bandit","267","611110","0.0-228.0-0.0","92922785","wem/bandit_either_3","ATGUAXNWCW8NI","either","2","488","","","","","","","0","0","1","0.05827831728","","0.8","0.2","0.4","0.6","","","","","0.05827831728","0.4679469354","0.7687627789","0.8118593573","","","","","","","","72","H","0","img/none_selected.jpg","","188","main_expt",""
"","bandit","268","612647","0.0-229.0-0.0","92922785","wem/bandit_either_3","ATGUAXNWCW8NI","either","2","15","","","","","","","0","0","1","","0.4645116859","0.8","0.2","0.4","0.6","0.06499387038","0.4645116859","0.7009429779","0.8319104568","","","","","","","","","","","","74","J","1","","","189","main_expt",""
"","bandit","269","614246","0.0-230.0-0.0","92922785","wem/bandit_either_3","ATGUAXNWCW8NI","either","2","80","","","","","","","0","1","0","","0.7531121838","0.8","0.2","0.4","0.6","0.0878029059","0.4260553166","0.7531121838","0.8949986836","","","","","","","","","","","","75","K","2","","","190","main_expt",""
"","bandit","270","615938","0.0-231.0-0.0","92922785","wem/bandit_either_3","ATGUAXNWCW8NI","either","2","176","","","","","","","1","0","0","0.9258368343","","0.8","0.2","0.4","0.6","","","","","0.1101088583","0.5323747461","0.6174616994","0.9258368343","","","","","","","","76","L","3","","","191","main_expt",""
"","bandit","271","617462","0.0-232.0-0.0","92922785","wem/bandit_either_3","ATGUAXNWCW8NI","either","2","10","","","","","","","0","0","1","0.1559643099","","0.8","0.2","0.4","0.6","","","","","0.1559643099","0.6013900654","0.6331996982","0.9221438833","","","","","","","","72","H","0","img/none_selected.jpg","","192","main_expt",""
"","bandit","272","619204","0.0-233.0-0.0","92922785","wem/bandit_either_3","ATGUAXNWCW8NI","either","2","218","","","","","","","0","1","0","","0.5332063066","0.8","0.2","0.4","0.6","0.1348882638","0.5332063066","0.5596167322","0.878376231","","","","","","","","","","","","74","J","1","","","193","main_expt",""
"","bandit","273","621098","0.0-234.0-0.0","92922785","wem/bandit_either_3","ATGUAXNWCW8NI","either","2","374","","","","","","","0","0","1","","0.5499496643","0.8","0.2","0.4","0.6","0.243093686","0.5499496643","0.5887018809","0.7914694382","","","","","","","","","","","","74","J","1","","","194","main_expt",""
"","bandit","274","622739","0.0-235.0-0.0","92922785","wem/bandit_either_3","ATGUAXNWCW8NI","either","2","119","","","","","","","0","0","1","","0.561552955","0.8","0.2","0.4","0.6","0.2792315856","0.4170732774","0.561552955","0.7843027812","","","","","","","","","","","","75","K","2","","","195","main_expt",""
"","bandit","275","624272","0.0-236.0-0.0","92922785","wem/bandit_either_3","ATGUAXNWCW8NI","either","2","28","","","","","","","1","0","0","0.7888241066","","0.8","0.2","0.4","0.6","","","","","0.2075419965","0.4050854298","0.6199522587","0.7888241066","","","","","","","","76","L","3","","","196","main_expt",""
"","bandit","276","626138","0.0-237.0-0.0","92922785","wem/bandit_either_3","ATGUAXNWCW8NI","either","2","346","","","","","","","0","1","0","","0.8145025162","0.8","0.2","0.4","0.6","0.1899284635","0.4522405917","0.6886125155","0.8145025162","","","","","","","","","","","","76","L","3","","","197","main_expt",""
"","bandit","277","628128","0.0-238.0-0.0","92922785","wem/bandit_either_3","ATGUAXNWCW8NI","either","2","480","","","","","","","0","1","0","","0.6468609917","0.8","0.2","0.4","0.6","0.1632143895","0.4547961131","0.6468609917","0.8795467387","","","","","","","","","","","","75","K","2","","","198","main_expt",""
"","bandit","278","629808","0.0-239.0-0.0","92922785","wem/bandit_either_3","ATGUAXNWCW8NI","either","2","153","","","","","","","0","1","0","","0.7134983028","0.8","0.2","0.4","0.6","0.1580048483","0.456709553","0.7134983028","0.8716255916","","","","","","","","","","","","75","K","2","","","199","main_expt",""
"","bandit","279","631978","0.0-240.0-0.0","92922785","wem/bandit_either_3","ATGUAXNWCW8NI","either","2","654","","","","","","","0","0","1","0.1815025648","","0.8","0.2","0.4","0.6","","","","","0.1815025648","0.4197111003","0.6545285445","0.8596876402","","","","","","","","72","H","0","img/none_selected.jpg","","200","main_expt",""
"","bandit","280","633908","0.0-241.0-0.0","92922785","wem/bandit_either_3","ATGUAXNWCW8NI","either","2","414","","","","","","","0","1","0","","0.8714244785","0.8","0.2","0.4","0.6","0.1453003075","0.4468864226","0.6827561938","0.8714244785","","","","","","","","","","","","76","L","3","","","201","main_expt",""
"","bandit","281","637725","0.0-242.0-0.0","92922785","wem/bandit_either_3","ATGUAXNWCW8NI","either","2","2305","","","","","","","0","0","1","0.1061510446","","0.8","0.2","0.4","0.6","","","","","0.1061510446","0.3852152277","0.6590680519","0.8679491409","","","","","","","","72","H","0","img/none_selected.jpg","","202","main_expt",""
"","bandit","282","639498","0.0-243.0-0.0","92922785","wem/bandit_either_3","ATGUAXNWCW8NI","either","2","249","","","","","","","0","0","1","0.09667757311","","0.8","0.2","0.4","0.6","","","","","0.09667757311","0.3481501846","0.67998256","0.8421855008","","","","","","","","72","H","0","img/none_selected.jpg","","203","main_expt",""
"","bandit","283","641121","0.0-244.0-0.0","92922785","wem/bandit_either_3","ATGUAXNWCW8NI","either","2","116","","","","","","","0","0","1","","0.3688904748","0.8","0.2","0.4","0.6","0.109576977","0.3688904748","0.7157802034","0.8741547355","","","","","","","","","","","","74","J","1","","","204","main_expt",""
"","bandit","284","642646","0.0-245.0-0.0","92922785","wem/bandit_either_3","ATGUAXNWCW8NI","either","2","10","","","","","","","0","1","0","","0.6750594522","0.8","0.2","0.4","0.6","0.1370524017","0.4196025605","0.6750594522","0.8589537271","","","","","","","","","","","","75","K","2","","","205","main_expt",""
"","bandit","285","644180","0.0-246.0-0.0","92922785","wem/bandit_either_3","ATGUAXNWCW8NI","either","2","25","","","","","","","0","0","1","0.1005848846","","0.8","0.2","0.4","0.6","","","","","0.1005848846","0.3558717694","0.7170784861","0.8009191088","","","","","","","","72","H","0","img/none_selected.jpg","","206","main_expt",""
"","bandit","286","645726","0.0-247.0-0.0","92922785","wem/bandit_either_3","ATGUAXNWCW8NI","either","2","33","","","","","","","0","0","1","0.1100528349","","0.8","0.2","0.4","0.6","","","","","0.1100528349","0.3978287694","0.6886550294","0.8146279372","","","","","","","","72","H","0","img/none_selected.jpg","","207","main_expt",""
"","bandit","287","647813","0.0-248.0-0.0","92922785","wem/bandit_either_3","ATGUAXNWCW8NI","either","2","571","","","","","","","1","0","0","0.7498886323","","0.8","0.2","0.4","0.6","","","","","0.1165568201","0.3647175361","0.7340041914","0.7498886323","","","","","","","","76","L","3","","","208","main_expt",""
"","bandit","288","649598","0.0-249.0-0.0","92922785","wem/bandit_either_3","ATGUAXNWCW8NI","either","2","266","","","","","","","1","0","0","0.781298432","","0.8","0.2","0.4","0.6","","","","","0.1607141963","0.2942091963","0.7108339061","0.781298432","","","","","","","","76","L","3","","","209","main_expt",""
"","bandit","289","651371","0.0-250.0-0.0","92922785","wem/bandit_either_3","ATGUAXNWCW8NI","either","2","258","","","","","","","0","0","1","","0.8374694261","0.8","0.2","0.4","0.6","0.2005879304","0.3228874634","0.7322658343","0.8374694261","","","","","","","","","","","","76","L","3","","","210","main_expt",""
"","bandit","290","652888","0.0-251.0-0.0","92922785","wem/bandit_either_3","ATGUAXNWCW8NI","either","2","0","","","","","","","1","0","0","0.7461264045","","0.8","0.2","0.4","0.6","","","","","0.1999716741","0.3300931135","0.6220956771","0.7461264045","","","","","","","","76","L","3","","","211","main_expt",""
"","bandit","291","654502","0.0-252.0-0.0","92922785","wem/bandit_either_3","ATGUAXNWCW8NI","either","2","96","","","","","","","1","0","0","0.7267359419","","0.8","0.2","0.4","0.6","","","","","0.2135957141","0.4044608811","0.5400145011","0.7267359419","","","","","","","","76","L","3","","","212","main_expt",""
"","bandit","292","656119","0.0-253.0-0.0","92922785","wem/bandit_either_3","ATGUAXNWCW8NI","either","2","87","","","","","","","1","0","0","0.6529835343","","0.8","0.2","0.4","0.6","","","","","0.2041793084","0.4916994921","0.5419994818","0.6529835343","","","","","","","","76","L","3","","","213","main_expt",""
"","bandit","293","657760","0.0-254.0-0.0","92922785","wem/bandit_either_3","ATGUAXNWCW8NI","either","2","131","","","","","","","0","0","1","0.5734554779","","0.8","0.2","0.4","0.6","","","","","0.2563089198","0.5387088508","0.6195319152","0.5734554779","","","","","","","","76","L","3","","","214","main_expt",""
"","bandit","294","659461","0.0-255.0-0.0","92922785","wem/bandit_either_3","ATGUAXNWCW8NI","either","2","191","","","","","","","0","1","0","","0.7056003711","0.8","0.2","0.4","0.6","0.2870699064","0.567041903","0.7405966814","0.7056003711","","","","","","","","","","","","76","L","3","","","215","main_expt",""
"","bandit","295","661209","0.0-256.0-0.0","92922785","wem/bandit_either_3","ATGUAXNWCW8NI","either","2","219","","","","","","","1","0","0","0.7717913507","","0.8","0.2","0.4","0.6","","","","","0.2715554895","0.539749723","0.8005734678","0.7717913507","","","","","","","","76","L","3","","","216","main_expt",""
"","bandit","296","662832","0.0-257.0-0.0","92922785","wem/bandit_either_3","ATGUAXNWCW8NI","either","2","118","","","","","","","0","1","0","","0.834894728","0.8","0.2","0.4","0.6","0.2027777883","0.3803352486","0.8392159132","0.834894728","","","","","","","","","","","","76","L","3","","","217","main_expt",""
"","bandit","297","664481","0.0-258.0-0.0","92922785","wem/bandit_either_3","ATGUAXNWCW8NI","either","2","134","","","","","","","1","0","0","0.868580258","","0.8","0.2","0.4","0.6","","","","","0.2169787163","0.3236333655","0.7445585264","0.868580258","","","","","","","","76","L","3","","","218","main_expt",""
"","bandit","298","666073","0.0-259.0-0.0","92922785","wem/bandit_either_3","ATGUAXNWCW8NI","either","2","66","","","","","","","1","0","0","0.8236231074","","0.8","0.2","0.4","0.6","","","","","0.2292932202","0.2612589469","0.7174829008","0.8236231074","","","","","","","","76","L","3","","","219","main_expt",""
"","bandit","299","667649","0.0-260.0-0.0","92922785","wem/bandit_either_3","ATGUAXNWCW8NI","either","2","57","","","","","","","0","1","0","","0.7719294443","0.8","0.2","0.4","0.6","0.2829053382","0.2228319794","0.6601767392","0.7719294443","","","","","","","","","","","","76","L","3","","","220","main_expt",""
"","bandit","300","669299","0.0-261.0-0.0","92922785","wem/bandit_either_3","ATGUAXNWCW8NI","either","2","128","","","","","","","1","0","0","0.7609360252","","0.8","0.2","0.4","0.6","","","","","0.2691731019","0.2204856404","0.703996204","0.7609360252","","","","","","","","76","L","3","","","221","main_expt",""
"","bandit","301","670956","0.0-262.0-0.0","92922785","wem/bandit_either_3","ATGUAXNWCW8NI","either","2","142","","","","","","","1","0","0","0.7319851961","","0.8","0.2","0.4","0.6","","","","","0.1974112065","0.2269951902","0.6188024556","0.7319851961","","","","","","","","76","L","3","","","222","main_expt",""
"","bandit","302","672627","0.0-263.0-0.0","92922785","wem/bandit_either_3","ATGUAXNWCW8NI","either","2","146","","","","","","","0","0","1","0.6994646324","","0.8","0.2","0.4","0.6","","","","","0.08486155027","0.3417830843","0.5695888615","0.6994646324","","","","","","","","76","L","3","","","223","main_expt",""
"","bandit","303","674367","0.0-264.0-0.0","92922785","wem/bandit_either_3","ATGUAXNWCW8NI","either","2","227","","","","","","","0","1","0","","0.6817307813","0.8","0.2","0.4","0.6","0.1930609847","0.4057490183","0.6590173842","0.6817307813","","","","","","","","","","","","76","L","3","","","224","main_expt",""
"","bandit","304","675972","0.0-265.0-0.0","92922785","wem/bandit_either_3","ATGUAXNWCW8NI","either","2","83","","","","","","","0","0","1","","0.67394888","0.8","0.2","0.4","0.6","0.2026087193","0.4266979185","0.6779124893","0.67394888","","","","","","","","","","","","76","L","3","","","225","main_expt",""
"","bandit","305","677512","0.0-266.0-0.0","92922785","wem/bandit_either_3","ATGUAXNWCW8NI","either","2","19","","","","","","","0","1","0","","0.6520670614","0.8","0.2","0.4","0.6","0.1295559036","0.4723095555","0.6433757785","0.6520670614","","","","","","","","","","","","76","L","3","","","226","main_expt",""
"","bandit","306","679188","0.0-267.0-0.0","92922785","wem/bandit_either_3","ATGUAXNWCW8NI","either","2","154","","","","","","","1","0","0","0.6598054912","","0.8","0.2","0.4","0.6","","","","","0.1014701128","0.4396274322","0.6050090536","0.6598054912","","","","","","","","76","L","3","","","227","main_expt",""
"","bandit","307","680761","0.0-268.0-0.0","92922785","wem/bandit_either_3","ATGUAXNWCW8NI","either","2","46","","","","","","","1","0","0","0.7313296172","","0.8","0.2","0.4","0.6","","","","","0.1374428951","0.4581465293","0.5614220587","0.7313296172","","","","","","","","76","L","3","","","228","main_expt",""
"","bandit","308","682472","0.0-269.0-0.0","92922785","wem/bandit_either_3","ATGUAXNWCW8NI","either","2","189","","","","","","","0","1","0","","0.5771612872","0.8","0.2","0.4","0.6","0.2147377822","0.3635076811","0.536938762","0.5771612872","","","","","","","","","","","","76","L","3","","","229","main_expt",""
"","bandit","309","684104","0.0-270.0-0.0","92922785","wem/bandit_either_3","ATGUAXNWCW8NI","either","2","110","","","","","","","0","0","1","","0.6474737632","0.8","0.2","0.4","0.6","0.2128984172","0.4109812081","0.4691369301","0.6474737632","","","","","","","","","","","","76","L","3","","","230","main_expt",""
"","bandit","310","685701","0.0-271.0-0.0","92922785","wem/bandit_either_3","ATGUAXNWCW8NI","either","2","75","","","","","","","0","1","0","","0.77083729","0.8","0.2","0.4","0.6","0.2566260117","0.3769467169","0.3801843724","0.77083729","","","","","","","","","","","","76","L","3","","","231","main_expt",""
"","bandit","311","687273","0.0-272.0-0.0","92922785","wem/bandit_either_3","ATGUAXNWCW8NI","either","2","50","","","","","","","1","0","0","0.7372448464","","0.8","0.2","0.4","0.6","","","","","0.307190163","0.4489681289","0.4401380948","0.7372448464","","","","","","","","76","L","3","","","232","main_expt",""
"","bandit","312","688890","0.0-273.0-0.0","92922785","wem/bandit_either_3","ATGUAXNWCW8NI","either","2","89","","","","","","","1","0","0","0.8061851957","","0.8","0.2","0.4","0.6","","","","","0.3235632008","0.5191563331","0.4589823784","0.8061851957","","","","","","","","76","L","3","","","233","main_expt",""
"","bandit","313","690551","0.0-274.0-0.0","92922785","wem/bandit_either_3","ATGUAXNWCW8NI","either","2","136","","","","","","","1","0","0","0.7628128465","","0.8","0.2","0.4","0.6","","","","","0.2229472669","0.5635532962","0.412850409","0.7628128465","","","","","","","","76","L","3","","","234","main_expt",""
"","bandit","314","692271","0.0-275.0-0.0","92922785","wem/bandit_either_3","ATGUAXNWCW8NI","either","2","189","","","","","","","0","1","0","","0.7139354314","0.8","0.2","0.4","0.6","0.3245092944","0.6059211115","0.3071086281","0.7139354314","","","","","","","","","","","","76","L","3","","","235","main_expt",""
"","bandit","315","693872","0.0-276.0-0.0","92922785","wem/bandit_either_3","ATGUAXNWCW8NI","either","2","71","","","","","","","1","0","0","0.8459685894","","0.8","0.2","0.4","0.6","","","","","0.3817813951","0.5767319418","0.3088172556","0.8459685894","","","","","","","","76","L","3","","","236","main_expt",""
"","bandit","316","695792","0.0-277.0-0.0","92922785","wem/bandit_either_3","ATGUAXNWCW8NI","either","2","387","","","","","","","1","0","0","0.8258062243","","0.8","0.2","0.4","0.6","","","","","0.5108794425","0.6195352853","0.2725525041","0.8258062243","","","","","","","","76","L","3","","","237","main_expt",""
"","bandit","317","697372","0.0-278.0-0.0","92922785","wem/bandit_either_3","ATGUAXNWCW8NI","either","2","52","","","","","","","1","0","0","0.7390020401","","0.8","0.2","0.4","0.6","","","","","0.545868674","0.7504070514","0.2929581335","0.7390020401","","","","","","","","76","L","3","","","238","main_expt",""
"","bandit","318","698965","0.0-279.0-0.0","92922785","wem/bandit_either_3","ATGUAXNWCW8NI","either","2","68","","","","","","","1","0","0","0.7159327665","","0.8","0.2","0.4","0.6","","","","","0.5696008367","0.7863609923","0.3009301418","0.7159327665","","","","","","","","76","L","3","","","239","main_expt",""
"","bandit","319","700570","0.0-280.0-0.0","92922785","wem/bandit_either_3","ATGUAXNWCW8NI","either","2","78","","","","","","","1","0","0","0.7704913736","","0.8","0.2","0.4","0.6","","","","","0.7175907516","0.7472107855","0.1757133805","0.7704913736","","","","","","","","76","L","3","","","240","main_expt",""
"","bandit","320","702153","0.0-281.0-0.0","92922785","wem/bandit_either_3","ATGUAXNWCW8NI","either","2","54","","","","","","","0","0","1","0.7832900934","","0.8","0.2","0.4","0.6","","","","","0.8333566257","0.7633099306","0.1490953818","0.7832900934","","","","","","","","76","L","3","","","241","main_expt",""
"","bandit","321","703750","0.0-282.0-0.0","92922785","wem/bandit_either_3","ATGUAXNWCW8NI","either","2","77","","","","","","","0","1","0","","0.746364214","0.8","0.2","0.4","0.6","0.8661582331","0.8192624891","0.1187436938","0.746364214","","","","","","","","","","","","76","L","3","","","242","main_expt",""
"","bandit","322","705461","0.0-283.0-0.0","92922785","wem/bandit_either_3","ATGUAXNWCW8NI","either","2","190","","","","","","","0","1","0","","0.7014576998","0.8","0.2","0.4","0.6","0.8970489214","0.7500708258","0.07814629235","0.7014576998","","","","","","","","","","","","76","L","3","","","243","main_expt",""
"","bandit","323","707026","0.0-284.0-0.0","92922785","wem/bandit_either_3","ATGUAXNWCW8NI","either","2","44","","","","","","","1","0","0","0.6810302351","","0.8","0.2","0.4","0.6","","","","","0.8760308497","0.7656319196","0.06497313331","0.6810302351","","","","","","","","76","L","3","","","244","main_expt",""
"","bandit","324","708680","0.0-285.0-0.0","92922785","wem/bandit_either_3","ATGUAXNWCW8NI","either","2","125","","","","","","","0","0","1","","0.5349569219","0.8","0.2","0.4","0.6","0.9080051643","0.7726297554","0.1053527342","0.5349569219","","","","","","","","","","","","76","L","3","","","245","main_expt",""
"","bandit","325","710421","0.0-286.0-0.0","92922785","wem/bandit_either_3","ATGUAXNWCW8NI","either","2","217","","","","","","","0","1","0","","0.4945526892","0.8","0.2","0.4","0.6","0.8951486804","0.8033922047","0.1410713538","0.4945526892","","","","","","","","","","","","76","L","3","","","246","main_expt",""
