"consent","trial_type","trial_index","time_elapsed","internal_node_id","subjID","study","MID","cond","drift","rt","responses","key_press","expt_phase","like","value","connected","gems","bombs","no_reward","GemPrChosen","BombPrChosen","GainOverPainPr_0","GainOverPainPr_1","GainOverPainPr_2","GainOverPainPr_3","LosePr_0","LosePr_1","LosePr_2","LosePr_3","WinPr_0","WinPr_1","WinPr_2","WinPr_3","Q0","Q1","Q2","gender","age","ethnicity","target","respCharCode","respKey","respChoiceNum","respChoice","practice","trial_counter","trial_label","button_pressed"
"INL_behavioral_consent_30min_online.html","consent","0","8317","0.0-0.0","93062644","wem/bandit_either_3","A1T0NW527WZT7G","either","1","","","","","","","","","","","","","","","","","","","","","","","","","","","","","","","","","","","","","","",""
"","survey-text","1","15874","0.0-1.0","93062644","wem/bandit_either_3","A1T0NW527WZT7G","either","1","6541","{""Q0"":""A1T0NW527WZT7G""}","","","","","","","","","","","","","","","","","","","","","","","","","","","","","","","","","","","","",""
"","text","2","23941","0.0-2.0","93062644","wem/bandit_either_3","A1T0NW527WZT7G","either","1","7063","","32","","","","","","","","","","","","","","","","","","","","","","","","","","","","","","","","","","","",""
"","text","3","87723","0.0-3.0","93062644","wem/bandit_either_3","A1T0NW527WZT7G","either","1","63772","","32","","","","","","","","","","","","","","","","","","","","","","","","","","","","","","","","","","","",""
"","text","4","96820","0.0-4.0","93062644","wem/bandit_either_3","A1T0NW527WZT7G","either","1","9097","","32","","","","","","","","","","","","","","","","","","","","","","","","","","","","","","","","","","","",""
"","text","5","104059","0.0-5.0","93062644","wem/bandit_either_3","A1T0NW527WZT7G","either","1","7229","","32","","","","","","","","","","","","","","","","","","","","","","","","","","","","","","","","","","","",""
"","text","6","115484","0.0-6.0","93062644","wem/bandit_either_3","A1T0NW527WZT7G","either","1","11425","","32","","","","","","","","","","","","","","","","","","","","","","","","","","","","","","","","","","","",""
"","text","7","119979","0.0-7.0","93062644","wem/bandit_either_3","A1T0NW527WZT7G","either","1","4495","","32","","","","","","","","","","","","","","","","","","","","","","","","","","","","","","","","","","","",""
"","text","8","123519","0.0-8.0","93062644","wem/bandit_either_3","A1T0NW527WZT7G","either","1","3540","","32","","","","","","","","","","","","","","","","","","","","","","","","","","","","","","","","","","","",""
"","identification","9","127851","0.0-9.0-0.0","93062644","wem/bandit_either_3","A1T0NW527WZT7G","either","1","4322","","","","6","6","6","","","","","","","","","","","","","","","","","","","","","","","","the village of Zur","","","","","","","",""
"","identification","10","131440","0.0-9.0-1.0","93062644","wem/bandit_either_3","A1T0NW527WZT7G","either","1","2570","","","","0","0","0","","","","","","","","","","","","","","","","","","","","","","","","the village of Nyx","","","","","","","",""
"","text","11","137499","0.0-10.0","93062644","wem/bandit_either_3","A1T0NW527WZT7G","either","1","5055","","32","","","","","","","","","","","","","","","","","","","","","","","","","","","","","","","","","","","",""
"","text","12","139300","0.0-11.0","93062644","wem/bandit_either_3","A1T0NW527WZT7G","either","1","1800","","32","","","","","","","","","","","","","","","","","","","","","","","","","","","","","","","","","","","",""
"","text","13","141011","0.0-12.0","93062644","wem/bandit_either_3","A1T0NW527WZT7G","either","1","1710","","32","","","","","","","","","","","","","","","","","","","","","","","","","","","","","","","","","","","",""
"","text","14","143147","0.0-13.0","93062644","wem/bandit_either_3","A1T0NW527WZT7G","either","1","2134","","32","","","","","","","","","","","","","","","","","","","","","","","","","","","","","","","","","","","",""
"","bandit","15","145358","0.0-14.0-0.0","93062644","wem/bandit_either_3","A1T0NW527WZT7G","either","1","702","","","","","","","0","0","1","0","0","","","","","0","","","","0","","","","","","","","","","","74","J","0","img/none_selected_demo.jpg","true","0","",""
"","bandit","16","147683","0.0-15.0-0.0","93062644","wem/bandit_either_3","A1T0NW527WZT7G","either","1","818","","","","","","","0","0","1","0","0","","","","","0","","","","0","","","","","","","","","","","75","K","0","img/none_selected_demo.jpg","true","0","",""
"","text","17","152219","0.0-16.0","93062644","wem/bandit_either_3","A1T0NW527WZT7G","either","1","4535","","32","","","","","","","","","","","","","","","","","","","","","","","","","","","","","","","","","","","",""
"","text","18","159173","0.0-17.0","93062644","wem/bandit_either_3","A1T0NW527WZT7G","either","1","6953","","32","","","","","","","","","","","","","","","","","","","","","","","","","","","","","","","","","","","",""
"","text","19","164035","0.0-18.0","93062644","wem/bandit_either_3","A1T0NW527WZT7G","either","1","4860","","32","","","","","","","","","","","","","","","","","","","","","","","","","","","","","","","","","","","",""
"","text","20","166538","0.0-19.0","93062644","wem/bandit_either_3","A1T0NW527WZT7G","either","1","2502","","32","","","","","","","","","","","","","","","","","","","","","","","","","","","","","","","","","","","",""
"","bandit","21","168491","0.0-20.0-0.0","93062644","wem/bandit_either_3","A1T0NW527WZT7G","either","1","446","","","","","","","1","0","0","0.8","","0.5","0.5","","","","","","","0.8","0.2","","","","","","","","","","74","J","0","img/none_selected_demo.jpg","true","0","80_20_practice",""
"","bandit","22","170585","0.0-20.0-1.0","93062644","wem/bandit_either_3","A1T0NW527WZT7G","either","1","589","","","","","","","1","0","0","0.8","","0.5","0.5","","","","","","","0.8","0.2","","","","","","","","","","74","J","0","img/none_selected_demo.jpg","true","0","80_20_practice",""
"","bandit","23","172106","0.0-20.0-2.0","93062644","wem/bandit_either_3","A1T0NW527WZT7G","either","1","15","","","","","","","0","0","1","0.8","","0.5","0.5","","","","","","","0.8","0.2","","","","","","","","","","74","J","0","img/none_selected_demo.jpg","true","0","80_20_practice",""
"","bandit","24","173986","0.0-20.0-3.0","93062644","wem/bandit_either_3","A1T0NW527WZT7G","either","1","374","","","","","","","0","1","0","","0.8","0.5","0.5","","","0.8","0.2","","","","","","","","","","","","","","74","J","0","img/none_selected_demo.jpg","true","0","80_20_practice",""
"","bandit","25","175859","0.0-20.0-4.0","93062644","wem/bandit_either_3","A1T0NW527WZT7G","either","1","365","","","","","","","0","0","1","","0.2","0.5","0.5","","","0.8","0.2","","","","","","","","","","","","","","75","K","1","","true","0","80_20_practice",""
"","bandit","26","177707","0.0-20.0-5.0","93062644","wem/bandit_either_3","A1T0NW527WZT7G","either","1","341","","","","","","","0","0","1","0.2","","0.5","0.5","","","","","","","0.8","0.2","","","","","","","","","","75","K","1","","true","0","80_20_practice",""
"","bandit","27","179531","0.0-20.0-6.0","93062644","wem/bandit_either_3","A1T0NW527WZT7G","either","1","318","","","","","","","0","0","1","0.2","","0.5","0.5","","","","","","","0.8","0.2","","","","","","","","","","75","K","1","","true","0","80_20_practice",""
"","bandit","28","181347","0.0-20.0-7.0","93062644","wem/bandit_either_3","A1T0NW527WZT7G","either","1","309","","","","","","","0","0","1","0.2","","0.5","0.5","","","","","","","0.8","0.2","","","","","","","","","","75","K","1","","true","0","80_20_practice",""
"","bandit","29","183089","0.0-20.0-8.0","93062644","wem/bandit_either_3","A1T0NW527WZT7G","either","1","237","","","","","","","0","0","1","","0.8","0.5","0.5","","","0.8","0.2","","","","","","","","","","","","","","74","J","0","img/none_selected_demo.jpg","true","0","80_20_practice",""
"","bandit","30","184754","0.0-20.0-9.0","93062644","wem/bandit_either_3","A1T0NW527WZT7G","either","1","159","","","","","","","0","1","0","","0.8","0.5","0.5","","","0.8","0.2","","","","","","","","","","","","","","74","J","0","img/none_selected_demo.jpg","true","0","80_20_practice",""
"","bandit","31","186515","0.0-20.0-10.0","93062644","wem/bandit_either_3","A1T0NW527WZT7G","either","1","253","","","","","","","0","1","0","","0.8","0.5","0.5","","","0.8","0.2","","","","","","","","","","","","","","74","J","0","img/none_selected_demo.jpg","true","0","80_20_practice",""
"","bandit","32","188258","0.0-20.0-11.0","93062644","wem/bandit_either_3","A1T0NW527WZT7G","either","1","237","","","","","","","0","0","1","","0.2","0.5","0.5","","","0.8","0.2","","","","","","","","","","","","","","75","K","1","","true","0","80_20_practice",""
"","bandit","33","190065","0.0-20.0-12.0","93062644","wem/bandit_either_3","A1T0NW527WZT7G","either","1","302","","","","","","","0","1","0","","0.2","0.5","0.5","","","0.8","0.2","","","","","","","","","","","","","","75","K","1","","true","0","80_20_practice",""
"","bandit","34","191812","0.0-20.0-13.0","93062644","wem/bandit_either_3","A1T0NW527WZT7G","either","1","239","","","","","","","1","0","0","0.2","","0.5","0.5","","","","","","","0.8","0.2","","","","","","","","","","75","K","1","","true","0","80_20_practice",""
"","bandit","35","193539","0.0-20.0-14.0","93062644","wem/bandit_either_3","A1T0NW527WZT7G","either","1","220","","","","","","","0","0","1","","0.2","0.5","0.5","","","0.8","0.2","","","","","","","","","","","","","","75","K","1","","true","0","80_20_practice",""
"","bandit","36","196267","0.0-20.0-15.0","93062644","wem/bandit_either_3","A1T0NW527WZT7G","either","1","1220","","","","","","","0","0","1","","0.2","0.5","0.5","","","0.8","0.2","","","","","","","","","","","","","","75","K","1","","true","0","80_20_practice",""
"","bandit","37","198066","0.0-20.0-16.0","93062644","wem/bandit_either_3","A1T0NW527WZT7G","either","1","293","","","","","","","0","1","0","","0.8","0.5","0.5","","","0.8","0.2","","","","","","","","","","","","","","74","J","0","img/none_selected_demo.jpg","true","0","80_20_practice",""
"","bandit","38","199706","0.0-20.0-17.0","93062644","wem/bandit_either_3","A1T0NW527WZT7G","either","1","133","","","","","","","0","0","1","0.8","","0.5","0.5","","","","","","","0.8","0.2","","","","","","","","","","74","J","0","img/none_selected_demo.jpg","true","0","80_20_practice",""
"","bandit","39","201491","0.0-20.0-18.0","93062644","wem/bandit_either_3","A1T0NW527WZT7G","either","1","277","","","","","","","1","0","0","0.8","","0.5","0.5","","","","","","","0.8","0.2","","","","","","","","","","74","J","0","img/none_selected_demo.jpg","true","0","80_20_practice",""
"","bandit","40","203211","0.0-20.0-19.0","93062644","wem/bandit_either_3","A1T0NW527WZT7G","either","1","212","","","","","","","0","0","1","","0.8","0.5","0.5","","","0.8","0.2","","","","","","","","","","","","","","74","J","0","img/none_selected_demo.jpg","true","0","80_20_practice",""
"","text","41","205763","0.0-21.0","93062644","wem/bandit_either_3","A1T0NW527WZT7G","either","1","2550","","32","","","","","","","","","","","","","","","","","","","","","","","","","","","","","","","","","","","",""
"","bandit","42","209642","0.0-22.0-0.0","93062644","wem/bandit_either_3","A1T0NW527WZT7G","either","1","2373","","","","","","","1","0","0","1","0","","","","","0","1","","","1","0","","","","","","","","","","74","J","0","img/none_selected_demo.jpg","true","0","",""
"","text","43","217690","0.0-23.0","93062644","wem/bandit_either_3","A1T0NW527WZT7G","either","1","8046","","32","","","","","","","","","","","","","","","","","","","","","","","","","","","","","","","","","","","",""
"","text","44","219777","0.0-24.0","93062644","wem/bandit_either_3","A1T0NW527WZT7G","either","1","2086","","32","","","","","","","","","","","","","","","","","","","","","","","","","","","","","","","","","","","",""
"","text","45","222513","0.0-25.0","93062644","wem/bandit_either_3","A1T0NW527WZT7G","either","1","2735","","32","","","","","","","","","","","","","","","","","","","","","","","","","","","","","","","","","","","",""
"","text","46","226802","0.0-26.0","93062644","wem/bandit_either_3","A1T0NW527WZT7G","either","1","4288","","32","","","","","","","","","","","","","","","","","","","","","","","","","","","","","","","","","","","",""
"","text","47","244675","0.0-27.0","93062644","wem/bandit_either_3","A1T0NW527WZT7G","either","1","17871","","32","","","","","","","","","","","","","","","","","","","","","","","","","","","","","","","","","","","",""
"","text","48","247681","0.0-28.0","93062644","wem/bandit_either_3","A1T0NW527WZT7G","either","1","3005","","32","","","","","","","","","","","","","","","","","","","","","","","","","","","","","","","","","","","",""
"","text","49","251769","0.0-29.0","93062644","wem/bandit_either_3","A1T0NW527WZT7G","either","1","4086","","32","","","","","","","","","","","","","","","","","","","","","","","","","","","","","","","","","","","",""
"","text","50","254057","0.0-30.0","93062644","wem/bandit_either_3","A1T0NW527WZT7G","either","1","2286","","32","","","","","","","","","","","","","","","","","","","","","","","","","","","","","","","","","","","",""
"","text","51","259577","0.0-31.0","93062644","wem/bandit_either_3","A1T0NW527WZT7G","either","1","5518","","32","","","","","","","","","","","","","","","","","","","","","","","","","","","","","","","","","","","",""
"","text","52","261089","0.0-32.0","93062644","wem/bandit_either_3","A1T0NW527WZT7G","either","1","1510","","32","","","","","","","","","","","","","","","","","","","","","","","","","","","","","","","","","","","",""
"","text","53","265465","0.0-33.0","93062644","wem/bandit_either_3","A1T0NW527WZT7G","either","1","4373","","32","","","","","","","","","","","","","","","","","","","","","","","","","","","","","","","","","","","",""
"","bandit","54","267681","0.0-34.0-0.0","93062644","wem/bandit_either_3","A1T0NW527WZT7G","either","1","707","","","","","","","1","0","0","0.8","","0.5","0.5","0.5","0.5","","","","","0.8","0.2","0.6","0.2","","","","","","","","72","H","0","img/none_selected.jpg","true","0","full_practice",""
"","bandit","55","269408","0.0-34.0-1.0","93062644","wem/bandit_either_3","A1T0NW527WZT7G","either","1","220","","","","","","","0","0","1","","0.2","0.5","0.5","0.5","0.5","0.8","0.2","0.6","0.2","","","","","","","","","","","","74","J","1","","true","0","full_practice",""
"","bandit","56","271136","0.0-34.0-2.0","93062644","wem/bandit_either_3","A1T0NW527WZT7G","either","1","221","","","","","","","0","0","1","0.6","","0.5","0.5","0.5","0.5","","","","","0.8","0.2","0.6","0.2","","","","","","","","75","K","2","","true","0","full_practice",""
"","bandit","57","272664","0.0-34.0-3.0","93062644","wem/bandit_either_3","A1T0NW527WZT7G","either","1","21","","","","","","","0","0","1","0.2","","0.5","0.5","0.5","0.5","","","","","0.8","0.2","0.6","0.2","","","","","","","","76","L","3","","true","0","full_practice",""
"","bandit","58","274416","0.0-34.0-4.0","93062644","wem/bandit_either_3","A1T0NW527WZT7G","either","1","245","","","","","","","1","0","0","0.2","","0.5","0.5","0.5","0.5","","","","","0.8","0.2","0.6","0.2","","","","","","","","76","L","3","","true","0","full_practice",""
"","bandit","59","276120","0.0-34.0-5.0","93062644","wem/bandit_either_3","A1T0NW527WZT7G","either","1","196","","","","","","","1","0","0","0.2","","0.5","0.5","0.5","0.5","","","","","0.8","0.2","0.6","0.2","","","","","","","","76","L","3","","true","0","full_practice",""
"","bandit","60","277911","0.0-34.0-6.0","93062644","wem/bandit_either_3","A1T0NW527WZT7G","either","1","285","","","","","","","0","0","1","0.2","","0.5","0.5","0.5","0.5","","","","","0.8","0.2","0.6","0.2","","","","","","","","76","L","3","","true","0","full_practice",""
"","bandit","61","279649","0.0-34.0-7.0","93062644","wem/bandit_either_3","A1T0NW527WZT7G","either","1","232","","","","","","","0","0","1","0.6","","0.5","0.5","0.5","0.5","","","","","0.8","0.2","0.6","0.2","","","","","","","","75","K","2","","true","0","full_practice",""
"","bandit","62","281377","0.0-34.0-8.0","93062644","wem/bandit_either_3","A1T0NW527WZT7G","either","1","221","","","","","","","1","0","0","0.6","","0.5","0.5","0.5","0.5","","","","","0.8","0.2","0.6","0.2","","","","","","","","75","K","2","","true","0","full_practice",""
"","bandit","63","283121","0.0-34.0-9.0","93062644","wem/bandit_either_3","A1T0NW527WZT7G","either","1","236","","","","","","","1","0","0","0.6","","0.5","0.5","0.5","0.5","","","","","0.8","0.2","0.6","0.2","","","","","","","","75","K","2","","true","0","full_practice",""
"","bandit","64","284904","0.0-34.0-10.0","93062644","wem/bandit_either_3","A1T0NW527WZT7G","either","1","276","","","","","","","1","0","0","0.2","","0.5","0.5","0.5","0.5","","","","","0.8","0.2","0.6","0.2","","","","","","","","74","J","1","","true","0","full_practice",""
"","bandit","65","286736","0.0-34.0-11.0","93062644","wem/bandit_either_3","A1T0NW527WZT7G","either","1","325","","","","","","","0","1","0","","0.2","0.5","0.5","0.5","0.5","0.8","0.2","0.6","0.2","","","","","","","","","","","","74","J","1","","true","0","full_practice",""
"","bandit","66","288625","0.0-34.0-12.0","93062644","wem/bandit_either_3","A1T0NW527WZT7G","either","1","381","","","","","","","0","0","1","","0.2","0.5","0.5","0.5","0.5","0.8","0.2","0.6","0.2","","","","","","","","","","","","74","J","1","","true","0","full_practice",""
"","bandit","67","290337","0.0-34.0-13.0","93062644","wem/bandit_either_3","A1T0NW527WZT7G","either","1","205","","","","","","","0","1","0","","0.8","0.5","0.5","0.5","0.5","0.8","0.2","0.6","0.2","","","","","","","","","","","","72","H","0","img/none_selected.jpg","true","0","full_practice",""
"","bandit","68","292049","0.0-34.0-14.0","93062644","wem/bandit_either_3","A1T0NW527WZT7G","either","1","204","","","","","","","1","0","0","0.8","","0.5","0.5","0.5","0.5","","","","","0.8","0.2","0.6","0.2","","","","","","","","72","H","0","img/none_selected.jpg","true","0","full_practice",""
"","bandit","69","293864","0.0-34.0-15.0","93062644","wem/bandit_either_3","A1T0NW527WZT7G","either","1","309","","","","","","","1","0","0","0.8","","0.5","0.5","0.5","0.5","","","","","0.8","0.2","0.6","0.2","","","","","","","","72","H","0","img/none_selected.jpg","true","0","full_practice",""
"","bandit","70","295632","0.0-34.0-16.0","93062644","wem/bandit_either_3","A1T0NW527WZT7G","either","1","261","","","","","","","1","0","0","0.8","","0.5","0.5","0.5","0.5","","","","","0.8","0.2","0.6","0.2","","","","","","","","72","H","0","img/none_selected.jpg","true","0","full_practice",""
"","bandit","71","297441","0.0-34.0-17.0","93062644","wem/bandit_either_3","A1T0NW527WZT7G","either","1","300","","","","","","","0","0","1","","0.2","0.5","0.5","0.5","0.5","0.8","0.2","0.6","0.2","","","","","","","","","","","","74","J","1","","true","0","full_practice",""
"","bandit","72","299232","0.0-34.0-18.0","93062644","wem/bandit_either_3","A1T0NW527WZT7G","either","1","284","","","","","","","1","0","0","0.6","","0.5","0.5","0.5","0.5","","","","","0.8","0.2","0.6","0.2","","","","","","","","75","K","2","","true","0","full_practice",""
"","bandit","73","300977","0.0-34.0-19.0","93062644","wem/bandit_either_3","A1T0NW527WZT7G","either","1","238","","","","","","","0","0","1","","0.2","0.5","0.5","0.5","0.5","0.8","0.2","0.6","0.2","","","","","","","","","","","","76","L","3","","true","0","full_practice",""
"","text","74","303241","0.0-35.0","93062644","wem/bandit_either_3","A1T0NW527WZT7G","either","1","2258","","32","","","","","","","","","","","","","","","","","","","","","","","","","","","","","","","","","","","",""
"","text","75","314722","0.0-36.0","93062644","wem/bandit_either_3","A1T0NW527WZT7G","either","1","10478","","32","","","","","","","","","","","","","","","","","","","","","","","","","","","","","","","","","","","",""
"","text","76","337738","0.0-37.0","93062644","wem/bandit_either_3","A1T0NW527WZT7G","either","1","23014","","32","","","","","","","","","","","","","","","","","","","","","","","","","","","","","","","","","","","",""
"","text","77","351793","0.0-38.0","93062644","wem/bandit_either_3","A1T0NW527WZT7G","either","1","14054","","32","","","","","","","","","","","","","","","","","","","","","","","","","","","","","","","","","","","",""
"","text","78","356569","0.0-39.0","93062644","wem/bandit_either_3","A1T0NW527WZT7G","either","1","4773","","32","","","","","","","","","","","","","","","","","","","","","","","","","","","","","","","","","","","",""
"","text","79","357729","0.0-40.0","93062644","wem/bandit_either_3","A1T0NW527WZT7G","either","1","1157","","32","","","","","","","","","","","","","","","","","","","","","","","","","","","","","","","","","","","",""
"","bandit","80","361337","0.0-41.0-0.0","93062644","wem/bandit_either_3","A1T0NW527WZT7G","either","1","2101","","","","","","","0","0","1","0.8101107889","","0.6","0.2","0.4","0.8","","","","","0.8101107889","0.5202783506","0.7674833066","0.4995060561","","","","","","","","72","H","0","img/none_selected.jpg","","1","main_expt",""
"","bandit","81","363015","0.0-42.0-0.0","93062644","wem/bandit_either_3","A1T0NW527WZT7G","either","1","173","","","","","","","0","0","1","","0.8827976921","0.6","0.2","0.4","0.8","0.8827976921","0.4559554218","0.7786696111","0.4452888422","","","","","","","","","","","","72","H","0","img/none_selected.jpg","","2","main_expt",""
"","bandit","82","364921","0.0-43.0-0.0","93062644","wem/bandit_either_3","A1T0NW527WZT7G","either","1","398","","","","","","","0","1","0","","0.918633781","0.6","0.2","0.4","0.8","0.918633781","0.3791335739","0.7883912796","0.4956599627","","","","","","","","","","","","72","H","0","img/none_selected.jpg","","3","main_expt",""
"","bandit","83","366778","0.0-44.0-0.0","93062644","wem/bandit_either_3","A1T0NW527WZT7G","either","1","348","","","","","","","1","0","0","0.8961075186","","0.6","0.2","0.4","0.8","","","","","0.8961075186","0.362446662","0.8311681014","0.3939226057","","","","","","","","72","H","0","img/none_selected.jpg","","4","main_expt",""
"","bandit","84","368928","0.0-45.0-0.0","93062644","wem/bandit_either_3","A1T0NW527WZT7G","either","1","643","","","","","","","0","0","1","","0.4337427147","0.6","0.2","0.4","0.8","0.9065038385","0.4337427147","0.706748425","0.4737796053","","","","","","","","","","","","74","J","1","","","5","main_expt",""
"","bandit","85","370887","0.0-46.0-0.0","93062644","wem/bandit_either_3","A1T0NW527WZT7G","either","1","452","","","","","","","0","0","1","0.4260566605","","0.6","0.2","0.4","0.8","","","","","0.9628954729","0.4260566605","0.7246132019","0.5798080576","","","","","","","","74","J","1","","","6","main_expt",""
"","bandit","86","372713","0.0-47.0-0.0","93062644","wem/bandit_either_3","A1T0NW527WZT7G","either","1","317","","","","","","","0","1","0","","0.5595739282","0.6","0.2","0.4","0.8","0.9244273404","0.5595739282","0.822103072","0.6184433593","","","","","","","","","","","","74","J","1","","","7","main_expt",""
"","bandit","87","374521","0.0-48.0-0.0","93062644","wem/bandit_either_3","A1T0NW527WZT7G","either","1","300","","","","","","","0","0","1","","0.5757792393","0.6","0.2","0.4","0.8","0.9214665689","0.5757792393","0.8176183596","0.5380809204","","","","","","","","","","","","74","J","1","","","8","main_expt",""
"","bandit","88","376312","0.0-49.0-0.0","93062644","wem/bandit_either_3","A1T0NW527WZT7G","either","1","284","","","","","","","0","1","0","","0.5508288143","0.6","0.2","0.4","0.8","0.9604963414","0.5508288143","0.7421782695","0.4884558296","","","","","","","","","","","","74","J","1","","","9","main_expt",""
"","bandit","89","378160","0.0-50.0-0.0","93062644","wem/bandit_either_3","A1T0NW527WZT7G","either","1","341","","","","","","","0","0","1","0.7112185725","","0.6","0.2","0.4","0.8","","","","","0.973544224","0.4615344473","0.7112185725","0.6062827564","","","","","","","","75","K","2","","","10","main_expt",""
"","bandit","90","379873","0.0-51.0-0.0","93062644","wem/bandit_either_3","A1T0NW527WZT7G","either","1","205","","","","","","","0","1","0","","0.6656122322","0.6","0.2","0.4","0.8","0.9756729976","0.4731032433","0.6656122322","0.6618996933","","","","","","","","","","","","75","K","2","","","11","main_expt",""
"","bandit","91","381584","0.0-52.0-0.0","93062644","wem/bandit_either_3","A1T0NW527WZT7G","either","1","204","","","","","","","0","0","1","0.632951522","","0.6","0.2","0.4","0.8","","","","","0.9824084628","0.5028989732","0.632951522","0.6589688621","","","","","","","","75","K","2","","","12","main_expt",""
"","bandit","92","383448","0.0-53.0-0.0","93062644","wem/bandit_either_3","A1T0NW527WZT7G","either","1","356","","","","","","","0","1","0","","0.6428643634","0.6","0.2","0.4","0.8","0.9852841122","0.5252386458","0.6428643634","0.7483501345","","","","","","","","","","","","75","K","2","","","13","main_expt",""
"","bandit","93","385217","0.0-54.0-0.0","93062644","wem/bandit_either_3","A1T0NW527WZT7G","either","1","261","","","","","","","0","0","1","0.7642220585","","0.6","0.2","0.4","0.8","","","","","0.9844185579","0.4883642101","0.5693663763","0.7642220585","","","","","","","","76","L","3","","","14","main_expt",""
"","bandit","94","387008","0.0-55.0-0.0","93062644","wem/bandit_either_3","A1T0NW527WZT7G","either","1","284","","","","","","","0","0","1","0.8255663415","","0.6","0.2","0.4","0.8","","","","","0.9716790186","0.5125695872","0.6354763258","0.8255663415","","","","","","","","76","L","3","","","15","main_expt",""
"","bandit","95","388809","0.0-56.0-0.0","93062644","wem/bandit_either_3","A1T0NW527WZT7G","either","1","293","","","","","","","1","0","0","0.8262734196","","0.6","0.2","0.4","0.8","","","","","0.9724226268","0.483313844","0.6074668868","0.8262734196","","","","","","","","76","L","3","","","16","main_expt",""
"","bandit","96","390577","0.0-57.0-0.0","93062644","wem/bandit_either_3","A1T0NW527WZT7G","either","1","260","","","","","","","1","0","0","0.8957105494","","0.6","0.2","0.4","0.8","","","","","0.969397438","0.4764119597","0.634379517","0.8957105494","","","","","","","","76","L","3","","","17","main_expt",""
"","bandit","97","392329","0.0-58.0-0.0","93062644","wem/bandit_either_3","A1T0NW527WZT7G","either","1","243","","","","","","","0","1","0","","0.8243017832","0.6","0.2","0.4","0.8","0.9487821198","0.4742144938","0.7399013172","0.8243017832","","","","","","","","","","","","76","L","3","","","18","main_expt",""
"","bandit","98","394048","0.0-59.0-0.0","93062644","wem/bandit_either_3","A1T0NW527WZT7G","either","1","212","","","","","","","1","0","0","0.8174393347","","0.6","0.2","0.4","0.8","","","","","0.8822386923","0.5445729057","0.6892422428","0.8174393347","","","","","","","","76","L","3","","","19","main_expt",""
"","bandit","99","395863","0.0-60.0-0.0","93062644","wem/bandit_either_3","A1T0NW527WZT7G","either","1","309","","","","","","","1","0","0","0.8457625901","","0.6","0.2","0.4","0.8","","","","","0.8658452863","0.5114357523","0.5544472153","0.8457625901","","","","","","","","76","L","3","","","20","main_expt",""
"","bandit","100","397657","0.0-61.0-0.0","93062644","wem/bandit_either_3","A1T0NW527WZT7G","either","1","286","","","","","","","0","0","1","0.8565453533","","0.6","0.2","0.4","0.8","","","","","0.8597265301","0.4948626968","0.4705077418","0.8565453533","","","","","","","","76","L","3","","","21","main_expt",""
"","bandit","101","399552","0.0-62.0-0.0","93062644","wem/bandit_either_3","A1T0NW527WZT7G","either","1","388","","","","","","","1","0","0","0.8821281293","","0.6","0.2","0.4","0.8","","","","","0.929530396","0.3750889156","0.5364913494","0.8821281293","","","","","","","","76","L","3","","","22","main_expt",""
"","bandit","102","401465","0.0-63.0-0.0","93062644","wem/bandit_either_3","A1T0NW527WZT7G","either","1","406","","","","","","","1","0","0","0.8253896901","","0.6","0.2","0.4","0.8","","","","","0.9149061772","0.3874093852","0.5450887529","0.8253896901","","","","","","","","76","L","3","","","23","main_expt",""
"","bandit","103","403256","0.0-64.0-0.0","93062644","wem/bandit_either_3","A1T0NW527WZT7G","either","1","284","","","","","","","1","0","0","0.8682133559","","0.6","0.2","0.4","0.8","","","","","0.9389899916","0.4126546177","0.6013055931","0.8682133559","","","","","","","","76","L","3","","","24","main_expt",""
"","bandit","104","405048","0.0-65.0-0.0","93062644","wem/bandit_either_3","A1T0NW527WZT7G","either","1","285","","","","","","","0","1","0","","0.8186134727","0.6","0.2","0.4","0.8","0.9583062328","0.3871809826","0.7116226269","0.8186134727","","","","","","","","","","","","76","L","3","","","25","main_expt",""
"","bandit","105","406704","0.0-66.0-0.0","93062644","wem/bandit_either_3","A1T0NW527WZT7G","either","1","149","","","","","","","1","0","0","0.9349434311","","0.6","0.2","0.4","0.8","","","","","0.9349434311","0.4162773602","0.7284905038","0.841170918","","","","","","","","72","H","0","img/none_selected.jpg","","26","main_expt",""
"","bandit","106","408496","0.0-67.0-0.0","93062644","wem/bandit_either_3","A1T0NW527WZT7G","either","1","285","","","","","","","1","0","0","0.9147743466","","0.6","0.2","0.4","0.8","","","","","0.9147743466","0.4153433109","0.7007901837","0.8332298301","","","","","","","","72","H","0","img/none_selected.jpg","","27","main_expt",""
"","bandit","107","410249","0.0-68.0-0.0","93062644","wem/bandit_either_3","A1T0NW527WZT7G","either","1","245","","","","","","","1","0","0","0.8913744663","","0.6","0.2","0.4","0.8","","","","","0.8913744663","0.3083156359","0.7197690037","0.8340804883","","","","","","","","72","H","0","img/none_selected.jpg","","28","main_expt",""
"","bandit","108","412024","0.0-69.0-0.0","93062644","wem/bandit_either_3","A1T0NW527WZT7G","either","1","268","","","","","","","0","0","1","","0.9004815278","0.6","0.2","0.4","0.8","0.9004815278","0.4048150761","0.7569205749","0.8800986549","","","","","","","","","","","","72","H","0","img/none_selected.jpg","","29","main_expt",""
"","bandit","109","413746","0.0-70.0-0.0","93062644","wem/bandit_either_3","A1T0NW527WZT7G","either","1","212","","","","","","","0","0","1","0.800988266","","0.6","0.2","0.4","0.8","","","","","0.8335499875","0.5604470694","0.7007062976","0.800988266","","","","","","","","76","L","3","","","30","main_expt",""
"","bandit","110","415424","0.0-71.0-0.0","93062644","wem/bandit_either_3","A1T0NW527WZT7G","either","1","170","","","","","","","0","0","1","","0.7904098286","0.6","0.2","0.4","0.8","0.7904098286","0.5114456598","0.6218809145","0.8092707987","","","","","","","","","","","","72","H","0","img/none_selected.jpg","","31","main_expt",""
"","bandit","111","417192","0.0-72.0-0.0","93062644","wem/bandit_either_3","A1T0NW527WZT7G","either","1","261","","","","","","","0","0","1","","0.5195843055","0.6","0.2","0.4","0.8","0.8156470634","0.5195843055","0.5448888872","0.7600689364","","","","","","","","","","","","74","J","1","","","32","main_expt",""
"","bandit","112","418850","0.0-73.0-0.0","93062644","wem/bandit_either_3","A1T0NW527WZT7G","either","1","147","","","","","","","0","0","1","","0.7268405739","0.6","0.2","0.4","0.8","0.7458483223","0.4278216128","0.4396040002","0.7268405739","","","","","","","","","","","","76","L","3","","","33","main_expt",""
"","bandit","113","420600","0.0-74.0-0.0","93062644","wem/bandit_either_3","A1T0NW527WZT7G","either","1","243","","","","","","","1","0","0","0.8745519215","","0.6","0.2","0.4","0.8","","","","","0.8745519215","0.4581725564","0.3418027302","0.7867385379","","","","","","","","72","H","0","img/none_selected.jpg","","34","main_expt",""
"","bandit","114","422257","0.0-75.0-0.0","93062644","wem/bandit_either_3","A1T0NW527WZT7G","either","1","148","","","","","","","0","1","0","","0.8761773117","0.6","0.2","0.4","0.8","0.8761773117","0.5170179058","0.3770378826","0.7776722478","","","","","","","","","","","","72","H","0","img/none_selected.jpg","","35","main_expt",""
"","bandit","115","424089","0.0-76.0-0.0","93062644","wem/bandit_either_3","A1T0NW527WZT7G","either","1","323","","","","","","","1","0","0","0.3264650107","","0.6","0.2","0.4","0.8","","","","","0.8898579413","0.5761285305","0.3264650107","0.8110731924","","","","","","","","75","K","2","","","36","main_expt",""
"","bandit","116","425904","0.0-77.0-0.0","93062644","wem/bandit_either_3","A1T0NW527WZT7G","either","1","306","","","","","","","0","1","0","","0.9189960073","0.6","0.2","0.4","0.8","0.9189960073","0.5824592389","0.1696248696","0.8371501114","","","","","","","","","","","","72","H","0","img/none_selected.jpg","","37","main_expt",""
"","bandit","117","427664","0.0-78.0-0.0","93062644","wem/bandit_either_3","A1T0NW527WZT7G","either","1","253","","","","","","","0","0","1","0.3008725236","","0.6","0.2","0.4","0.8","","","","","0.9429067042","0.5039158184","0.3008725236","0.801984358","","","","","","","","75","K","2","","","38","main_expt",""
"","bandit","118","429385","0.0-79.0-0.0","93062644","wem/bandit_either_3","A1T0NW527WZT7G","either","1","212","","","","","","","1","0","0","0.836760671","","0.6","0.2","0.4","0.8","","","","","0.8860185862","0.4906961915","0.3612597963","0.836760671","","","","","","","","76","L","3","","","39","main_expt",""
"","bandit","119","431159","0.0-80.0-0.0","93062644","wem/bandit_either_3","A1T0NW527WZT7G","either","1","268","","","","","","","1","0","0","0.8958725565","","0.6","0.2","0.4","0.8","","","","","0.8958725565","0.5118773476","0.3316001813","0.7930168878","","","","","","","","72","H","0","img/none_selected.jpg","","40","main_expt",""
"","bandit","120","432745","0.0-81.0-0.0","93062644","wem/bandit_either_3","A1T0NW527WZT7G","either","1","77","","","","","","","0","1","0","","0.6758505439","0.6","0.2","0.4","0.8","0.8369757826","0.5207000815","0.251761063","0.6758505439","","","","","","","","","","","","76","L","3","","","41","main_expt",""
"","bandit","121","434408","0.0-82.0-0.0","93062644","wem/bandit_either_3","A1T0NW527WZT7G","either","1","156","","","","","","","1","0","0","0.8724413244","","0.6","0.2","0.4","0.8","","","","","0.8724413244","0.6208632684","0.3764367217","0.669091732","","","","","","","","72","H","0","img/none_selected.jpg","","42","main_expt",""
"","bandit","122","436112","0.0-83.0-0.0","93062644","wem/bandit_either_3","A1T0NW527WZT7G","either","1","196","","","","","","","0","1","0","","0.8721156492","0.6","0.2","0.4","0.8","0.8721156492","0.6736877605","0.4280411123","0.5774386383","","","","","","","","","","","","72","H","0","img/none_selected.jpg","","43","main_expt",""
"","bandit","123","437777","0.0-84.0-0.0","93062644","wem/bandit_either_3","A1T0NW527WZT7G","either","1","157","","","","","","","0","1","0","","0.4250007774","0.6","0.2","0.4","0.8","0.874486911","0.6770598463","0.4250007774","0.5402750746","","","","","","","","","","","","75","K","2","","","44","main_expt",""
"","bandit","124","439554","0.0-85.0-0.0","93062644","wem/bandit_either_3","A1T0NW527WZT7G","either","1","268","","","","","","","0","1","0","","0.6811336834","0.6","0.2","0.4","0.8","0.7653026016","0.6811336834","0.3964774122","0.4769525635","","","","","","","","","","","","74","J","1","","","45","main_expt",""
"","bandit","125","441449","0.0-86.0-0.0","93062644","wem/bandit_either_3","A1T0NW527WZT7G","either","1","383","","","","","","","1","0","0","0.6884850605","","0.6","0.2","0.4","0.8","","","","","0.6884850605","0.7409040253","0.3755541509","0.460739512","","","","","","","","72","H","0","img/none_selected.jpg","","46","main_expt",""
"","bandit","126","443217","0.0-87.0-0.0","93062644","wem/bandit_either_3","A1T0NW527WZT7G","either","1","259","","","","","","","1","0","0","0.3953603582","","0.6","0.2","0.4","0.8","","","","","0.6869729855","0.8602274841","0.3698766084","0.3953603582","","","","","","","","76","L","3","","","47","main_expt",""
"","bandit","127","445121","0.0-88.0-0.0","93062644","wem/bandit_either_3","A1T0NW527WZT7G","either","1","395","","","","","","","1","0","0","0.5194217752","","0.6","0.2","0.4","0.8","","","","","0.624749708","0.8947369126","0.2924141828","0.5194217752","","","","","","","","76","L","3","","","48","main_expt",""
"","bandit","128","446857","0.0-89.0-0.0","93062644","wem/bandit_either_3","A1T0NW527WZT7G","either","1","228","","","","","","","0","0","1","0.5015721984","","0.6","0.2","0.4","0.8","","","","","0.6269608649","0.9071052574","0.2506794134","0.5015721984","","","","","","","","76","L","3","","","49","main_expt",""
"","bandit","129","448544","0.0-90.0-0.0","93062644","wem/bandit_either_3","A1T0NW527WZT7G","either","1","178","","","","","","","0","0","1","","0.5394470416","0.6","0.2","0.4","0.8","0.5394470416","0.8569531155","0.2200095001","0.4427204185","","","","","","","","","","","","72","H","0","img/none_selected.jpg","","50","main_expt",""
"","bandit","130","450240","0.0-91.0-0.0","93062644","wem/bandit_either_3","A1T0NW527WZT7G","either","1","189","","","","","","","1","0","0","0.5194544998","","0.6","0.2","0.4","0.8","","","","","0.4991806479","0.8728609703","0.2703780474","0.5194544998","","","","","","","","76","L","3","","","51","main_expt",""
"","bandit","131","452024","0.0-92.0-0.0","93062644","wem/bandit_either_3","A1T0NW527WZT7G","either","1","276","","","","","","","1","0","0","0.4420680866","","0.6","0.2","0.4","0.8","","","","","0.5431464126","0.902184381","0.3215640211","0.4420680866","","","","","","","","76","L","3","","","52","main_expt",""
"","bandit","132","453713","0.0-93.0-0.0","93062644","wem/bandit_either_3","A1T0NW527WZT7G","either","1","177","","","","","","","0","0","1","0.5541791803","","0.6","0.2","0.4","0.8","","","","","0.4799783957","0.8975054296","0.2918797996","0.5541791803","","","","","","","","76","L","3","","","53","main_expt",""
"","bandit","133","455401","0.0-94.0-0.0","93062644","wem/bandit_either_3","A1T0NW527WZT7G","either","1","180","","","","","","","0","0","1","0.6187664305","","0.6","0.2","0.4","0.8","","","","","0.3946877269","0.9436546011","0.2432815539","0.6187664305","","","","","","","","76","L","3","","","54","main_expt",""
"","bandit","134","456977","0.0-95.0-0.0","93062644","wem/bandit_either_3","A1T0NW527WZT7G","either","1","67","","","","","","","1","0","0","0.538030076","","0.6","0.2","0.4","0.8","","","","","0.3892466866","0.9411334538","0.1993500609","0.538030076","","","","","","","","76","L","3","","","55","main_expt",""
"","bandit","135","458674","0.0-96.0-0.0","93062644","wem/bandit_either_3","A1T0NW527WZT7G","either","1","188","","","","","","","1","0","0","0.5137881872","","0.6","0.2","0.4","0.8","","","","","0.347268188","0.862285227","0.1832364248","0.5137881872","","","","","","","","76","L","3","","","56","main_expt",""
"","bandit","136","460265","0.0-97.0-0.0","93062644","wem/bandit_either_3","A1T0NW527WZT7G","either","1","82","","","","","","","1","0","0","0.6274604021","","0.6","0.2","0.4","0.8","","","","","0.3462231845","0.9034803314","0.1703919496","0.6274604021","","","","","","","","76","L","3","","","57","main_expt",""
"","bandit","137","461937","0.0-98.0-0.0","93062644","wem/bandit_either_3","A1T0NW527WZT7G","either","1","163","","","","","","","1","0","0","0.5636132077","","0.6","0.2","0.4","0.8","","","","","0.3707442777","0.9062052911","0.2146973212","0.5636132077","","","","","","","","76","L","3","","","58","main_expt",""
"","bandit","138","463697","0.0-99.0-0.0","93062644","wem/bandit_either_3","A1T0NW527WZT7G","either","1","250","","","","","","","1","0","0","0.6555757088","","0.6","0.2","0.4","0.8","","","","","0.4530366532","0.9169546289","0.2118107272","0.6555757088","","","","","","","","76","L","3","","","59","main_expt",""
"","bandit","139","465495","0.0-100.0-0.0","93062644","wem/bandit_either_3","A1T0NW527WZT7G","either","1","292","","","","","","","1","0","0","0.6555481193","","0.6","0.2","0.4","0.8","","","","","0.4335409142","0.9048679239","0.2096036334","0.6555481193","","","","","","","","76","L","3","","","60","main_expt",""
"","bandit","140","467296","0.0-101.0-0.0","93062644","wem/bandit_either_3","A1T0NW527WZT7G","either","1","292","","","","","","","1","0","0","0.6988977931","","0.6","0.2","0.4","0.8","","","","","0.3601573371","0.9346572725","0.1985607356","0.6988977931","","","","","","","","76","L","3","","","61","main_expt",""
"","bandit","141","468959","0.0-102.0-0.0","93062644","wem/bandit_either_3","A1T0NW527WZT7G","either","1","155","","","","","","","1","0","0","0.6124712875","","0.6","0.2","0.4","0.8","","","","","0.3187004912","0.9332729597","0.2352246004","0.6124712875","","","","","","","","76","L","3","","","62","main_expt",""
"","bandit","142","470713","0.0-103.0-0.0","93062644","wem/bandit_either_3","A1T0NW527WZT7G","either","1","244","","","","","","","0","0","1","0.4881994696","","0.6","0.2","0.4","0.8","","","","","0.331276396","0.9300142507","0.1989126294","0.4881994696","","","","","","","","76","L","3","","","63","main_expt",""
"","bandit","143","472489","0.0-104.0-0.0","93062644","wem/bandit_either_3","A1T0NW527WZT7G","either","1","268","","","","","","","1","0","0","0.5007509184","","0.6","0.2","0.4","0.8","","","","","0.3984677","0.8992917639","0.2231035509","0.5007509184","","","","","","","","76","L","3","","","64","main_expt",""
"","bandit","144","474265","0.0-105.0-0.0","93062644","wem/bandit_either_3","A1T0NW527WZT7G","either","1","267","","","","","","","0","0","1","","0.6077525222","0.6","0.2","0.4","0.8","0.3012021372","0.7939475476","0.174077904","0.6077525222","","","","","","","","","","","","76","L","3","","","65","main_expt",""
"","bandit","145","475992","0.0-106.0-0.0","93062644","wem/bandit_either_3","A1T0NW527WZT7G","either","1","218","","","","","","","0","0","1","","0.2848395029","0.6","0.2","0.4","0.8","0.2848395029","0.7848839068","0.1505104035","0.4876759876","","","","","","","","","","","","72","H","0","img/none_selected.jpg","","66","main_expt",""
"","bandit","146","477665","0.0-107.0-0.0","93062644","wem/bandit_either_3","A1T0NW527WZT7G","either","1","163","","","","","","","0","0","1","0.4705728971","","0.6","0.2","0.4","0.8","","","","","0.2908363747","0.7712869283","0.1706094741","0.4705728971","","","","","","","","76","L","3","","","67","main_expt",""
"","bandit","147","479491","0.0-108.0-0.0","93062644","wem/bandit_either_3","A1T0NW527WZT7G","either","1","311","","","","","","","1","0","0","0.5822594153","","0.6","0.2","0.4","0.8","","","","","0.3226378352","0.7426915226","0.193375558","0.5822594153","","","","","","","","76","L","3","","","68","main_expt",""
"","bandit","148","481330","0.0-109.0-0.0","93062644","wem/bandit_either_3","A1T0NW527WZT7G","either","1","326","","","","","","","0","1","0","","0.592712881","0.6","0.2","0.4","0.8","0.4490581071","0.592712881","0.226811003","0.6189715015","","","","","","","","","","","","74","J","1","","","69","main_expt",""
"","bandit","149","482993","0.0-110.0-0.0","93062644","wem/bandit_either_3","A1T0NW527WZT7G","either","1","153","","","","","","","0","0","1","0.191142909","","0.6","0.2","0.4","0.8","","","","","0.42365523","0.6587085967","0.191142909","0.5307799745","","","","","","","","75","K","2","","","70","main_expt",""
"","bandit","150","484720","0.0-111.0-0.0","93062644","wem/bandit_either_3","A1T0NW527WZT7G","either","1","219","","","","","","","1","0","0","0.5205551237","","0.6","0.2","0.4","0.8","","","","","0.427101634","0.7562029562","0.2371486809","0.5205551237","","","","","","","","76","L","3","","","71","main_expt",""
"","bandit","151","486327","0.0-112.0-0.0","93062644","wem/bandit_either_3","A1T0NW527WZT7G","either","1","100","","","","","","","1","0","0","0.5913901284","","0.6","0.2","0.4","0.8","","","","","0.5387899421","0.670676276","0.2602117984","0.5913901284","","","","","","","","76","L","3","","","72","main_expt",""
"","bandit","152","488097","0.0-113.0-0.0","93062644","wem/bandit_either_3","A1T0NW527WZT7G","either","1","259","","","","","","","0","0","1","0.7127465592","","0.6","0.2","0.4","0.8","","","","","0.4931252492","0.6870219419","0.1837165363","0.7127465592","","","","","","","","76","L","3","","","73","main_expt",""
"","bandit","153","489769","0.0-114.0-0.0","93062644","wem/bandit_either_3","A1T0NW527WZT7G","either","1","164","","","","","","","1","0","0","0.7804212289","","0.6","0.2","0.4","0.8","","","","","0.3888626504","0.582898469","0.2032334464","0.7804212289","","","","","","","","76","L","3","","","74","main_expt",""
"","bandit","154","491593","0.0-115.0-0.0","93062644","wem/bandit_either_3","A1T0NW527WZT7G","either","1","316","","","","","","","1","0","0","0.7966502287","","0.6","0.2","0.4","0.8","","","","","0.3866429177","0.6452442043","0.2782751631","0.7966502287","","","","","","","","76","L","3","","","75","main_expt",""
"","bandit","155","493297","0.0-116.0-0.0","93062644","wem/bandit_either_3","A1T0NW527WZT7G","either","1","195","","","","","","","1","0","0","0.7775959854","","0.6","0.2","0.4","0.8","","","","","0.3948468247","0.7031137023","0.3318782676","0.7775959854","","","","","","","","76","L","3","","","76","main_expt",""
"","bandit","156","495088","0.0-117.0-0.0","93062644","wem/bandit_either_3","A1T0NW527WZT7G","either","1","284","","","","","","","0","1","0","","0.8523583745","0.6","0.2","0.4","0.8","0.4853082722","0.6096498107","0.312607664","0.8523583745","","","","","","","","","","","","76","L","3","","","77","main_expt",""
"","bandit","157","496857","0.0-118.0-0.0","93062644","wem/bandit_either_3","A1T0NW527WZT7G","either","1","260","","","","","","","1","0","0","0.7707034136","","0.6","0.2","0.4","0.8","","","","","0.4971609959","0.532302087","0.3250695504","0.7707034136","","","","","","","","76","L","3","","","78","main_expt",""
"","bandit","158","498617","0.0-119.0-0.0","93062644","wem/bandit_either_3","A1T0NW527WZT7G","either","1","250","","","","","","","1","0","0","0.7919080975","","0.6","0.2","0.4","0.8","","","","","0.5349041547","0.4448734945","0.277144637","0.7919080975","","","","","","","","76","L","3","","","79","main_expt",""
"","bandit","159","500304","0.0-120.0-0.0","93062644","wem/bandit_either_3","A1T0NW527WZT7G","either","1","179","","","","","","","1","0","0","0.8107458935","","0.6","0.2","0.4","0.8","","","","","0.4713204996","0.34513516","0.293018971","0.8107458935","","","","","","","","76","L","3","","","80","main_expt",""
"","bandit","160","502087","0.0-121.0-0.0","93062644","wem/bandit_either_3","A1T0NW527WZT7G","either","1","274","","","","","","","1","0","0","0.7851591746","","0.6","0.2","0.4","0.8","","","","","0.4132476049","0.406584365","0.2730851157","0.7851591746","","","","","","","","76","L","3","","","81","main_expt",""
"","bandit","161","503857","0.0-122.0-0.0","93062644","wem/bandit_either_3","A1T0NW527WZT7G","either","1","260","","","","","","","1","0","0","0.8067558171","","0.6","0.2","0.4","0.8","","","","","0.4640808921","0.5068312928","0.2436011542","0.8067558171","","","","","","","","76","L","3","","","82","main_expt",""
"","bandit","162","505633","0.0-123.0-0.0","93062644","wem/bandit_either_3","A1T0NW527WZT7G","either","1","267","","","","","","","0","0","1","0.7777816444","","0.6","0.2","0.4","0.8","","","","","0.442115463","0.5209063211","0.2009218657","0.7777816444","","","","","","","","76","L","3","","","83","main_expt",""
"","bandit","163","507275","0.0-124.0-0.0","93062644","wem/bandit_either_3","A1T0NW527WZT7G","either","1","131","","","","","","","1","0","0","0.7801041195","","0.6","0.2","0.4","0.8","","","","","0.5117806844","0.6221591745","0.1550904625","0.7801041195","","","","","","","","76","L","3","","","84","main_expt",""
"","bandit","164","509065","0.0-125.0-0.0","93062644","wem/bandit_either_3","A1T0NW527WZT7G","either","1","283","","","","","","","1","0","0","0.7593249252","","0.6","0.2","0.4","0.8","","","","","0.5309627618","0.6939346182","0.1193398435","0.7593249252","","","","","","","","76","L","3","","","85","main_expt",""
"","bandit","165","510872","0.0-126.0-0.0","93062644","wem/bandit_either_3","A1T0NW527WZT7G","either","1","298","","","","","","","1","0","0","0.7911667705","","0.6","0.2","0.4","0.8","","","","","0.5482659382","0.7533471596","0.1398572341","0.7911667705","","","","","","","","76","L","3","","","86","main_expt",""
"","bandit","166","512489","0.0-127.0-0.0","93062644","wem/bandit_either_3","A1T0NW527WZT7G","either","1","110","","","","","","","1","0","0","0.8480662183","","0.6","0.2","0.4","0.8","","","","","0.4772076429","0.8040573679","0.1941505275","0.8480662183","","","","","","","","76","L","3","","","87","main_expt",""
"","bandit","167","514233","0.0-128.0-0.0","93062644","wem/bandit_either_3","A1T0NW527WZT7G","either","1","234","","","","","","","1","0","0","0.8110462569","","0.6","0.2","0.4","0.8","","","","","0.5202977678","0.7800800897","0.09645570925","0.8110462569","","","","","","","","76","L","3","","","88","main_expt",""
"","bandit","168","516043","0.0-129.0-0.0","93062644","wem/bandit_either_3","A1T0NW527WZT7G","either","1","297","","","","","","","1","0","0","0.7924414871","","0.6","0.2","0.4","0.8","","","","","0.4970482359","0.7329239748","0.1304326216","0.7924414871","","","","","","","","76","L","3","","","89","main_expt",""
"","bandit","169","517833","0.0-130.0-0.0","93062644","wem/bandit_either_3","A1T0NW527WZT7G","either","1","280","","","","","","","1","0","0","0.8190855249","","0.6","0.2","0.4","0.8","","","","","0.4671205494","0.7202813078","0.1410434261","0.8190855249","","","","","","","","76","L","3","","","90","main_expt",""
"","bandit","170","519592","0.0-131.0-0.0","93062644","wem/bandit_either_3","A1T0NW527WZT7G","either","1","250","","","","","","","1","0","0","0.858270253","","0.6","0.2","0.4","0.8","","","","","0.5518401665","0.698586111","0.1277095213","0.858270253","","","","","","","","76","L","3","","","91","main_expt",""
"","bandit","171","521363","0.0-132.0-0.0","93062644","wem/bandit_either_3","A1T0NW527WZT7G","either","1","262","","","","","","","0","0","1","0.8583259383","","0.6","0.2","0.4","0.8","","","","","0.620788192","0.6054304462","0.08596821216","0.8583259383","","","","","","","","76","L","3","","","92","main_expt",""
"","bandit","172","523097","0.0-133.0-0.0","93062644","wem/bandit_either_3","A1T0NW527WZT7G","either","1","225","","","","","","","0","0","1","0.8335107661","","0.6","0.2","0.4","0.8","","","","","0.679669404","0.6829204303","0.05652587691","0.8335107661","","","","","","","","76","L","3","","","93","main_expt",""
"","bandit","173","524826","0.0-134.0-0.0","93062644","wem/bandit_either_3","A1T0NW527WZT7G","either","1","218","","","","","","","1","0","0","0.8849423118","","0.6","0.2","0.4","0.8","","","","","0.6726581754","0.6084783934","0.07490457358","0.8849423118","","","","","","","","76","L","3","","","94","main_expt",""
"","bandit","174","526585","0.0-135.0-0.0","93062644","wem/bandit_either_3","A1T0NW527WZT7G","either","1","249","","","","","","","0","0","1","0.51962455","","0.6","0.2","0.4","0.8","","","","","0.5983950962","0.51962455","0.05201682933","0.9175662658","","","","","","","","74","J","1","","","95","main_expt",""
"","bandit","175","528217","0.0-136.0-0.0","93062644","wem/bandit_either_3","A1T0NW527WZT7G","either","1","123","","","","","","","0","0","1","","0.0353667714","0.6","0.2","0.4","0.8","0.6316158747","0.453067158","0.0353667714","0.8726153548","","","","","","","","","","","","75","K","2","","","96","main_expt",""
"","bandit","176","530033","0.0-137.0-0.0","93062644","wem/bandit_either_3","A1T0NW527WZT7G","either","1","306","","","","","","","1","0","0","0.6660601513","","0.6","0.2","0.4","0.8","","","","","0.6660601513","0.4090095009","0.04301306848","0.7260562137","","","","","","","","72","H","0","img/none_selected.jpg","","97","main_expt",""
"","bandit","177","531681","0.0-138.0-0.0","93062644","wem/bandit_either_3","A1T0NW527WZT7G","either","1","139","","","","","","","1","0","0","0.6506148609","","0.6","0.2","0.4","0.8","","","","","0.6185462561","0.360727585","0.03950067624","0.6506148609","","","","","","","","76","L","3","","","98","main_expt",""
"","bandit","178","533465","0.0-139.0-0.0","93062644","wem/bandit_either_3","A1T0NW527WZT7G","either","1","272","","","","","","","0","1","0","","0.581128502","0.6","0.2","0.4","0.8","0.581128502","0.3351327477","0.03156699585","0.5816342488","","","","","","","","","","","","72","H","0","img/none_selected.jpg","","99","main_expt",""
"","bandit","179","535128","0.0-140.0-0.0","93062644","wem/bandit_either_3","A1T0NW527WZT7G","either","1","155","","","","","","","1","0","0","0.5521464449","","0.6","0.2","0.4","0.8","","","","","0.479775063","0.3491912274","0.0248161238","0.5521464449","","","","","","","","76","L","3","","","100","main_expt",""
"","bandit","180","536975","0.0-141.0-0.0","93062644","wem/bandit_either_3","A1T0NW527WZT7G","either","1","339","","","","","","","0","0","1","0.6063232436","","0.6","0.2","0.4","0.8","","","","","0.5114647241","0.4105375765","0.02218075004","0.6063232436","","","","","","","","76","L","3","","","101","main_expt",""
"","bandit","181","538656","0.0-142.0-0.0","93062644","wem/bandit_either_3","A1T0NW527WZT7G","either","1","172","","","","","","","0","0","1","0.4718740674","","0.6","0.2","0.4","0.8","","","","","0.4718740674","0.438632671","0.01802152149","0.5636213764","","","","","","","","72","H","0","img/none_selected.jpg","","102","main_expt",""
"","bandit","182","540305","0.0-143.0-0.0","93062644","wem/bandit_either_3","A1T0NW527WZT7G","either","1","136","","","","","","","1","0","0","0.5370473259","","0.6","0.2","0.4","0.8","","","","","0.5245129891","0.372838406","0.01877214671","0.5370473259","","","","","","","","76","L","3","","","103","main_expt",""
"","bandit","183","542024","0.0-144.0-0.0","93062644","wem/bandit_either_3","A1T0NW527WZT7G","either","1","210","","","","","","","1","0","0","0.549647281","","0.6","0.2","0.4","0.8","","","","","0.5170751474","0.3057692375","0.01556743346","0.549647281","","","","","","","","76","L","3","","","104","main_expt",""
"","bandit","184","544088","0.0-145.0-0.0","93062644","wem/bandit_either_3","A1T0NW527WZT7G","either","1","556","","","","","","","1","0","0","0.4225976111","","0.6","0.2","0.4","0.8","","","","","0.472330124","0.37369274","0.03717147126","0.4225976111","","","","","","","","76","L","3","","","105","main_expt",""
"","bandit","185","546321","0.0-146.0-0.0","93062644","wem/bandit_either_3","A1T0NW527WZT7G","either","1","722","","","","","","","0","0","1","","0.5005163425","0.6","0.2","0.4","0.8","0.568133852","0.3179799449","0.07687033395","0.5005163425","","","","","","","","","","","","76","L","3","","","106","main_expt",""
"","bandit","186","549360","0.0-147.0-0.0","93062644","wem/bandit_either_3","A1T0NW527WZT7G","either","1","1531","","","","","","","0","0","1","0.3995396385","","0.6","0.2","0.4","0.8","","","","","0.536018559","0.3053765494","0.07659049968","0.3995396385","","","","","","","","76","L","3","","","107","main_expt",""
"","bandit","187","551248","0.0-148.0-0.0","93062644","wem/bandit_either_3","A1T0NW527WZT7G","either","1","380","","","","","","","0","0","1","0.3855926336","","0.6","0.2","0.4","0.8","","","","","0.3880888981","0.2732860947","0.07827602418","0.3855926336","","","","","","","","76","L","3","","","108","main_expt",""
"","bandit","188","553943","0.0-149.0-0.0","93062644","wem/bandit_either_3","A1T0NW527WZT7G","either","1","1188","","","","","","","0","0","1","0.3059937163","","0.6","0.2","0.4","0.8","","","","","0.3675045314","0.2624197952","0.1352418701","0.3059937163","","","","","","","","76","L","3","","","109","main_expt",""
"","bandit","189","556496","0.0-150.0-0.0","93062644","wem/bandit_either_3","A1T0NW527WZT7G","either","1","1041","","","","","","","0","0","1","0.2752892785","","0.6","0.2","0.4","0.8","","","","","0.4560700489","0.3303210632","0.1705666919","0.2752892785","","","","","","","","76","L","3","","","110","main_expt",""
"","bandit","190","558273","0.0-151.0-0.0","93062644","wem/bandit_either_3","A1T0NW527WZT7G","either","1","266","","","","","","","0","0","1","","0.5366389876","0.6","0.2","0.4","0.8","0.5366389876","0.3541452024","0.2202970635","0.3038626008","","","","","","","","","","","","72","H","0","img/none_selected.jpg","","111","main_expt",""
"","bandit","191","560041","0.0-152.0-0.0","93062644","wem/bandit_either_3","A1T0NW527WZT7G","either","1","258","","","","","","","0","0","1","0.4468573219","","0.6","0.2","0.4","0.8","","","","","0.5742054707","0.4468573219","0.2368742277","0.2308866464","","","","","","","","74","J","1","","","112","main_expt",""
"","bandit","192","561745","0.0-153.0-0.0","93062644","wem/bandit_either_3","A1T0NW527WZT7G","either","1","192","","","","","","","0","0","1","","0.2487241586","0.6","0.2","0.4","0.8","0.6014260319","0.5163231944","0.2487241586","0.2420052043","","","","","","","","","","","","75","K","2","","","113","main_expt",""
"","bandit","193","563544","0.0-154.0-0.0","93062644","wem/bandit_either_3","A1T0NW527WZT7G","either","1","290","","","","","","","0","0","1","","0.3277817495","0.6","0.2","0.4","0.8","0.5398035654","0.4064640458","0.238824581","0.3277817495","","","","","","","","","","","","76","L","3","","","114","main_expt",""
"","bandit","194","565321","0.0-155.0-0.0","93062644","wem/bandit_either_3","A1T0NW527WZT7G","either","1","267","","","","","","","0","0","1","0.5008208772","","0.6","0.2","0.4","0.8","","","","","0.5008208772","0.4085425191","0.1480638281","0.3280884562","","","","","","","","72","H","0","img/none_selected.jpg","","115","main_expt",""
"","bandit","195","567057","0.0-156.0-0.0","93062644","wem/bandit_either_3","A1T0NW527WZT7G","either","1","227","","","","","","","0","1","0","","0.4412864427","0.6","0.2","0.4","0.8","0.4200837231","0.4412864427","0.1246447603","0.4137256642","","","","","","","","","","","","74","J","1","","","116","main_expt",""
"","bandit","196","568729","0.0-157.0-0.0","93062644","wem/bandit_either_3","A1T0NW527WZT7G","either","1","161","","","","","","","1","0","0","0.1308085784","","0.6","0.2","0.4","0.8","","","","","0.4094987027","0.5188885271","0.1308085784","0.372751341","","","","","","","","75","K","2","","","117","main_expt",""
"","bandit","197","570504","0.0-158.0-0.0","93062644","wem/bandit_either_3","A1T0NW527WZT7G","either","1","265","","","","","","","0","0","1","0.09076242324","","0.6","0.2","0.4","0.8","","","","","0.3862907493","0.5728151575","0.09076242324","0.4225631273","","","","","","","","75","K","2","","","118","main_expt",""
"","bandit","198","572247","0.0-159.0-0.0","93062644","wem/bandit_either_3","A1T0NW527WZT7G","either","1","235","","","","","","","0","0","1","","0.09057925276","0.6","0.2","0.4","0.8","0.4437318585","0.5065624602","0.09057925276","0.4188482812","","","","","","","","","","","","75","K","2","","","119","main_expt",""
"","bandit","199","574001","0.0-160.0-0.0","93062644","wem/bandit_either_3","A1T0NW527WZT7G","either","1","245","","","","","","","0","0","1","","0.3729077829","0.6","0.2","0.4","0.8","0.293469011","0.4064427813","0.1288926122","0.3729077829","","","","","","","","","","","","76","L","3","","","120","main_expt",""
"","bandit","200","575713","0.0-161.0-0.0","93062644","wem/bandit_either_3","A1T0NW527WZT7G","either","1","201","","","","","","","0","0","1","0.1479701512","","0.6","0.2","0.4","0.8","","","","","0.2141601759","0.3948988447","0.1479701512","0.3817262037","","","","","","","","75","K","2","","","121","main_expt",""
"","bandit","201","577385","0.0-162.0-0.0","93062644","wem/bandit_either_3","A1T0NW527WZT7G","either","1","163","","","","","","","0","0","1","","0.3537210734","0.6","0.2","0.4","0.8","0.2594293103","0.316823658","0.1663524813","0.3537210734","","","","","","","","","","","","76","L","3","","","122","main_expt",""
"","bandit","202","579127","0.0-163.0-0.0","93062644","wem/bandit_either_3","A1T0NW527WZT7G","either","1","232","","","","","","","0","1","0","","0.3633727708","0.6","0.2","0.4","0.8","0.1519240937","0.3045978244","0.1993917655","0.3633727708","","","","","","","","","","","","76","L","3","","","123","main_expt",""
"","bandit","203","580863","0.0-164.0-0.0","93062644","wem/bandit_either_3","A1T0NW527WZT7G","either","1","228","","","","","","","1","0","0","0.4139908316","","0.6","0.2","0.4","0.8","","","","","0.2311656533","0.2389028675","0.2948689786","0.4139908316","","","","","","","","76","L","3","","","124","main_expt",""
"","bandit","204","582729","0.0-165.0-0.0","93062644","wem/bandit_either_3","A1T0NW527WZT7G","either","1","355","","","","","","","0","0","1","0.3619800754","","0.6","0.2","0.4","0.8","","","","","0.1956748967","0.2166803268","0.4054398129","0.3619800754","","","","","","","","76","L","3","","","125","main_expt",""
"","bandit","205","584315","0.0-166.0-0.0","93062644","wem/bandit_either_3","A1T0NW527WZT7G","either","1","74","","","","","","","0","1","0","","0.5337661481","0.6","0.2","0.4","0.8","0.1419383156","0.1613674106","0.5337661481","0.353362548","","","","","","","","","","","","75","K","2","","","126","main_expt",""
"","bandit","206","586017","0.0-167.0-0.0","93062644","wem/bandit_either_3","A1T0NW527WZT7G","either","1","190","","","","","","","1","0","0","0.5510518781","","0.6","0.2","0.4","0.8","","","","","0.1768105291","0.1682412955","0.5510518781","0.2888217425","","","","","","","","75","K","2","","","127","main_expt",""
"","bandit","207","587753","0.0-168.0-0.0","93062644","wem/bandit_either_3","A1T0NW527WZT7G","either","1","226","","","","","","","0","1","0","","0.4746642732","0.6","0.2","0.4","0.8","0.1187699492","0.1655910943","0.4746642732","0.3131893798","","","","","","","","","","","","75","K","2","","","128","main_expt",""
"","bandit","208","589832","0.0-169.0-0.0","93062644","wem/bandit_either_3","A1T0NW527WZT7G","either","1","571","","","","","","","0","0","1","","0.1845506081","0.6","0.2","0.4","0.8","0.1860330609","0.1845506081","0.5345142674","0.2826861836","","","","","","","","","","","","74","J","1","","","129","main_expt",""
"","bandit","209","591432","0.0-170.0-0.0","93062644","wem/bandit_either_3","A1T0NW527WZT7G","either","1","87","","","","","","","0","0","1","","0.1548240476","0.6","0.2","0.4","0.8","0.09722607165","0.1548240476","0.6617219445","0.3434973012","","","","","","","","","","","","74","J","1","","","130","main_expt",""
"","bandit","210","593160","0.0-171.0-0.0","93062644","wem/bandit_either_3","A1T0NW527WZT7G","either","1","219","","","","","","","0","0","1","0.1503989","","0.6","0.2","0.4","0.8","","","","","0.05626421391","0.1503989","0.6183560712","0.3848082556","","","","","","","","74","J","1","","","131","main_expt",""
"","bandit","211","594793","0.0-172.0-0.0","93062644","wem/bandit_either_3","A1T0NW527WZT7G","either","1","123","","","","","","","0","0","1","0.1199593994","","0.6","0.2","0.4","0.8","","","","","0.1149854728","0.1199593994","0.7009512511","0.4140069858","","","","","","","","74","J","1","","","132","main_expt",""
"","bandit","212","596585","0.0-173.0-0.0","93062644","wem/bandit_either_3","A1T0NW527WZT7G","either","1","282","","","","","","","0","0","1","","0.1698175541","0.6","0.2","0.4","0.8","0.1698175541","0.1518383839","0.5838974895","0.3745017877","","","","","","","","","","","","72","H","0","img/none_selected.jpg","","133","main_expt",""
"","bandit","213","598289","0.0-174.0-0.0","93062644","wem/bandit_either_3","A1T0NW527WZT7G","either","1","195","","","","","","","1","0","0","0.1925371395","","0.6","0.2","0.4","0.8","","","","","0.1925371395","0.1855528241","0.6628563986","0.3918835711","","","","","","","","72","H","0","img/none_selected.jpg","","134","main_expt",""
"","bandit","214","600064","0.0-175.0-0.0","93062644","wem/bandit_either_3","A1T0NW527WZT7G","either","1","265","","","","","","","1","0","0","0.5610912218","","0.6","0.2","0.4","0.8","","","","","0.246136332","0.2187769305","0.5610912218","0.3405764209","","","","","","","","75","K","2","","","135","main_expt",""
"","bandit","215","601872","0.0-176.0-0.0","93062644","wem/bandit_either_3","A1T0NW527WZT7G","either","1","299","","","","","","","1","0","0","0.4834649218","","0.6","0.2","0.4","0.8","","","","","0.2277518718","0.2001534018","0.4834649218","0.4155430462","","","","","","","","75","K","2","","","136","main_expt",""
"","bandit","216","603457","0.0-177.0-0.0","93062644","wem/bandit_either_3","A1T0NW527WZT7G","either","1","75","","","","","","","1","0","0","0.513072369","","0.6","0.2","0.4","0.8","","","","","0.252962458","0.176995917","0.513072369","0.3389252929","","","","","","","","75","K","2","","","137","main_expt",""
"","bandit","217","605247","0.0-178.0-0.0","93062644","wem/bandit_either_3","A1T0NW527WZT7G","either","1","280","","","","","","","0","0","1","0.5502636267","","0.6","0.2","0.4","0.8","","","","","0.3018696236","0.1460019238","0.5502636267","0.2698753193","","","","","","","","75","K","2","","","138","main_expt",""
"","bandit","218","606942","0.0-179.0-0.0","93062644","wem/bandit_either_3","A1T0NW527WZT7G","either","1","187","","","","","","","1","0","0","0.4564922144","","0.6","0.2","0.4","0.8","","","","","0.347353107","0.06707115951","0.4564922144","0.2821570394","","","","","","","","75","K","2","","","139","main_expt",""
"","bandit","219","608849","0.0-180.0-0.0","93062644","wem/bandit_either_3","A1T0NW527WZT7G","either","1","395","","","","","","","0","0","1","","0.4116013625","0.6","0.2","0.4","0.8","0.2477375586","0.1071331831","0.4116013625","0.3577533322","","","","","","","","","","","","75","K","2","","","140","main_expt",""
"","bandit","220","611073","0.0-181.0-0.0","93062644","wem/bandit_either_3","A1T0NW527WZT7G","either","1","712","","","","","","","1","0","0","0.4498847811","","0.6","0.2","0.4","0.8","","","","","0.2880826197","0.1224459691","0.4498847811","0.4250900652","","","","","","","","75","K","2","","","141","main_expt",""
"","bandit","221","612872","0.0-182.0-0.0","93062644","wem/bandit_either_3","A1T0NW527WZT7G","either","1","289","","","","","","","0","1","0","","0.4822150968","0.6","0.2","0.4","0.8","0.2287108423","0.1127900777","0.4822150968","0.3451055681","","","","","","","","","","","","75","K","2","","","142","main_expt",""
"","bandit","222","614529","0.0-183.0-0.0","93062644","wem/bandit_either_3","A1T0NW527WZT7G","either","1","147","","","","","","","0","0","1","","0.513506041","0.6","0.2","0.4","0.8","0.2096850542","0.1736101882","0.513506041","0.4661026996","","","","","","","","","","","","75","K","2","","","143","main_expt",""
"","bandit","223","616233","0.0-184.0-0.0","93062644","wem/bandit_either_3","A1T0NW527WZT7G","either","1","194","","","","","","","1","0","0","0.4683168179","","0.6","0.2","0.4","0.8","","","","","0.2214165798","0.1231714597","0.556822441","0.4683168179","","","","","","","","76","L","3","","","144","main_expt",""
"","bandit","224","617880","0.0-185.0-0.0","93062644","wem/bandit_either_3","A1T0NW527WZT7G","either","1","138","","","","","","","0","0","1","0.5633269006","","0.6","0.2","0.4","0.8","","","","","0.2412424024","0.10514291","0.5633269006","0.448697065","","","","","","","","75","K","2","","","145","main_expt",""
"","bandit","225","619657","0.0-186.0-0.0","93062644","wem/bandit_either_3","A1T0NW527WZT7G","either","1","267","","","","","","","0","0","1","","0.6482805244","0.6","0.2","0.4","0.8","0.1841611904","0.0972381369","0.6482805244","0.4560677512","","","","","","","","","","","","75","K","2","","","146","main_expt",""
"","bandit","226","621263","0.0-187.0-0.0","93062644","wem/bandit_either_3","A1T0NW527WZT7G","either","1","96","","","","","","","0","0","1","","0.1577922033","0.6","0.2","0.4","0.8","0.1577922033","0.1897119627","0.6036290043","0.513472809","","","","","","","","","","","","72","H","0","img/none_selected.jpg","","147","main_expt",""
"","bandit","227","623104","0.0-188.0-0.0","93062644","wem/bandit_either_3","A1T0NW527WZT7G","either","1","332","","","","","","","0","0","1","","0.1759094881","0.6","0.2","0.4","0.8","0.1663963597","0.1759094881","0.6110248825","0.3820674583","","","","","","","","","","","","74","J","1","","","148","main_expt",""
"","bandit","228","624713","0.0-189.0-0.0","93062644","wem/bandit_either_3","A1T0NW527WZT7G","either","1","97","","","","","","","0","0","1","0.3116557105","","0.6","0.2","0.4","0.8","","","","","0.319747154","0.2204336569","0.6453676348","0.3116557105","","","","","","","","76","L","3","","","149","main_expt",""
"","bandit","229","626544","0.0-190.0-0.0","93062644","wem/bandit_either_3","A1T0NW527WZT7G","either","1","320","","","","","","","0","0","1","","0.5410110608","0.6","0.2","0.4","0.8","0.5410110608","0.2328853871","0.66235511","0.3039338698","","","","","","","","","","","","72","H","0","img/none_selected.jpg","","150","main_expt",""
"","bandit","230","628248","0.0-191.0-0.0","93062644","wem/bandit_either_3","A1T0NW527WZT7G","either","1","194","","","","","","","0","0","1","","0.2652525627","0.6","0.2","0.4","0.8","0.5584745132","0.2652525627","0.5547575852","0.3092958796","","","","","","","","","","","","74","J","1","","","151","main_expt",""
"","bandit","231","629833","0.0-192.0-0.0","93062644","wem/bandit_either_3","A1T0NW527WZT7G","either","1","76","","","","","","","0","0","1","0.5223098228","","0.6","0.2","0.4","0.8","","","","","0.5709378499","0.2654363334","0.5223098228","0.3097370874","","","","","","","","75","K","2","","","152","main_expt",""
"","bandit","232","631433","0.0-193.0-0.0","93062644","wem/bandit_either_3","A1T0NW527WZT7G","either","1","89","","","","","","","1","0","0","0.2955649657","","0.6","0.2","0.4","0.8","","","","","0.6314515046","0.3505589273","0.5137303037","0.2955649657","","","","","","","","76","L","3","","","153","main_expt",""
"","bandit","233","633112","0.0-194.0-0.0","93062644","wem/bandit_either_3","A1T0NW527WZT7G","either","1","169","","","","","","","0","0","1","0.221553637","","0.6","0.2","0.4","0.8","","","","","0.6734276465","0.39889796","0.5193194566","0.221553637","","","","","","","","76","L","3","","","154","main_expt",""
"","bandit","234","634841","0.0-195.0-0.0","93062644","wem/bandit_either_3","A1T0NW527WZT7G","either","1","218","","","","","","","0","0","1","0.2231547498","","0.6","0.2","0.4","0.8","","","","","0.7019144477","0.4202606707","0.4736812385","0.2231547498","","","","","","","","76","L","3","","","155","main_expt",""
"","bandit","235","636489","0.0-196.0-0.0","93062644","wem/bandit_either_3","A1T0NW527WZT7G","either","1","137","","","","","","","0","0","1","0.4616442501","","0.6","0.2","0.4","0.8","","","","","0.6695455193","0.4814159609","0.4616442501","0.2750957943","","","","","","","","75","K","2","","","156","main_expt",""
"","bandit","236","638160","0.0-197.0-0.0","93062644","wem/bandit_either_3","A1T0NW527WZT7G","either","1","162","","","","","","","0","1","0","","0.5025740222","0.6","0.2","0.4","0.8","0.6179864128","0.5316807058","0.5025740222","0.2005793054","","","","","","","","","","","","75","K","2","","","157","main_expt",""
"","bandit","237","639823","0.0-198.0-0.0","93062644","wem/bandit_either_3","A1T0NW527WZT7G","either","1","155","","","","","","","0","0","1","0.4548105643","","0.6","0.2","0.4","0.8","","","","","0.7380689997","0.5429668589","0.4548105643","0.2502080146","","","","","","","","75","K","2","","","158","main_expt",""
"","bandit","238","641665","0.0-199.0-0.0","93062644","wem/bandit_either_3","A1T0NW527WZT7G","either","1","331","","","","","","","0","0","1","","0.5991419929","0.6","0.2","0.4","0.8","0.7632184112","0.5991419929","0.4622667215","0.2729805177","","","","","","","","","","","","74","J","1","","","159","main_expt",""
"","bandit","239","643704","0.0-200.0-0.0","93062644","wem/bandit_either_3","A1T0NW527WZT7G","either","1","529","","","","","","","0","0","1","","0.6480894682","0.6","0.2","0.4","0.8","0.6917664031","0.6480894682","0.4600517474","0.2801697818","","","","","","","","","","","","74","J","1","","","160","main_expt",""
"","bandit","240","645441","0.0-201.0-0.0","93062644","wem/bandit_either_3","A1T0NW527WZT7G","either","1","226","","","","","","","0","0","1","","0.6776161973","0.6","0.2","0.4","0.8","0.7106531984","0.6776161973","0.481388234","0.2437938608","","","","","","","","","","","","74","J","1","","","161","main_expt",""
"","bandit","241","647281","0.0-202.0-0.0","93062644","wem/bandit_either_3","A1T0NW527WZT7G","either","1","331","","","","","","","1","0","0","0.809310282","","0.6","0.2","0.4","0.8","","","","","0.809310282","0.7134031715","0.3850106192","0.2687553501","","","","","","","","72","H","0","img/none_selected.jpg","","162","main_expt",""
"","bandit","242","649024","0.0-203.0-0.0","93062644","wem/bandit_either_3","A1T0NW527WZT7G","either","1","234","","","","","","","0","1","0","","0.7492875705","0.6","0.2","0.4","0.8","0.7492875705","0.6215635068","0.3498723973","0.245991677","","","","","","","","","","","","72","H","0","img/none_selected.jpg","","163","main_expt",""
"","bandit","243","650714","0.0-204.0-0.0","93062644","wem/bandit_either_3","A1T0NW527WZT7G","either","1","178","","","","","","","1","0","0","0.7561394707","","0.6","0.2","0.4","0.8","","","","","0.7561394707","0.5219240024","0.4287417444","0.270385563","","","","","","","","72","H","0","img/none_selected.jpg","","164","main_expt",""
"","bandit","244","652497","0.0-205.0-0.0","93062644","wem/bandit_either_3","A1T0NW527WZT7G","either","1","274","","","","","","","1","0","0","0.8111415702","","0.6","0.2","0.4","0.8","","","","","0.8111415702","0.4727302842","0.3150145745","0.3037855967","","","","","","","","72","H","0","img/none_selected.jpg","","165","main_expt",""
"","bandit","245","654273","0.0-206.0-0.0","93062644","wem/bandit_either_3","A1T0NW527WZT7G","either","1","265","","","","","","","1","0","0","0.7759938205","","0.6","0.2","0.4","0.8","","","","","0.7759938205","0.5181018645","0.2927018344","0.3395577104","","","","","","","","72","H","0","img/none_selected.jpg","","166","main_expt",""
"","bandit","246","655993","0.0-207.0-0.0","93062644","wem/bandit_either_3","A1T0NW527WZT7G","either","1","209","","","","","","","0","0","1","0.8267633335","","0.6","0.2","0.4","0.8","","","","","0.8267633335","0.5280433419","0.3610256338","0.3443901906","","","","","","","","72","H","0","img/none_selected.jpg","","167","main_expt",""
"","bandit","247","657759","0.0-208.0-0.0","93062644","wem/bandit_either_3","A1T0NW527WZT7G","either","1","257","","","","","","","0","0","1","","0.3137127159","0.6","0.2","0.4","0.8","0.8136073627","0.5470010145","0.3137127159","0.2552323567","","","","","","","","","","","","75","K","2","","","168","main_expt",""
"","bandit","248","659544","0.0-209.0-0.0","93062644","wem/bandit_either_3","A1T0NW527WZT7G","either","1","276","","","","","","","1","0","0","0.7308533614","","0.6","0.2","0.4","0.8","","","","","0.7308533614","0.5558845962","0.2292796242","0.289352286","","","","","","","","72","H","0","img/none_selected.jpg","","169","main_expt",""
"","bandit","249","661304","0.0-210.0-0.0","93062644","wem/bandit_either_3","A1T0NW527WZT7G","either","1","250","","","","","","","0","1","0","","0.7090730391","0.6","0.2","0.4","0.8","0.7090730391","0.5799309324","0.221948569","0.2262743404","","","","","","","","","","","","72","H","0","img/none_selected.jpg","","170","main_expt",""
"","bandit","250","663073","0.0-211.0-0.0","93062644","wem/bandit_either_3","A1T0NW527WZT7G","either","1","258","","","","","","","0","0","1","","0.6643953266","0.6","0.2","0.4","0.8","0.7229684446","0.6643953266","0.159615594","0.2644351609","","","","","","","","","","","","74","J","1","","","171","main_expt",""
"","bandit","251","664856","0.0-212.0-0.0","93062644","wem/bandit_either_3","A1T0NW527WZT7G","either","1","274","","","","","","","1","0","0","0.6612043244","","0.6","0.2","0.4","0.8","","","","","0.6612043244","0.7610666705","0.1303854457","0.4136296373","","","","","","","","72","H","0","img/none_selected.jpg","","172","main_expt",""
"","bandit","252","666633","0.0-213.0-0.0","93062644","wem/bandit_either_3","A1T0NW527WZT7G","either","1","267","","","","","","","1","0","0","0.8006149786","","0.6","0.2","0.4","0.8","","","","","0.7669021743","0.8006149786","0.07729024622","0.491318492","","","","","","","","74","J","1","","","173","main_expt",""
"","bandit","253","668346","0.0-214.0-0.0","93062644","wem/bandit_either_3","A1T0NW527WZT7G","either","1","197","","","","","","","0","1","0","","0.791095403","0.6","0.2","0.4","0.8","0.8111867287","0.791095403","0.1227026474","0.4966763124","","","","","","","","","","","","74","J","1","","","174","main_expt",""
"","bandit","254","670105","0.0-215.0-0.0","93062644","wem/bandit_either_3","A1T0NW527WZT7G","either","1","249","","","","","","","0","0","1","0.8192498968","","0.6","0.2","0.4","0.8","","","","","0.8192498968","0.8572088762","0.09483306355","0.5109350621","","","","","","","","72","H","0","img/none_selected.jpg","","175","main_expt",""
"","bandit","255","671833","0.0-216.0-0.0","93062644","wem/bandit_either_3","A1T0NW527WZT7G","either","1","217","","","","","","","1","0","0","0.8576080684","","0.6","0.2","0.4","0.8","","","","","0.8371283275","0.8576080684","0.143069758","0.6321295754","","","","","","","","74","J","1","","","176","main_expt",""
"","bandit","256","673561","0.0-217.0-0.0","93062644","wem/bandit_either_3","A1T0NW527WZT7G","either","1","218","","","","","","","0","1","0","","0.8678158231","0.6","0.2","0.4","0.8","0.8545140947","0.8678158231","0.1741656422","0.5515755996","","","","","","","","","","","","74","J","1","","","177","main_expt",""
"","bandit","257","675271","0.0-218.0-0.0","93062644","wem/bandit_either_3","A1T0NW527WZT7G","either","1","201","","","","","","","0","1","0","","0.8820542777","0.6","0.2","0.4","0.8","0.8794893657","0.8820542777","0.1904086474","0.5086275016","","","","","","","","","","","","74","J","1","","","178","main_expt",""
"","bandit","258","677007","0.0-219.0-0.0","93062644","wem/bandit_either_3","A1T0NW527WZT7G","either","1","228","","","","","","","1","0","0","0.8907334788","","0.6","0.2","0.4","0.8","","","","","0.8939587296","0.8907334788","0.1778905233","0.5215192908","","","","","","","","74","J","1","","","179","main_expt",""
"","bandit","259","678768","0.0-220.0-0.0","93062644","wem/bandit_either_3","A1T0NW527WZT7G","either","1","250","","","","","","","0","1","0","","0.9161653667","0.6","0.2","0.4","0.8","0.868077767","0.9161653667","0.2112817454","0.5193414217","","","","","","","","","","","","74","J","1","","","180","main_expt",""
"","bandit","260","680705","0.0-221.0-0.0","93062644","wem/bandit_either_3","A1T0NW527WZT7G","either","1","425","","","","","","","0","0","1","0.2236312472","","0.6","0.2","0.4","0.8","","","","","0.9295405476","0.9327112184","0.2236312472","0.4613460131","","","","","","","","75","K","2","","","181","main_expt",""
"","bandit","261","682312","0.0-222.0-0.0","93062644","wem/bandit_either_3","A1T0NW527WZT7G","either","1","96","","","","","","","1","0","0","0.9213574857","","0.6","0.2","0.4","0.8","","","","","0.9213574857","0.9284398706","0.264467441","0.4468633868","","","","","","","","72","H","0","img/none_selected.jpg","","182","main_expt",""
"","bandit","262","684440","0.0-223.0-0.0","93062644","wem/bandit_either_3","A1T0NW527WZT7G","either","1","617","","","","","","","0","1","0","","0.9374560388","0.6","0.2","0.4","0.8","0.9374560388","0.89591471","0.2240632979","0.4985091709","","","","","","","","","","","","72","H","0","img/none_selected.jpg","","183","main_expt",""
"","bandit","263","686193","0.0-224.0-0.0","93062644","wem/bandit_either_3","A1T0NW527WZT7G","either","1","242","","","","","","","0","1","0","","0.9146434193","0.6","0.2","0.4","0.8","0.9120054929","0.9146434193","0.1671404848","0.6057575335","","","","","","","","","","","","74","J","1","","","184","main_expt",""
"","bandit","264","687913","0.0-225.0-0.0","93062644","wem/bandit_either_3","A1T0NW527WZT7G","either","1","209","","","","","","","0","0","1","0.8428471033","","0.6","0.2","0.4","0.8","","","","","0.8428471033","0.8575823977","0.1932257563","0.4915456485","","","","","","","","72","H","0","img/none_selected.jpg","","185","main_expt",""
"","bandit","265","689632","0.0-226.0-0.0","93062644","wem/bandit_either_3","A1T0NW527WZT7G","either","1","208","","","","","","","0","1","0","","0.7734335662","0.6","0.2","0.4","0.8","0.7734335662","0.8487952361","0.155472597","0.5976273718","","","","","","","","","","","","72","H","0","img/none_selected.jpg","","186","main_expt",""
"","bandit","266","691289","0.0-227.0-0.0","93062644","wem/bandit_either_3","A1T0NW527WZT7G","either","1","147","","","","","","","0","0","1","","0.1895871356","0.6","0.2","0.4","0.8","0.7667319261","0.8603972339","0.1895871356","0.5743595779","","","","","","","","","","","","75","K","2","","","187","main_expt",""
"","bandit","267","692817","0.0-228.0-0.0","93062644","wem/bandit_either_3","A1T0NW527WZT7G","either","1","17","","","","","","","1","0","0","0.2119556673","","0.6","0.2","0.4","0.8","","","","","0.5945875292","0.8834510925","0.2119556673","0.6833173747","","","","","","","","75","K","2","","","188","main_expt",""
"","bandit","268","694695","0.0-229.0-0.0","93062644","wem/bandit_either_3","A1T0NW527WZT7G","either","1","369","","","","","","","0","0","1","","0.2255007403","0.6","0.2","0.4","0.8","0.7406569186","0.8973947779","0.2255007403","0.651089354","","","","","","","","","","","","75","K","2","","","189","main_expt",""
"","bandit","269","696495","0.0-230.0-0.0","93062644","wem/bandit_either_3","A1T0NW527WZT7G","either","1","290","","","","","","","0","1","0","","0.1754842532","0.6","0.2","0.4","0.8","0.7371931777","0.8824587855","0.1754842532","0.6599652607","","","","","","","","","","","","75","K","2","","","190","main_expt",""
"","bandit","270","698112","0.0-231.0-0.0","93062644","wem/bandit_either_3","A1T0NW527WZT7G","either","1","108","","","","","","","0","1","0","","0.9076431997","0.6","0.2","0.4","0.8","0.7019705866","0.9076431997","0.1936311571","0.6960236584","","","","","","","","","","","","74","J","1","","","191","main_expt",""
"","bandit","271","699887","0.0-232.0-0.0","93062644","wem/bandit_either_3","A1T0NW527WZT7G","either","1","267","","","","","","","0","1","0","","0.8673165995","0.6","0.2","0.4","0.8","0.6198122665","0.8673165995","0.215612591","0.6713911156","","","","","","","","","","","","74","J","1","","","192","main_expt",""
"","bandit","272","701673","0.0-233.0-0.0","93062644","wem/bandit_either_3","A1T0NW527WZT7G","either","1","275","","","","","","","1","0","0","0.6100930929","","0.6","0.2","0.4","0.8","","","","","0.6100930929","0.8264401474","0.2818734505","0.7244072205","","","","","","","","72","H","0","img/none_selected.jpg","","193","main_expt",""
"","bandit","273","703481","0.0-234.0-0.0","93062644","wem/bandit_either_3","A1T0NW527WZT7G","either","1","294","","","","","","","0","0","1","","0.6332739585","0.6","0.2","0.4","0.8","0.6332739585","0.8546086414","0.3616108755","0.7397798508","","","","","","","","","","","","72","H","0","img/none_selected.jpg","","194","main_expt",""
"","bandit","274","705080","0.0-235.0-0.0","93062644","wem/bandit_either_3","A1T0NW527WZT7G","either","1","89","","","","","","","0","1","0","","0.609207161","0.6","0.2","0.4","0.8","0.609207161","0.7914914872","0.3979961615","0.7602069811","","","","","","","","","","","","72","H","0","img/none_selected.jpg","","195","main_expt",""
"","bandit","275","706904","0.0-236.0-0.0","93062644","wem/bandit_either_3","A1T0NW527WZT7G","either","1","313","","","","","","","0","0","1","","0.7114092524","0.6","0.2","0.4","0.8","0.6560649547","0.7608346536","0.4366641927","0.7114092524","","","","","","","","","","","","76","L","3","","","196","main_expt",""
"","bandit","276","708417","0.0-237.0-0.0","93062644","wem/bandit_either_3","A1T0NW527WZT7G","either","1","3","","","","","","","0","0","1","","0.560782874","0.6","0.2","0.4","0.8","0.6656533059","0.7003784325","0.560782874","0.6917424169","","","","","","","","","","","","75","K","2","","","197","main_expt",""
"","bandit","277","710031","0.0-238.0-0.0","93062644","wem/bandit_either_3","A1T0NW527WZT7G","either","1","104","","","","","","","0","0","1","","0.6036075577","0.6","0.2","0.4","0.8","0.6841747727","0.6036075577","0.5649388288","0.6561069913","","","","","","","","","","","","74","J","1","","","198","main_expt",""
"","bandit","278","711560","0.0-239.0-0.0","93062644","wem/bandit_either_3","A1T0NW527WZT7G","either","1","19","","","","","","","0","0","1","","0.5843314555","0.6","0.2","0.4","0.8","0.7105065455","0.5843314555","0.5375892324","0.6948346643","","","","","","","","","","","","74","J","1","","","199","main_expt",""
"","bandit","279","713376","0.0-240.0-0.0","93062644","wem/bandit_either_3","A1T0NW527WZT7G","either","1","304","","","","","","","0","1","0","","0.539414212","0.6","0.2","0.4","0.8","0.7380433654","0.539414212","0.5625167851","0.7369743936","","","","","","","","","","","","74","J","1","","","200","main_expt",""
"","bandit","280","715137","0.0-241.0-0.0","93062644","wem/bandit_either_3","A1T0NW527WZT7G","either","1","250","","","","","","","0","1","0","","0.6432951689","0.6","0.2","0.4","0.8","0.6432951689","0.3774065742","0.6266810217","0.8347268415","","","","","","","","","","","","72","H","0","img/none_selected.jpg","","201","main_expt",""
"","bandit","281","716833","0.0-242.0-0.0","93062644","wem/bandit_either_3","A1T0NW527WZT7G","either","1","185","","","","","","","1","0","0","0.4995879772","","0.6","0.2","0.4","0.8","","","","","0.4995879772","0.2824615609","0.6661075828","0.7612264534","","","","","","","","72","H","0","img/none_selected.jpg","","202","main_expt",""
"","bandit","282","718617","0.0-243.0-0.0","93062644","wem/bandit_either_3","A1T0NW527WZT7G","either","1","272","","","","","","","0","0","1","0.4767352753","","0.6","0.2","0.4","0.8","","","","","0.4767352753","0.210170224","0.7534099026","0.6904596671","","","","","","","","72","H","0","img/none_selected.jpg","","203","main_expt",""
"","bandit","283","720257","0.0-244.0-0.0","93062644","wem/bandit_either_3","A1T0NW527WZT7G","either","1","128","","","","","","","0","0","1","","0.3680612217","0.6","0.2","0.4","0.8","0.3680612217","0.2708138581","0.7033522103","0.6855485072","","","","","","","","","","","","72","H","0","img/none_selected.jpg","","204","main_expt",""
"","bandit","284","721968","0.0-245.0-0.0","93062644","wem/bandit_either_3","A1T0NW527WZT7G","either","1","201","","","","","","","0","0","1","0.3404512965","","0.6","0.2","0.4","0.8","","","","","0.3404512965","0.3319820794","0.6105989365","0.7006332368","","","","","","","","72","H","0","img/none_selected.jpg","","205","main_expt",""
"","bandit","285","723696","0.0-246.0-0.0","93062644","wem/bandit_either_3","A1T0NW527WZT7G","either","1","218","","","","","","","0","0","1","0.2774568564","","0.6","0.2","0.4","0.8","","","","","0.2774568564","0.3517339603","0.725137222","0.7533130943","","","","","","","","72","H","0","img/none_selected.jpg","","206","main_expt",""
"","bandit","286","725449","0.0-247.0-0.0","93062644","wem/bandit_either_3","A1T0NW527WZT7G","either","1","242","","","","","","","1","0","0","0.2871079035","","0.6","0.2","0.4","0.8","","","","","0.2228883469","0.2871079035","0.5888984072","0.7191760557","","","","","","","","74","J","1","","","207","main_expt",""
"","bandit","287","727160","0.0-248.0-0.0","93062644","wem/bandit_either_3","A1T0NW527WZT7G","either","1","198","","","","","","","0","0","1","","0.2642306377","0.6","0.2","0.4","0.8","0.2829247412","0.2642306377","0.4650323514","0.6264293856","","","","","","","","","","","","74","J","1","","","208","main_expt",""
"","bandit","288","728808","0.0-249.0-0.0","93062644","wem/bandit_either_3","A1T0NW527WZT7G","either","1","139","","","","","","","0","0","1","","0.3587725811","0.6","0.2","0.4","0.8","0.3169104167","0.3587725811","0.4100719568","0.6500478562","","","","","","","","","","","","74","J","1","","","209","main_expt",""
"","bandit","289","730465","0.0-250.0-0.0","93062644","wem/bandit_either_3","A1T0NW527WZT7G","either","1","145","","","","","","","1","0","0","0.3103342645","","0.6","0.2","0.4","0.8","","","","","0.2090062306","0.3103342645","0.5177296744","0.6498865343","","","","","","","","74","J","1","","","210","main_expt",""
"","bandit","290","732240","0.0-251.0-0.0","93062644","wem/bandit_either_3","A1T0NW527WZT7G","either","1","264","","","","","","","0","1","0","","0.3760595068","0.6","0.2","0.4","0.8","0.1481662818","0.3760595068","0.5950812693","0.6056301442","","","","","","","","","","","","74","J","1","","","211","main_expt",""
"","bandit","291","733897","0.0-252.0-0.0","93062644","wem/bandit_either_3","A1T0NW527WZT7G","either","1","145","","","","","","","1","0","0","0.447023013","","0.6","0.2","0.4","0.8","","","","","0.2114888193","0.447023013","0.7169745983","0.5524844402","","","","","","","","74","J","1","","","212","main_expt",""
"","bandit","292","735617","0.0-253.0-0.0","93062644","wem/bandit_either_3","A1T0NW527WZT7G","either","1","210","","","","","","","0","1","0","","0.4529182837","0.6","0.2","0.4","0.8","0.2234642754","0.4529182837","0.6766124197","0.6984249358","","","","","","","","","","","","74","J","1","","","213","main_expt",""
"","bandit","293","737336","0.0-254.0-0.0","93062644","wem/bandit_either_3","A1T0NW527WZT7G","either","1","207","","","","","","","0","0","1","","0.4306534983","0.6","0.2","0.4","0.8","0.2315139555","0.4306534983","0.8005648136","0.5996975418","","","","","","","","","","","","74","J","1","","","214","main_expt",""
"","bandit","294","738969","0.0-255.0-0.0","93062644","wem/bandit_either_3","A1T0NW527WZT7G","either","1","121","","","","","","","0","1","0","","0.8487964291","0.6","0.2","0.4","0.8","0.1949488974","0.4314469479","0.8487964291","0.6067129047","","","","","","","","","","","","75","K","2","","","215","main_expt",""
"","bandit","295","740641","0.0-256.0-0.0","93062644","wem/bandit_either_3","A1T0NW527WZT7G","either","1","160","","","","","","","1","0","0","0.6297976658","","0.6","0.2","0.4","0.8","","","","","0.2333303883","0.45439575","0.8674123454","0.6297976658","","","","","","","","76","L","3","","","216","main_expt",""
"","bandit","296","742345","0.0-257.0-0.0","93062644","wem/bandit_either_3","A1T0NW527WZT7G","either","1","191","","","","","","","0","0","1","","0.6095272491","0.6","0.2","0.4","0.8","0.2027763819","0.5228861726","0.8774404243","0.6095272491","","","","","","","","","","","","76","L","3","","","217","main_expt",""
"","bandit","297","744041","0.0-258.0-0.0","93062644","wem/bandit_either_3","A1T0NW527WZT7G","either","1","185","","","","","","","0","0","1","0.7058099393","","0.6","0.2","0.4","0.8","","","","","0.1895874514","0.463703458","0.8836448068","0.7058099393","","","","","","","","76","L","3","","","218","main_expt",""
"","bandit","298","745825","0.0-259.0-0.0","93062644","wem/bandit_either_3","A1T0NW527WZT7G","either","1","271","","","","","","","1","0","0","0.4522864467","","0.6","0.2","0.4","0.8","","","","","0.1537120117","0.4522864467","0.880498508","0.7396246451","","","","","","","","74","J","1","","","219","main_expt",""
"","bandit","299","747538","0.0-260.0-0.0","93062644","wem/bandit_either_3","A1T0NW527WZT7G","either","1","200","","","","","","","1","0","0","0.8740874997","","0.6","0.2","0.4","0.8","","","","","0.2022747423","0.4561576612","0.8740874997","0.7091968036","","","","","","","","75","K","2","","","220","main_expt",""
"","bandit","300","749296","0.0-261.0-0.0","93062644","wem/bandit_either_3","A1T0NW527WZT7G","either","1","248","","","","","","","0","0","1","0.4264657168","","0.6","0.2","0.4","0.8","","","","","0.3174413427","0.4264657168","0.8527830905","0.7116308873","","","","","","","","74","J","1","","","221","main_expt",""
"","bandit","301","751040","0.0-262.0-0.0","93062644","wem/bandit_either_3","A1T0NW527WZT7G","either","1","233","","","","","","","1","0","0","0.7717907476","","0.6","0.2","0.4","0.8","","","","","0.2315667073","0.3055141729","0.7717907476","0.769465391","","","","","","","","75","K","2","","","222","main_expt",""
"","bandit","302","752808","0.0-263.0-0.0","93062644","wem/bandit_either_3","A1T0NW527WZT7G","either","1","258","","","","","","","1","0","0","0.8359700354","","0.6","0.2","0.4","0.8","","","","","0.2261006122","0.2868954791","0.8359700354","0.7509006974","","","","","","","","75","K","2","","","223","main_expt",""
"","bandit","303","754642","0.0-264.0-0.0","93062644","wem/bandit_either_3","A1T0NW527WZT7G","either","1","321","","","","","","","0","0","1","0.819670806","","0.6","0.2","0.4","0.8","","","","","0.2662378096","0.2698185242","0.819670806","0.7007688409","","","","","","","","75","K","2","","","224","main_expt",""
"","bandit","304","756201","0.0-265.0-0.0","93062644","wem/bandit_either_3","A1T0NW527WZT7G","either","1","48","","","","","","","0","1","0","","0.8512382749","0.6","0.2","0.4","0.8","0.2163280173","0.213842325","0.8512382749","0.7409020096","","","","","","","","","","","","75","K","2","","","225","main_expt",""
"","bandit","305","757912","0.0-266.0-0.0","93062644","wem/bandit_either_3","A1T0NW527WZT7G","either","1","201","","","","","","","0","0","1","","0.1616408491","0.6","0.2","0.4","0.8","0.2809353625","0.1616408491","0.8342861847","0.7052945704","","","","","","","","","","","","74","J","1","","","226","main_expt",""
"","bandit","306","759641","0.0-267.0-0.0","93062644","wem/bandit_either_3","A1T0NW527WZT7G","either","1","218","","","","","","","1","0","0","0.2396571279","","0.6","0.2","0.4","0.8","","","","","0.2396571279","0.1777599287","0.7736041865","0.606091252","","","","","","","","72","H","0","img/none_selected.jpg","","227","main_expt",""
"","bandit","307","761241","0.0-268.0-0.0","93062644","wem/bandit_either_3","A1T0NW527WZT7G","either","1","87","","","","","","","0","0","1","","0.3430446928","0.6","0.2","0.4","0.8","0.3430446928","0.2866543064","0.8094350608","0.5834203199","","","","","","","","","","","","72","H","0","img/none_selected.jpg","","228","main_expt",""
"","bandit","308","762983","0.0-269.0-0.0","93062644","wem/bandit_either_3","A1T0NW527WZT7G","either","1","232","","","","","","","1","0","0","0.2886233194","","0.6","0.2","0.4","0.8","","","","","0.2886233194","0.3948293382","0.8078722129","0.5466214007","","","","","","","","72","H","0","img/none_selected.jpg","","229","main_expt",""
"","bandit","309","764768","0.0-270.0-0.0","93062644","wem/bandit_either_3","A1T0NW527WZT7G","either","1","274","","","","","","","0","0","1","0.3213731463","","0.6","0.2","0.4","0.8","","","","","0.3213731463","0.3291786684","0.7719043616","0.5519014059","","","","","","","","72","H","0","img/none_selected.jpg","","230","main_expt",""
"","bandit","310","766505","0.0-271.0-0.0","93062644","wem/bandit_either_3","A1T0NW527WZT7G","either","1","224","","","","","","","0","1","0","","0.8049264475","0.6","0.2","0.4","0.8","0.2771614906","0.2378236032","0.8049264475","0.4527164215","","","","","","","","","","","","75","K","2","","","231","main_expt",""
"","bandit","311","768193","0.0-272.0-0.0","93062644","wem/bandit_either_3","A1T0NW527WZT7G","either","1","176","","","","","","","0","1","0","","0.8850589997","0.6","0.2","0.4","0.8","0.2249105956","0.246393804","0.8850589997","0.5135082398","","","","","","","","","","","","75","K","2","","","232","main_expt",""
"","bandit","312","769873","0.0-273.0-0.0","93062644","wem/bandit_either_3","A1T0NW527WZT7G","either","1","162","","","","","","","1","0","0","0.2447973041","","0.6","0.2","0.4","0.8","","","","","0.2447973041","0.2141634692","0.9183615156","0.5502454751","","","","","","","","72","H","0","img/none_selected.jpg","","233","main_expt",""
"","bandit","313","771593","0.0-274.0-0.0","93062644","wem/bandit_either_3","A1T0NW527WZT7G","either","1","209","","","","","","","0","0","1","0.24601643","","0.6","0.2","0.4","0.8","","","","","0.24601643","0.2876436191","0.9639410842","0.3783923662","","","","","","","","72","H","0","img/none_selected.jpg","","234","main_expt",""
"","bandit","314","773185","0.0-275.0-0.0","93062644","wem/bandit_either_3","A1T0NW527WZT7G","either","1","79","","","","","","","0","1","0","","0.2769077257","0.6","0.2","0.4","0.8","0.1629844561","0.2769077257","0.9697187448","0.2814299379","","","","","","","","","","","","74","J","1","","","235","main_expt",""
"","bandit","315","774936","0.0-276.0-0.0","93062644","wem/bandit_either_3","A1T0NW527WZT7G","either","1","240","","","","","","","1","0","0","0.1929455839","","0.6","0.2","0.4","0.8","","","","","0.1929455839","0.136865198","0.9571573523","0.3106100538","","","","","","","","72","H","0","img/none_selected.jpg","","236","main_expt",""
"","bandit","316","776593","0.0-277.0-0.0","93062644","wem/bandit_either_3","A1T0NW527WZT7G","either","1","145","","","","","","","0","0","1","0.1123790732","","0.6","0.2","0.4","0.8","","","","","0.1497712966","0.1123790732","0.9170696074","0.3152445528","","","","","","","","74","J","1","","","237","main_expt",""
"","bandit","317","778216","0.0-278.0-0.0","93062644","wem/bandit_either_3","A1T0NW527WZT7G","either","1","111","","","","","","","0","0","1","","0.09027024906","0.6","0.2","0.4","0.8","0.1526491196","0.09027024906","0.9207491077","0.2637175197","","","","","","","","","","","","74","J","1","","","238","main_expt",""
"","bandit","318","779992","0.0-279.0-0.0","93062644","wem/bandit_either_3","A1T0NW527WZT7G","either","1","263","","","","","","","1","0","0","0.1745924244","","0.6","0.2","0.4","0.8","","","","","0.1745924244","0.08323179304","0.9211301165","0.1889878372","","","","","","","","72","H","0","img/none_selected.jpg","","239","main_expt",""
"","bandit","319","781673","0.0-280.0-0.0","93062644","wem/bandit_either_3","A1T0NW527WZT7G","either","1","169","","","","","","","0","0","1","","0.1159399908","0.6","0.2","0.4","0.8","0.1159399908","0.08130265934","0.8992774771","0.1710885746","","","","","","","","","","","","72","H","0","img/none_selected.jpg","","240","main_expt",""
"","bandit","320","783407","0.0-281.0-0.0","93062644","wem/bandit_either_3","A1T0NW527WZT7G","either","1","222","","","","","","","0","1","0","","0.8977441673","0.6","0.2","0.4","0.8","0.1682101231","0.1424736114","0.8977441673","0.1232632504","","","","","","","","","","","","75","K","2","","","241","main_expt",""
"","bandit","321","785001","0.0-282.0-0.0","93062644","wem/bandit_either_3","A1T0NW527WZT7G","either","1","81","","","","","","","0","0","1","","0.1643169396","0.6","0.2","0.4","0.8","0.1643169396","0.2433221762","0.853076495","0.210295675","","","","","","","","","","","","72","H","0","img/none_selected.jpg","","242","main_expt",""
"","bandit","322","786944","0.0-283.0-0.0","93062644","wem/bandit_either_3","A1T0NW527WZT7G","either","1","431","","","","","","","0","1","0","","0.3185073654","0.6","0.2","0.4","0.8","0.1355776028","0.3185073654","0.8942427246","0.289349801","","","","","","","","","","","","74","J","1","","","243","main_expt",""
"","bandit","323","788784","0.0-284.0-0.0","93062644","wem/bandit_either_3","A1T0NW527WZT7G","either","1","328","","","","","","","0","0","1","0.4071614743","","0.6","0.2","0.4","0.8","","","","","0.1311829495","0.3533170098","0.8701402288","0.4071614743","","","","","","","","76","L","3","","","244","main_expt",""
"","bandit","324","790425","0.0-285.0-0.0","93062644","wem/bandit_either_3","A1T0NW527WZT7G","either","1","125","","","","","","","0","1","0","","0.8552475109","0.6","0.2","0.4","0.8","0.1273238","0.3482220419","0.8552475109","0.453462755","","","","","","","","","","","","75","K","2","","","245","main_expt",""
