"consent","trial_type","trial_index","time_elapsed","internal_node_id","subjID","study","MID","cond","drift","rt","responses","key_press","expt_phase","like","value","connected","gems","bombs","no_reward","GemPrChosen","BombPrChosen","GainOverPainPr_0","GainOverPainPr_1","GainOverPainPr_2","GainOverPainPr_3","LosePr_0","LosePr_1","LosePr_2","LosePr_3","WinPr_0","WinPr_1","WinPr_2","WinPr_3","Q0","Q1","Q2","gender","age","ethnicity","target","respCharCode","respKey","respChoiceNum","respChoice","practice","trial_counter","trial_label","button_pressed"
"INL_behavioral_consent_30min_online.html","consent","0","37985","0.0-0.0","95925149","wem/bandit_either_3","A28XX39V2XCXJE","either","3","","","","","","","","","","","","","","","","","","","","","","","","","","","","","","","","","","","","","","",""
"","survey-text","1","47250","0.0-1.0","95925149","wem/bandit_either_3","A28XX39V2XCXJE","either","3","8258","{""Q0"":""A28XX39V2XCXJE""}","","","","","","","","","","","","","","","","","","","","","","","","","","","","","","","","","","","","",""
"","text","2","64399","0.0-2.0","95925149","wem/bandit_either_3","A28XX39V2XCXJE","either","3","16145","","32","","","","","","","","","","","","","","","","","","","","","","","","","","","","","","","","","","","",""
"","text","3","73007","0.0-3.0","95925149","wem/bandit_either_3","A28XX39V2XCXJE","either","3","8606","","32","","","","","","","","","","","","","","","","","","","","","","","","","","","","","","","","","","","",""
"","text","4","95608","0.0-4.0","95925149","wem/bandit_either_3","A28XX39V2XCXJE","either","3","22599","","32","","","","","","","","","","","","","","","","","","","","","","","","","","","","","","","","","","","",""
"","text","5","109010","0.0-5.0","95925149","wem/bandit_either_3","A28XX39V2XCXJE","either","3","13401","","32","","","","","","","","","","","","","","","","","","","","","","","","","","","","","","","","","","","",""
"","text","6","123768","0.0-6.0","95925149","wem/bandit_either_3","A28XX39V2XCXJE","either","3","14757","","32","","","","","","","","","","","","","","","","","","","","","","","","","","","","","","","","","","","",""
"","text","7","137106","0.0-7.0","95925149","wem/bandit_either_3","A28XX39V2XCXJE","either","3","13336","","32","","","","","","","","","","","","","","","","","","","","","","","","","","","","","","","","","","","",""
"","text","8","140915","0.0-8.0","95925149","wem/bandit_either_3","A28XX39V2XCXJE","either","3","3809","","32","","","","","","","","","","","","","","","","","","","","","","","","","","","","","","","","","","","",""
"","identification","9","163511","0.0-9.0-0.0","95925149","wem/bandit_either_3","A28XX39V2XCXJE","either","3","22587","","","","3","1","2","","","","","","","","","","","","","","","","","","","","","","","","the village of Zur","","","","","","","",""
"","identification","10","174009","0.0-9.0-1.0","95925149","wem/bandit_either_3","A28XX39V2XCXJE","either","3","9487","","","","2","2","0","","","","","","","","","","","","","","","","","","","","","","","","the village of Nyx","","","","","","","",""
"","text","11","180388","0.0-10.0","95925149","wem/bandit_either_3","A28XX39V2XCXJE","either","3","5375","","32","","","","","","","","","","","","","","","","","","","","","","","","","","","","","","","","","","","",""
"","text","12","183900","0.0-11.0","95925149","wem/bandit_either_3","A28XX39V2XCXJE","either","3","3509","","32","","","","","","","","","","","","","","","","","","","","","","","","","","","","","","","","","","","",""
"","text","13","186441","0.0-12.0","95925149","wem/bandit_either_3","A28XX39V2XCXJE","either","3","2540","","32","","","","","","","","","","","","","","","","","","","","","","","","","","","","","","","","","","","",""
"","text","14","191603","0.0-13.0","95925149","wem/bandit_either_3","A28XX39V2XCXJE","either","3","5160","","32","","","","","","","","","","","","","","","","","","","","","","","","","","","","","","","","","","","",""
"","bandit","15","197168","0.0-14.0-0.0","95925149","wem/bandit_either_3","A28XX39V2XCXJE","either","3","4057","","","","","","","0","0","1","0","0","","","","","0","","","","0","","","","","","","","","","","74","J","0","img/none_selected_demo.jpg","true","0","",""
"","bandit","16","201093","0.0-15.0-0.0","95925149","wem/bandit_either_3","A28XX39V2XCXJE","either","3","2417","","","","","","","0","0","1","0","0","","","","","0","","","","0","","","","","","","","","","","75","K","0","img/none_selected_demo.jpg","true","0","",""
"","text","17","210542","0.0-16.0","95925149","wem/bandit_either_3","A28XX39V2XCXJE","either","3","9447","","32","","","","","","","","","","","","","","","","","","","","","","","","","","","","","","","","","","","",""
"","text","18","219939","0.0-17.0","95925149","wem/bandit_either_3","A28XX39V2XCXJE","either","3","9395","","32","","","","","","","","","","","","","","","","","","","","","","","","","","","","","","","","","","","",""
"","text","19","229408","0.0-18.0","95925149","wem/bandit_either_3","A28XX39V2XCXJE","either","3","9466","","32","","","","","","","","","","","","","","","","","","","","","","","","","","","","","","","","","","","",""
"","text","20","235926","0.0-19.0","95925149","wem/bandit_either_3","A28XX39V2XCXJE","either","3","6516","","32","","","","","","","","","","","","","","","","","","","","","","","","","","","","","","","","","","","",""
"","bandit","21","240415","0.0-20.0-0.0","95925149","wem/bandit_either_3","A28XX39V2XCXJE","either","3","2983","","","","","","","0","0","1","","0.2","0.5","0.5","","","0.8","0.2","","","","","","","","","","","","","","75","K","1","","true","0","80_20_practice",""
"","bandit","22","244192","0.0-20.0-1.0","95925149","wem/bandit_either_3","A28XX39V2XCXJE","either","3","2266","","","","","","","1","0","0","0.8","","0.5","0.5","","","","","","","0.8","0.2","","","","","","","","","","74","J","0","img/none_selected_demo.jpg","true","0","80_20_practice",""
"","bandit","23","246550","0.0-20.0-2.0","95925149","wem/bandit_either_3","A28XX39V2XCXJE","either","3","850","","","","","","","1","0","0","0.8","","0.5","0.5","","","","","","","0.8","0.2","","","","","","","","","","74","J","0","img/none_selected_demo.jpg","true","0","80_20_practice",""
"","bandit","24","248833","0.0-20.0-3.0","95925149","wem/bandit_either_3","A28XX39V2XCXJE","either","3","775","","","","","","","0","1","0","","0.8","0.5","0.5","","","0.8","0.2","","","","","","","","","","","","","","74","J","0","img/none_selected_demo.jpg","true","0","80_20_practice",""
"","bandit","25","251262","0.0-20.0-4.0","95925149","wem/bandit_either_3","A28XX39V2XCXJE","either","3","921","","","","","","","0","0","1","0.8","","0.5","0.5","","","","","","","0.8","0.2","","","","","","","","","","74","J","0","img/none_selected_demo.jpg","true","0","80_20_practice",""
"","bandit","26","253750","0.0-20.0-5.0","95925149","wem/bandit_either_3","A28XX39V2XCXJE","either","3","979","","","","","","","1","0","0","0.8","","0.5","0.5","","","","","","","0.8","0.2","","","","","","","","","","74","J","0","img/none_selected_demo.jpg","true","0","80_20_practice",""
"","bandit","27","255838","0.0-20.0-6.0","95925149","wem/bandit_either_3","A28XX39V2XCXJE","either","3","581","","","","","","","0","1","0","","0.8","0.5","0.5","","","0.8","0.2","","","","","","","","","","","","","","74","J","0","img/none_selected_demo.jpg","true","0","80_20_practice",""
"","bandit","28","257950","0.0-20.0-7.0","95925149","wem/bandit_either_3","A28XX39V2XCXJE","either","3","606","","","","","","","1","0","0","0.8","","0.5","0.5","","","","","","","0.8","0.2","","","","","","","","","","74","J","0","img/none_selected_demo.jpg","true","0","80_20_practice",""
"","bandit","29","259915","0.0-20.0-8.0","95925149","wem/bandit_either_3","A28XX39V2XCXJE","either","3","457","","","","","","","0","0","1","0.2","","0.5","0.5","","","","","","","0.8","0.2","","","","","","","","","","75","K","1","","true","0","80_20_practice",""
"","bandit","30","261944","0.0-20.0-9.0","95925149","wem/bandit_either_3","A28XX39V2XCXJE","either","3","521","","","","","","","1","0","0","0.2","","0.5","0.5","","","","","","","0.8","0.2","","","","","","","","","","75","K","1","","true","0","80_20_practice",""
"","bandit","31","264208","0.0-20.0-10.0","95925149","wem/bandit_either_3","A28XX39V2XCXJE","either","3","755","","","","","","","0","0","1","0.2","","0.5","0.5","","","","","","","0.8","0.2","","","","","","","","","","75","K","1","","true","0","80_20_practice",""
"","bandit","32","266430","0.0-20.0-11.0","95925149","wem/bandit_either_3","A28XX39V2XCXJE","either","3","715","","","","","","","0","0","1","0.2","","0.5","0.5","","","","","","","0.8","0.2","","","","","","","","","","75","K","1","","true","0","80_20_practice",""
"","bandit","33","268767","0.0-20.0-12.0","95925149","wem/bandit_either_3","A28XX39V2XCXJE","either","3","831","","","","","","","1","0","0","0.2","","0.5","0.5","","","","","","","0.8","0.2","","","","","","","","","","75","K","1","","true","0","80_20_practice",""
"","bandit","34","270841","0.0-20.0-13.0","95925149","wem/bandit_either_3","A28XX39V2XCXJE","either","3","565","","","","","","","0","0","1","0.2","","0.5","0.5","","","","","","","0.8","0.2","","","","","","","","","","75","K","1","","true","0","80_20_practice",""
"","bandit","35","272817","0.0-20.0-14.0","95925149","wem/bandit_either_3","A28XX39V2XCXJE","either","3","467","","","","","","","0","0","1","","0.8","0.5","0.5","","","0.8","0.2","","","","","","","","","","","","","","74","J","0","img/none_selected_demo.jpg","true","0","80_20_practice",""
"","bandit","36","274723","0.0-20.0-15.0","95925149","wem/bandit_either_3","A28XX39V2XCXJE","either","3","397","","","","","","","0","0","1","","0.8","0.5","0.5","","","0.8","0.2","","","","","","","","","","","","","","74","J","0","img/none_selected_demo.jpg","true","0","80_20_practice",""
"","bandit","37","276713","0.0-20.0-16.0","95925149","wem/bandit_either_3","A28XX39V2XCXJE","either","3","484","","","","","","","0","1","0","","0.8","0.5","0.5","","","0.8","0.2","","","","","","","","","","","","","","74","J","0","img/none_selected_demo.jpg","true","0","80_20_practice",""
"","bandit","38","278785","0.0-20.0-17.0","95925149","wem/bandit_either_3","A28XX39V2XCXJE","either","3","565","","","","","","","0","0","1","0.8","","0.5","0.5","","","","","","","0.8","0.2","","","","","","","","","","74","J","0","img/none_selected_demo.jpg","true","0","80_20_practice",""
"","bandit","39","280669","0.0-20.0-18.0","95925149","wem/bandit_either_3","A28XX39V2XCXJE","either","3","378","","","","","","","1","0","0","0.8","","0.5","0.5","","","","","","","0.8","0.2","","","","","","","","","","74","J","0","img/none_selected_demo.jpg","true","0","80_20_practice",""
"","bandit","40","282831","0.0-20.0-19.0","95925149","wem/bandit_either_3","A28XX39V2XCXJE","either","3","654","","","","","","","0","1","0","","0.8","0.5","0.5","","","0.8","0.2","","","","","","","","","","","","","","74","J","0","img/none_selected_demo.jpg","true","0","80_20_practice",""
"","text","41","293103","0.0-21.0","95925149","wem/bandit_either_3","A28XX39V2XCXJE","either","3","10268","","32","","","","","","","","","","","","","","","","","","","","","","","","","","","","","","","","","","","",""
"","bandit","42","295898","0.0-22.0-0.0","95925149","wem/bandit_either_3","A28XX39V2XCXJE","either","3","1290","","","","","","","1","0","0","1","0","","","","","0","1","","","1","0","","","","","","","","","","74","J","0","img/none_selected_demo.jpg","true","0","",""
"","text","43","302784","0.0-23.0","95925149","wem/bandit_either_3","A28XX39V2XCXJE","either","3","6884","","32","","","","","","","","","","","","","","","","","","","","","","","","","","","","","","","","","","","",""
"","text","44","309358","0.0-24.0","95925149","wem/bandit_either_3","A28XX39V2XCXJE","either","3","6573","","32","","","","","","","","","","","","","","","","","","","","","","","","","","","","","","","","","","","",""
"","text","45","313109","0.0-25.0","95925149","wem/bandit_either_3","A28XX39V2XCXJE","either","3","3749","","32","","","","","","","","","","","","","","","","","","","","","","","","","","","","","","","","","","","",""
"","text","46","318704","0.0-26.0","95925149","wem/bandit_either_3","A28XX39V2XCXJE","either","3","5592","","32","","","","","","","","","","","","","","","","","","","","","","","","","","","","","","","","","","","",""
"","text","47","330748","0.0-27.0","95925149","wem/bandit_either_3","A28XX39V2XCXJE","either","3","12040","","32","","","","","","","","","","","","","","","","","","","","","","","","","","","","","","","","","","","",""
"","text","48","335034","0.0-28.0","95925149","wem/bandit_either_3","A28XX39V2XCXJE","either","3","4282","","32","","","","","","","","","","","","","","","","","","","","","","","","","","","","","","","","","","","",""
"","text","49","341006","0.0-29.0","95925149","wem/bandit_either_3","A28XX39V2XCXJE","either","3","5972","","32","","","","","","","","","","","","","","","","","","","","","","","","","","","","","","","","","","","",""
"","text","50","345793","0.0-30.0","95925149","wem/bandit_either_3","A28XX39V2XCXJE","either","3","4785","","32","","","","","","","","","","","","","","","","","","","","","","","","","","","","","","","","","","","",""
"","text","51","352039","0.0-31.0","95925149","wem/bandit_either_3","A28XX39V2XCXJE","either","3","6243","","32","","","","","","","","","","","","","","","","","","","","","","","","","","","","","","","","","","","",""
"","text","52","354474","0.0-32.0","95925149","wem/bandit_either_3","A28XX39V2XCXJE","either","3","2433","","32","","","","","","","","","","","","","","","","","","","","","","","","","","","","","","","","","","","",""
"","text","53","361218","0.0-33.0","95925149","wem/bandit_either_3","A28XX39V2XCXJE","either","3","6740","","32","","","","","","","","","","","","","","","","","","","","","","","","","","","","","","","","","","","",""
"","bandit","54","364160","0.0-34.0-0.0","95925149","wem/bandit_either_3","A28XX39V2XCXJE","either","3","1435","","","","","","","0","1","0","","0.8","0.5","0.5","0.5","0.5","0.8","0.2","0.6","0.2","","","","","","","","","","","","72","H","0","img/none_selected.jpg","true","0","full_practice",""
"","bandit","55","367281","0.0-34.0-1.0","95925149","wem/bandit_either_3","A28XX39V2XCXJE","either","3","1612","","","","","","","0","0","1","0.8","","0.5","0.5","0.5","0.5","","","","","0.8","0.2","0.6","0.2","","","","","","","","72","H","0","img/none_selected.jpg","true","0","full_practice",""
"","bandit","56","369304","0.0-34.0-2.0","95925149","wem/bandit_either_3","A28XX39V2XCXJE","either","3","516","","","","","","","0","1","0","","0.8","0.5","0.5","0.5","0.5","0.8","0.2","0.6","0.2","","","","","","","","","","","","72","H","0","img/none_selected.jpg","true","0","full_practice",""
"","bandit","57","371441","0.0-34.0-3.0","95925149","wem/bandit_either_3","A28XX39V2XCXJE","either","3","628","","","","","","","0","0","1","","0.8","0.5","0.5","0.5","0.5","0.8","0.2","0.6","0.2","","","","","","","","","","","","72","H","0","img/none_selected.jpg","true","0","full_practice",""
"","bandit","58","373365","0.0-34.0-4.0","95925149","wem/bandit_either_3","A28XX39V2XCXJE","either","3","418","","","","","","","1","0","0","0.8","","0.5","0.5","0.5","0.5","","","","","0.8","0.2","0.6","0.2","","","","","","","","72","H","0","img/none_selected.jpg","true","0","full_practice",""
"","bandit","59","376040","0.0-34.0-5.0","95925149","wem/bandit_either_3","A28XX39V2XCXJE","either","3","1171","","","","","","","0","0","1","","0.2","0.5","0.5","0.5","0.5","0.8","0.2","0.6","0.2","","","","","","","","","","","","74","J","1","","true","0","full_practice",""
"","bandit","60","378218","0.0-34.0-6.0","95925149","wem/bandit_either_3","A28XX39V2XCXJE","either","3","666","","","","","","","0","0","1","0.2","","0.5","0.5","0.5","0.5","","","","","0.8","0.2","0.6","0.2","","","","","","","","74","J","1","","true","0","full_practice",""
"","bandit","61","380235","0.0-34.0-7.0","95925149","wem/bandit_either_3","A28XX39V2XCXJE","either","3","509","","","","","","","0","0","1","","0.2","0.5","0.5","0.5","0.5","0.8","0.2","0.6","0.2","","","","","","","","","","","","74","J","1","","true","0","full_practice",""
"","bandit","62","382136","0.0-34.0-8.0","95925149","wem/bandit_either_3","A28XX39V2XCXJE","either","3","391","","","","","","","0","0","1","0.2","","0.5","0.5","0.5","0.5","","","","","0.8","0.2","0.6","0.2","","","","","","","","74","J","1","","true","0","full_practice",""
"","bandit","63","384086","0.0-34.0-9.0","95925149","wem/bandit_either_3","A28XX39V2XCXJE","either","3","442","","","","","","","0","0","1","","0.2","0.5","0.5","0.5","0.5","0.8","0.2","0.6","0.2","","","","","","","","","","","","74","J","1","","true","0","full_practice",""
"","bandit","64","386838","0.0-34.0-10.0","95925149","wem/bandit_either_3","A28XX39V2XCXJE","either","3","1243","","","","","","","0","0","1","0.6","","0.5","0.5","0.5","0.5","","","","","0.8","0.2","0.6","0.2","","","","","","","","75","K","2","","true","0","full_practice",""
"","bandit","65","388772","0.0-34.0-11.0","95925149","wem/bandit_either_3","A28XX39V2XCXJE","either","3","425","","","","","","","0","1","0","","0.6","0.5","0.5","0.5","0.5","0.8","0.2","0.6","0.2","","","","","","","","","","","","75","K","2","","true","0","full_practice",""
"","bandit","66","390879","0.0-34.0-12.0","95925149","wem/bandit_either_3","A28XX39V2XCXJE","either","3","597","","","","","","","0","1","0","","0.6","0.5","0.5","0.5","0.5","0.8","0.2","0.6","0.2","","","","","","","","","","","","75","K","2","","true","0","full_practice",""
"","bandit","67","392872","0.0-34.0-13.0","95925149","wem/bandit_either_3","A28XX39V2XCXJE","either","3","483","","","","","","","0","0","1","","0.6","0.5","0.5","0.5","0.5","0.8","0.2","0.6","0.2","","","","","","","","","","","","75","K","2","","true","0","full_practice",""
"","bandit","68","394922","0.0-34.0-14.0","95925149","wem/bandit_either_3","A28XX39V2XCXJE","either","3","541","","","","","","","0","1","0","","0.6","0.5","0.5","0.5","0.5","0.8","0.2","0.6","0.2","","","","","","","","","","","","75","K","2","","true","0","full_practice",""
"","bandit","69","397004","0.0-34.0-15.0","95925149","wem/bandit_either_3","A28XX39V2XCXJE","either","3","576","","","","","","","0","1","0","","0.6","0.5","0.5","0.5","0.5","0.8","0.2","0.6","0.2","","","","","","","","","","","","75","K","2","","true","0","full_practice",""
"","bandit","70","400063","0.0-34.0-16.0","95925149","wem/bandit_either_3","A28XX39V2XCXJE","either","3","1543","","","","","","","0","0","1","0.2","","0.5","0.5","0.5","0.5","","","","","0.8","0.2","0.6","0.2","","","","","","","","76","L","3","","true","0","full_practice",""
"","bandit","71","402089","0.0-34.0-17.0","95925149","wem/bandit_either_3","A28XX39V2XCXJE","either","3","520","","","","","","","0","0","1","0.2","","0.5","0.5","0.5","0.5","","","","","0.8","0.2","0.6","0.2","","","","","","","","76","L","3","","true","0","full_practice",""
"","bandit","72","404068","0.0-34.0-18.0","95925149","wem/bandit_either_3","A28XX39V2XCXJE","either","3","471","","","","","","","1","0","0","0.2","","0.5","0.5","0.5","0.5","","","","","0.8","0.2","0.6","0.2","","","","","","","","76","L","3","","true","0","full_practice",""
"","bandit","73","406063","0.0-34.0-19.0","95925149","wem/bandit_either_3","A28XX39V2XCXJE","either","3","482","","","","","","","0","0","1","","0.2","0.5","0.5","0.5","0.5","0.8","0.2","0.6","0.2","","","","","","","","","","","","76","L","3","","true","0","full_practice",""
"","text","74","413002","0.0-35.0","95925149","wem/bandit_either_3","A28XX39V2XCXJE","either","3","6934","","32","","","","","","","","","","","","","","","","","","","","","","","","","","","","","","","","","","","",""
"","text","75","429027","0.0-36.0","95925149","wem/bandit_either_3","A28XX39V2XCXJE","either","3","15019","","32","","","","","","","","","","","","","","","","","","","","","","","","","","","","","","","","","","","",""
"","text","76","437287","0.0-37.0","95925149","wem/bandit_either_3","A28XX39V2XCXJE","either","3","8256","","32","","","","","","","","","","","","","","","","","","","","","","","","","","","","","","","","","","","",""
"","text","77","444241","0.0-38.0","95925149","wem/bandit_either_3","A28XX39V2XCXJE","either","3","6952","","32","","","","","","","","","","","","","","","","","","","","","","","","","","","","","","","","","","","",""
"","text","78","450324","0.0-39.0","95925149","wem/bandit_either_3","A28XX39V2XCXJE","either","3","6080","","32","","","","","","","","","","","","","","","","","","","","","","","","","","","","","","","","","","","",""
"","text","79","455264","0.0-40.0","95925149","wem/bandit_either_3","A28XX39V2XCXJE","either","3","4938","","32","","","","","","","","","","","","","","","","","","","","","","","","","","","","","","","","","","","",""
"","bandit","80","458337","0.0-41.0-0.0","95925149","wem/bandit_either_3","A28XX39V2XCXJE","either","3","1567","","","","","","","0","0","1","","0.4261870849","0.6","0.8","0.2","0.4","0.4261870849","0.6494041588","0.6473934842","0.1387034319","","","","","","","","","","","","72","H","0","img/none_selected.jpg","","1","main_expt",""
"","bandit","81","460325","0.0-42.0-0.0","95925149","wem/bandit_either_3","A28XX39V2XCXJE","either","3","479","","","","","","","0","0","1","","0.3223101542","0.6","0.8","0.2","0.4","0.3223101542","0.7608835745","0.5221866694","0.2166337036","","","","","","","","","","","","72","H","0","img/none_selected.jpg","","2","main_expt",""
"","bandit","82","462279","0.0-43.0-0.0","95925149","wem/bandit_either_3","A28XX39V2XCXJE","either","3","445","","","","","","","0","1","0","","0.2541217019","0.6","0.8","0.2","0.4","0.2541217019","0.7745567172","0.5356292978","0.3253899216","","","","","","","","","","","","72","H","0","img/none_selected.jpg","","3","main_expt",""
"","bandit","83","464702","0.0-44.0-0.0","95925149","wem/bandit_either_3","A28XX39V2XCXJE","either","3","914","","","","","","","1","0","0","0.8315703218","","0.6","0.8","0.2","0.4","","","","","0.2272043942","0.8315703218","0.5154592071","0.3003293127","","","","","","","","74","J","1","","","4","main_expt",""
"","bandit","84","466667","0.0-45.0-0.0","95925149","wem/bandit_either_3","A28XX39V2XCXJE","either","3","430","","","","","","","1","0","0","0.8380789219","","0.6","0.8","0.2","0.4","","","","","0.2967729676","0.8380789219","0.4578896037","0.3839660868","","","","","","","","74","J","1","","","5","main_expt",""
"","bandit","85","468579","0.0-46.0-0.0","95925149","wem/bandit_either_3","A28XX39V2XCXJE","either","3","406","","","","","","","1","0","0","0.8233568153","","0.6","0.8","0.2","0.4","","","","","0.3211998527","0.8233568153","0.4825789634","0.3833463511","","","","","","","","74","J","1","","","6","main_expt",""
"","bandit","86","470487","0.0-47.0-0.0","95925149","wem/bandit_either_3","A28XX39V2XCXJE","either","3","399","","","","","","","1","0","0","0.8672840292","","0.6","0.8","0.2","0.4","","","","","0.4190649117","0.8672840292","0.4013658759","0.3173395401","","","","","","","","74","J","1","","","7","main_expt",""
"","bandit","87","472384","0.0-48.0-0.0","95925149","wem/bandit_either_3","A28XX39V2XCXJE","either","3","393","","","","","","","1","0","0","0.7921451217","","0.6","0.8","0.2","0.4","","","","","0.5253498774","0.7921451217","0.3721769634","0.3265190876","","","","","","","","74","J","1","","","8","main_expt",""
"","bandit","88","474256","0.0-49.0-0.0","95925149","wem/bandit_either_3","A28XX39V2XCXJE","either","3","363","","","","","","","1","0","0","0.7826569337","","0.6","0.8","0.2","0.4","","","","","0.5552176016","0.7826569337","0.3934089605","0.4229840653","","","","","","","","74","J","1","","","9","main_expt",""
"","bandit","89","476163","0.0-50.0-0.0","95925149","wem/bandit_either_3","A28XX39V2XCXJE","either","3","398","","","","","","","1","0","0","0.7150392401","","0.6","0.8","0.2","0.4","","","","","0.654745146","0.7150392401","0.3360942297","0.5107168356","","","","","","","","74","J","1","","","10","main_expt",""
"","bandit","90","478090","0.0-51.0-0.0","95925149","wem/bandit_either_3","A28XX39V2XCXJE","either","3","417","","","","","","","1","0","0","0.6906605055","","0.6","0.8","0.2","0.4","","","","","0.6089063278","0.6906605055","0.4969537907","0.4383577931","","","","","","","","74","J","1","","","11","main_expt",""
"","bandit","91","480023","0.0-52.0-0.0","95925149","wem/bandit_either_3","A28XX39V2XCXJE","either","3","424","","","","","","","1","0","0","0.6725575113","","0.6","0.8","0.2","0.4","","","","","0.559155858","0.6725575113","0.4760264401","0.5487148549","","","","","","","","74","J","1","","","12","main_expt",""
"","bandit","92","481959","0.0-53.0-0.0","95925149","wem/bandit_either_3","A28XX39V2XCXJE","either","3","431","","","","","","","1","0","0","0.7404599176","","0.6","0.8","0.2","0.4","","","","","0.6464491645","0.7404599176","0.4008761295","0.7407599438","","","","","","","","74","J","1","","","13","main_expt",""
"","bandit","93","483908","0.0-54.0-0.0","95925149","wem/bandit_either_3","A28XX39V2XCXJE","either","3","441","","","","","","","0","0","1","0.6751607758","","0.6","0.8","0.2","0.4","","","","","0.6936958995","0.6751607758","0.358486362","0.8307131687","","","","","","","","74","J","1","","","14","main_expt",""
"","bandit","94","485939","0.0-55.0-0.0","95925149","wem/bandit_either_3","A28XX39V2XCXJE","either","3","525","","","","","","","0","0","1","0.6115440925","","0.6","0.8","0.2","0.4","","","","","0.731471075","0.6115440925","0.395258373","0.8114394421","","","","","","","","74","J","1","","","15","main_expt",""
"","bandit","95","488014","0.0-56.0-0.0","95925149","wem/bandit_either_3","A28XX39V2XCXJE","either","3","567","","","","","","","1","0","0","0.7019001419","","0.6","0.8","0.2","0.4","","","","","0.6487541525","0.7019001419","0.4197334966","0.8242397169","","","","","","","","74","J","1","","","16","main_expt",""
"","bandit","96","490237","0.0-57.0-0.0","95925149","wem/bandit_either_3","A28XX39V2XCXJE","either","3","714","","","","","","","1","0","0","0.7017998","","0.6","0.8","0.2","0.4","","","","","0.7654634758","0.7017998","0.2160816064","0.8317633157","","","","","","","","74","J","1","","","17","main_expt",""
"","bandit","97","492141","0.0-58.0-0.0","95925149","wem/bandit_either_3","A28XX39V2XCXJE","either","3","395","","","","","","","1","0","0","0.7672473748","","0.6","0.8","0.2","0.4","","","","","0.7160830043","0.7672473748","0.2058632209","0.8158638682","","","","","","","","74","J","1","","","18","main_expt",""
"","bandit","98","494087","0.0-59.0-0.0","95925149","wem/bandit_either_3","A28XX39V2XCXJE","either","3","440","","","","","","","1","0","0","0.7950219121","","0.6","0.8","0.2","0.4","","","","","0.6856656502","0.7950219121","0.2314559036","0.8291878069","","","","","","","","74","J","1","","","19","main_expt",""
"","bandit","99","496014","0.0-60.0-0.0","95925149","wem/bandit_either_3","A28XX39V2XCXJE","either","3","409","","","","","","","1","0","0","0.8460513568","","0.6","0.8","0.2","0.4","","","","","0.6829400921","0.8460513568","0.1762066147","0.8665153398","","","","","","","","74","J","1","","","20","main_expt",""
"","bandit","100","497861","0.0-61.0-0.0","95925149","wem/bandit_either_3","A28XX39V2XCXJE","either","3","342","","","","","","","1","0","0","0.8571228725","","0.6","0.8","0.2","0.4","","","","","0.6849203215","0.8571228725","0.150477598","0.8181415858","","","","","","","","74","J","1","","","21","main_expt",""
"","bandit","101","499894","0.0-62.0-0.0","95925149","wem/bandit_either_3","A28XX39V2XCXJE","either","3","521","","","","","","","0","0","1","0.8498483749","","0.6","0.8","0.2","0.4","","","","","0.6832197831","0.8498483749","0.1957635407","0.7731960963","","","","","","","","74","J","1","","","22","main_expt",""
"","bandit","102","501863","0.0-63.0-0.0","95925149","wem/bandit_either_3","A28XX39V2XCXJE","either","3","459","","","","","","","1","0","0","0.887495535","","0.6","0.8","0.2","0.4","","","","","0.6103957523","0.887495535","0.2193187944","0.8004626553","","","","","","","","74","J","1","","","23","main_expt",""
"","bandit","103","503983","0.0-64.0-0.0","95925149","wem/bandit_either_3","A28XX39V2XCXJE","either","3","612","","","","","","","0","1","0","","0.918231735","0.6","0.8","0.2","0.4","0.5485819736","0.918231735","0.1836328706","0.7941911222","","","","","","","","","","","","74","J","1","","","24","main_expt",""
"","bandit","104","505949","0.0-65.0-0.0","95925149","wem/bandit_either_3","A28XX39V2XCXJE","either","3","457","","","","","","","1","0","0","0.9111146318","","0.6","0.8","0.2","0.4","","","","","0.5852935809","0.9111146318","0.1410441375","0.7100633829","","","","","","","","74","J","1","","","25","main_expt",""
"","bandit","105","508053","0.0-66.0-0.0","95925149","wem/bandit_either_3","A28XX39V2XCXJE","either","3","592","","","","","","","1","0","0","0.9190640316","","0.6","0.8","0.2","0.4","","","","","0.6097892937","0.9190640316","0.1082593399","0.6872129375","","","","","","","","74","J","1","","","26","main_expt",""
"","bandit","106","510079","0.0-67.0-0.0","95925149","wem/bandit_either_3","A28XX39V2XCXJE","either","3","517","","","","","","","1","0","0","0.9372614837","","0.6","0.8","0.2","0.4","","","","","0.6653335402","0.9372614837","0.1042047793","0.6798864795","","","","","","","","74","J","1","","","27","main_expt",""
"","bandit","107","512044","0.0-68.0-0.0","95925149","wem/bandit_either_3","A28XX39V2XCXJE","either","3","455","","","","","","","1","0","0","0.9269484959","","0.6","0.8","0.2","0.4","","","","","0.6850825106","0.9269484959","0.1153509117","0.6812343762","","","","","","","","74","J","1","","","28","main_expt",""
"","bandit","108","514106","0.0-69.0-0.0","95925149","wem/bandit_either_3","A28XX39V2XCXJE","either","3","556","","","","","","","1","0","0","0.9376772981","","0.6","0.8","0.2","0.4","","","","","0.7309016742","0.9376772981","0.1601566248","0.5305157647","","","","","","","","74","J","1","","","29","main_expt",""
"","bandit","109","516095","0.0-70.0-0.0","95925149","wem/bandit_either_3","A28XX39V2XCXJE","either","3","479","","","","","","","0","1","0","","0.8795505253","0.6","0.8","0.2","0.4","0.8141980113","0.8795505253","0.09548927903","0.4713174284","","","","","","","","","","","","74","J","1","","","30","main_expt",""
"","bandit","110","518093","0.0-71.0-0.0","95925149","wem/bandit_either_3","A28XX39V2XCXJE","either","3","486","","","","","","","1","0","0","0.8605863748","","0.6","0.8","0.2","0.4","","","","","0.8926711601","0.8605863748","0.09272353297","0.2938490869","","","","","","","","74","J","1","","","31","main_expt",""
"","bandit","111","520043","0.0-72.0-0.0","95925149","wem/bandit_either_3","A28XX39V2XCXJE","either","3","441","","","","","","","1","0","0","0.757600507","","0.6","0.8","0.2","0.4","","","","","0.8397563013","0.757600507","0.09547929832","0.3005160425","","","","","","","","74","J","1","","","32","main_expt",""
"","bandit","112","522234","0.0-73.0-0.0","95925149","wem/bandit_either_3","A28XX39V2XCXJE","either","3","681","","","","","","","1","0","0","0.7257103923","","0.6","0.8","0.2","0.4","","","","","0.8251988787","0.7257103923","0.08683876107","0.3661211491","","","","","","","","74","J","1","","","33","main_expt",""
"","bandit","113","524269","0.0-74.0-0.0","95925149","wem/bandit_either_3","A28XX39V2XCXJE","either","3","526","","","","","","","0","0","1","0.5786815464","","0.6","0.8","0.2","0.4","","","","","0.7303528712","0.5786815464","0.08117088791","0.4614725573","","","","","","","","74","J","1","","","34","main_expt",""
"","bandit","114","526310","0.0-75.0-0.0","95925149","wem/bandit_either_3","A28XX39V2XCXJE","either","3","532","","","","","","","0","0","1","0.4812266686","","0.6","0.8","0.2","0.4","","","","","0.8093673003","0.4812266686","0.09593582107","0.4597324626","","","","","","","","74","J","1","","","35","main_expt",""
"","bandit","115","528314","0.0-76.0-0.0","95925149","wem/bandit_either_3","A28XX39V2XCXJE","either","3","499","","","","","","","1","0","0","0.4459447539","","0.6","0.8","0.2","0.4","","","","","0.79718131","0.4459447539","0.1392988708","0.4294742096","","","","","","","","74","J","1","","","36","main_expt",""
"","bandit","116","530361","0.0-77.0-0.0","95925149","wem/bandit_either_3","A28XX39V2XCXJE","either","3","541","","","","","","","0","0","1","0.5737218407","","0.6","0.8","0.2","0.4","","","","","0.8157762275","0.5737218407","0.07673209605","0.5301274199","","","","","","","","74","J","1","","","37","main_expt",""
"","bandit","117","532391","0.0-78.0-0.0","95925149","wem/bandit_either_3","A28XX39V2XCXJE","either","3","523","","","","","","","1","0","0","0.6008421093","","0.6","0.8","0.2","0.4","","","","","0.7941499978","0.6008421093","0.1078843958","0.5746889943","","","","","","","","74","J","1","","","38","main_expt",""
"","bandit","118","534397","0.0-79.0-0.0","95925149","wem/bandit_either_3","A28XX39V2XCXJE","either","3","497","","","","","","","0","0","1","0.6076920036","","0.6","0.8","0.2","0.4","","","","","0.7352357368","0.6076920036","0.09731722171","0.6621100331","","","","","","","","74","J","1","","","39","main_expt",""
"","bandit","119","536277","0.0-80.0-0.0","95925149","wem/bandit_either_3","A28XX39V2XCXJE","either","3","369","","","","","","","1","0","0","0.6616622706","","0.6","0.8","0.2","0.4","","","","","0.7920886563","0.6616622706","0.2123509389","0.6794361822","","","","","","","","74","J","1","","","40","main_expt",""
"","bandit","120","538330","0.0-81.0-0.0","95925149","wem/bandit_either_3","A28XX39V2XCXJE","either","3","543","","","","","","","1","0","0","0.6945341382","","0.6","0.8","0.2","0.4","","","","","0.8780543775","0.6945341382","0.1265365425","0.7140523024","","","","","","","","74","J","1","","","41","main_expt",""
"","bandit","121","540394","0.0-82.0-0.0","95925149","wem/bandit_either_3","A28XX39V2XCXJE","either","3","550","","","","","","","0","1","0","","0.6833149102","0.6","0.8","0.2","0.4","0.9167256642","0.6833149102","0.166138795","0.6669732994","","","","","","","","","","","","74","J","1","","","42","main_expt",""
"","bandit","122","542329","0.0-83.0-0.0","95925149","wem/bandit_either_3","A28XX39V2XCXJE","either","3","424","","","","","","","1","0","0","0.7094953576","","0.6","0.8","0.2","0.4","","","","","0.9407985187","0.7094953576","0.1782339186","0.5435093165","","","","","","","","74","J","1","","","43","main_expt",""
"","bandit","123","544287","0.0-84.0-0.0","95925149","wem/bandit_either_3","A28XX39V2XCXJE","either","3","449","","","","","","","1","0","0","0.7519468023","","0.6","0.8","0.2","0.4","","","","","0.9000978766","0.7519468023","0.1342945815","0.6002661395","","","","","","","","74","J","1","","","44","main_expt",""
"","bandit","124","546282","0.0-85.0-0.0","95925149","wem/bandit_either_3","A28XX39V2XCXJE","either","3","483","","","","","","","0","0","1","0.7673203249","","0.6","0.8","0.2","0.4","","","","","0.9190036262","0.7673203249","0.09086288848","0.5948203474","","","","","","","","74","J","1","","","45","main_expt",""
"","bandit","125","548103","0.0-86.0-0.0","95925149","wem/bandit_either_3","A28XX39V2XCXJE","either","3","312","","","","","","","1","0","0","0.722836051","","0.6","0.8","0.2","0.4","","","","","0.8865788656","0.722836051","0.06420934006","0.6230250108","","","","","","","","74","J","1","","","46","main_expt",""
"","bandit","126","550158","0.0-87.0-0.0","95925149","wem/bandit_either_3","A28XX39V2XCXJE","either","3","543","","","","","","","0","1","0","","0.7392487755","0.6","0.8","0.2","0.4","0.8207935484","0.7392487755","0.02332738683","0.7239235909","","","","","","","","","","","","74","J","1","","","47","main_expt",""
"","bandit","127","552193","0.0-88.0-0.0","95925149","wem/bandit_either_3","A28XX39V2XCXJE","either","3","530","","","","","","","1","0","0","0.7551111279","","0.6","0.8","0.2","0.4","","","","","0.8170742187","0.7551111279","0.03517565614","0.7715310514","","","","","","","","74","J","1","","","48","main_expt",""
"","bandit","128","554422","0.0-89.0-0.0","95925149","wem/bandit_either_3","A28XX39V2XCXJE","either","3","719","","","","","","","1","0","0","0.6917772817","","0.6","0.8","0.2","0.4","","","","","0.7874830355","0.6917772817","0.04466115719","0.822179592","","","","","","","","74","J","1","","","49","main_expt",""
"","bandit","129","556510","0.0-90.0-0.0","95925149","wem/bandit_either_3","A28XX39V2XCXJE","either","3","576","","","","","","","1","0","0","0.6689959301","","0.6","0.8","0.2","0.4","","","","","0.8279472521","0.6689959301","0.05053383529","0.8108951243","","","","","","","","74","J","1","","","50","main_expt",""
"","bandit","130","558560","0.0-91.0-0.0","95925149","wem/bandit_either_3","A28XX39V2XCXJE","either","3","544","","","","","","","0","0","1","0.6020608281","","0.6","0.8","0.2","0.4","","","","","0.8426817256","0.6020608281","0.04681033125","0.7649170446","","","","","","","","74","J","1","","","51","main_expt",""
"","bandit","131","560444","0.0-92.0-0.0","95925149","wem/bandit_either_3","A28XX39V2XCXJE","either","3","373","","","","","","","0","0","1","0.6583182673","","0.6","0.8","0.2","0.4","","","","","0.8377647656","0.6583182673","0.09308222201","0.8169848275","","","","","","","","74","J","1","","","52","main_expt",""
"","bandit","132","562459","0.0-93.0-0.0","95925149","wem/bandit_either_3","A28XX39V2XCXJE","either","3","503","","","","","","","0","1","0","","0.5419436754","0.6","0.8","0.2","0.4","0.8241398149","0.5419436754","0.1397702629","0.8843577791","","","","","","","","","","","","74","J","1","","","53","main_expt",""
"","bandit","133","564414","0.0-94.0-0.0","95925149","wem/bandit_either_3","A28XX39V2XCXJE","either","3","443","","","","","","","0","0","1","","0.5717614462","0.6","0.8","0.2","0.4","0.7289352116","0.5717614462","0.110287685","0.8854515068","","","","","","","","","","","","74","J","1","","","54","main_expt",""
"","bandit","134","566318","0.0-95.0-0.0","95925149","wem/bandit_either_3","A28XX39V2XCXJE","either","3","398","","","","","","","1","0","0","0.5497935615","","0.6","0.8","0.2","0.4","","","","","0.5895019519","0.5497935615","0.1843384007","0.8884574585","","","","","","","","74","J","1","","","55","main_expt",""
"","bandit","135","568490","0.0-96.0-0.0","95925149","wem/bandit_either_3","A28XX39V2XCXJE","either","3","661","","","","","","","1","0","0","0.4902645195","","0.6","0.8","0.2","0.4","","","","","0.4622464331","0.4902645195","0.2056752237","0.8840911236","","","","","","","","74","J","1","","","56","main_expt",""
"","bandit","136","570501","0.0-97.0-0.0","95925149","wem/bandit_either_3","A28XX39V2XCXJE","either","3","504","","","","","","","1","0","0","0.5258365243","","0.6","0.8","0.2","0.4","","","","","0.490024734","0.5258365243","0.3410726922","0.864283103","","","","","","","","74","J","1","","","57","main_expt",""
"","bandit","137","572399","0.0-98.0-0.0","95925149","wem/bandit_either_3","A28XX39V2XCXJE","either","3","391","","","","","","","1","0","0","0.6097664349","","0.6","0.8","0.2","0.4","","","","","0.6182628796","0.6097664349","0.3873695161","0.7377821737","","","","","","","","74","J","1","","","58","main_expt",""
"","bandit","138","574392","0.0-99.0-0.0","95925149","wem/bandit_either_3","A28XX39V2XCXJE","either","3","482","","","","","","","0","0","1","0.6016711108","","0.6","0.8","0.2","0.4","","","","","0.6976829826","0.6016711108","0.3281321534","0.7469541206","","","","","","","","74","J","1","","","59","main_expt",""
"","bandit","139","576318","0.0-100.0-0.0","95925149","wem/bandit_either_3","A28XX39V2XCXJE","either","3","416","","","","","","","0","1","0","","0.5544917648","0.6","0.8","0.2","0.4","0.675433977","0.5544917648","0.2380439254","0.8019510571","","","","","","","","","","","","74","J","1","","","60","main_expt",""
"","bandit","140","578457","0.0-101.0-0.0","95925149","wem/bandit_either_3","A28XX39V2XCXJE","either","3","630","","","","","","","1","0","0","0.6842720067","","0.6","0.8","0.2","0.4","","","","","0.7206550838","0.6842720067","0.2228222105","0.8943887388","","","","","","","","74","J","1","","","61","main_expt",""
"","bandit","141","580352","0.0-102.0-0.0","95925149","wem/bandit_either_3","A28XX39V2XCXJE","either","3","384","","","","","","","1","0","0","0.6824345281","","0.6","0.8","0.2","0.4","","","","","0.7184677658","0.6824345281","0.2489253665","0.8942973556","","","","","","","","74","J","1","","","62","main_expt",""
"","bandit","142","582280","0.0-103.0-0.0","95925149","wem/bandit_either_3","A28XX39V2XCXJE","either","3","418","","","","","","","0","1","0","","0.7321168219","0.6","0.8","0.2","0.4","0.6785259816","0.7321168219","0.2298237489","0.8829609874","","","","","","","","","","","","74","J","1","","","63","main_expt",""
"","bandit","143","584201","0.0-104.0-0.0","95925149","wem/bandit_either_3","A28XX39V2XCXJE","either","3","409","","","","","","","0","0","1","0.8123013145","","0.6","0.8","0.2","0.4","","","","","0.6349383059","0.8123013145","0.1849055857","0.8175344892","","","","","","","","74","J","1","","","64","main_expt",""
"","bandit","144","586157","0.0-105.0-0.0","95925149","wem/bandit_either_3","A28XX39V2XCXJE","either","3","446","","","","","","","1","0","0","0.8236121316","","0.6","0.8","0.2","0.4","","","","","0.629769122","0.8236121316","0.2285715909","0.7812905168","","","","","","","","74","J","1","","","65","main_expt",""
"","bandit","145","588217","0.0-106.0-0.0","95925149","wem/bandit_either_3","A28XX39V2XCXJE","either","3","549","","","","","","","0","0","1","","0.8270077233","0.6","0.8","0.2","0.4","0.7158950816","0.8270077233","0.2477643906","0.7848445355","","","","","","","","","","","","74","J","1","","","66","main_expt",""
"","bandit","146","590089","0.0-107.0-0.0","95925149","wem/bandit_either_3","A28XX39V2XCXJE","either","3","366","","","","","","","0","1","0","","0.7601471472","0.6","0.8","0.2","0.4","0.6309271871","0.7601471472","0.1801078726","0.763143195","","","","","","","","","","","","74","J","1","","","67","main_expt",""
"","bandit","147","592697","0.0-108.0-0.0","95925149","wem/bandit_either_3","A28XX39V2XCXJE","either","3","1102","","","","","","","1","0","0","0.7567750057","","0.6","0.8","0.2","0.4","","","","","0.617221228","0.7567750057","0.08479184886","0.7966751536","","","","","","","","74","J","1","","","68","main_expt",""
"","bandit","148","594806","0.0-109.0-0.0","95925149","wem/bandit_either_3","A28XX39V2XCXJE","either","3","598","","","","","","","1","0","0","0.6871277649","","0.6","0.8","0.2","0.4","","","","","0.6235929763","0.6871277649","0.06982522498","0.8534335227","","","","","","","","74","J","1","","","69","main_expt",""
"","bandit","149","596801","0.0-110.0-0.0","95925149","wem/bandit_either_3","A28XX39V2XCXJE","either","3","486","","","","","","","0","1","0","","0.773099018","0.6","0.8","0.2","0.4","0.5543620559","0.773099018","0.05029268469","0.8915498471","","","","","","","","","","","","74","J","1","","","70","main_expt",""
"","bandit","150","598705","0.0-111.0-0.0","95925149","wem/bandit_either_3","A28XX39V2XCXJE","either","3","392","","","","","","","1","0","0","0.7412476729","","0.6","0.8","0.2","0.4","","","","","0.5333999135","0.7412476729","0.06413839938","0.8736989015","","","","","","","","74","J","1","","","71","main_expt",""
"","bandit","151","600724","0.0-112.0-0.0","95925149","wem/bandit_either_3","A28XX39V2XCXJE","either","3","508","","","","","","","1","0","0","0.8080704968","","0.6","0.8","0.2","0.4","","","","","0.5905126671","0.8080704968","0.05155778705","0.8837551658","","","","","","","","74","J","1","","","72","main_expt",""
"","bandit","152","602664","0.0-113.0-0.0","95925149","wem/bandit_either_3","A28XX39V2XCXJE","either","3","433","","","","","","","1","0","0","0.8270016227","","0.6","0.8","0.2","0.4","","","","","0.6925119087","0.8270016227","0.0232747386","0.8495494246","","","","","","","","74","J","1","","","73","main_expt",""
"","bandit","153","604681","0.0-114.0-0.0","95925149","wem/bandit_either_3","A28XX39V2XCXJE","either","3","507","","","","","","","0","0","1","0.7872017979","","0.6","0.8","0.2","0.4","","","","","0.7134745341","0.7872017979","0.04751547773","0.9127472651","","","","","","","","74","J","1","","","74","main_expt",""
"","bandit","154","606603","0.0-115.0-0.0","95925149","wem/bandit_either_3","A28XX39V2XCXJE","either","3","414","","","","","","","0","1","0","","0.6167225576","0.6","0.8","0.2","0.4","0.8065440948","0.6167225576","0.05282531612","0.9199060817","","","","","","","","","","","","74","J","1","","","75","main_expt",""
"","bandit","155","608900","0.0-116.0-0.0","95925149","wem/bandit_either_3","A28XX39V2XCXJE","either","3","787","","","","","","","1","0","0","0.637182095","","0.6","0.8","0.2","0.4","","","","","0.7849172319","0.637182095","0.08738729654","0.8691294168","","","","","","","","74","J","1","","","76","main_expt",""
"","bandit","156","610916","0.0-117.0-0.0","95925149","wem/bandit_either_3","A28XX39V2XCXJE","either","3","510","","","","","","","0","0","1","0.7169911294","","0.6","0.8","0.2","0.4","","","","","0.7818962729","0.7169911294","0.08851312664","0.9111329321","","","","","","","","74","J","1","","","77","main_expt",""
"","bandit","157","612878","0.0-118.0-0.0","95925149","wem/bandit_either_3","A28XX39V2XCXJE","either","3","454","","","","","","","0","1","0","","0.7446448061","0.6","0.8","0.2","0.4","0.7002933386","0.7446448061","0.145228539","0.9286966754","","","","","","","","","","","","74","J","1","","","78","main_expt",""
"","bandit","158","614897","0.0-119.0-0.0","95925149","wem/bandit_either_3","A28XX39V2XCXJE","either","3","506","","","","","","","1","0","0","0.8152221547","","0.6","0.8","0.2","0.4","","","","","0.6510109529","0.8152221547","0.1669860915","0.9616021792","","","","","","","","74","J","1","","","79","main_expt",""
"","bandit","159","616876","0.0-120.0-0.0","95925149","wem/bandit_either_3","A28XX39V2XCXJE","either","3","469","","","","","","","1","0","0","0.810351938","","0.6","0.8","0.2","0.4","","","","","0.6765614865","0.810351938","0.1922913003","0.950571795","","","","","","","","74","J","1","","","80","main_expt",""
"","bandit","160","618881","0.0-121.0-0.0","95925149","wem/bandit_either_3","A28XX39V2XCXJE","either","3","496","","","","","","","1","0","0","0.8895110989","","0.6","0.8","0.2","0.4","","","","","0.5908869344","0.8895110989","0.2407870914","0.9331160128","","","","","","","","74","J","1","","","81","main_expt",""
"","bandit","161","620827","0.0-122.0-0.0","95925149","wem/bandit_either_3","A28XX39V2XCXJE","either","3","434","","","","","","","1","0","0","0.9046816681","","0.6","0.8","0.2","0.4","","","","","0.5267531711","0.9046816681","0.3077898034","0.9465986336","","","","","","","","74","J","1","","","82","main_expt",""
"","bandit","162","622794","0.0-123.0-0.0","95925149","wem/bandit_either_3","A28XX39V2XCXJE","either","3","454","","","","","","","0","0","1","0.8465278631","","0.6","0.8","0.2","0.4","","","","","0.6168373964","0.8465278631","0.2337579628","0.9371159138","","","","","","","","74","J","1","","","83","main_expt",""
"","bandit","163","624691","0.0-124.0-0.0","95925149","wem/bandit_either_3","A28XX39V2XCXJE","either","3","385","","","","","","","0","1","0","","0.7584930438","0.6","0.8","0.2","0.4","0.5733990252","0.7584930438","0.2781329454","0.8998840018","","","","","","","","","","","","74","J","1","","","84","main_expt",""
"","bandit","164","626833","0.0-125.0-0.0","95925149","wem/bandit_either_3","A28XX39V2XCXJE","either","3","636","","","","","","","1","0","0","0.7727946294","","0.6","0.8","0.2","0.4","","","","","0.4719695616","0.7727946294","0.3013149798","0.9102188985","","","","","","","","74","J","1","","","85","main_expt",""
"","bandit","165","628862","0.0-126.0-0.0","95925149","wem/bandit_either_3","A28XX39V2XCXJE","either","3","516","","","","","","","1","0","0","0.8216594778","","0.6","0.8","0.2","0.4","","","","","0.6941651786","0.8216594778","0.3231836659","0.9000055418","","","","","","","","74","J","1","","","86","main_expt",""
"","bandit","166","631206","0.0-127.0-0.0","95925149","wem/bandit_either_3","A28XX39V2XCXJE","either","3","834","","","","","","","1","0","0","0.7833884788","","0.6","0.8","0.2","0.4","","","","","0.5408952125","0.7833884788","0.3986379136","0.8563468124","","","","","","","","74","J","1","","","87","main_expt",""
"","bandit","167","633260","0.0-128.0-0.0","95925149","wem/bandit_either_3","A28XX39V2XCXJE","either","3","545","","","","","","","1","0","0","0.7804426693","","0.6","0.8","0.2","0.4","","","","","0.5438891422","0.7804426693","0.4230151841","0.7349543302","","","","","","","","74","J","1","","","88","main_expt",""
"","bandit","168","635264","0.0-129.0-0.0","95925149","wem/bandit_either_3","A28XX39V2XCXJE","either","3","492","","","","","","","0","0","1","0.7930928848","","0.6","0.8","0.2","0.4","","","","","0.4294971294","0.7930928848","0.3761858397","0.7907967515","","","","","","","","74","J","1","","","89","main_expt",""
"","bandit","169","637235","0.0-130.0-0.0","95925149","wem/bandit_either_3","A28XX39V2XCXJE","either","3","461","","","","","","","1","0","0","0.7683039237","","0.6","0.8","0.2","0.4","","","","","0.4928337868","0.7683039237","0.4799086841","0.7883246469","","","","","","","","74","J","1","","","90","main_expt",""
"","bandit","170","639227","0.0-131.0-0.0","95925149","wem/bandit_either_3","A28XX39V2XCXJE","either","3","480","","","","","","","0","0","1","0.8072091422","","0.6","0.8","0.2","0.4","","","","","0.5655090935","0.8072091422","0.4558425901","0.8389096604","","","","","","","","74","J","1","","","91","main_expt",""
"","bandit","171","641263","0.0-132.0-0.0","95925149","wem/bandit_either_3","A28XX39V2XCXJE","either","3","530","","","","","","","0","0","1","0.7791444337","","0.6","0.8","0.2","0.4","","","","","0.6154818033","0.7791444337","0.3781515597","0.8064187158","","","","","","","","74","J","1","","","92","main_expt",""
"","bandit","172","643192","0.0-133.0-0.0","95925149","wem/bandit_either_3","A28XX39V2XCXJE","either","3","415","","","","","","","1","0","0","0.8498372391","","0.6","0.8","0.2","0.4","","","","","0.7381217307","0.8498372391","0.2858753042","0.7542368763","","","","","","","","74","J","1","","","93","main_expt",""
"","bandit","173","645284","0.0-134.0-0.0","95925149","wem/bandit_either_3","A28XX39V2XCXJE","either","3","579","","","","","","","0","0","1","","0.8440610374","0.6","0.8","0.2","0.4","0.7776388333","0.8440610374","0.3914428564","0.6932487021","","","","","","","","","","","","74","J","1","","","94","main_expt",""
"","bandit","174","647262","0.0-135.0-0.0","95925149","wem/bandit_either_3","A28XX39V2XCXJE","either","3","466","","","","","","","1","0","0","0.8092418145","","0.6","0.8","0.2","0.4","","","","","0.8299152283","0.8092418145","0.3800018616","0.6706070003","","","","","","","","74","J","1","","","95","main_expt",""
"","bandit","175","649326","0.0-136.0-0.0","95925149","wem/bandit_either_3","A28XX39V2XCXJE","either","3","546","","","","","","","0","1","0","","0.8655172998","0.6","0.8","0.2","0.4","0.7697811485","0.8655172998","0.3078584031","0.6670251336","","","","","","","","","","","","74","J","1","","","96","main_expt",""
"","bandit","176","651429","0.0-137.0-0.0","95925149","wem/bandit_either_3","A28XX39V2XCXJE","either","3","590","","","","","","","0","0","1","0.8735151232","","0.6","0.8","0.2","0.4","","","","","0.7487724405","0.8735151232","0.218486712","0.7023758817","","","","","","","","74","J","1","","","97","main_expt",""
"","bandit","177","653350","0.0-138.0-0.0","95925149","wem/bandit_either_3","A28XX39V2XCXJE","either","3","412","","","","","","","0","1","0","","0.84409386","0.6","0.8","0.2","0.4","0.7450583294","0.84409386","0.2037628256","0.7036518389","","","","","","","","","","","","74","J","1","","","98","main_expt",""
"","bandit","178","655333","0.0-139.0-0.0","95925149","wem/bandit_either_3","A28XX39V2XCXJE","either","3","472","","","","","","","0","0","1","0.8089648913","","0.6","0.8","0.2","0.4","","","","","0.7227120129","0.8089648913","0.2400196326","0.8401346726","","","","","","","","74","J","1","","","99","main_expt",""
"","bandit","179","657207","0.0-140.0-0.0","95925149","wem/bandit_either_3","A28XX39V2XCXJE","either","3","363","","","","","","","1","0","0","0.7259557377","","0.6","0.8","0.2","0.4","","","","","0.5872141049","0.7259557377","0.3298222115","0.8640782416","","","","","","","","74","J","1","","","100","main_expt",""
"","bandit","180","659128","0.0-141.0-0.0","95925149","wem/bandit_either_3","A28XX39V2XCXJE","either","3","415","","","","","","","1","0","0","0.6332869741","","0.6","0.8","0.2","0.4","","","","","0.6432213136","0.6332869741","0.3108047587","0.8232172207","","","","","","","","74","J","1","","","101","main_expt",""
"","bandit","181","661030","0.0-142.0-0.0","95925149","wem/bandit_either_3","A28XX39V2XCXJE","either","3","395","","","","","","","1","0","0","0.659443461","","0.6","0.8","0.2","0.4","","","","","0.6009476408","0.659443461","0.2869381514","0.8451901448","","","","","","","","74","J","1","","","102","main_expt",""
"","bandit","182","663132","0.0-143.0-0.0","95925149","wem/bandit_either_3","A28XX39V2XCXJE","either","3","596","","","","","","","0","0","1","","0.5959971703","0.6","0.8","0.2","0.4","0.6120105745","0.5959971703","0.246485708","0.8792283932","","","","","","","","","","","","74","J","1","","","103","main_expt",""
"","bandit","183","665057","0.0-144.0-0.0","95925149","wem/bandit_either_3","A28XX39V2XCXJE","either","3","412","","","","","","","0","0","1","0.5643630141","","0.6","0.8","0.2","0.4","","","","","0.6821098495","0.5643630141","0.2175667678","0.8887181638","","","","","","","","74","J","1","","","104","main_expt",""
"","bandit","184","666924","0.0-145.0-0.0","95925149","wem/bandit_either_3","A28XX39V2XCXJE","either","3","358","","","","","","","0","1","0","","0.5489079514","0.6","0.8","0.2","0.4","0.7228510016","0.5489079514","0.2645808036","0.8013578166","","","","","","","","","","","","74","J","1","","","105","main_expt",""
"","bandit","185","668937","0.0-146.0-0.0","95925149","wem/bandit_either_3","A28XX39V2XCXJE","either","3","507","","","","","","","1","0","0","0.4336033326","","0.6","0.8","0.2","0.4","","","","","0.6639212405","0.4336033326","0.2652424516","0.7307006529","","","","","","","","74","J","1","","","106","main_expt",""
"","bandit","186","670864","0.0-147.0-0.0","95925149","wem/bandit_either_3","A28XX39V2XCXJE","either","3","415","","","","","","","0","0","1","0.4779201531","","0.6","0.8","0.2","0.4","","","","","0.6237034742","0.4779201531","0.2481661544","0.7519500851","","","","","","","","74","J","1","","","107","main_expt",""
"","bandit","187","672797","0.0-148.0-0.0","95925149","wem/bandit_either_3","A28XX39V2XCXJE","either","3","421","","","","","","","1","0","0","0.5075294874","","0.6","0.8","0.2","0.4","","","","","0.5847293191","0.5075294874","0.2361720859","0.7457577851","","","","","","","","74","J","1","","","108","main_expt",""
"","bandit","188","674802","0.0-149.0-0.0","95925149","wem/bandit_either_3","A28XX39V2XCXJE","either","3","496","","","","","","","1","0","0","0.522842385","","0.6","0.8","0.2","0.4","","","","","0.6260859175","0.522842385","0.2799679389","0.77583868","","","","","","","","74","J","1","","","109","main_expt",""
"","bandit","189","676668","0.0-150.0-0.0","95925149","wem/bandit_either_3","A28XX39V2XCXJE","either","3","353","","","","","","","0","0","1","0.419893696","","0.6","0.8","0.2","0.4","","","","","0.4788227383","0.419893696","0.3333098602","0.7520827962","","","","","","","","74","J","1","","","110","main_expt",""
"","bandit","190","678560","0.0-151.0-0.0","95925149","wem/bandit_either_3","A28XX39V2XCXJE","either","3","382","","","","","","","0","0","1","0.431092028","","0.6","0.8","0.2","0.4","","","","","0.6019778282","0.431092028","0.3669732535","0.6512809768","","","","","","","","74","J","1","","","111","main_expt",""
"","bandit","191","680379","0.0-152.0-0.0","95925149","wem/bandit_either_3","A28XX39V2XCXJE","either","3","310","","","","","","","1","0","0","0.3590071368","","0.6","0.8","0.2","0.4","","","","","0.546445977","0.3590071368","0.389765336","0.5891937939","","","","","","","","74","J","1","","","112","main_expt",""
"","bandit","192","682418","0.0-153.0-0.0","95925149","wem/bandit_either_3","A28XX39V2XCXJE","either","3","529","","","","","","","0","1","0","","0.4498419114","0.6","0.8","0.2","0.4","0.6256092846","0.4498419114","0.3191506652","0.6490525038","","","","","","","","","","","","74","J","1","","","113","main_expt",""
"","bandit","193","684457","0.0-154.0-0.0","95925149","wem/bandit_either_3","A28XX39V2XCXJE","either","3","527","","","","","","","1","0","0","0.4829831469","","0.6","0.8","0.2","0.4","","","","","0.6577617598","0.4829831469","0.2090321438","0.6283680234","","","","","","","","74","J","1","","","114","main_expt",""
"","bandit","194","686399","0.0-155.0-0.0","95925149","wem/bandit_either_3","A28XX39V2XCXJE","either","3","428","","","","","","","1","0","0","0.4846695964","","0.6","0.8","0.2","0.4","","","","","0.7140476354","0.4846695964","0.2094439124","0.6064224059","","","","","","","","74","J","1","","","115","main_expt",""
"","bandit","195","688342","0.0-156.0-0.0","95925149","wem/bandit_either_3","A28XX39V2XCXJE","either","3","430","","","","","","","1","0","0","0.5396909338","","0.6","0.8","0.2","0.4","","","","","0.6589976567","0.5396909338","0.2695181069","0.545813367","","","","","","","","74","J","1","","","116","main_expt",""
"","bandit","196","690358","0.0-157.0-0.0","95925149","wem/bandit_either_3","A28XX39V2XCXJE","either","3","503","","","","","","","1","0","0","0.5378282835","","0.6","0.8","0.2","0.4","","","","","0.6937703341","0.5378282835","0.3402036285","0.5179373022","","","","","","","","74","J","1","","","117","main_expt",""
"","bandit","197","692367","0.0-158.0-0.0","95925149","wem/bandit_either_3","A28XX39V2XCXJE","either","3","499","","","","","","","1","0","0","0.5729988564","","0.6","0.8","0.2","0.4","","","","","0.77114399","0.5729988564","0.3101634078","0.4014157923","","","","","","","","74","J","1","","","118","main_expt",""
"","bandit","198","694391","0.0-159.0-0.0","95925149","wem/bandit_either_3","A28XX39V2XCXJE","either","3","511","","","","","","","1","0","0","0.5630251564","","0.6","0.8","0.2","0.4","","","","","0.710000291","0.5630251564","0.3242193616","0.4360264599","","","","","","","","74","J","1","","","119","main_expt",""
"","bandit","199","696321","0.0-160.0-0.0","95925149","wem/bandit_either_3","A28XX39V2XCXJE","either","3","418","","","","","","","1","0","0","0.6482115929","","0.6","0.8","0.2","0.4","","","","","0.6767982245","0.6482115929","0.3334277272","0.3297853269","","","","","","","","74","J","1","","","120","main_expt",""
"","bandit","200","698321","0.0-161.0-0.0","95925149","wem/bandit_either_3","A28XX39V2XCXJE","either","3","489","","","","","","","1","0","0","0.5688505083","","0.6","0.8","0.2","0.4","","","","","0.7360115258","0.5688505083","0.4066521311","0.3767442019","","","","","","","","74","J","1","","","121","main_expt",""
"","bandit","201","700290","0.0-162.0-0.0","95925149","wem/bandit_either_3","A28XX39V2XCXJE","either","3","455","","","","","","","0","0","1","0.5349597204","","0.6","0.8","0.2","0.4","","","","","0.7258716992","0.5349597204","0.5193034213","0.3589515546","","","","","","","","74","J","1","","","122","main_expt",""
"","bandit","202","702191","0.0-163.0-0.0","95925149","wem/bandit_either_3","A28XX39V2XCXJE","either","3","393","","","","","","","0","1","0","","0.412887176","0.6","0.8","0.2","0.4","0.7848203729","0.412887176","0.5594962391","0.3461890545","","","","","","","","","","","","74","J","1","","","123","main_expt",""
"","bandit","203","704113","0.0-164.0-0.0","95925149","wem/bandit_either_3","A28XX39V2XCXJE","either","3","415","","","","","","","0","0","1","0.4137060999","","0.6","0.8","0.2","0.4","","","","","0.7673004895","0.4137060999","0.6876014299","0.2287340519","","","","","","","","74","J","1","","","124","main_expt",""
"","bandit","204","706084","0.0-165.0-0.0","95925149","wem/bandit_either_3","A28XX39V2XCXJE","either","3","460","","","","","","","0","0","1","0.3226696341","","0.6","0.8","0.2","0.4","","","","","0.8020703208","0.3226696341","0.7354493796","0.2900718705","","","","","","","","74","J","1","","","125","main_expt",""
"","bandit","205","708121","0.0-166.0-0.0","95925149","wem/bandit_either_3","A28XX39V2XCXJE","either","3","528","","","","","","","0","0","1","0.3904211026","","0.6","0.8","0.2","0.4","","","","","0.8196031782","0.3904211026","0.76840964","0.2880997441","","","","","","","","74","J","1","","","126","main_expt",""
"","bandit","206","710452","0.0-167.0-0.0","95925149","wem/bandit_either_3","A28XX39V2XCXJE","either","3","816","","","","","","","1","0","0","0.7310750685","","0.6","0.8","0.2","0.4","","","","","0.7095492128","0.4227014292","0.7310750685","0.3451069126","","","","","","","","75","K","2","","","127","main_expt",""
"","bandit","207","712380","0.0-168.0-0.0","95925149","wem/bandit_either_3","A28XX39V2XCXJE","either","3","413","","","","","","","1","0","0","0.6582635175","","0.6","0.8","0.2","0.4","","","","","0.711577854","0.543317668","0.6582635175","0.3129298861","","","","","","","","75","K","2","","","128","main_expt",""
"","bandit","208","714393","0.0-169.0-0.0","95925149","wem/bandit_either_3","A28XX39V2XCXJE","either","3","500","","","","","","","0","1","0","","0.7529887683","0.6","0.8","0.2","0.4","0.7022761705","0.5906282681","0.7529887683","0.3507055597","","","","","","","","","","","","75","K","2","","","129","main_expt",""
"","bandit","209","716316","0.0-170.0-0.0","95925149","wem/bandit_either_3","A28XX39V2XCXJE","either","3","412","","","","","","","0","1","0","","0.7929301986","0.6","0.8","0.2","0.4","0.7309419319","0.6636268631","0.7929301986","0.3753424236","","","","","","","","","","","","75","K","2","","","130","main_expt",""
"","bandit","210","718275","0.0-171.0-0.0","95925149","wem/bandit_either_3","A28XX39V2XCXJE","either","3","449","","","","","","","0","1","0","","0.8149544693","0.6","0.8","0.2","0.4","0.6904825683","0.5686699027","0.8149544693","0.3473486375","","","","","","","","","","","","75","K","2","","","131","main_expt",""
"","bandit","211","720364","0.0-172.0-0.0","95925149","wem/bandit_either_3","A28XX39V2XCXJE","either","3","576","","","","","","","0","1","0","","0.7626544417","0.6","0.8","0.2","0.4","0.7153166113","0.6564012045","0.7626544417","0.303679922","","","","","","","","","","","","75","K","2","","","132","main_expt",""
"","bandit","212","722347","0.0-173.0-0.0","95925149","wem/bandit_either_3","A28XX39V2XCXJE","either","3","468","","","","","","","0","1","0","","0.7584501248","0.6","0.8","0.2","0.4","0.8135501627","0.5876654864","0.7584501248","0.3385565331","","","","","","","","","","","","75","K","2","","","133","main_expt",""
"","bandit","213","724259","0.0-174.0-0.0","95925149","wem/bandit_either_3","A28XX39V2XCXJE","either","3","405","","","","","","","1","0","0","0.7905015291","","0.6","0.8","0.2","0.4","","","","","0.7707892239","0.5299368298","0.7905015291","0.3686406913","","","","","","","","75","K","2","","","134","main_expt",""
"","bandit","214","726178","0.0-175.0-0.0","95925149","wem/bandit_either_3","A28XX39V2XCXJE","either","3","409","","","","","","","0","1","0","","0.7515189777","0.6","0.8","0.2","0.4","0.7689088841","0.4547966061","0.7515189777","0.3672202126","","","","","","","","","","","","75","K","2","","","135","main_expt",""
"","bandit","215","728086","0.0-176.0-0.0","95925149","wem/bandit_either_3","A28XX39V2XCXJE","either","3","398","","","","","","","1","0","0","0.7293518859","","0.6","0.8","0.2","0.4","","","","","0.6641324257","0.5290841583","0.7293518859","0.4064769993","","","","","","","","75","K","2","","","136","main_expt",""
"","bandit","216","730008","0.0-177.0-0.0","95925149","wem/bandit_either_3","A28XX39V2XCXJE","either","3","408","","","","","","","0","1","0","","0.7286216209","0.6","0.8","0.2","0.4","0.635388201","0.419904672","0.7286216209","0.3492503667","","","","","","","","","","","","75","K","2","","","137","main_expt",""
"","bandit","217","731855","0.0-178.0-0.0","95925149","wem/bandit_either_3","A28XX39V2XCXJE","either","3","342","","","","","","","0","1","0","","0.7425921641","0.6","0.8","0.2","0.4","0.6889508363","0.4532768315","0.7425921641","0.3315752647","","","","","","","","","","","","75","K","2","","","138","main_expt",""
"","bandit","218","733666","0.0-179.0-0.0","95925149","wem/bandit_either_3","A28XX39V2XCXJE","either","3","292","","","","","","","0","1","0","","0.7356638012","0.6","0.8","0.2","0.4","0.6481427694","0.4194835996","0.7356638012","0.3080831972","","","","","","","","","","","","75","K","2","","","139","main_expt",""
"","bandit","219","735508","0.0-180.0-0.0","95925149","wem/bandit_either_3","A28XX39V2XCXJE","either","3","335","","","","","","","0","1","0","","0.7334346803","0.6","0.8","0.2","0.4","0.6497449761","0.420008375","0.7334346803","0.3254670704","","","","","","","","","","","","75","K","2","","","140","main_expt",""
"","bandit","220","737474","0.0-181.0-0.0","95925149","wem/bandit_either_3","A28XX39V2XCXJE","either","3","452","","","","","","","0","0","1","","0.7737071977","0.6","0.8","0.2","0.4","0.7328205829","0.3908595681","0.7737071977","0.3452870884","","","","","","","","","","","","75","K","2","","","141","main_expt",""
"","bandit","221","739390","0.0-182.0-0.0","95925149","wem/bandit_either_3","A28XX39V2XCXJE","either","3","410","","","","","","","1","0","0","0.7912630164","","0.6","0.8","0.2","0.4","","","","","0.6396752577","0.3994278682","0.7912630164","0.2659846132","","","","","","","","75","K","2","","","142","main_expt",""
"","bandit","222","741420","0.0-183.0-0.0","95925149","wem/bandit_either_3","A28XX39V2XCXJE","either","3","516","","","","","","","0","1","0","","0.7709923268","0.6","0.8","0.2","0.4","0.5974809775","0.3137486051","0.7709923268","0.2549781044","","","","","","","","","","","","75","K","2","","","143","main_expt",""
"","bandit","223","743368","0.0-184.0-0.0","95925149","wem/bandit_either_3","A28XX39V2XCXJE","either","3","440","","","","","","","0","1","0","","0.7492848764","0.6","0.8","0.2","0.4","0.5953980303","0.3961992406","0.7492848764","0.3603981418","","","","","","","","","","","","75","K","2","","","144","main_expt",""
"","bandit","224","745274","0.0-185.0-0.0","95925149","wem/bandit_either_3","A28XX39V2XCXJE","either","3","399","","","","","","","0","1","0","","0.7343485297","0.6","0.8","0.2","0.4","0.6215671736","0.3186856111","0.7343485297","0.3682949958","","","","","","","","","","","","75","K","2","","","145","main_expt",""
"","bandit","225","747270","0.0-186.0-0.0","95925149","wem/bandit_either_3","A28XX39V2XCXJE","either","3","483","","","","","","","1","0","0","0.7701032705","","0.6","0.8","0.2","0.4","","","","","0.5766937592","0.2724247948","0.7701032705","0.5028772858","","","","","","","","75","K","2","","","146","main_expt",""
"","bandit","226","749209","0.0-187.0-0.0","95925149","wem/bandit_either_3","A28XX39V2XCXJE","either","3","423","","","","","","","0","1","0","","0.7521601774","0.6","0.8","0.2","0.4","0.4600492943","0.2844288079","0.7521601774","0.4186890645","","","","","","","","","","","","75","K","2","","","147","main_expt",""
"","bandit","227","751241","0.0-188.0-0.0","95925149","wem/bandit_either_3","A28XX39V2XCXJE","either","3","524","","","","","","","0","1","0","","0.7762143641","0.6","0.8","0.2","0.4","0.4575448178","0.3095389551","0.7762143641","0.3928328601","","","","","","","","","","","","75","K","2","","","148","main_expt",""
"","bandit","228","753131","0.0-189.0-0.0","95925149","wem/bandit_either_3","A28XX39V2XCXJE","either","3","383","","","","","","","0","1","0","","0.716016993","0.6","0.8","0.2","0.4","0.3840278576","0.2464654743","0.716016993","0.4220063763","","","","","","","","","","","","75","K","2","","","149","main_expt",""
"","bandit","229","755086","0.0-190.0-0.0","95925149","wem/bandit_either_3","A28XX39V2XCXJE","either","3","448","","","","","","","0","0","1","","0.7182774931","0.6","0.8","0.2","0.4","0.3004406684","0.2088091358","0.7182774931","0.3206822378","","","","","","","","","","","","75","K","2","","","150","main_expt",""
"","bandit","230","756986","0.0-191.0-0.0","95925149","wem/bandit_either_3","A28XX39V2XCXJE","either","3","387","","","","","","","0","1","0","","0.8028216805","0.6","0.8","0.2","0.4","0.2769981479","0.2670014618","0.8028216805","0.3380172956","","","","","","","","","","","","75","K","2","","","151","main_expt",""
"","bandit","231","759040","0.0-192.0-0.0","95925149","wem/bandit_either_3","A28XX39V2XCXJE","either","3","545","","","","","","","0","1","0","","0.8634692279","0.6","0.8","0.2","0.4","0.40565407","0.3100930243","0.8634692279","0.2461440624","","","","","","","","","","","","75","K","2","","","152","main_expt",""
"","bandit","232","760969","0.0-193.0-0.0","95925149","wem/bandit_either_3","A28XX39V2XCXJE","either","3","416","","","","","","","0","1","0","","0.7719190238","0.6","0.8","0.2","0.4","0.3829351634","0.3796096158","0.7719190238","0.1852716423","","","","","","","","","","","","75","K","2","","","153","main_expt",""
"","bandit","233","762969","0.0-194.0-0.0","95925149","wem/bandit_either_3","A28XX39V2XCXJE","either","3","494","","","","","","","0","1","0","","0.8343429945","0.6","0.8","0.2","0.4","0.4912137185","0.2265028128","0.8343429945","0.1660439368","","","","","","","","","","","","75","K","2","","","154","main_expt",""
"","bandit","234","764897","0.0-195.0-0.0","95925149","wem/bandit_either_3","A28XX39V2XCXJE","either","3","420","","","","","","","0","1","0","","0.7908731232","0.6","0.8","0.2","0.4","0.5312535156","0.2135741777","0.7908731232","0.2241607793","","","","","","","","","","","","75","K","2","","","155","main_expt",""
"","bandit","235","767511","0.0-196.0-0.0","95925149","wem/bandit_either_3","A28XX39V2XCXJE","either","3","1104","","","","","","","0","1","0","","0.7848911391","0.6","0.8","0.2","0.4","0.5747898199","0.1338357519","0.7848911391","0.1566338899","","","","","","","","","","","","75","K","2","","","156","main_expt",""
"","bandit","236","770890","0.0-197.0-0.0","95925149","wem/bandit_either_3","A28XX39V2XCXJE","either","3","1868","","","","","","","0","0","1","","0.7467155263","0.6","0.8","0.2","0.4","0.5948125822","0.1344370697","0.7467155263","0.1839373886","","","","","","","","","","","","75","K","2","","","157","main_expt",""
"","bandit","237","772842","0.0-198.0-0.0","95925149","wem/bandit_either_3","A28XX39V2XCXJE","either","3","439","","","","","","","0","1","0","","0.7413618202","0.6","0.8","0.2","0.4","0.6533804049","0.1217930933","0.7413618202","0.155802242","","","","","","","","","","","","75","K","2","","","158","main_expt",""
"","bandit","238","774958","0.0-199.0-0.0","95925149","wem/bandit_either_3","A28XX39V2XCXJE","either","3","600","","","","","","","0","1","0","","0.6882043704","0.6","0.8","0.2","0.4","0.5777198579","0.08524485746","0.6882043704","0.2304237345","","","","","","","","","","","","75","K","2","","","159","main_expt",""
"","bandit","239","776961","0.0-200.0-0.0","95925149","wem/bandit_either_3","A28XX39V2XCXJE","either","3","492","","","","","","","0","1","0","","0.7253096401","0.6","0.8","0.2","0.4","0.6777741118","0.07332219892","0.7253096401","0.2242026456","","","","","","","","","","","","75","K","2","","","160","main_expt",""
"","bandit","240","779029","0.0-201.0-0.0","95925149","wem/bandit_either_3","A28XX39V2XCXJE","either","3","550","","","","","","","0","1","0","","0.6989182833","0.6","0.8","0.2","0.4","0.6249074267","0.1063489691","0.6989182833","0.2708915048","","","","","","","","","","","","75","K","2","","","161","main_expt",""
"","bandit","241","780985","0.0-202.0-0.0","95925149","wem/bandit_either_3","A28XX39V2XCXJE","either","3","442","","","","","","","0","0","1","","0.7679575172","0.6","0.8","0.2","0.4","0.6755041601","0.09670310095","0.7679575172","0.2921592604","","","","","","","","","","","","75","K","2","","","162","main_expt",""
"","bandit","242","782957","0.0-203.0-0.0","95925149","wem/bandit_either_3","A28XX39V2XCXJE","either","3","464","","","","","","","1","0","0","0.6877390752","","0.6","0.8","0.2","0.4","","","","","0.6461818487","0.1266359811","0.6877390752","0.2050535257","","","","","","","","75","K","2","","","163","main_expt",""
"","bandit","243","784893","0.0-204.0-0.0","95925149","wem/bandit_either_3","A28XX39V2XCXJE","either","3","428","","","","","","","0","1","0","","0.6957575266","0.6","0.8","0.2","0.4","0.76368027","0.1212611996","0.6957575266","0.1998759094","","","","","","","","","","","","75","K","2","","","164","main_expt",""
"","bandit","244","786853","0.0-205.0-0.0","95925149","wem/bandit_either_3","A28XX39V2XCXJE","either","3","444","","","","","","","1","0","0","0.6760148625","","0.6","0.8","0.2","0.4","","","","","0.8400099296","0.1917887173","0.6760148625","0.1821974317","","","","","","","","75","K","2","","","165","main_expt",""
"","bandit","245","788811","0.0-206.0-0.0","95925149","wem/bandit_either_3","A28XX39V2XCXJE","either","3","451","","","","","","","0","1","0","","0.6463317238","0.6","0.8","0.2","0.4","0.8573275969","0.1560613016","0.6463317238","0.2916844583","","","","","","","","","","","","75","K","2","","","166","main_expt",""
"","bandit","246","790725","0.0-207.0-0.0","95925149","wem/bandit_either_3","A28XX39V2XCXJE","either","3","398","","","","","","","0","1","0","","0.5613055562","0.6","0.8","0.2","0.4","0.7735369509","0.2214887095","0.5613055562","0.3087465624","","","","","","","","","","","","75","K","2","","","167","main_expt",""
"","bandit","247","792728","0.0-208.0-0.0","95925149","wem/bandit_either_3","A28XX39V2XCXJE","either","3","493","","","","","","","0","0","1","","0.5586162784","0.6","0.8","0.2","0.4","0.8091314607","0.3463453368","0.5586162784","0.3896626528","","","","","","","","","","","","75","K","2","","","168","main_expt",""
"","bandit","248","794628","0.0-209.0-0.0","95925149","wem/bandit_either_3","A28XX39V2XCXJE","either","3","394","","","","","","","0","0","1","","0.597448185","0.6","0.8","0.2","0.4","0.8364166478","0.3222551453","0.597448185","0.4458805252","","","","","","","","","","","","75","K","2","","","169","main_expt",""
"","bandit","249","796557","0.0-210.0-0.0","95925149","wem/bandit_either_3","A28XX39V2XCXJE","either","3","421","","","","","","","0","0","1","","0.5351242352","0.6","0.8","0.2","0.4","0.7867883415","0.2556410415","0.5351242352","0.4844269655","","","","","","","","","","","","75","K","2","","","170","main_expt",""
"","bandit","250","799210","0.0-211.0-0.0","95925149","wem/bandit_either_3","A28XX39V2XCXJE","either","3","1137","","","","","","","0","0","1","0.4858642724","","0.6","0.8","0.2","0.4","","","","","0.8728822524","0.2248109201","0.4819966971","0.4858642724","","","","","","","","76","L","3","","","171","main_expt",""
"","bandit","251","801121","0.0-212.0-0.0","95925149","wem/bandit_either_3","A28XX39V2XCXJE","either","3","397","","","","","","","0","0","1","","0.5060245996","0.6","0.8","0.2","0.4","0.7804912391","0.3468742366","0.4038669266","0.5060245996","","","","","","","","","","","","76","L","3","","","172","main_expt",""
"","bandit","252","803076","0.0-213.0-0.0","95925149","wem/bandit_either_3","A28XX39V2XCXJE","either","3","441","","","","","","","1","0","0","0.5413528159","","0.6","0.8","0.2","0.4","","","","","0.7728490534","0.234408543","0.3102533384","0.5413528159","","","","","","","","76","L","3","","","173","main_expt",""
"","bandit","253","805125","0.0-214.0-0.0","95925149","wem/bandit_either_3","A28XX39V2XCXJE","either","3","534","","","","","","","1","0","0","0.6505326818","","0.6","0.8","0.2","0.4","","","","","0.814185781","0.1404050277","0.3818943333","0.6505326818","","","","","","","","76","L","3","","","174","main_expt",""
"","bandit","254","807050","0.0-215.0-0.0","95925149","wem/bandit_either_3","A28XX39V2XCXJE","either","3","408","","","","","","","0","0","1","","0.6470977149","0.6","0.8","0.2","0.4","0.8010682597","0.1081611795","0.2893198216","0.6470977149","","","","","","","","","","","","76","L","3","","","175","main_expt",""
"","bandit","255","809142","0.0-216.0-0.0","95925149","wem/bandit_either_3","A28XX39V2XCXJE","either","3","582","","","","","","","0","1","0","","0.6844229635","0.6","0.8","0.2","0.4","0.7083228223","0.0730283124","0.226416223","0.6844229635","","","","","","","","","","","","76","L","3","","","176","main_expt",""
"","bandit","256","811216","0.0-217.0-0.0","95925149","wem/bandit_either_3","A28XX39V2XCXJE","either","3","560","","","","","","","0","1","0","","0.6883244284","0.6","0.8","0.2","0.4","0.7408938443","0.07044941978","0.2786676386","0.6883244284","","","","","","","","","","","","76","L","3","","","177","main_expt",""
"","bandit","257","813437","0.0-218.0-0.0","95925149","wem/bandit_either_3","A28XX39V2XCXJE","either","3","713","","","","","","","0","0","1","","0.6098590842","0.6","0.8","0.2","0.4","0.6621187214","0.06886985111","0.2279078815","0.6098590842","","","","","","","","","","","","76","L","3","","","178","main_expt",""
"","bandit","258","815418","0.0-219.0-0.0","95925149","wem/bandit_either_3","A28XX39V2XCXJE","either","3","465","","","","","","","0","0","1","","0.5924449164","0.6","0.8","0.2","0.4","0.6765487854","0.07254371148","0.1690126781","0.5924449164","","","","","","","","","","","","76","L","3","","","179","main_expt",""
"","bandit","259","817518","0.0-220.0-0.0","95925149","wem/bandit_either_3","A28XX39V2XCXJE","either","3","585","","","","","","","0","1","0","","0.1356066944","0.6","0.8","0.2","0.4","0.7276027883","0.055057054","0.1356066944","0.4915111467","","","","","","","","","","","","75","K","2","","","180","main_expt",""
"","bandit","260","819337","0.0-221.0-0.0","95925149","wem/bandit_either_3","A28XX39V2XCXJE","either","3","308","","","","","","","0","0","1","","0.1889441784","0.6","0.8","0.2","0.4","0.7083410305","0.1187845962","0.1889441784","0.4713933083","","","","","","","","","","","","75","K","2","","","181","main_expt",""
"","bandit","261","821228","0.0-222.0-0.0","95925149","wem/bandit_either_3","A28XX39V2XCXJE","either","3","376","","","","","","","0","0","1","0.2163976064","","0.6","0.8","0.2","0.4","","","","","0.6489729838","0.1304227184","0.2163976064","0.500114893","","","","","","","","75","K","2","","","182","main_expt",""
"","bandit","262","823133","0.0-223.0-0.0","95925149","wem/bandit_either_3","A28XX39V2XCXJE","either","3","396","","","","","","","0","0","1","","0.1902524086","0.6","0.8","0.2","0.4","0.6956751073","0.1374638341","0.1902524086","0.4949273894","","","","","","","","","","","","75","K","2","","","183","main_expt",""
"","bandit","263","825247","0.0-224.0-0.0","95925149","wem/bandit_either_3","A28XX39V2XCXJE","either","3","600","","","","","","","1","0","0","0.6066537109","","0.6","0.8","0.2","0.4","","","","","0.6066537109","0.1914365344","0.2265805791","0.4271361476","","","","","","","","72","H","0","img/none_selected.jpg","","184","main_expt",""
"","bandit","264","827231","0.0-225.0-0.0","95925149","wem/bandit_either_3","A28XX39V2XCXJE","either","3","476","","","","","","","1","0","0","0.6337362372","","0.6","0.8","0.2","0.4","","","","","0.6337362372","0.1939872458","0.1843452782","0.4558255176","","","","","","","","72","H","0","img/none_selected.jpg","","185","main_expt",""
"","bandit","265","829252","0.0-226.0-0.0","95925149","wem/bandit_either_3","A28XX39V2XCXJE","either","3","511","","","","","","","1","0","0","0.5908962551","","0.6","0.8","0.2","0.4","","","","","0.5908962551","0.2219937035","0.1898387663","0.4031301461","","","","","","","","72","H","0","img/none_selected.jpg","","186","main_expt",""
"","bandit","266","831351","0.0-227.0-0.0","95925149","wem/bandit_either_3","A28XX39V2XCXJE","either","3","583","","","","","","","0","0","1","0.7651761031","","0.6","0.8","0.2","0.4","","","","","0.7651761031","0.2024523472","0.210498268","0.3993697366","","","","","","","","72","H","0","img/none_selected.jpg","","187","main_expt",""
"","bandit","267","833392","0.0-228.0-0.0","95925149","wem/bandit_either_3","A28XX39V2XCXJE","either","3","527","","","","","","","1","0","0","0.7928336054","","0.6","0.8","0.2","0.4","","","","","0.7928336054","0.1930401344","0.2368649008","0.4478687375","","","","","","","","72","H","0","img/none_selected.jpg","","188","main_expt",""
"","bandit","268","835408","0.0-229.0-0.0","95925149","wem/bandit_either_3","A28XX39V2XCXJE","either","3","499","","","","","","","1","0","0","0.8917358491","","0.6","0.8","0.2","0.4","","","","","0.8917358491","0.3255404916","0.291591963","0.3699601256","","","","","","","","72","H","0","img/none_selected.jpg","","189","main_expt",""
"","bandit","269","837620","0.0-230.0-0.0","95925149","wem/bandit_either_3","A28XX39V2XCXJE","either","3","698","","","","","","","0","1","0","","0.898448025","0.6","0.8","0.2","0.4","0.898448025","0.2364063212","0.4411779124","0.3723251068","","","","","","","","","","","","72","H","0","img/none_selected.jpg","","190","main_expt",""
"","bandit","270","839776","0.0-231.0-0.0","95925149","wem/bandit_either_3","A28XX39V2XCXJE","either","3","647","","","","","","","0","1","0","","0.9186708851","0.6","0.8","0.2","0.4","0.9186708851","0.2662767285","0.3968704403","0.3309849287","","","","","","","","","","","","72","H","0","img/none_selected.jpg","","191","main_expt",""
"","bandit","271","841891","0.0-232.0-0.0","95925149","wem/bandit_either_3","A28XX39V2XCXJE","either","3","598","","","","","","","0","1","0","","0.9314477517","0.6","0.8","0.2","0.4","0.9314477517","0.2815174114","0.4512817608","0.2865625263","","","","","","","","","","","","72","H","0","img/none_selected.jpg","","192","main_expt",""
"","bandit","272","844010","0.0-233.0-0.0","95925149","wem/bandit_either_3","A28XX39V2XCXJE","either","3","602","","","","","","","0","1","0","","0.9090465067","0.6","0.8","0.2","0.4","0.9090465067","0.3461293965","0.4788006455","0.2862811746","","","","","","","","","","","","72","H","0","img/none_selected.jpg","","193","main_expt",""
"","bandit","273","846070","0.0-234.0-0.0","95925149","wem/bandit_either_3","A28XX39V2XCXJE","either","3","552","","","","","","","1","0","0","0.8762249788","","0.6","0.8","0.2","0.4","","","","","0.8762249788","0.3303735913","0.4651889587","0.2785288642","","","","","","","","72","H","0","img/none_selected.jpg","","194","main_expt",""
"","bandit","274","848172","0.0-235.0-0.0","95925149","wem/bandit_either_3","A28XX39V2XCXJE","either","3","589","","","","","","","1","0","0","0.8623185747","","0.6","0.8","0.2","0.4","","","","","0.8623185747","0.3194565039","0.4718629942","0.2283941808","","","","","","","","72","H","0","img/none_selected.jpg","","195","main_expt",""
"","bandit","275","850197","0.0-236.0-0.0","95925149","wem/bandit_either_3","A28XX39V2XCXJE","either","3","517","","","","","","","0","0","1","","0.7745977574","0.6","0.8","0.2","0.4","0.7745977574","0.4103944464","0.3825708332","0.214282227","","","","","","","","","","","","72","H","0","img/none_selected.jpg","","196","main_expt",""
"","bandit","276","852165","0.0-237.0-0.0","95925149","wem/bandit_either_3","A28XX39V2XCXJE","either","3","452","","","","","","","1","0","0","0.7723069829","","0.6","0.8","0.2","0.4","","","","","0.7723069829","0.4445726534","0.4530864699","0.1422959513","","","","","","","","72","H","0","img/none_selected.jpg","","197","main_expt",""
"","bandit","277","854291","0.0-238.0-0.0","95925149","wem/bandit_either_3","A28XX39V2XCXJE","either","3","617","","","","","","","1","0","0","0.7084082875","","0.6","0.8","0.2","0.4","","","","","0.7084082875","0.4351718099","0.4337652667","0.1126324943","","","","","","","","72","H","0","img/none_selected.jpg","","198","main_expt",""
"","bandit","278","856262","0.0-239.0-0.0","95925149","wem/bandit_either_3","A28XX39V2XCXJE","either","3","464","","","","","","","1","0","0","0.7016883558","","0.6","0.8","0.2","0.4","","","","","0.7016883558","0.4641294157","0.4138332966","0.1144166609","","","","","","","","72","H","0","img/none_selected.jpg","","199","main_expt",""
"","bandit","279","859097","0.0-240.0-0.0","95925149","wem/bandit_either_3","A28XX39V2XCXJE","either","3","1319","","","","","","","0","1","0","","0.6504384346","0.6","0.8","0.2","0.4","0.6504384346","0.4468687069","0.5005175686","0.1518003708","","","","","","","","","","","","72","H","0","img/none_selected.jpg","","200","main_expt",""
"","bandit","280","861363","0.0-241.0-0.0","95925149","wem/bandit_either_3","A28XX39V2XCXJE","either","3","756","","","","","","","0","1","0","","0.7904945102","0.6","0.8","0.2","0.4","0.7904945102","0.5087435212","0.5122642399","0.1974433607","","","","","","","","","","","","72","H","0","img/none_selected.jpg","","201","main_expt",""
"","bandit","281","863585","0.0-242.0-0.0","95925149","wem/bandit_either_3","A28XX39V2XCXJE","either","3","706","","","","","","","1","0","0","0.7039472437","","0.6","0.8","0.2","0.4","","","","","0.7039472437","0.4992132835","0.5414597976","0.2000842809","","","","","","","","72","H","0","img/none_selected.jpg","","202","main_expt",""
"","bandit","282","865835","0.0-243.0-0.0","95925149","wem/bandit_either_3","A28XX39V2XCXJE","either","3","735","","","","","","","0","0","1","0.7478807213","","0.6","0.8","0.2","0.4","","","","","0.7478807213","0.4859842053","0.4993649945","0.1715580826","","","","","","","","72","H","0","img/none_selected.jpg","","203","main_expt",""
"","bandit","283","867849","0.0-244.0-0.0","95925149","wem/bandit_either_3","A28XX39V2XCXJE","either","3","503","","","","","","","0","1","0","","0.7346150791","0.6","0.8","0.2","0.4","0.7346150791","0.6162755314","0.4056752737","0.3028604286","","","","","","","","","","","","72","H","0","img/none_selected.jpg","","204","main_expt",""
"","bandit","284","870325","0.0-245.0-0.0","95925149","wem/bandit_either_3","A28XX39V2XCXJE","either","3","966","","","","","","","1","0","0","0.7240623961","","0.6","0.8","0.2","0.4","","","","","0.7240623961","0.6204906845","0.4174768156","0.3714949669","","","","","","","","72","H","0","img/none_selected.jpg","","205","main_expt",""
"","bandit","285","872469","0.0-246.0-0.0","95925149","wem/bandit_either_3","A28XX39V2XCXJE","either","3","630","","","","","","","0","0","1","0.733657826","","0.6","0.8","0.2","0.4","","","","","0.733657826","0.6390595606","0.4364097613","0.3034865557","","","","","","","","72","H","0","img/none_selected.jpg","","206","main_expt",""
"","bandit","286","874434","0.0-247.0-0.0","95925149","wem/bandit_either_3","A28XX39V2XCXJE","either","3","456","","","","","","","0","0","1","0.6797091947","","0.6","0.8","0.2","0.4","","","","","0.6797091947","0.6022157482","0.4666062126","0.2688105372","","","","","","","","72","H","0","img/none_selected.jpg","","207","main_expt",""
"","bandit","287","876415","0.0-248.0-0.0","95925149","wem/bandit_either_3","A28XX39V2XCXJE","either","3","466","","","","","","","0","1","0","","0.472157919","0.6","0.8","0.2","0.4","0.472157919","0.6598502583","0.4594719295","0.2240001326","","","","","","","","","","","","72","H","0","img/none_selected.jpg","","208","main_expt",""
"","bandit","288","878615","0.0-249.0-0.0","95925149","wem/bandit_either_3","A28XX39V2XCXJE","either","3","690","","","","","","","0","0","1","0.4993955773","","0.6","0.8","0.2","0.4","","","","","0.4993955773","0.6329069529","0.5415101973","0.3284172364","","","","","","","","72","H","0","img/none_selected.jpg","","209","main_expt",""
"","bandit","289","880569","0.0-250.0-0.0","95925149","wem/bandit_either_3","A28XX39V2XCXJE","either","3","446","","","","","","","0","0","1","","0.3923888982","0.6","0.8","0.2","0.4","0.3923888982","0.5418549626","0.5627952802","0.3178667136","","","","","","","","","","","","72","H","0","img/none_selected.jpg","","210","main_expt",""
"","bandit","290","882489","0.0-251.0-0.0","95925149","wem/bandit_either_3","A28XX39V2XCXJE","either","3","405","","","","","","","1","0","0","0.4183885941","","0.6","0.8","0.2","0.4","","","","","0.4183885941","0.7265410197","0.5779033475","0.278360526","","","","","","","","72","H","0","img/none_selected.jpg","","211","main_expt",""
"","bandit","291","884615","0.0-252.0-0.0","95925149","wem/bandit_either_3","A28XX39V2XCXJE","either","3","608","","","","","","","1","0","0","0.5367383083","","0.6","0.8","0.2","0.4","","","","","0.5367383083","0.6550819281","0.6169713091","0.2720231684","","","","","","","","72","H","0","img/none_selected.jpg","","212","main_expt",""
"","bandit","292","886537","0.0-253.0-0.0","95925149","wem/bandit_either_3","A28XX39V2XCXJE","either","3","415","","","","","","","0","1","0","","0.5779451767","0.6","0.8","0.2","0.4","0.5779451767","0.5812500281","0.5688165975","0.3445332441","","","","","","","","","","","","72","H","0","img/none_selected.jpg","","213","main_expt",""
"","bandit","293","888668","0.0-254.0-0.0","95925149","wem/bandit_either_3","A28XX39V2XCXJE","either","3","613","","","","","","","0","0","1","0.5615700258","","0.6","0.8","0.2","0.4","","","","","0.5615700258","0.6912727382","0.5354690829","0.331154659","","","","","","","","72","H","0","img/none_selected.jpg","","214","main_expt",""
"","bandit","294","890576","0.0-255.0-0.0","95925149","wem/bandit_either_3","A28XX39V2XCXJE","either","3","397","","","","","","","0","0","1","","0.5361399643","0.6","0.8","0.2","0.4","0.5361399643","0.695573978","0.4395706401","0.3168016653","","","","","","","","","","","","72","H","0","img/none_selected.jpg","","215","main_expt",""
"","bandit","295","892564","0.0-256.0-0.0","95925149","wem/bandit_either_3","A28XX39V2XCXJE","either","3","473","","","","","","","0","0","1","0.620750855","","0.6","0.8","0.2","0.4","","","","","0.620750855","0.6531454011","0.4522294324","0.2870858596","","","","","","","","72","H","0","img/none_selected.jpg","","216","main_expt",""
"","bandit","296","894609","0.0-257.0-0.0","95925149","wem/bandit_either_3","A28XX39V2XCXJE","either","3","535","","","","","","","0","0","1","0.2877345098","","0.6","0.8","0.2","0.4","","","","","0.4812239037","0.6459690495","0.4141575353","0.2877345098","","","","","","","","76","L","3","","","217","main_expt",""
"","bandit","297","896542","0.0-258.0-0.0","95925149","wem/bandit_either_3","A28XX39V2XCXJE","either","3","417","","","","","","","0","0","1","0.3608492067","","0.6","0.8","0.2","0.4","","","","","0.4028497994","0.6679944541","0.3009722504","0.3608492067","","","","","","","","76","L","3","","","218","main_expt",""
"","bandit","298","898591","0.0-259.0-0.0","95925149","wem/bandit_either_3","A28XX39V2XCXJE","either","3","531","","","","","","","1","0","0","0.4380407461","","0.6","0.8","0.2","0.4","","","","","0.4441021312","0.7159195147","0.2706893249","0.4380407461","","","","","","","","76","L","3","","","219","main_expt",""
"","bandit","299","900648","0.0-260.0-0.0","95925149","wem/bandit_either_3","A28XX39V2XCXJE","either","3","544","","","","","","","1","0","0","0.4769938592","","0.6","0.8","0.2","0.4","","","","","0.4867825248","0.6874484601","0.3821277721","0.4769938592","","","","","","","","76","L","3","","","220","main_expt",""
"","bandit","300","902619","0.0-261.0-0.0","95925149","wem/bandit_either_3","A28XX39V2XCXJE","either","3","460","","","","","","","0","0","1","","0.4612627877","0.6","0.8","0.2","0.4","0.5428062785","0.6528128226","0.4534214389","0.4612627877","","","","","","","","","","","","76","L","3","","","221","main_expt",""
"","bandit","301","904508","0.0-262.0-0.0","95925149","wem/bandit_either_3","A28XX39V2XCXJE","either","3","371","","","","","","","0","1","0","","0.4192901336","0.6","0.8","0.2","0.4","0.5993321864","0.6836467719","0.6049712458","0.4192901336","","","","","","","","","","","","76","L","3","","","222","main_expt",""
"","bandit","302","906650","0.0-263.0-0.0","95925149","wem/bandit_either_3","A28XX39V2XCXJE","either","3","624","","","","","","","0","0","1","0.5559965486","","0.6","0.8","0.2","0.4","","","","","0.4920604154","0.7820879334","0.6389506418","0.5559965486","","","","","","","","76","L","3","","","223","main_expt",""
"","bandit","303","908594","0.0-264.0-0.0","95925149","wem/bandit_either_3","A28XX39V2XCXJE","either","3","430","","","","","","","0","0","1","","0.6687933923","0.6","0.8","0.2","0.4","0.5344282052","0.763226653","0.6677375732","0.6687933923","","","","","","","","","","","","76","L","3","","","224","main_expt",""
"","bandit","304","910519","0.0-265.0-0.0","95925149","wem/bandit_either_3","A28XX39V2XCXJE","either","3","411","","","","","","","0","0","1","","0.5954484576","0.6","0.8","0.2","0.4","0.5583452501","0.6931961842","0.7706853934","0.5954484576","","","","","","","","","","","","76","L","3","","","225","main_expt",""
"","bandit","305","912862","0.0-266.0-0.0","95925149","wem/bandit_either_3","A28XX39V2XCXJE","either","3","828","","","","","","","0","1","0","","0.7624197083","0.6","0.8","0.2","0.4","0.5126042404","0.6633974694","0.7624197083","0.6152447968","","","","","","","","","","","","75","K","2","","","226","main_expt",""
"","bandit","306","914866","0.0-267.0-0.0","95925149","wem/bandit_either_3","A28XX39V2XCXJE","either","3","497","","","","","","","0","1","0","","0.7287840805","0.6","0.8","0.2","0.4","0.5720595628","0.6567175756","0.7287840805","0.6597553912","","","","","","","","","","","","75","K","2","","","227","main_expt",""
"","bandit","307","917128","0.0-268.0-0.0","95925149","wem/bandit_either_3","A28XX39V2XCXJE","either","3","753","","","","","","","0","0","1","","0.7993891034","0.6","0.8","0.2","0.4","0.6134710885","0.6052730858","0.7993891034","0.594895186","","","","","","","","","","","","75","K","2","","","228","main_expt",""
"","bandit","308","919158","0.0-269.0-0.0","95925149","wem/bandit_either_3","A28XX39V2XCXJE","either","3","514","","","","","","","0","1","0","","0.8374027748","0.6","0.8","0.2","0.4","0.5669106804","0.5548990383","0.8374027748","0.5722559027","","","","","","","","","","","","75","K","2","","","229","main_expt",""
"","bandit","309","921162","0.0-270.0-0.0","95925149","wem/bandit_either_3","A28XX39V2XCXJE","either","3","494","","","","","","","0","1","0","","0.8414873787","0.6","0.8","0.2","0.4","0.6286782819","0.6017114108","0.8414873787","0.5409090622","","","","","","","","","","","","75","K","2","","","230","main_expt",""
"","bandit","310","923241","0.0-271.0-0.0","95925149","wem/bandit_either_3","A28XX39V2XCXJE","either","3","563","","","","","","","0","1","0","","0.8531648874","0.6","0.8","0.2","0.4","0.5594948871","0.5525336349","0.8531648874","0.518727512","","","","","","","","","","","","75","K","2","","","231","main_expt",""
"","bandit","311","925298","0.0-272.0-0.0","95925149","wem/bandit_either_3","A28XX39V2XCXJE","either","3","538","","","","","","","0","0","1","0.8813812612","","0.6","0.8","0.2","0.4","","","","","0.5817998964","0.4493361955","0.8813812612","0.5200298571","","","","","","","","75","K","2","","","232","main_expt",""
"","bandit","312","927273","0.0-273.0-0.0","95925149","wem/bandit_either_3","A28XX39V2XCXJE","either","3","457","","","","","","","1","0","0","0.8916766345","","0.6","0.8","0.2","0.4","","","","","0.5971875981","0.5280832246","0.8916766345","0.4564343731","","","","","","","","75","K","2","","","233","main_expt",""
"","bandit","313","929317","0.0-274.0-0.0","95925149","wem/bandit_either_3","A28XX39V2XCXJE","either","3","537","","","","","","","0","0","1","","0.842820862","0.6","0.8","0.2","0.4","0.5227237997","0.6814540918","0.842820862","0.4168065644","","","","","","","","","","","","75","K","2","","","234","main_expt",""
"","bandit","314","931233","0.0-275.0-0.0","95925149","wem/bandit_either_3","A28XX39V2XCXJE","either","3","397","","","","","","","0","0","1","0.7856269381","","0.6","0.8","0.2","0.4","","","","","0.6231997156","0.5518959403","0.7856269381","0.4340770274","","","","","","","","75","K","2","","","235","main_expt",""
"","bandit","315","933128","0.0-276.0-0.0","95925149","wem/bandit_either_3","A28XX39V2XCXJE","either","3","380","","","","","","","0","1","0","","0.8092971262","0.6","0.8","0.2","0.4","0.558272317","0.4965619817","0.8092971262","0.4489205242","","","","","","","","","","","","75","K","2","","","236","main_expt",""
"","bandit","316","935168","0.0-277.0-0.0","95925149","wem/bandit_either_3","A28XX39V2XCXJE","either","3","523","","","","","","","0","1","0","","0.8125536838","0.6","0.8","0.2","0.4","0.6118965497","0.4762879104","0.8125536838","0.4838648791","","","","","","","","","","","","75","K","2","","","237","main_expt",""
"","bandit","317","937173","0.0-278.0-0.0","95925149","wem/bandit_either_3","A28XX39V2XCXJE","either","3","487","","","","","","","0","1","0","","0.8684257659","0.6","0.8","0.2","0.4","0.7415542647","0.4991976808","0.8684257659","0.4615645545","","","","","","","","","","","","75","K","2","","","238","main_expt",""
"","bandit","318","939538","0.0-279.0-0.0","95925149","wem/bandit_either_3","A28XX39V2XCXJE","either","3","849","","","","","","","1","0","0","0.8891050988","","0.6","0.8","0.2","0.4","","","","","0.794517608","0.4627972202","0.8891050988","0.4263497721","","","","","","","","75","K","2","","","239","main_expt",""
"","bandit","319","941513","0.0-280.0-0.0","95925149","wem/bandit_either_3","A28XX39V2XCXJE","either","3","460","","","","","","","0","1","0","","0.8983693474","0.6","0.8","0.2","0.4","0.7966429163","0.484486763","0.8983693474","0.4372282776","","","","","","","","","","","","75","K","2","","","240","main_expt",""
"","bandit","320","943539","0.0-281.0-0.0","95925149","wem/bandit_either_3","A28XX39V2XCXJE","either","3","517","","","","","","","0","1","0","","0.8608109038","0.6","0.8","0.2","0.4","0.7827696357","0.3450886106","0.8608109038","0.5558093781","","","","","","","","","","","","75","K","2","","","241","main_expt",""
"","bandit","321","945577","0.0-282.0-0.0","95925149","wem/bandit_either_3","A28XX39V2XCXJE","either","3","520","","","","","","","0","1","0","","0.8807376199","0.6","0.8","0.2","0.4","0.8077769827","0.4066884652","0.8807376199","0.654661817","","","","","","","","","","","","75","K","2","","","242","main_expt",""
"","bandit","322","947634","0.0-283.0-0.0","95925149","wem/bandit_either_3","A28XX39V2XCXJE","either","3","540","","","","","","","0","0","1","","0.8782163565","0.6","0.8","0.2","0.4","0.7680675523","0.3574054959","0.8782163565","0.5869565726","","","","","","","","","","","","75","K","2","","","243","main_expt",""
"","bandit","323","949676","0.0-284.0-0.0","95925149","wem/bandit_either_3","A28XX39V2XCXJE","either","3","527","","","","","","","0","1","0","","0.8691088863","0.6","0.8","0.2","0.4","0.6802465609","0.4200458239","0.8691088863","0.6282978891","","","","","","","","","","","","75","K","2","","","244","main_expt",""
"","bandit","324","951845","0.0-285.0-0.0","95925149","wem/bandit_either_3","A28XX39V2XCXJE","either","3","653","","","","","","","0","1","0","","0.8516976639","0.6","0.8","0.2","0.4","0.6110509309","0.3587254574","0.8516976639","0.5918678021","","","","","","","","","","","","75","K","2","","","245","main_expt",""
"","bandit","325","954018","0.0-286.0-0.0","95925149","wem/bandit_either_3","A28XX39V2XCXJE","either","3","662","","","","","","","0","1","0","","0.9024239937","0.6","0.8","0.2","0.4","0.6490463127","0.3469794694","0.9024239937","0.5768832148","","","","","","","","","","","","75","K","2","","","246","main_expt",""
