"consent","trial_type","trial_index","time_elapsed","internal_node_id","subjID","study","MID","cond","drift","rt","responses","key_press","expt_phase","like","value","connected","gems","bombs","no_reward","GemPrChosen","BombPrChosen","GainOverPainPr_0","GainOverPainPr_1","GainOverPainPr_2","GainOverPainPr_3","LosePr_0","LosePr_1","LosePr_2","LosePr_3","WinPr_0","WinPr_1","WinPr_2","WinPr_3","Q0","Q1","Q2","gender","age","ethnicity","target","respCharCode","respKey","respChoiceNum","respChoice","practice","trial_counter","trial_label","button_pressed"
"INL_behavioral_consent_30min_online.html","consent","0","7708","0.0-0.0","96961713","wem/bandit_either_3","A240OTT1T85UGT","either","3","","","","","","","","","","","","","","","","","","","","","","","","","","","","","","","","","","","","","","",""
"","survey-text","1","19261","0.0-1.0","96961713","wem/bandit_either_3","A240OTT1T85UGT","either","3","10545","{""Q0"":""A240OTT1T85UGT""}","","","","","","","","","","","","","","","","","","","","","","","","","","","","","","","","","","","","",""
"","text","2","29882","0.0-2.0","96961713","wem/bandit_either_3","A240OTT1T85UGT","either","3","9602","","32","","","","","","","","","","","","","","","","","","","","","","","","","","","","","","","","","","","",""
"","text","3","36665","0.0-3.0","96961713","wem/bandit_either_3","A240OTT1T85UGT","either","3","6773","","32","","","","","","","","","","","","","","","","","","","","","","","","","","","","","","","","","","","",""
"","text","4","54739","0.0-4.0","96961713","wem/bandit_either_3","A240OTT1T85UGT","either","3","18064","","32","","","","","","","","","","","","","","","","","","","","","","","","","","","","","","","","","","","",""
"","text","5","68931","0.0-5.0","96961713","wem/bandit_either_3","A240OTT1T85UGT","either","3","14191","","32","","","","","","","","","","","","","","","","","","","","","","","","","","","","","","","","","","","",""
"","text","6","85522","0.0-6.0","96961713","wem/bandit_either_3","A240OTT1T85UGT","either","3","16590","","32","","","","","","","","","","","","","","","","","","","","","","","","","","","","","","","","","","","",""
"","text","7","96034","0.0-7.0","96961713","wem/bandit_either_3","A240OTT1T85UGT","either","3","10511","","32","","","","","","","","","","","","","","","","","","","","","","","","","","","","","","","","","","","",""
"","text","8","100503","0.0-8.0","96961713","wem/bandit_either_3","A240OTT1T85UGT","either","3","4456","","32","","","","","","","","","","","","","","","","","","","","","","","","","","","","","","","","","","","",""
"","identification","9","107456","0.0-9.0-0.0","96961713","wem/bandit_either_3","A240OTT1T85UGT","either","3","6943","","","","5","5","5","","","","","","","","","","","","","","","","","","","","","","","","the village of Zur","","","","","","","",""
"","identification","10","111436","0.0-9.0-1.0","96961713","wem/bandit_either_3","A240OTT1T85UGT","either","3","2968","","","","1","1","1","","","","","","","","","","","","","","","","","","","","","","","","the village of Nyx","","","","","","","",""
"","text","11","122352","0.0-10.0","96961713","wem/bandit_either_3","A240OTT1T85UGT","either","3","9907","","32","","","","","","","","","","","","","","","","","","","","","","","","","","","","","","","","","","","",""
"","text","12","123530","0.0-11.0","96961713","wem/bandit_either_3","A240OTT1T85UGT","either","3","1173","","32","","","","","","","","","","","","","","","","","","","","","","","","","","","","","","","","","","","",""
"","text","13","125621","0.0-12.0","96961713","wem/bandit_either_3","A240OTT1T85UGT","either","3","2079","","32","","","","","","","","","","","","","","","","","","","","","","","","","","","","","","","","","","","",""
"","text","14","128811","0.0-13.0","96961713","wem/bandit_either_3","A240OTT1T85UGT","either","3","3190","","32","","","","","","","","","","","","","","","","","","","","","","","","","","","","","","","","","","","",""
"","bandit","15","133846","0.0-14.0-0.0","96961713","wem/bandit_either_3","A240OTT1T85UGT","either","3","3529","","","","","","","0","0","1","0","0","","","","","0","","","","0","","","","","","","","","","","74","J","0","img/none_selected_demo.jpg","true","0","",""
"","bandit","16","137497","0.0-15.0-0.0","96961713","wem/bandit_either_3","A240OTT1T85UGT","either","3","2123","","","","","","","0","0","1","0","0","","","","","0","","","","0","","","","","","","","","","","75","K","0","img/none_selected_demo.jpg","true","0","",""
"","text","17","145990","0.0-16.0","96961713","wem/bandit_either_3","A240OTT1T85UGT","either","3","8493","","32","","","","","","","","","","","","","","","","","","","","","","","","","","","","","","","","","","","",""
"","text","18","157880","0.0-17.0","96961713","wem/bandit_either_3","A240OTT1T85UGT","either","3","11889","","32","","","","","","","","","","","","","","","","","","","","","","","","","","","","","","","","","","","",""
"","text","19","165750","0.0-18.0","96961713","wem/bandit_either_3","A240OTT1T85UGT","either","3","7857","","32","","","","","","","","","","","","","","","","","","","","","","","","","","","","","","","","","","","",""
"","text","20","169724","0.0-19.0","96961713","wem/bandit_either_3","A240OTT1T85UGT","either","3","3967","","32","","","","","","","","","","","","","","","","","","","","","","","","","","","","","","","","","","","",""
"","bandit","21","171813","0.0-20.0-0.0","96961713","wem/bandit_either_3","A240OTT1T85UGT","either","3","569","","","","","","","1","0","0","0.8","","0.5","0.5","","","","","","","0.8","0.2","","","","","","","","","","74","J","0","img/none_selected_demo.jpg","true","0","80_20_practice",""
"","bandit","22","173738","0.0-20.0-1.0","96961713","wem/bandit_either_3","A240OTT1T85UGT","either","3","412","","","","","","","1","0","0","0.8","","0.5","0.5","","","","","","","0.8","0.2","","","","","","","","","","74","J","0","img/none_selected_demo.jpg","true","0","80_20_practice",""
"","bandit","23","175569","0.0-20.0-2.0","96961713","wem/bandit_either_3","A240OTT1T85UGT","either","3","299","","","","","","","1","0","0","0.8","","0.5","0.5","","","","","","","0.8","0.2","","","","","","","","","","74","J","0","img/none_selected_demo.jpg","true","0","80_20_practice",""
"","bandit","24","177370","0.0-20.0-3.0","96961713","wem/bandit_either_3","A240OTT1T85UGT","either","3","283","","","","","","","0","0","1","","0.8","0.5","0.5","","","0.8","0.2","","","","","","","","","","","","","","74","J","0","img/none_selected_demo.jpg","true","0","80_20_practice",""
"","bandit","25","179333","0.0-20.0-4.0","96961713","wem/bandit_either_3","A240OTT1T85UGT","either","3","455","","","","","","","1","0","0","0.8","","0.5","0.5","","","","","","","0.8","0.2","","","","","","","","","","74","J","0","img/none_selected_demo.jpg","true","0","80_20_practice",""
"","bandit","26","181248","0.0-20.0-5.0","96961713","wem/bandit_either_3","A240OTT1T85UGT","either","3","388","","","","","","","0","1","0","","0.8","0.5","0.5","","","0.8","0.2","","","","","","","","","","","","","","74","J","0","img/none_selected_demo.jpg","true","0","80_20_practice",""
"","bandit","27","183255","0.0-20.0-6.0","96961713","wem/bandit_either_3","A240OTT1T85UGT","either","3","496","","","","","","","0","1","0","","0.8","0.5","0.5","","","0.8","0.2","","","","","","","","","","","","","","74","J","0","img/none_selected_demo.jpg","true","0","80_20_practice",""
"","bandit","28","185451","0.0-20.0-7.0","96961713","wem/bandit_either_3","A240OTT1T85UGT","either","3","685","","","","","","","0","1","0","","0.8","0.5","0.5","","","0.8","0.2","","","","","","","","","","","","","","74","J","0","img/none_selected_demo.jpg","true","0","80_20_practice",""
"","bandit","29","187221","0.0-20.0-8.0","96961713","wem/bandit_either_3","A240OTT1T85UGT","either","3","252","","","","","","","0","1","0","","0.2","0.5","0.5","","","0.8","0.2","","","","","","","","","","","","","","75","K","1","","true","0","80_20_practice",""
"","bandit","30","188967","0.0-20.0-9.0","96961713","wem/bandit_either_3","A240OTT1T85UGT","either","3","239","","","","","","","0","0","1","0.2","","0.5","0.5","","","","","","","0.8","0.2","","","","","","","","","","75","K","1","","true","0","80_20_practice",""
"","bandit","31","190899","0.0-20.0-10.0","96961713","wem/bandit_either_3","A240OTT1T85UGT","either","3","417","","","","","","","0","1","0","","0.2","0.5","0.5","","","0.8","0.2","","","","","","","","","","","","","","75","K","1","","true","0","80_20_practice",""
"","bandit","32","192638","0.0-20.0-11.0","96961713","wem/bandit_either_3","A240OTT1T85UGT","either","3","210","","","","","","","0","1","0","","0.8","0.5","0.5","","","0.8","0.2","","","","","","","","","","","","","","74","J","0","img/none_selected_demo.jpg","true","0","80_20_practice",""
"","bandit","33","194205","0.0-20.0-12.0","96961713","wem/bandit_either_3","A240OTT1T85UGT","either","3","52","","","","","","","0","0","1","0.2","","0.5","0.5","","","","","","","0.8","0.2","","","","","","","","","","75","K","1","","true","0","80_20_practice",""
"","bandit","34","195870","0.0-20.0-13.0","96961713","wem/bandit_either_3","A240OTT1T85UGT","either","3","162","","","","","","","0","0","1","","0.2","0.5","0.5","","","0.8","0.2","","","","","","","","","","","","","","75","K","1","","true","0","80_20_practice",""
"","bandit","35","197599","0.0-20.0-14.0","96961713","wem/bandit_either_3","A240OTT1T85UGT","either","3","205","","","","","","","0","0","1","","0.2","0.5","0.5","","","0.8","0.2","","","","","","","","","","","","","","75","K","1","","true","0","80_20_practice",""
"","bandit","36","199167","0.0-20.0-15.0","96961713","wem/bandit_either_3","A240OTT1T85UGT","either","3","60","","","","","","","0","0","1","0.2","","0.5","0.5","","","","","","","0.8","0.2","","","","","","","","","","75","K","1","","true","0","80_20_practice",""
"","bandit","37","200771","0.0-20.0-16.0","96961713","wem/bandit_either_3","A240OTT1T85UGT","either","3","84","","","","","","","1","0","0","0.8","","0.5","0.5","","","","","","","0.8","0.2","","","","","","","","","","74","J","0","img/none_selected_demo.jpg","true","0","80_20_practice",""
"","bandit","38","202524","0.0-20.0-17.0","96961713","wem/bandit_either_3","A240OTT1T85UGT","either","3","242","","","","","","","1","0","0","0.8","","0.5","0.5","","","","","","","0.8","0.2","","","","","","","","","","74","J","0","img/none_selected_demo.jpg","true","0","80_20_practice",""
"","bandit","39","204122","0.0-20.0-18.0","96961713","wem/bandit_either_3","A240OTT1T85UGT","either","3","83","","","","","","","0","0","1","","0.8","0.5","0.5","","","0.8","0.2","","","","","","","","","","","","","","74","J","0","img/none_selected_demo.jpg","true","0","80_20_practice",""
"","bandit","40","205632","0.0-20.0-19.0","96961713","wem/bandit_either_3","A240OTT1T85UGT","either","3","5","","","","","","","1","0","0","0.8","","0.5","0.5","","","","","","","0.8","0.2","","","","","","","","","","74","J","0","img/none_selected_demo.jpg","true","0","80_20_practice",""
"","text","41","208680","0.0-21.0","96961713","wem/bandit_either_3","A240OTT1T85UGT","either","3","3033","","32","","","","","","","","","","","","","","","","","","","","","","","","","","","","","","","","","","","",""
"","bandit","42","210725","0.0-22.0-0.0","96961713","wem/bandit_either_3","A240OTT1T85UGT","either","3","537","","","","","","","1","0","0","1","0","","","","","0","1","","","1","0","","","","","","","","","","74","J","0","img/none_selected_demo.jpg","true","0","",""
"","text","43","219118","0.0-23.0","96961713","wem/bandit_either_3","A240OTT1T85UGT","either","3","8392","","32","","","","","","","","","","","","","","","","","","","","","","","","","","","","","","","","","","","",""
"","text","44","221398","0.0-24.0","96961713","wem/bandit_either_3","A240OTT1T85UGT","either","3","2278","","32","","","","","","","","","","","","","","","","","","","","","","","","","","","","","","","","","","","",""
"","text","45","223298","0.0-25.0","96961713","wem/bandit_either_3","A240OTT1T85UGT","either","3","1885","","32","","","","","","","","","","","","","","","","","","","","","","","","","","","","","","","","","","","",""
"","text","46","226611","0.0-26.0","96961713","wem/bandit_either_3","A240OTT1T85UGT","either","3","3310","","32","","","","","","","","","","","","","","","","","","","","","","","","","","","","","","","","","","","",""
"","text","47","230567","0.0-27.0","96961713","wem/bandit_either_3","A240OTT1T85UGT","either","3","3956","","32","","","","","","","","","","","","","","","","","","","","","","","","","","","","","","","","","","","",""
"","text","48","233833","0.0-28.0","96961713","wem/bandit_either_3","A240OTT1T85UGT","either","3","3258","","32","","","","","","","","","","","","","","","","","","","","","","","","","","","","","","","","","","","",""
"","text","49","237606","0.0-29.0","96961713","wem/bandit_either_3","A240OTT1T85UGT","either","3","3772","","32","","","","","","","","","","","","","","","","","","","","","","","","","","","","","","","","","","","",""
"","text","50","242834","0.0-30.0","96961713","wem/bandit_either_3","A240OTT1T85UGT","either","3","5213","","32","","","","","","","","","","","","","","","","","","","","","","","","","","","","","","","","","","","",""
"","text","51","249177","0.0-31.0","96961713","wem/bandit_either_3","A240OTT1T85UGT","either","3","6336","","32","","","","","","","","","","","","","","","","","","","","","","","","","","","","","","","","","","","",""
"","text","52","251443","0.0-32.0","96961713","wem/bandit_either_3","A240OTT1T85UGT","either","3","2265","","32","","","","","","","","","","","","","","","","","","","","","","","","","","","","","","","","","","","",""
"","text","53","255806","0.0-33.0","96961713","wem/bandit_either_3","A240OTT1T85UGT","either","3","4354","","32","","","","","","","","","","","","","","","","","","","","","","","","","","","","","","","","","","","",""
"","bandit","54","257861","0.0-34.0-0.0","96961713","wem/bandit_either_3","A240OTT1T85UGT","either","3","551","","","","","","","1","0","0","0.8","","0.5","0.5","0.5","0.5","","","","","0.8","0.2","0.6","0.2","","","","","","","","72","H","0","img/none_selected.jpg","true","0","full_practice",""
"","bandit","55","259473","0.0-34.0-1.0","96961713","wem/bandit_either_3","A240OTT1T85UGT","either","3","100","","","","","","","0","1","0","","0.8","0.5","0.5","0.5","0.5","0.8","0.2","0.6","0.2","","","","","","","","","","","","72","H","0","img/none_selected.jpg","true","0","full_practice",""
"","bandit","56","261063","0.0-34.0-2.0","96961713","wem/bandit_either_3","A240OTT1T85UGT","either","3","62","","","","","","","1","0","0","0.8","","0.5","0.5","0.5","0.5","","","","","0.8","0.2","0.6","0.2","","","","","","","","72","H","0","img/none_selected.jpg","true","0","full_practice",""
"","bandit","57","262672","0.0-34.0-3.0","96961713","wem/bandit_either_3","A240OTT1T85UGT","either","3","104","","","","","","","0","1","0","","0.8","0.5","0.5","0.5","0.5","0.8","0.2","0.6","0.2","","","","","","","","","","","","72","H","0","img/none_selected.jpg","true","0","full_practice",""
"","bandit","58","264224","0.0-34.0-4.0","96961713","wem/bandit_either_3","A240OTT1T85UGT","either","3","48","","","","","","","0","0","1","","0.8","0.5","0.5","0.5","0.5","0.8","0.2","0.6","0.2","","","","","","","","","","","","72","H","0","img/none_selected.jpg","true","0","full_practice",""
"","bandit","59","265737","0.0-34.0-5.0","96961713","wem/bandit_either_3","A240OTT1T85UGT","either","3","9","","","","","","","1","0","0","0.8","","0.5","0.5","0.5","0.5","","","","","0.8","0.2","0.6","0.2","","","","","","","","72","H","0","img/none_selected.jpg","true","0","full_practice",""
"","bandit","60","267472","0.0-34.0-6.0","96961713","wem/bandit_either_3","A240OTT1T85UGT","either","3","220","","","","","","","1","0","0","0.8","","0.5","0.5","0.5","0.5","","","","","0.8","0.2","0.6","0.2","","","","","","","","72","H","0","img/none_selected.jpg","true","0","full_practice",""
"","bandit","61","269151","0.0-34.0-7.0","96961713","wem/bandit_either_3","A240OTT1T85UGT","either","3","171","","","","","","","1","0","0","0.8","","0.5","0.5","0.5","0.5","","","","","0.8","0.2","0.6","0.2","","","","","","","","72","H","0","img/none_selected.jpg","true","0","full_practice",""
"","bandit","62","270698","0.0-34.0-8.0","96961713","wem/bandit_either_3","A240OTT1T85UGT","either","3","30","","","","","","","0","0","1","","0.8","0.5","0.5","0.5","0.5","0.8","0.2","0.6","0.2","","","","","","","","","","","","72","H","0","img/none_selected.jpg","true","0","full_practice",""
"","bandit","63","272323","0.0-34.0-9.0","96961713","wem/bandit_either_3","A240OTT1T85UGT","either","3","118","","","","","","","0","1","0","","0.8","0.5","0.5","0.5","0.5","0.8","0.2","0.6","0.2","","","","","","","","","","","","72","H","0","img/none_selected.jpg","true","0","full_practice",""
"","bandit","64","273851","0.0-34.0-10.0","96961713","wem/bandit_either_3","A240OTT1T85UGT","either","3","23","","","","","","","1","0","0","0.8","","0.5","0.5","0.5","0.5","","","","","0.8","0.2","0.6","0.2","","","","","","","","72","H","0","img/none_selected.jpg","true","0","full_practice",""
"","bandit","65","275449","0.0-34.0-11.0","96961713","wem/bandit_either_3","A240OTT1T85UGT","either","3","86","","","","","","","0","1","0","","0.8","0.5","0.5","0.5","0.5","0.8","0.2","0.6","0.2","","","","","","","","","","","","72","H","0","img/none_selected.jpg","true","0","full_practice",""
"","bandit","66","277082","0.0-34.0-12.0","96961713","wem/bandit_either_3","A240OTT1T85UGT","either","3","126","","","","","","","0","1","0","","0.8","0.5","0.5","0.5","0.5","0.8","0.2","0.6","0.2","","","","","","","","","","","","72","H","0","img/none_selected.jpg","true","0","full_practice",""
"","bandit","67","278739","0.0-34.0-13.0","96961713","wem/bandit_either_3","A240OTT1T85UGT","either","3","147","","","","","","","0","0","1","0.8","","0.5","0.5","0.5","0.5","","","","","0.8","0.2","0.6","0.2","","","","","","","","72","H","0","img/none_selected.jpg","true","0","full_practice",""
"","bandit","68","280318","0.0-34.0-14.0","96961713","wem/bandit_either_3","A240OTT1T85UGT","either","3","54","","","","","","","1","0","0","0.8","","0.5","0.5","0.5","0.5","","","","","0.8","0.2","0.6","0.2","","","","","","","","72","H","0","img/none_selected.jpg","true","0","full_practice",""
"","bandit","69","282150","0.0-34.0-15.0","96961713","wem/bandit_either_3","A240OTT1T85UGT","either","3","312","","","","","","","0","0","1","","0.2","0.5","0.5","0.5","0.5","0.8","0.2","0.6","0.2","","","","","","","","","","","","74","J","1","","true","0","full_practice",""
"","bandit","70","283809","0.0-34.0-16.0","96961713","wem/bandit_either_3","A240OTT1T85UGT","either","3","151","","","","","","","0","0","1","0.2","","0.5","0.5","0.5","0.5","","","","","0.8","0.2","0.6","0.2","","","","","","","","74","J","1","","true","0","full_practice",""
"","bandit","71","285742","0.0-34.0-17.0","96961713","wem/bandit_either_3","A240OTT1T85UGT","either","3","414","","","","","","","0","1","0","","0.6","0.5","0.5","0.5","0.5","0.8","0.2","0.6","0.2","","","","","","","","","","","","75","K","2","","true","0","full_practice",""
"","bandit","72","287850","0.0-34.0-18.0","96961713","wem/bandit_either_3","A240OTT1T85UGT","either","3","580","","","","","","","0","0","1","","0.2","0.5","0.5","0.5","0.5","0.8","0.2","0.6","0.2","","","","","","","","","","","","76","L","3","","true","0","full_practice",""
"","bandit","73","289390","0.0-34.0-19.0","96961713","wem/bandit_either_3","A240OTT1T85UGT","either","3","32","","","","","","","0","0","1","0.2","","0.5","0.5","0.5","0.5","","","","","0.8","0.2","0.6","0.2","","","","","","","","76","L","3","","true","0","full_practice",""
"","text","74","291823","0.0-35.0","96961713","wem/bandit_either_3","A240OTT1T85UGT","either","3","2429","","32","","","","","","","","","","","","","","","","","","","","","","","","","","","","","","","","","","","",""
"","text","75","307602","0.0-36.0","96961713","wem/bandit_either_3","A240OTT1T85UGT","either","3","14772","","32","","","","","","","","","","","","","","","","","","","","","","","","","","","","","","","","","","","",""
"","text","76","312446","0.0-37.0","96961713","wem/bandit_either_3","A240OTT1T85UGT","either","3","4835","","32","","","","","","","","","","","","","","","","","","","","","","","","","","","","","","","","","","","",""
"","text","77","318445","0.0-38.0","96961713","wem/bandit_either_3","A240OTT1T85UGT","either","3","5985","","32","","","","","","","","","","","","","","","","","","","","","","","","","","","","","","","","","","","",""
"","text","78","326576","0.0-39.0","96961713","wem/bandit_either_3","A240OTT1T85UGT","either","3","8129","","32","","","","","","","","","","","","","","","","","","","","","","","","","","","","","","","","","","","",""
"","text","79","334140","0.0-40.0","96961713","wem/bandit_either_3","A240OTT1T85UGT","either","3","7562","","32","","","","","","","","","","","","","","","","","","","","","","","","","","","","","","","","","","","",""
"","bandit","80","337379","0.0-41.0-0.0","96961713","wem/bandit_either_3","A240OTT1T85UGT","either","3","1726","","","","","","","0","0","1","","0.1387034319","0.2","0.6","0.8","0.4","0.1387034319","0.6473934842","0.4261870849","0.6494041588","","","","","","","","","","","","72","H","0","img/none_selected.jpg","","1","main_expt",""
"","bandit","81","339254","0.0-42.0-0.0","96961713","wem/bandit_either_3","A240OTT1T85UGT","either","3","356","","","","","","","0","0","1","0.5221866694","","0.2","0.6","0.8","0.4","","","","","0.2166337036","0.5221866694","0.3223101542","0.7608835745","","","","","","","","74","J","1","","","2","main_expt",""
"","bandit","82","340976","0.0-43.0-0.0","96961713","wem/bandit_either_3","A240OTT1T85UGT","either","3","211","","","","","","","0","0","1","0.2541217019","","0.2","0.6","0.8","0.4","","","","","0.3253899216","0.5356292978","0.2541217019","0.7745567172","","","","","","","","75","K","2","","","3","main_expt",""
"","bandit","83","342700","0.0-44.0-0.0","96961713","wem/bandit_either_3","A240OTT1T85UGT","either","3","193","","","","","","","1","0","0","0.8315703218","","0.2","0.6","0.8","0.4","","","","","0.3003293127","0.5154592071","0.2272043942","0.8315703218","","","","","","","","76","L","3","","","4","main_expt",""
"","bandit","84","344346","0.0-45.0-0.0","96961713","wem/bandit_either_3","A240OTT1T85UGT","either","3","142","","","","","","","0","1","0","","0.8380789219","0.2","0.6","0.8","0.4","0.3839660868","0.4578896037","0.2967729676","0.8380789219","","","","","","","","","","","","76","L","3","","","5","main_expt",""
"","bandit","85","346004","0.0-46.0-0.0","96961713","wem/bandit_either_3","A240OTT1T85UGT","either","3","138","","","","","","","0","1","0","","0.8233568153","0.2","0.6","0.8","0.4","0.3833463511","0.4825789634","0.3211998527","0.8233568153","","","","","","","","","","","","76","L","3","","","6","main_expt",""
"","bandit","86","347984","0.0-47.0-0.0","96961713","wem/bandit_either_3","A240OTT1T85UGT","either","3","466","","","","","","","0","1","0","","0.8672840292","0.2","0.6","0.8","0.4","0.3173395401","0.4013658759","0.4190649117","0.8672840292","","","","","","","","","","","","76","L","3","","","7","main_expt",""
"","bandit","87","349636","0.0-48.0-0.0","96961713","wem/bandit_either_3","A240OTT1T85UGT","either","3","133","","","","","","","1","0","0","0.5253498774","","0.2","0.6","0.8","0.4","","","","","0.3265190876","0.3721769634","0.5253498774","0.7921451217","","","","","","","","75","K","2","","","8","main_expt",""
"","bandit","88","351241","0.0-49.0-0.0","96961713","wem/bandit_either_3","A240OTT1T85UGT","either","3","101","","","","","","","1","0","0","0.5552176016","","0.2","0.6","0.8","0.4","","","","","0.4229840653","0.3934089605","0.5552176016","0.7826569337","","","","","","","","75","K","2","","","9","main_expt",""
"","bandit","89","352796","0.0-50.0-0.0","96961713","wem/bandit_either_3","A240OTT1T85UGT","either","3","40","","","","","","","0","0","1","0.654745146","","0.2","0.6","0.8","0.4","","","","","0.5107168356","0.3360942297","0.654745146","0.7150392401","","","","","","","","75","K","2","","","10","main_expt",""
"","bandit","90","354306","0.0-51.0-0.0","96961713","wem/bandit_either_3","A240OTT1T85UGT","either","3","0","","","","","","","1","0","0","0.6089063278","","0.2","0.6","0.8","0.4","","","","","0.4383577931","0.4969537907","0.6089063278","0.6906605055","","","","","","","","75","K","2","","","11","main_expt",""
"","bandit","91","355884","0.0-52.0-0.0","96961713","wem/bandit_either_3","A240OTT1T85UGT","either","3","65","","","","","","","0","1","0","","0.559155858","0.2","0.6","0.8","0.4","0.5487148549","0.4760264401","0.559155858","0.6725575113","","","","","","","","","","","","75","K","2","","","12","main_expt",""
"","bandit","92","357636","0.0-53.0-0.0","96961713","wem/bandit_either_3","A240OTT1T85UGT","either","3","221","","","","","","","1","0","0","0.6464491645","","0.2","0.6","0.8","0.4","","","","","0.7407599438","0.4008761295","0.6464491645","0.7404599176","","","","","","","","75","K","2","","","13","main_expt",""
"","bandit","93","359464","0.0-54.0-0.0","96961713","wem/bandit_either_3","A240OTT1T85UGT","either","3","297","","","","","","","1","0","0","0.6936958995","","0.2","0.6","0.8","0.4","","","","","0.8307131687","0.358486362","0.6936958995","0.6751607758","","","","","","","","75","K","2","","","14","main_expt",""
"","bandit","94","361242","0.0-55.0-0.0","96961713","wem/bandit_either_3","A240OTT1T85UGT","either","3","255","","","","","","","1","0","0","0.731471075","","0.2","0.6","0.8","0.4","","","","","0.8114394421","0.395258373","0.731471075","0.6115440925","","","","","","","","75","K","2","","","15","main_expt",""
"","bandit","95","362868","0.0-56.0-0.0","96961713","wem/bandit_either_3","A240OTT1T85UGT","either","3","122","","","","","","","1","0","0","0.6487541525","","0.2","0.6","0.8","0.4","","","","","0.8242397169","0.4197334966","0.6487541525","0.7019001419","","","","","","","","75","K","2","","","16","main_expt",""
"","bandit","96","364543","0.0-57.0-0.0","96961713","wem/bandit_either_3","A240OTT1T85UGT","either","3","151","","","","","","","0","0","1","0.7654634758","","0.2","0.6","0.8","0.4","","","","","0.8317633157","0.2160816064","0.7654634758","0.7017998","","","","","","","","75","K","2","","","17","main_expt",""
"","bandit","97","366167","0.0-58.0-0.0","96961713","wem/bandit_either_3","A240OTT1T85UGT","either","3","101","","","","","","","0","0","1","0.7160830043","","0.2","0.6","0.8","0.4","","","","","0.8158638682","0.2058632209","0.7160830043","0.7672473748","","","","","","","","75","K","2","","","18","main_expt",""
"","bandit","98","367924","0.0-59.0-0.0","96961713","wem/bandit_either_3","A240OTT1T85UGT","either","3","248","","","","","","","1","0","0","0.6856656502","","0.2","0.6","0.8","0.4","","","","","0.8291878069","0.2314559036","0.6856656502","0.7950219121","","","","","","","","75","K","2","","","19","main_expt",""
"","bandit","99","369520","0.0-60.0-0.0","96961713","wem/bandit_either_3","A240OTT1T85UGT","either","3","85","","","","","","","1","0","0","0.6829400921","","0.2","0.6","0.8","0.4","","","","","0.8665153398","0.1762066147","0.6829400921","0.8460513568","","","","","","","","75","K","2","","","20","main_expt",""
"","bandit","100","371290","0.0-61.0-0.0","96961713","wem/bandit_either_3","A240OTT1T85UGT","either","3","231","","","","","","","0","0","1","0.6849203215","","0.2","0.6","0.8","0.4","","","","","0.8181415858","0.150477598","0.6849203215","0.8571228725","","","","","","","","75","K","2","","","21","main_expt",""
"","bandit","101","372926","0.0-62.0-0.0","96961713","wem/bandit_either_3","A240OTT1T85UGT","either","3","99","","","","","","","1","0","0","0.6832197831","","0.2","0.6","0.8","0.4","","","","","0.7731960963","0.1957635407","0.6832197831","0.8498483749","","","","","","","","75","K","2","","","22","main_expt",""
"","bandit","102","374707","0.0-63.0-0.0","96961713","wem/bandit_either_3","A240OTT1T85UGT","either","3","264","","","","","","","1","0","0","0.6103957523","","0.2","0.6","0.8","0.4","","","","","0.8004626553","0.2193187944","0.6103957523","0.887495535","","","","","","","","75","K","2","","","23","main_expt",""
"","bandit","103","376355","0.0-64.0-0.0","96961713","wem/bandit_either_3","A240OTT1T85UGT","either","3","140","","","","","","","0","0","1","","0.5485819736","0.2","0.6","0.8","0.4","0.7941911222","0.1836328706","0.5485819736","0.918231735","","","","","","","","","","","","75","K","2","","","24","main_expt",""
"","bandit","104","377860","0.0-65.0-0.0","96961713","wem/bandit_either_3","A240OTT1T85UGT","either","3","0","","","","","","","1","0","0","0.5852935809","","0.2","0.6","0.8","0.4","","","","","0.7100633829","0.1410441375","0.5852935809","0.9111146318","","","","","","","","75","K","2","","","25","main_expt",""
"","bandit","105","379458","0.0-66.0-0.0","96961713","wem/bandit_either_3","A240OTT1T85UGT","either","3","86","","","","","","","1","0","0","0.6097892937","","0.2","0.6","0.8","0.4","","","","","0.6872129375","0.1082593399","0.6097892937","0.9190640316","","","","","","","","75","K","2","","","26","main_expt",""
"","bandit","106","381020","0.0-67.0-0.0","96961713","wem/bandit_either_3","A240OTT1T85UGT","either","3","42","","","","","","","1","0","0","0.6653335402","","0.2","0.6","0.8","0.4","","","","","0.6798864795","0.1042047793","0.6653335402","0.9372614837","","","","","","","","75","K","2","","","27","main_expt",""
"","bandit","107","382575","0.0-68.0-0.0","96961713","wem/bandit_either_3","A240OTT1T85UGT","either","3","44","","","","","","","1","0","0","0.6850825106","","0.2","0.6","0.8","0.4","","","","","0.6812343762","0.1153509117","0.6850825106","0.9269484959","","","","","","","","75","K","2","","","28","main_expt",""
"","bandit","108","384202","0.0-69.0-0.0","96961713","wem/bandit_either_3","A240OTT1T85UGT","either","3","105","","","","","","","1","0","0","0.7309016742","","0.2","0.6","0.8","0.4","","","","","0.5305157647","0.1601566248","0.7309016742","0.9376772981","","","","","","","","75","K","2","","","29","main_expt",""
"","bandit","109","385807","0.0-70.0-0.0","96961713","wem/bandit_either_3","A240OTT1T85UGT","either","3","77","","","","","","","1","0","0","0.8141980113","","0.2","0.6","0.8","0.4","","","","","0.4713174284","0.09548927903","0.8141980113","0.8795505253","","","","","","","","75","K","2","","","30","main_expt",""
"","bandit","110","387408","0.0-71.0-0.0","96961713","wem/bandit_either_3","A240OTT1T85UGT","either","3","77","","","","","","","1","0","0","0.8926711601","","0.2","0.6","0.8","0.4","","","","","0.2938490869","0.09272353297","0.8926711601","0.8605863748","","","","","","","","75","K","2","","","31","main_expt",""
"","bandit","111","389006","0.0-72.0-0.0","96961713","wem/bandit_either_3","A240OTT1T85UGT","either","3","80","","","","","","","1","0","0","0.8397563013","","0.2","0.6","0.8","0.4","","","","","0.3005160425","0.09547929832","0.8397563013","0.757600507","","","","","","","","75","K","2","","","32","main_expt",""
"","bandit","112","390685","0.0-73.0-0.0","96961713","wem/bandit_either_3","A240OTT1T85UGT","either","3","170","","","","","","","1","0","0","0.8251988787","","0.2","0.6","0.8","0.4","","","","","0.3661211491","0.08683876107","0.8251988787","0.7257103923","","","","","","","","75","K","2","","","33","main_expt",""
"","bandit","113","392191","0.0-74.0-0.0","96961713","wem/bandit_either_3","A240OTT1T85UGT","either","3","0","","","","","","","0","0","1","","0.7303528712","0.2","0.6","0.8","0.4","0.4614725573","0.08117088791","0.7303528712","0.5786815464","","","","","","","","","","","","75","K","2","","","34","main_expt",""
"","bandit","114","393702","0.0-75.0-0.0","96961713","wem/bandit_either_3","A240OTT1T85UGT","either","3","0","","","","","","","1","0","0","0.8093673003","","0.2","0.6","0.8","0.4","","","","","0.4597324626","0.09593582107","0.8093673003","0.4812266686","","","","","","","","75","K","2","","","35","main_expt",""
"","bandit","115","395257","0.0-76.0-0.0","96961713","wem/bandit_either_3","A240OTT1T85UGT","either","3","37","","","","","","","1","0","0","0.79718131","","0.2","0.6","0.8","0.4","","","","","0.4294742096","0.1392988708","0.79718131","0.4459447539","","","","","","","","75","K","2","","","36","main_expt",""
"","bandit","116","396955","0.0-77.0-0.0","96961713","wem/bandit_either_3","A240OTT1T85UGT","either","3","174","","","","","","","0","1","0","","0.8157762275","0.2","0.6","0.8","0.4","0.5301274199","0.07673209605","0.8157762275","0.5737218407","","","","","","","","","","","","75","K","2","","","37","main_expt",""
"","bandit","117","398562","0.0-78.0-0.0","96961713","wem/bandit_either_3","A240OTT1T85UGT","either","3","90","","","","","","","1","0","0","0.7941499978","","0.2","0.6","0.8","0.4","","","","","0.5746889943","0.1078843958","0.7941499978","0.6008421093","","","","","","","","75","K","2","","","38","main_expt",""
"","bandit","118","400290","0.0-79.0-0.0","96961713","wem/bandit_either_3","A240OTT1T85UGT","either","3","204","","","","","","","0","0","1","0.7352357368","","0.2","0.6","0.8","0.4","","","","","0.6621100331","0.09731722171","0.7352357368","0.6076920036","","","","","","","","75","K","2","","","39","main_expt",""
"","bandit","119","401874","0.0-80.0-0.0","96961713","wem/bandit_either_3","A240OTT1T85UGT","either","3","68","","","","","","","0","1","0","","0.7920886563","0.2","0.6","0.8","0.4","0.6794361822","0.2123509389","0.7920886563","0.6616622706","","","","","","","","","","","","75","K","2","","","40","main_expt",""
"","bandit","120","403942","0.0-81.0-0.0","96961713","wem/bandit_either_3","A240OTT1T85UGT","either","3","529","","","","","","","1","0","0","0.8780543775","","0.2","0.6","0.8","0.4","","","","","0.7140523024","0.1265365425","0.8780543775","0.6945341382","","","","","","","","75","K","2","","","41","main_expt",""
"","bandit","121","406287","0.0-82.0-0.0","96961713","wem/bandit_either_3","A240OTT1T85UGT","either","3","813","","","","","","","0","0","1","0.9167256642","","0.2","0.6","0.8","0.4","","","","","0.6669732994","0.166138795","0.9167256642","0.6833149102","","","","","","","","75","K","2","","","42","main_expt",""
"","bandit","122","407806","0.0-83.0-0.0","96961713","wem/bandit_either_3","A240OTT1T85UGT","either","3","12","","","","","","","0","1","0","","0.9407985187","0.2","0.6","0.8","0.4","0.5435093165","0.1782339186","0.9407985187","0.7094953576","","","","","","","","","","","","75","K","2","","","43","main_expt",""
"","bandit","123","409332","0.0-84.0-0.0","96961713","wem/bandit_either_3","A240OTT1T85UGT","either","3","0","","","","","","","0","0","1","0.1342945815","","0.2","0.6","0.8","0.4","","","","","0.6002661395","0.1342945815","0.9000978766","0.7519468023","","","","","","","","74","J","1","","","44","main_expt",""
"","bandit","124","411439","0.0-85.0-0.0","96961713","wem/bandit_either_3","A240OTT1T85UGT","either","3","582","","","","","","","0","1","0","","0.5948203474","0.2","0.6","0.8","0.4","0.5948203474","0.09086288848","0.9190036262","0.7673203249","","","","","","","","","","","","72","H","0","img/none_selected.jpg","","45","main_expt",""
"","bandit","125","413073","0.0-86.0-0.0","96961713","wem/bandit_either_3","A240OTT1T85UGT","either","3","112","","","","","","","0","1","0","","0.6230250108","0.2","0.6","0.8","0.4","0.6230250108","0.06420934006","0.8865788656","0.722836051","","","","","","","","","","","","72","H","0","img/none_selected.jpg","","46","main_expt",""
"","bandit","126","414956","0.0-87.0-0.0","96961713","wem/bandit_either_3","A240OTT1T85UGT","either","3","357","","","","","","","0","1","0","","0.7392487755","0.2","0.6","0.8","0.4","0.7239235909","0.02332738683","0.8207935484","0.7392487755","","","","","","","","","","","","76","L","3","","","47","main_expt",""
"","bandit","127","416638","0.0-88.0-0.0","96961713","wem/bandit_either_3","A240OTT1T85UGT","either","3","145","","","","","","","0","1","0","","0.8170742187","0.2","0.6","0.8","0.4","0.7715310514","0.03517565614","0.8170742187","0.7551111279","","","","","","","","","","","","75","K","2","","","48","main_expt",""
"","bandit","128","418837","0.0-89.0-0.0","96961713","wem/bandit_either_3","A240OTT1T85UGT","either","3","679","","","","","","","0","0","1","","0.04466115719","0.2","0.6","0.8","0.4","0.822179592","0.04466115719","0.7874830355","0.6917772817","","","","","","","","","","","","74","J","1","","","49","main_expt",""
"","bandit","129","420523","0.0-90.0-0.0","96961713","wem/bandit_either_3","A240OTT1T85UGT","either","3","168","","","","","","","1","0","0","0.8279472521","","0.2","0.6","0.8","0.4","","","","","0.8108951243","0.05053383529","0.8279472521","0.6689959301","","","","","","","","75","K","2","","","50","main_expt",""
"","bandit","130","422166","0.0-91.0-0.0","96961713","wem/bandit_either_3","A240OTT1T85UGT","either","3","110","","","","","","","1","0","0","0.8426817256","","0.2","0.6","0.8","0.4","","","","","0.7649170446","0.04681033125","0.8426817256","0.6020608281","","","","","","","","75","K","2","","","51","main_expt",""
"","bandit","131","423719","0.0-92.0-0.0","96961713","wem/bandit_either_3","A240OTT1T85UGT","either","3","38","","","","","","","1","0","0","0.8377647656","","0.2","0.6","0.8","0.4","","","","","0.8169848275","0.09308222201","0.8377647656","0.6583182673","","","","","","","","75","K","2","","","52","main_expt",""
"","bandit","132","425252","0.0-93.0-0.0","96961713","wem/bandit_either_3","A240OTT1T85UGT","either","3","17","","","","","","","1","0","0","0.8241398149","","0.2","0.6","0.8","0.4","","","","","0.8843577791","0.1397702629","0.8241398149","0.5419436754","","","","","","","","75","K","2","","","53","main_expt",""
"","bandit","133","426805","0.0-94.0-0.0","96961713","wem/bandit_either_3","A240OTT1T85UGT","either","3","41","","","","","","","0","0","1","0.7289352116","","0.2","0.6","0.8","0.4","","","","","0.8854515068","0.110287685","0.7289352116","0.5717614462","","","","","","","","75","K","2","","","54","main_expt",""
"","bandit","134","428458","0.0-95.0-0.0","96961713","wem/bandit_either_3","A240OTT1T85UGT","either","3","132","","","","","","","0","1","0","","0.5895019519","0.2","0.6","0.8","0.4","0.8884574585","0.1843384007","0.5895019519","0.5497935615","","","","","","","","","","","","75","K","2","","","55","main_expt",""
"","bandit","135","430098","0.0-96.0-0.0","96961713","wem/bandit_either_3","A240OTT1T85UGT","either","3","105","","","","","","","0","0","1","","0.4622464331","0.2","0.6","0.8","0.4","0.8840911236","0.2056752237","0.4622464331","0.4902645195","","","","","","","","","","","","75","K","2","","","56","main_expt",""
"","bandit","136","431755","0.0-97.0-0.0","96961713","wem/bandit_either_3","A240OTT1T85UGT","either","3","149","","","","","","","0","1","0","","0.490024734","0.2","0.6","0.8","0.4","0.864283103","0.3410726922","0.490024734","0.5258365243","","","","","","","","","","","","75","K","2","","","57","main_expt",""
"","bandit","137","433281","0.0-98.0-0.0","96961713","wem/bandit_either_3","A240OTT1T85UGT","either","3","18","","","","","","","1","0","0","0.6182628796","","0.2","0.6","0.8","0.4","","","","","0.7377821737","0.3873695161","0.6182628796","0.6097664349","","","","","","","","75","K","2","","","58","main_expt",""
"","bandit","138","434805","0.0-99.0-0.0","96961713","wem/bandit_either_3","A240OTT1T85UGT","either","3","5","","","","","","","1","0","0","0.6976829826","","0.2","0.6","0.8","0.4","","","","","0.7469541206","0.3281321534","0.6976829826","0.6016711108","","","","","","","","75","K","2","","","59","main_expt",""
"","bandit","139","436399","0.0-100.0-0.0","96961713","wem/bandit_either_3","A240OTT1T85UGT","either","3","74","","","","","","","0","0","1","0.675433977","","0.2","0.6","0.8","0.4","","","","","0.8019510571","0.2380439254","0.675433977","0.5544917648","","","","","","","","75","K","2","","","60","main_expt",""
"","bandit","140","437955","0.0-101.0-0.0","96961713","wem/bandit_either_3","A240OTT1T85UGT","either","3","49","","","","","","","1","0","0","0.7206550838","","0.2","0.6","0.8","0.4","","","","","0.8943887388","0.2228222105","0.7206550838","0.6842720067","","","","","","","","75","K","2","","","61","main_expt",""
"","bandit","141","439484","0.0-102.0-0.0","96961713","wem/bandit_either_3","A240OTT1T85UGT","either","3","17","","","","","","","0","0","1","0.7184677658","","0.2","0.6","0.8","0.4","","","","","0.8942973556","0.2489253665","0.7184677658","0.6824345281","","","","","","","","75","K","2","","","62","main_expt",""
"","bandit","142","441008","0.0-103.0-0.0","96961713","wem/bandit_either_3","A240OTT1T85UGT","either","3","20","","","","","","","1","0","0","0.6785259816","","0.2","0.6","0.8","0.4","","","","","0.8829609874","0.2298237489","0.6785259816","0.7321168219","","","","","","","","75","K","2","","","63","main_expt",""
"","bandit","143","442639","0.0-104.0-0.0","96961713","wem/bandit_either_3","A240OTT1T85UGT","either","3","120","","","","","","","0","0","1","0.6349383059","","0.2","0.6","0.8","0.4","","","","","0.8175344892","0.1849055857","0.6349383059","0.8123013145","","","","","","","","75","K","2","","","64","main_expt",""
"","bandit","144","444354","0.0-105.0-0.0","96961713","wem/bandit_either_3","A240OTT1T85UGT","either","3","209","","","","","","","1","0","0","0.629769122","","0.2","0.6","0.8","0.4","","","","","0.7812905168","0.2285715909","0.629769122","0.8236121316","","","","","","","","75","K","2","","","65","main_expt",""
"","bandit","145","445957","0.0-106.0-0.0","96961713","wem/bandit_either_3","A240OTT1T85UGT","either","3","83","","","","","","","1","0","0","0.7158950816","","0.2","0.6","0.8","0.4","","","","","0.7848445355","0.2477643906","0.7158950816","0.8270077233","","","","","","","","75","K","2","","","66","main_expt",""
"","bandit","146","447522","0.0-107.0-0.0","96961713","wem/bandit_either_3","A240OTT1T85UGT","either","3","45","","","","","","","0","0","1","0.6309271871","","0.2","0.6","0.8","0.4","","","","","0.763143195","0.1801078726","0.6309271871","0.7601471472","","","","","","","","75","K","2","","","67","main_expt",""
"","bandit","147","449123","0.0-108.0-0.0","96961713","wem/bandit_either_3","A240OTT1T85UGT","either","3","90","","","","","","","1","0","0","0.617221228","","0.2","0.6","0.8","0.4","","","","","0.7966751536","0.08479184886","0.617221228","0.7567750057","","","","","","","","75","K","2","","","68","main_expt",""
"","bandit","148","450773","0.0-109.0-0.0","96961713","wem/bandit_either_3","A240OTT1T85UGT","either","3","129","","","","","","","0","0","1","0.6235929763","","0.2","0.6","0.8","0.4","","","","","0.8534335227","0.06982522498","0.6235929763","0.6871277649","","","","","","","","75","K","2","","","69","main_expt",""
"","bandit","149","452441","0.0-110.0-0.0","96961713","wem/bandit_either_3","A240OTT1T85UGT","either","3","147","","","","","","","0","0","1","0.5543620559","","0.2","0.6","0.8","0.4","","","","","0.8915498471","0.05029268469","0.5543620559","0.773099018","","","","","","","","75","K","2","","","70","main_expt",""
"","bandit","150","453977","0.0-111.0-0.0","96961713","wem/bandit_either_3","A240OTT1T85UGT","either","3","28","","","","","","","1","0","0","0.5333999135","","0.2","0.6","0.8","0.4","","","","","0.8736989015","0.06413839938","0.5333999135","0.7412476729","","","","","","","","75","K","2","","","71","main_expt",""
"","bandit","151","455504","0.0-112.0-0.0","96961713","wem/bandit_either_3","A240OTT1T85UGT","either","3","16","","","","","","","0","0","1","","0.5905126671","0.2","0.6","0.8","0.4","0.8837551658","0.05155778705","0.5905126671","0.8080704968","","","","","","","","","","","","75","K","2","","","72","main_expt",""
"","bandit","152","457123","0.0-113.0-0.0","96961713","wem/bandit_either_3","A240OTT1T85UGT","either","3","83","","","","","","","0","0","1","","0.0232747386","0.2","0.6","0.8","0.4","0.8495494246","0.0232747386","0.6925119087","0.8270016227","","","","","","","","","","","","74","J","1","","","73","main_expt",""
"","bandit","153","458765","0.0-114.0-0.0","96961713","wem/bandit_either_3","A240OTT1T85UGT","either","3","133","","","","","","","0","1","0","","0.04751547773","0.2","0.6","0.8","0.4","0.9127472651","0.04751547773","0.7134745341","0.7872017979","","","","","","","","","","","","74","J","1","","","74","main_expt",""
"","bandit","154","460352","0.0-115.0-0.0","96961713","wem/bandit_either_3","A240OTT1T85UGT","either","3","60","","","","","","","0","0","1","0.05282531612","","0.2","0.6","0.8","0.4","","","","","0.9199060817","0.05282531612","0.8065440948","0.6167225576","","","","","","","","74","J","1","","","75","main_expt",""
"","bandit","155","462023","0.0-116.0-0.0","96961713","wem/bandit_either_3","A240OTT1T85UGT","either","3","150","","","","","","","0","1","0","","0.8691294168","0.2","0.6","0.8","0.4","0.8691294168","0.08738729654","0.7849172319","0.637182095","","","","","","","","","","","","72","H","0","img/none_selected.jpg","","76","main_expt",""
"","bandit","156","463722","0.0-117.0-0.0","96961713","wem/bandit_either_3","A240OTT1T85UGT","either","3","162","","","","","","","0","1","0","","0.9111329321","0.2","0.6","0.8","0.4","0.9111329321","0.08851312664","0.7818962729","0.7169911294","","","","","","","","","","","","72","H","0","img/none_selected.jpg","","77","main_expt",""
"","bandit","157","465830","0.0-118.0-0.0","96961713","wem/bandit_either_3","A240OTT1T85UGT","either","3","580","","","","","","","0","1","0","","0.7446448061","0.2","0.6","0.8","0.4","0.9286966754","0.145228539","0.7002933386","0.7446448061","","","","","","","","","","","","76","L","3","","","78","main_expt",""
"","bandit","158","467407","0.0-119.0-0.0","96961713","wem/bandit_either_3","A240OTT1T85UGT","either","3","67","","","","","","","0","0","1","0.8152221547","","0.2","0.6","0.8","0.4","","","","","0.9616021792","0.1669860915","0.6510109529","0.8152221547","","","","","","","","76","L","3","","","79","main_expt",""
"","bandit","159","469091","0.0-120.0-0.0","96961713","wem/bandit_either_3","A240OTT1T85UGT","either","3","167","","","","","","","1","0","0","0.6765614865","","0.2","0.6","0.8","0.4","","","","","0.950571795","0.1922913003","0.6765614865","0.810351938","","","","","","","","75","K","2","","","80","main_expt",""
"","bandit","160","470629","0.0-121.0-0.0","96961713","wem/bandit_either_3","A240OTT1T85UGT","either","3","17","","","","","","","0","0","1","0.5908869344","","0.2","0.6","0.8","0.4","","","","","0.9331160128","0.2407870914","0.5908869344","0.8895110989","","","","","","","","75","K","2","","","81","main_expt",""
"","bandit","161","472154","0.0-122.0-0.0","96961713","wem/bandit_either_3","A240OTT1T85UGT","either","3","19","","","","","","","0","0","1","0.5267531711","","0.2","0.6","0.8","0.4","","","","","0.9465986336","0.3077898034","0.5267531711","0.9046816681","","","","","","","","75","K","2","","","82","main_expt",""
"","bandit","162","473782","0.0-123.0-0.0","96961713","wem/bandit_either_3","A240OTT1T85UGT","either","3","116","","","","","","","0","0","1","","0.6168373964","0.2","0.6","0.8","0.4","0.9371159138","0.2337579628","0.6168373964","0.8465278631","","","","","","","","","","","","75","K","2","","","83","main_expt",""
"","bandit","163","475327","0.0-124.0-0.0","96961713","wem/bandit_either_3","A240OTT1T85UGT","either","3","39","","","","","","","1","0","0","0.5733990252","","0.2","0.6","0.8","0.4","","","","","0.8998840018","0.2781329454","0.5733990252","0.7584930438","","","","","","","","75","K","2","","","84","main_expt",""
"","bandit","164","477076","0.0-125.0-0.0","96961713","wem/bandit_either_3","A240OTT1T85UGT","either","3","238","","","","","","","0","0","1","0.4719695616","","0.2","0.6","0.8","0.4","","","","","0.9102188985","0.3013149798","0.4719695616","0.7727946294","","","","","","","","75","K","2","","","85","main_expt",""
"","bandit","165","478651","0.0-126.0-0.0","96961713","wem/bandit_either_3","A240OTT1T85UGT","either","3","49","","","","","","","0","0","1","","0.8216594778","0.2","0.6","0.8","0.4","0.9000055418","0.3231836659","0.6941651786","0.8216594778","","","","","","","","","","","","76","L","3","","","86","main_expt",""
"","bandit","166","480289","0.0-127.0-0.0","96961713","wem/bandit_either_3","A240OTT1T85UGT","either","3","117","","","","","","","0","0","1","","0.7833884788","0.2","0.6","0.8","0.4","0.8563468124","0.3986379136","0.5408952125","0.7833884788","","","","","","","","","","","","76","L","3","","","87","main_expt",""
"","bandit","167","482154","0.0-128.0-0.0","96961713","wem/bandit_either_3","A240OTT1T85UGT","either","3","350","","","","","","","0","0","1","","0.4230151841","0.2","0.6","0.8","0.4","0.7349543302","0.4230151841","0.5438891422","0.7804426693","","","","","","","","","","","","74","J","1","","","88","main_expt",""
"","bandit","168","483807","0.0-129.0-0.0","96961713","wem/bandit_either_3","A240OTT1T85UGT","either","3","144","","","","","","","0","0","1","","0.3761858397","0.2","0.6","0.8","0.4","0.7907967515","0.3761858397","0.4294971294","0.7930928848","","","","","","","","","","","","74","J","1","","","89","main_expt",""
"","bandit","169","485403","0.0-130.0-0.0","96961713","wem/bandit_either_3","A240OTT1T85UGT","either","3","67","","","","","","","0","1","0","","0.7883246469","0.2","0.6","0.8","0.4","0.7883246469","0.4799086841","0.4928337868","0.7683039237","","","","","","","","","","","","72","H","0","img/none_selected.jpg","","90","main_expt",""
"","bandit","170","486941","0.0-131.0-0.0","96961713","wem/bandit_either_3","A240OTT1T85UGT","either","3","21","","","","","","","0","1","0","","0.8389096604","0.2","0.6","0.8","0.4","0.8389096604","0.4558425901","0.5655090935","0.8072091422","","","","","","","","","","","","72","H","0","img/none_selected.jpg","","91","main_expt",""
"","bandit","171","488638","0.0-132.0-0.0","96961713","wem/bandit_either_3","A240OTT1T85UGT","either","3","193","","","","","","","0","1","0","","0.8064187158","0.2","0.6","0.8","0.4","0.8064187158","0.3781515597","0.6154818033","0.7791444337","","","","","","","","","","","","72","H","0","img/none_selected.jpg","","92","main_expt",""
"","bandit","172","490356","0.0-133.0-0.0","96961713","wem/bandit_either_3","A240OTT1T85UGT","either","3","179","","","","","","","0","1","0","","0.7542368763","0.2","0.6","0.8","0.4","0.7542368763","0.2858753042","0.7381217307","0.8498372391","","","","","","","","","","","","72","H","0","img/none_selected.jpg","","93","main_expt",""
"","bandit","173","492052","0.0-134.0-0.0","96961713","wem/bandit_either_3","A240OTT1T85UGT","either","3","165","","","","","","","1","0","0","0.7776388333","","0.2","0.6","0.8","0.4","","","","","0.6932487021","0.3914428564","0.7776388333","0.8440610374","","","","","","","","75","K","2","","","94","main_expt",""
"","bandit","174","493663","0.0-135.0-0.0","96961713","wem/bandit_either_3","A240OTT1T85UGT","either","3","97","","","","","","","1","0","0","0.8299152283","","0.2","0.6","0.8","0.4","","","","","0.6706070003","0.3800018616","0.8299152283","0.8092418145","","","","","","","","75","K","2","","","95","main_expt",""
"","bandit","175","495218","0.0-136.0-0.0","96961713","wem/bandit_either_3","A240OTT1T85UGT","either","3","33","","","","","","","0","1","0","","0.7697811485","0.2","0.6","0.8","0.4","0.6670251336","0.3078584031","0.7697811485","0.8655172998","","","","","","","","","","","","75","K","2","","","96","main_expt",""
"","bandit","176","496762","0.0-137.0-0.0","96961713","wem/bandit_either_3","A240OTT1T85UGT","either","3","31","","","","","","","0","0","1","0.7487724405","","0.2","0.6","0.8","0.4","","","","","0.7023758817","0.218486712","0.7487724405","0.8735151232","","","","","","","","75","K","2","","","97","main_expt",""
"","bandit","177","498366","0.0-138.0-0.0","96961713","wem/bandit_either_3","A240OTT1T85UGT","either","3","81","","","","","","","1","0","0","0.7450583294","","0.2","0.6","0.8","0.4","","","","","0.7036518389","0.2037628256","0.7450583294","0.84409386","","","","","","","","75","K","2","","","98","main_expt",""
"","bandit","178","499989","0.0-139.0-0.0","96961713","wem/bandit_either_3","A240OTT1T85UGT","either","3","106","","","","","","","0","0","1","0.7227120129","","0.2","0.6","0.8","0.4","","","","","0.8401346726","0.2400196326","0.7227120129","0.8089648913","","","","","","","","75","K","2","","","99","main_expt",""
"","bandit","179","501607","0.0-140.0-0.0","96961713","wem/bandit_either_3","A240OTT1T85UGT","either","3","97","","","","","","","1","0","0","0.5872141049","","0.2","0.6","0.8","0.4","","","","","0.8640782416","0.3298222115","0.5872141049","0.7259557377","","","","","","","","75","K","2","","","100","main_expt",""
"","bandit","180","503151","0.0-141.0-0.0","96961713","wem/bandit_either_3","A240OTT1T85UGT","either","3","32","","","","","","","1","0","0","0.6432213136","","0.2","0.6","0.8","0.4","","","","","0.8232172207","0.3108047587","0.6432213136","0.6332869741","","","","","","","","75","K","2","","","101","main_expt",""
"","bandit","181","504791","0.0-142.0-0.0","96961713","wem/bandit_either_3","A240OTT1T85UGT","either","3","124","","","","","","","0","1","0","","0.6009476408","0.2","0.6","0.8","0.4","0.8451901448","0.2869381514","0.6009476408","0.659443461","","","","","","","","","","","","75","K","2","","","102","main_expt",""
"","bandit","182","507324","0.0-143.0-0.0","96961713","wem/bandit_either_3","A240OTT1T85UGT","either","3","1013","","","","","","","1","0","0","0.6120105745","","0.2","0.6","0.8","0.4","","","","","0.8792283932","0.246485708","0.6120105745","0.5959971703","","","","","","","","75","K","2","","","103","main_expt",""
"","bandit","183","508974","0.0-144.0-0.0","96961713","wem/bandit_either_3","A240OTT1T85UGT","either","3","129","","","","","","","0","1","0","","0.6821098495","0.2","0.6","0.8","0.4","0.8887181638","0.2175667678","0.6821098495","0.5643630141","","","","","","","","","","","","75","K","2","","","104","main_expt",""
"","bandit","184","510568","0.0-145.0-0.0","96961713","wem/bandit_either_3","A240OTT1T85UGT","either","3","82","","","","","","","1","0","0","0.7228510016","","0.2","0.6","0.8","0.4","","","","","0.8013578166","0.2645808036","0.7228510016","0.5489079514","","","","","","","","75","K","2","","","105","main_expt",""
"","bandit","185","512151","0.0-146.0-0.0","96961713","wem/bandit_either_3","A240OTT1T85UGT","either","3","68","","","","","","","0","1","0","","0.6639212405","0.2","0.6","0.8","0.4","0.7307006529","0.2652424516","0.6639212405","0.4336033326","","","","","","","","","","","","75","K","2","","","106","main_expt",""
"","bandit","186","513685","0.0-147.0-0.0","96961713","wem/bandit_either_3","A240OTT1T85UGT","either","3","22","","","","","","","1","0","0","0.6237034742","","0.2","0.6","0.8","0.4","","","","","0.7519500851","0.2481661544","0.6237034742","0.4779201531","","","","","","","","75","K","2","","","107","main_expt",""
"","bandit","187","515255","0.0-148.0-0.0","96961713","wem/bandit_either_3","A240OTT1T85UGT","either","3","54","","","","","","","0","0","1","","0.5847293191","0.2","0.6","0.8","0.4","0.7457577851","0.2361720859","0.5847293191","0.5075294874","","","","","","","","","","","","75","K","2","","","108","main_expt",""
"","bandit","188","516852","0.0-149.0-0.0","96961713","wem/bandit_either_3","A240OTT1T85UGT","either","3","75","","","","","","","1","0","0","0.6260859175","","0.2","0.6","0.8","0.4","","","","","0.77583868","0.2799679389","0.6260859175","0.522842385","","","","","","","","75","K","2","","","109","main_expt",""
"","bandit","189","518555","0.0-150.0-0.0","96961713","wem/bandit_either_3","A240OTT1T85UGT","either","3","168","","","","","","","1","0","0","0.4788227383","","0.2","0.6","0.8","0.4","","","","","0.7520827962","0.3333098602","0.4788227383","0.419893696","","","","","","","","75","K","2","","","110","main_expt",""
"","bandit","190","520113","0.0-151.0-0.0","96961713","wem/bandit_either_3","A240OTT1T85UGT","either","3","35","","","","","","","1","0","0","0.6019778282","","0.2","0.6","0.8","0.4","","","","","0.6512809768","0.3669732535","0.6019778282","0.431092028","","","","","","","","75","K","2","","","111","main_expt",""
"","bandit","191","521827","0.0-152.0-0.0","96961713","wem/bandit_either_3","A240OTT1T85UGT","either","3","197","","","","","","","1","0","0","0.546445977","","0.2","0.6","0.8","0.4","","","","","0.5891937939","0.389765336","0.546445977","0.3590071368","","","","","","","","75","K","2","","","112","main_expt",""
"","bandit","192","523439","0.0-153.0-0.0","96961713","wem/bandit_either_3","A240OTT1T85UGT","either","3","95","","","","","","","0","1","0","","0.6256092846","0.2","0.6","0.8","0.4","0.6490525038","0.3191506652","0.6256092846","0.4498419114","","","","","","","","","","","","75","K","2","","","113","main_expt",""
"","bandit","193","526637","0.0-154.0-0.0","96961713","wem/bandit_either_3","A240OTT1T85UGT","either","3","1692","","","","","","","0","0","1","","0.6577617598","0.2","0.6","0.8","0.4","0.6283680234","0.2090321438","0.6577617598","0.4829831469","","","","","","","","","","","","75","K","2","","","114","main_expt",""
"","bandit","194","528287","0.0-155.0-0.0","96961713","wem/bandit_either_3","A240OTT1T85UGT","either","3","144","","","","","","","1","0","0","0.7140476354","","0.2","0.6","0.8","0.4","","","","","0.6064224059","0.2094439124","0.7140476354","0.4846695964","","","","","","","","75","K","2","","","115","main_expt",""
"","bandit","195","530258","0.0-156.0-0.0","96961713","wem/bandit_either_3","A240OTT1T85UGT","either","3","450","","","","","","","0","0","1","","0.6589976567","0.2","0.6","0.8","0.4","0.545813367","0.2695181069","0.6589976567","0.5396909338","","","","","","","","","","","","75","K","2","","","116","main_expt",""
"","bandit","196","532174","0.0-157.0-0.0","96961713","wem/bandit_either_3","A240OTT1T85UGT","either","3","405","","","","","","","0","1","0","","0.6937703341","0.2","0.6","0.8","0.4","0.5179373022","0.3402036285","0.6937703341","0.5378282835","","","","","","","","","","","","75","K","2","","","117","main_expt",""
"","bandit","197","533715","0.0-158.0-0.0","96961713","wem/bandit_either_3","A240OTT1T85UGT","either","3","21","","","","","","","0","1","0","","0.77114399","0.2","0.6","0.8","0.4","0.4014157923","0.3101634078","0.77114399","0.5729988564","","","","","","","","","","","","75","K","2","","","118","main_expt",""
"","bandit","198","535388","0.0-159.0-0.0","96961713","wem/bandit_either_3","A240OTT1T85UGT","either","3","154","","","","","","","1","0","0","0.710000291","","0.2","0.6","0.8","0.4","","","","","0.4360264599","0.3242193616","0.710000291","0.5630251564","","","","","","","","75","K","2","","","119","main_expt",""
"","bandit","199","536943","0.0-160.0-0.0","96961713","wem/bandit_either_3","A240OTT1T85UGT","either","3","39","","","","","","","1","0","0","0.6767982245","","0.2","0.6","0.8","0.4","","","","","0.3297853269","0.3334277272","0.6767982245","0.6482115929","","","","","","","","75","K","2","","","120","main_expt",""
"","bandit","200","538489","0.0-161.0-0.0","96961713","wem/bandit_either_3","A240OTT1T85UGT","either","3","34","","","","","","","1","0","0","0.7360115258","","0.2","0.6","0.8","0.4","","","","","0.3767442019","0.4066521311","0.7360115258","0.5688505083","","","","","","","","75","K","2","","","121","main_expt",""
"","bandit","201","540149","0.0-162.0-0.0","96961713","wem/bandit_either_3","A240OTT1T85UGT","either","3","155","","","","","","","1","0","0","0.7258716992","","0.2","0.6","0.8","0.4","","","","","0.3589515546","0.5193034213","0.7258716992","0.5349597204","","","","","","","","75","K","2","","","122","main_expt",""
"","bandit","202","541755","0.0-163.0-0.0","96961713","wem/bandit_either_3","A240OTT1T85UGT","either","3","92","","","","","","","1","0","0","0.7848203729","","0.2","0.6","0.8","0.4","","","","","0.3461890545","0.5594962391","0.7848203729","0.412887176","","","","","","","","75","K","2","","","123","main_expt",""
"","bandit","203","543374","0.0-164.0-0.0","96961713","wem/bandit_either_3","A240OTT1T85UGT","either","3","98","","","","","","","0","1","0","","0.7673004895","0.2","0.6","0.8","0.4","0.2287340519","0.6876014299","0.7673004895","0.4137060999","","","","","","","","","","","","75","K","2","","","124","main_expt",""
"","bandit","204","544973","0.0-165.0-0.0","96961713","wem/bandit_either_3","A240OTT1T85UGT","either","3","79","","","","","","","0","1","0","","0.8020703208","0.2","0.6","0.8","0.4","0.2900718705","0.7354493796","0.8020703208","0.3226696341","","","","","","","","","","","","75","K","2","","","125","main_expt",""
"","bandit","205","546542","0.0-166.0-0.0","96961713","wem/bandit_either_3","A240OTT1T85UGT","either","3","49","","","","","","","0","1","0","","0.8196031782","0.2","0.6","0.8","0.4","0.2880997441","0.76840964","0.8196031782","0.3904211026","","","","","","","","","","","","75","K","2","","","126","main_expt",""
"","bandit","206","548096","0.0-167.0-0.0","96961713","wem/bandit_either_3","A240OTT1T85UGT","either","3","34","","","","","","","0","0","1","0.7095492128","","0.2","0.6","0.8","0.4","","","","","0.3451069126","0.7310750685","0.7095492128","0.4227014292","","","","","","","","75","K","2","","","127","main_expt",""
"","bandit","207","549741","0.0-168.0-0.0","96961713","wem/bandit_either_3","A240OTT1T85UGT","either","3","116","","","","","","","1","0","0","0.711577854","","0.2","0.6","0.8","0.4","","","","","0.3129298861","0.6582635175","0.711577854","0.543317668","","","","","","","","75","K","2","","","128","main_expt",""
"","bandit","208","551254","0.0-169.0-0.0","96961713","wem/bandit_either_3","A240OTT1T85UGT","either","3","7","","","","","","","1","0","0","0.7022761705","","0.2","0.6","0.8","0.4","","","","","0.3507055597","0.7529887683","0.7022761705","0.5906282681","","","","","","","","75","K","2","","","129","main_expt",""
"","bandit","209","552840","0.0-170.0-0.0","96961713","wem/bandit_either_3","A240OTT1T85UGT","either","3","72","","","","","","","1","0","0","0.7309419319","","0.2","0.6","0.8","0.4","","","","","0.3753424236","0.7929301986","0.7309419319","0.6636268631","","","","","","","","75","K","2","","","130","main_expt",""
"","bandit","210","554490","0.0-171.0-0.0","96961713","wem/bandit_either_3","A240OTT1T85UGT","either","3","128","","","","","","","0","0","1","0.6904825683","","0.2","0.6","0.8","0.4","","","","","0.3473486375","0.8149544693","0.6904825683","0.5686699027","","","","","","","","75","K","2","","","131","main_expt",""
"","bandit","211","556114","0.0-172.0-0.0","96961713","wem/bandit_either_3","A240OTT1T85UGT","either","3","107","","","","","","","0","0","1","0.7153166113","","0.2","0.6","0.8","0.4","","","","","0.303679922","0.7626544417","0.7153166113","0.6564012045","","","","","","","","75","K","2","","","132","main_expt",""
"","bandit","212","557776","0.0-173.0-0.0","96961713","wem/bandit_either_3","A240OTT1T85UGT","either","3","139","","","","","","","0","1","0","","0.8135501627","0.2","0.6","0.8","0.4","0.3385565331","0.7584501248","0.8135501627","0.5876654864","","","","","","","","","","","","75","K","2","","","133","main_expt",""
"","bandit","213","559407","0.0-174.0-0.0","96961713","wem/bandit_either_3","A240OTT1T85UGT","either","3","115","","","","","","","0","1","0","","0.7707892239","0.2","0.6","0.8","0.4","0.3686406913","0.7905015291","0.7707892239","0.5299368298","","","","","","","","","","","","75","K","2","","","134","main_expt",""
"","bandit","214","561050","0.0-175.0-0.0","96961713","wem/bandit_either_3","A240OTT1T85UGT","either","3","112","","","","","","","0","1","0","","0.7689088841","0.2","0.6","0.8","0.4","0.3672202126","0.7515189777","0.7689088841","0.4547966061","","","","","","","","","","","","75","K","2","","","135","main_expt",""
"","bandit","215","562638","0.0-176.0-0.0","96961713","wem/bandit_either_3","A240OTT1T85UGT","either","3","80","","","","","","","1","0","0","0.6641324257","","0.2","0.6","0.8","0.4","","","","","0.4064769993","0.7293518859","0.6641324257","0.5290841583","","","","","","","","75","K","2","","","136","main_expt",""
"","bandit","216","564172","0.0-177.0-0.0","96961713","wem/bandit_either_3","A240OTT1T85UGT","either","3","26","","","","","","","0","1","0","","0.635388201","0.2","0.6","0.8","0.4","0.3492503667","0.7286216209","0.635388201","0.419904672","","","","","","","","","","","","75","K","2","","","137","main_expt",""
"","bandit","217","565720","0.0-178.0-0.0","96961713","wem/bandit_either_3","A240OTT1T85UGT","either","3","36","","","","","","","0","1","0","","0.3315752647","0.2","0.6","0.8","0.4","0.3315752647","0.7425921641","0.6889508363","0.4532768315","","","","","","","","","","","","72","H","0","img/none_selected.jpg","","138","main_expt",""
"","bandit","218","567391","0.0-179.0-0.0","96961713","wem/bandit_either_3","A240OTT1T85UGT","either","3","155","","","","","","","1","0","0","0.7356638012","","0.2","0.6","0.8","0.4","","","","","0.3080831972","0.7356638012","0.6481427694","0.4194835996","","","","","","","","74","J","1","","","139","main_expt",""
"","bandit","219","568907","0.0-180.0-0.0","96961713","wem/bandit_either_3","A240OTT1T85UGT","either","3","9","","","","","","","1","0","0","0.7334346803","","0.2","0.6","0.8","0.4","","","","","0.3254670704","0.7334346803","0.6497449761","0.420008375","","","","","","","","74","J","1","","","140","main_expt",""
"","bandit","220","570459","0.0-181.0-0.0","96961713","wem/bandit_either_3","A240OTT1T85UGT","either","3","46","","","","","","","0","0","1","0.7737071977","","0.2","0.6","0.8","0.4","","","","","0.3452870884","0.7737071977","0.7328205829","0.3908595681","","","","","","","","74","J","1","","","141","main_expt",""
"","bandit","221","572038","0.0-182.0-0.0","96961713","wem/bandit_either_3","A240OTT1T85UGT","either","3","62","","","","","","","0","0","1","0.7912630164","","0.2","0.6","0.8","0.4","","","","","0.2659846132","0.7912630164","0.6396752577","0.3994278682","","","","","","","","74","J","1","","","142","main_expt",""
"","bandit","222","573667","0.0-183.0-0.0","96961713","wem/bandit_either_3","A240OTT1T85UGT","either","3","112","","","","","","","1","0","0","0.7709923268","","0.2","0.6","0.8","0.4","","","","","0.2549781044","0.7709923268","0.5974809775","0.3137486051","","","","","","","","74","J","1","","","143","main_expt",""
"","bandit","223","575336","0.0-184.0-0.0","96961713","wem/bandit_either_3","A240OTT1T85UGT","either","3","147","","","","","","","0","0","1","","0.7492848764","0.2","0.6","0.8","0.4","0.3603981418","0.7492848764","0.5953980303","0.3961992406","","","","","","","","","","","","74","J","1","","","144","main_expt",""
"","bandit","224","576896","0.0-185.0-0.0","96961713","wem/bandit_either_3","A240OTT1T85UGT","either","3","40","","","","","","","0","1","0","","0.7343485297","0.2","0.6","0.8","0.4","0.3682949958","0.7343485297","0.6215671736","0.3186856111","","","","","","","","","","","","74","J","1","","","145","main_expt",""
"","bandit","225","578405","0.0-186.0-0.0","96961713","wem/bandit_either_3","A240OTT1T85UGT","either","3","0","","","","","","","1","0","0","0.7701032705","","0.2","0.6","0.8","0.4","","","","","0.5028772858","0.7701032705","0.5766937592","0.2724247948","","","","","","","","74","J","1","","","146","main_expt",""
"","bandit","226","580074","0.0-187.0-0.0","96961713","wem/bandit_either_3","A240OTT1T85UGT","either","3","144","","","","","","","1","0","0","0.7521601774","","0.2","0.6","0.8","0.4","","","","","0.4186890645","0.7521601774","0.4600492943","0.2844288079","","","","","","","","74","J","1","","","147","main_expt",""
"","bandit","227","581838","0.0-188.0-0.0","96961713","wem/bandit_either_3","A240OTT1T85UGT","either","3","254","","","","","","","1","0","0","0.7762143641","","0.2","0.6","0.8","0.4","","","","","0.3928328601","0.7762143641","0.4575448178","0.3095389551","","","","","","","","74","J","1","","","148","main_expt",""
"","bandit","228","583600","0.0-189.0-0.0","96961713","wem/bandit_either_3","A240OTT1T85UGT","either","3","235","","","","","","","0","1","0","","0.716016993","0.2","0.6","0.8","0.4","0.4220063763","0.716016993","0.3840278576","0.2464654743","","","","","","","","","","","","74","J","1","","","149","main_expt",""
"","bandit","229","585273","0.0-190.0-0.0","96961713","wem/bandit_either_3","A240OTT1T85UGT","either","3","162","","","","","","","1","0","0","0.7182774931","","0.2","0.6","0.8","0.4","","","","","0.3206822378","0.7182774931","0.3004406684","0.2088091358","","","","","","","","74","J","1","","","150","main_expt",""
"","bandit","230","587025","0.0-191.0-0.0","96961713","wem/bandit_either_3","A240OTT1T85UGT","either","3","230","","","","","","","0","0","1","0.8028216805","","0.2","0.6","0.8","0.4","","","","","0.3380172956","0.8028216805","0.2769981479","0.2670014618","","","","","","","","74","J","1","","","151","main_expt",""
"","bandit","231","588688","0.0-192.0-0.0","96961713","wem/bandit_either_3","A240OTT1T85UGT","either","3","150","","","","","","","0","0","1","0.8634692279","","0.2","0.6","0.8","0.4","","","","","0.2461440624","0.8634692279","0.40565407","0.3100930243","","","","","","","","74","J","1","","","152","main_expt",""
"","bandit","232","590398","0.0-193.0-0.0","96961713","wem/bandit_either_3","A240OTT1T85UGT","either","3","187","","","","","","","1","0","0","0.7719190238","","0.2","0.6","0.8","0.4","","","","","0.1852716423","0.7719190238","0.3829351634","0.3796096158","","","","","","","","74","J","1","","","153","main_expt",""
"","bandit","233","591938","0.0-194.0-0.0","96961713","wem/bandit_either_3","A240OTT1T85UGT","either","3","35","","","","","","","0","1","0","","0.8343429945","0.2","0.6","0.8","0.4","0.1660439368","0.8343429945","0.4912137185","0.2265028128","","","","","","","","","","","","74","J","1","","","154","main_expt",""
"","bandit","234","593454","0.0-195.0-0.0","96961713","wem/bandit_either_3","A240OTT1T85UGT","either","3","8","","","","","","","0","0","1","0.7908731232","","0.2","0.6","0.8","0.4","","","","","0.2241607793","0.7908731232","0.5312535156","0.2135741777","","","","","","","","74","J","1","","","155","main_expt",""
"","bandit","235","595072","0.0-196.0-0.0","96961713","wem/bandit_either_3","A240OTT1T85UGT","either","3","103","","","","","","","1","0","0","0.7848911391","","0.2","0.6","0.8","0.4","","","","","0.1566338899","0.7848911391","0.5747898199","0.1338357519","","","","","","","","74","J","1","","","156","main_expt",""
"","bandit","236","596829","0.0-197.0-0.0","96961713","wem/bandit_either_3","A240OTT1T85UGT","either","3","237","","","","","","","0","1","0","","0.7467155263","0.2","0.6","0.8","0.4","0.1839373886","0.7467155263","0.5948125822","0.1344370697","","","","","","","","","","","","74","J","1","","","157","main_expt",""
"","bandit","237","599181","0.0-198.0-0.0","96961713","wem/bandit_either_3","A240OTT1T85UGT","either","3","820","","","","","","","0","1","0","","0.7413618202","0.2","0.6","0.8","0.4","0.155802242","0.7413618202","0.6533804049","0.1217930933","","","","","","","","","","","","74","J","1","","","158","main_expt",""
"","bandit","238","606637","0.0-199.0-0.0","96961713","wem/bandit_either_3","A240OTT1T85UGT","either","3","5937","","","","","","","1","0","0","0.6882043704","","0.2","0.6","0.8","0.4","","","","","0.2304237345","0.6882043704","0.5777198579","0.08524485746","","","","","","","","74","J","1","","","159","main_expt",""
"","bandit","239","608456","0.0-200.0-0.0","96961713","wem/bandit_either_3","A240OTT1T85UGT","either","3","300","","","","","","","0","0","1","0.7253096401","","0.2","0.6","0.8","0.4","","","","","0.2242026456","0.7253096401","0.6777741118","0.07332219892","","","","","","","","74","J","1","","","160","main_expt",""
"","bandit","240","610052","0.0-201.0-0.0","96961713","wem/bandit_either_3","A240OTT1T85UGT","either","3","92","","","","","","","0","0","1","0.6989182833","","0.2","0.6","0.8","0.4","","","","","0.2708915048","0.6989182833","0.6249074267","0.1063489691","","","","","","","","74","J","1","","","161","main_expt",""
"","bandit","241","611601","0.0-202.0-0.0","96961713","wem/bandit_either_3","A240OTT1T85UGT","either","3","38","","","","","","","1","0","0","0.7679575172","","0.2","0.6","0.8","0.4","","","","","0.2921592604","0.7679575172","0.6755041601","0.09670310095","","","","","","","","74","J","1","","","162","main_expt",""
"","bandit","242","613255","0.0-203.0-0.0","96961713","wem/bandit_either_3","A240OTT1T85UGT","either","3","131","","","","","","","0","0","1","","0.6877390752","0.2","0.6","0.8","0.4","0.2050535257","0.6877390752","0.6461818487","0.1266359811","","","","","","","","","","","","74","J","1","","","163","main_expt",""
"","bandit","243","614953","0.0-204.0-0.0","96961713","wem/bandit_either_3","A240OTT1T85UGT","either","3","170","","","","","","","1","0","0","0.76368027","","0.2","0.6","0.8","0.4","","","","","0.1998759094","0.6957575266","0.76368027","0.1212611996","","","","","","","","75","K","2","","","164","main_expt",""
"","bandit","244","616538","0.0-205.0-0.0","96961713","wem/bandit_either_3","A240OTT1T85UGT","either","3","43","","","","","","","1","0","0","0.8400099296","","0.2","0.6","0.8","0.4","","","","","0.1821974317","0.6760148625","0.8400099296","0.1917887173","","","","","","","","75","K","2","","","165","main_expt",""
"","bandit","245","618058","0.0-206.0-0.0","96961713","wem/bandit_either_3","A240OTT1T85UGT","either","3","12","","","","","","","1","0","0","0.8573275969","","0.2","0.6","0.8","0.4","","","","","0.2916844583","0.6463317238","0.8573275969","0.1560613016","","","","","","","","75","K","2","","","166","main_expt",""
"","bandit","246","619572","0.0-207.0-0.0","96961713","wem/bandit_either_3","A240OTT1T85UGT","either","3","1","","","","","","","0","1","0","","0.7735369509","0.2","0.6","0.8","0.4","0.3087465624","0.5613055562","0.7735369509","0.2214887095","","","","","","","","","","","","75","K","2","","","167","main_expt",""
"","bandit","247","621081","0.0-208.0-0.0","96961713","wem/bandit_either_3","A240OTT1T85UGT","either","3","1","","","","","","","1","0","0","0.8091314607","","0.2","0.6","0.8","0.4","","","","","0.3896626528","0.5586162784","0.8091314607","0.3463453368","","","","","","","","75","K","2","","","168","main_expt",""
"","bandit","248","622675","0.0-209.0-0.0","96961713","wem/bandit_either_3","A240OTT1T85UGT","either","3","74","","","","","","","0","0","1","0.8364166478","","0.2","0.6","0.8","0.4","","","","","0.4458805252","0.597448185","0.8364166478","0.3222551453","","","","","","","","75","K","2","","","169","main_expt",""
"","bandit","249","624264","0.0-210.0-0.0","96961713","wem/bandit_either_3","A240OTT1T85UGT","either","3","81","","","","","","","1","0","0","0.7867883415","","0.2","0.6","0.8","0.4","","","","","0.4844269655","0.5351242352","0.7867883415","0.2556410415","","","","","","","","75","K","2","","","170","main_expt",""
"","bandit","250","625859","0.0-211.0-0.0","96961713","wem/bandit_either_3","A240OTT1T85UGT","either","3","86","","","","","","","0","1","0","","0.8728822524","0.2","0.6","0.8","0.4","0.4858642724","0.4819966971","0.8728822524","0.2248109201","","","","","","","","","","","","75","K","2","","","171","main_expt",""
"","bandit","251","627492","0.0-212.0-0.0","96961713","wem/bandit_either_3","A240OTT1T85UGT","either","3","109","","","","","","","1","0","0","0.7804912391","","0.2","0.6","0.8","0.4","","","","","0.5060245996","0.4038669266","0.7804912391","0.3468742366","","","","","","","","75","K","2","","","172","main_expt",""
"","bandit","252","629142","0.0-213.0-0.0","96961713","wem/bandit_either_3","A240OTT1T85UGT","either","3","129","","","","","","","0","1","0","","0.7728490534","0.2","0.6","0.8","0.4","0.5413528159","0.3102533384","0.7728490534","0.234408543","","","","","","","","","","","","75","K","2","","","173","main_expt",""
"","bandit","253","630709","0.0-214.0-0.0","96961713","wem/bandit_either_3","A240OTT1T85UGT","either","3","48","","","","","","","1","0","0","0.814185781","","0.2","0.6","0.8","0.4","","","","","0.6505326818","0.3818943333","0.814185781","0.1404050277","","","","","","","","75","K","2","","","174","main_expt",""
"","bandit","254","632434","0.0-215.0-0.0","96961713","wem/bandit_either_3","A240OTT1T85UGT","either","3","181","","","","","","","1","0","0","0.8010682597","","0.2","0.6","0.8","0.4","","","","","0.6470977149","0.2893198216","0.8010682597","0.1081611795","","","","","","","","75","K","2","","","175","main_expt",""
"","bandit","255","634149","0.0-216.0-0.0","96961713","wem/bandit_either_3","A240OTT1T85UGT","either","3","194","","","","","","","0","1","0","","0.7083228223","0.2","0.6","0.8","0.4","0.6844229635","0.226416223","0.7083228223","0.0730283124","","","","","","","","","","","","75","K","2","","","176","main_expt",""
"","bandit","256","636054","0.0-217.0-0.0","96961713","wem/bandit_either_3","A240OTT1T85UGT","either","3","385","","","","","","","1","0","0","0.7408938443","","0.2","0.6","0.8","0.4","","","","","0.6883244284","0.2786676386","0.7408938443","0.07044941978","","","","","","","","75","K","2","","","177","main_expt",""
"","bandit","257","638467","0.0-218.0-0.0","96961713","wem/bandit_either_3","A240OTT1T85UGT","either","3","903","","","","","","","1","0","0","0.6621187214","","0.2","0.6","0.8","0.4","","","","","0.6098590842","0.2279078815","0.6621187214","0.06886985111","","","","","","","","75","K","2","","","178","main_expt",""
"","bandit","258","640151","0.0-219.0-0.0","96961713","wem/bandit_either_3","A240OTT1T85UGT","either","3","159","","","","","","","0","0","1","0.6765487854","","0.2","0.6","0.8","0.4","","","","","0.5924449164","0.1690126781","0.6765487854","0.07254371148","","","","","","","","75","K","2","","","179","main_expt",""
"","bandit","259","641859","0.0-220.0-0.0","96961713","wem/bandit_either_3","A240OTT1T85UGT","either","3","199","","","","","","","1","0","0","0.7276027883","","0.2","0.6","0.8","0.4","","","","","0.4915111467","0.1356066944","0.7276027883","0.055057054","","","","","","","","75","K","2","","","180","main_expt",""
"","bandit","260","644848","0.0-221.0-0.0","96961713","wem/bandit_either_3","A240OTT1T85UGT","either","3","1483","","","","","","","1","0","0","0.7083410305","","0.2","0.6","0.8","0.4","","","","","0.4713933083","0.1889441784","0.7083410305","0.1187845962","","","","","","","","75","K","2","","","181","main_expt",""
"","bandit","261","647420","0.0-222.0-0.0","96961713","wem/bandit_either_3","A240OTT1T85UGT","either","3","1055","","","","","","","0","1","0","","0.6489729838","0.2","0.6","0.8","0.4","0.500114893","0.2163976064","0.6489729838","0.1304227184","","","","","","","","","","","","75","K","2","","","182","main_expt",""
"","bandit","262","648958","0.0-223.0-0.0","96961713","wem/bandit_either_3","A240OTT1T85UGT","either","3","29","","","","","","","0","0","1","0.6956751073","","0.2","0.6","0.8","0.4","","","","","0.4949273894","0.1902524086","0.6956751073","0.1374638341","","","","","","","","75","K","2","","","183","main_expt",""
"","bandit","263","650497","0.0-224.0-0.0","96961713","wem/bandit_either_3","A240OTT1T85UGT","either","3","24","","","","","","","1","0","0","0.6066537109","","0.2","0.6","0.8","0.4","","","","","0.4271361476","0.2265805791","0.6066537109","0.1914365344","","","","","","","","75","K","2","","","184","main_expt",""
"","bandit","264","652150","0.0-225.0-0.0","96961713","wem/bandit_either_3","A240OTT1T85UGT","either","3","120","","","","","","","1","0","0","0.6337362372","","0.2","0.6","0.8","0.4","","","","","0.4558255176","0.1843452782","0.6337362372","0.1939872458","","","","","","","","75","K","2","","","185","main_expt",""
"","bandit","265","653841","0.0-226.0-0.0","96961713","wem/bandit_either_3","A240OTT1T85UGT","either","3","170","","","","","","","0","0","1","","0.5908962551","0.2","0.6","0.8","0.4","0.4031301461","0.1898387663","0.5908962551","0.2219937035","","","","","","","","","","","","75","K","2","","","186","main_expt",""
"","bandit","266","655414","0.0-227.0-0.0","96961713","wem/bandit_either_3","A240OTT1T85UGT","either","3","45","","","","","","","0","1","0","","0.7651761031","0.2","0.6","0.8","0.4","0.3993697366","0.210498268","0.7651761031","0.2024523472","","","","","","","","","","","","75","K","2","","","187","main_expt",""
"","bandit","267","657052","0.0-228.0-0.0","96961713","wem/bandit_either_3","A240OTT1T85UGT","either","3","118","","","","","","","0","1","0","","0.7928336054","0.2","0.6","0.8","0.4","0.4478687375","0.2368649008","0.7928336054","0.1930401344","","","","","","","","","","","","75","K","2","","","188","main_expt",""
"","bandit","268","658710","0.0-229.0-0.0","96961713","wem/bandit_either_3","A240OTT1T85UGT","either","3","148","","","","","","","1","0","0","0.8917358491","","0.2","0.6","0.8","0.4","","","","","0.3699601256","0.291591963","0.8917358491","0.3255404916","","","","","","","","75","K","2","","","189","main_expt",""
"","bandit","269","660345","0.0-230.0-0.0","96961713","wem/bandit_either_3","A240OTT1T85UGT","either","3","101","","","","","","","1","0","0","0.898448025","","0.2","0.6","0.8","0.4","","","","","0.3723251068","0.4411779124","0.898448025","0.2364063212","","","","","","","","75","K","2","","","190","main_expt",""
"","bandit","270","662038","0.0-231.0-0.0","96961713","wem/bandit_either_3","A240OTT1T85UGT","either","3","182","","","","","","","1","0","0","0.9186708851","","0.2","0.6","0.8","0.4","","","","","0.3309849287","0.3968704403","0.9186708851","0.2662767285","","","","","","","","75","K","2","","","191","main_expt",""
"","bandit","271","663586","0.0-232.0-0.0","96961713","wem/bandit_either_3","A240OTT1T85UGT","either","3","35","","","","","","","1","0","0","0.9314477517","","0.2","0.6","0.8","0.4","","","","","0.2865625263","0.4512817608","0.9314477517","0.2815174114","","","","","","","","75","K","2","","","192","main_expt",""
"","bandit","272","665155","0.0-233.0-0.0","96961713","wem/bandit_either_3","A240OTT1T85UGT","either","3","43","","","","","","","0","1","0","","0.9090465067","0.2","0.6","0.8","0.4","0.2862811746","0.4788006455","0.9090465067","0.3461293965","","","","","","","","","","","","75","K","2","","","193","main_expt",""
"","bandit","273","666849","0.0-234.0-0.0","96961713","wem/bandit_either_3","A240OTT1T85UGT","either","3","186","","","","","","","0","0","1","0.8762249788","","0.2","0.6","0.8","0.4","","","","","0.2785288642","0.4651889587","0.8762249788","0.3303735913","","","","","","","","75","K","2","","","194","main_expt",""
"","bandit","274","668426","0.0-235.0-0.0","96961713","wem/bandit_either_3","A240OTT1T85UGT","either","3","52","","","","","","","1","0","0","0.8623185747","","0.2","0.6","0.8","0.4","","","","","0.2283941808","0.4718629942","0.8623185747","0.3194565039","","","","","","","","75","K","2","","","195","main_expt",""
"","bandit","275","669988","0.0-236.0-0.0","96961713","wem/bandit_either_3","A240OTT1T85UGT","either","3","49","","","","","","","1","0","0","0.7745977574","","0.2","0.6","0.8","0.4","","","","","0.214282227","0.3825708332","0.7745977574","0.4103944464","","","","","","","","75","K","2","","","196","main_expt",""
"","bandit","276","671597","0.0-237.0-0.0","96961713","wem/bandit_either_3","A240OTT1T85UGT","either","3","73","","","","","","","1","0","0","0.7723069829","","0.2","0.6","0.8","0.4","","","","","0.1422959513","0.4530864699","0.7723069829","0.4445726534","","","","","","","","75","K","2","","","197","main_expt",""
"","bandit","277","673275","0.0-238.0-0.0","96961713","wem/bandit_either_3","A240OTT1T85UGT","either","3","172","","","","","","","0","0","1","0.7084082875","","0.2","0.6","0.8","0.4","","","","","0.1126324943","0.4337652667","0.7084082875","0.4351718099","","","","","","","","75","K","2","","","198","main_expt",""
"","bandit","278","674841","0.0-239.0-0.0","96961713","wem/bandit_either_3","A240OTT1T85UGT","either","3","38","","","","","","","1","0","0","0.7016883558","","0.2","0.6","0.8","0.4","","","","","0.1144166609","0.4138332966","0.7016883558","0.4641294157","","","","","","","","75","K","2","","","199","main_expt",""
"","bandit","279","676432","0.0-240.0-0.0","96961713","wem/bandit_either_3","A240OTT1T85UGT","either","3","84","","","","","","","0","0","1","0.6504384346","","0.2","0.6","0.8","0.4","","","","","0.1518003708","0.5005175686","0.6504384346","0.4468687069","","","","","","","","75","K","2","","","200","main_expt",""
"","bandit","280","677969","0.0-241.0-0.0","96961713","wem/bandit_either_3","A240OTT1T85UGT","either","3","30","","","","","","","0","1","0","","0.7904945102","0.2","0.6","0.8","0.4","0.1974433607","0.5122642399","0.7904945102","0.5087435212","","","","","","","","","","","","75","K","2","","","201","main_expt",""
"","bandit","281","679713","0.0-242.0-0.0","96961713","wem/bandit_either_3","A240OTT1T85UGT","either","3","231","","","","","","","1","0","0","0.7039472437","","0.2","0.6","0.8","0.4","","","","","0.2000842809","0.5414597976","0.7039472437","0.4992132835","","","","","","","","75","K","2","","","202","main_expt",""
"","bandit","282","683923","0.0-243.0-0.0","96961713","wem/bandit_either_3","A240OTT1T85UGT","either","3","2688","","","","","","","0","1","0","","0.7478807213","0.2","0.6","0.8","0.4","0.1715580826","0.4993649945","0.7478807213","0.4859842053","","","","","","","","","","","","75","K","2","","","203","main_expt",""
"","bandit","283","685520","0.0-244.0-0.0","96961713","wem/bandit_either_3","A240OTT1T85UGT","either","3","52","","","","","","","1","0","0","0.7346150791","","0.2","0.6","0.8","0.4","","","","","0.3028604286","0.4056752737","0.7346150791","0.6162755314","","","","","","","","75","K","2","","","204","main_expt",""
"","bandit","284","687124","0.0-245.0-0.0","96961713","wem/bandit_either_3","A240OTT1T85UGT","either","3","80","","","","","","","1","0","0","0.7240623961","","0.2","0.6","0.8","0.4","","","","","0.3714949669","0.4174768156","0.7240623961","0.6204906845","","","","","","","","75","K","2","","","205","main_expt",""
"","bandit","285","688662","0.0-246.0-0.0","96961713","wem/bandit_either_3","A240OTT1T85UGT","either","3","23","","","","","","","0","0","1","0.733657826","","0.2","0.6","0.8","0.4","","","","","0.3034865557","0.4364097613","0.733657826","0.6390595606","","","","","","","","75","K","2","","","206","main_expt",""
"","bandit","286","690186","0.0-247.0-0.0","96961713","wem/bandit_either_3","A240OTT1T85UGT","either","3","15","","","","","","","1","0","0","0.6797091947","","0.2","0.6","0.8","0.4","","","","","0.2688105372","0.4666062126","0.6797091947","0.6022157482","","","","","","","","75","K","2","","","207","main_expt",""
"","bandit","287","691723","0.0-248.0-0.0","96961713","wem/bandit_either_3","A240OTT1T85UGT","either","3","17","","","","","","","0","0","1","0.472157919","","0.2","0.6","0.8","0.4","","","","","0.2240001326","0.4594719295","0.472157919","0.6598502583","","","","","","","","75","K","2","","","208","main_expt",""
"","bandit","288","693415","0.0-249.0-0.0","96961713","wem/bandit_either_3","A240OTT1T85UGT","either","3","183","","","","","","","0","0","1","0.4993955773","","0.2","0.6","0.8","0.4","","","","","0.3284172364","0.5415101973","0.4993955773","0.6329069529","","","","","","","","75","K","2","","","209","main_expt",""
"","bandit","289","695015","0.0-250.0-0.0","96961713","wem/bandit_either_3","A240OTT1T85UGT","either","3","87","","","","","","","0","0","1","0.3923888982","","0.2","0.6","0.8","0.4","","","","","0.3178667136","0.5627952802","0.3923888982","0.5418549626","","","","","","","","75","K","2","","","210","main_expt",""
"","bandit","290","696558","0.0-251.0-0.0","96961713","wem/bandit_either_3","A240OTT1T85UGT","either","3","21","","","","","","","1","0","0","0.4183885941","","0.2","0.6","0.8","0.4","","","","","0.278360526","0.5779033475","0.4183885941","0.7265410197","","","","","","","","75","K","2","","","211","main_expt",""
"","bandit","291","698172","0.0-252.0-0.0","96961713","wem/bandit_either_3","A240OTT1T85UGT","either","3","99","","","","","","","1","0","0","0.5367383083","","0.2","0.6","0.8","0.4","","","","","0.2720231684","0.6169713091","0.5367383083","0.6550819281","","","","","","","","75","K","2","","","212","main_expt",""
"","bandit","292","699693","0.0-253.0-0.0","96961713","wem/bandit_either_3","A240OTT1T85UGT","either","3","0","","","","","","","1","0","0","0.5779451767","","0.2","0.6","0.8","0.4","","","","","0.3445332441","0.5688165975","0.5779451767","0.5812500281","","","","","","","","75","K","2","","","213","main_expt",""
"","bandit","293","701384","0.0-254.0-0.0","96961713","wem/bandit_either_3","A240OTT1T85UGT","either","3","182","","","","","","","1","0","0","0.5615700258","","0.2","0.6","0.8","0.4","","","","","0.331154659","0.5354690829","0.5615700258","0.6912727382","","","","","","","","75","K","2","","","214","main_expt",""
"","bandit","294","703022","0.0-255.0-0.0","96961713","wem/bandit_either_3","A240OTT1T85UGT","either","3","117","","","","","","","1","0","0","0.5361399643","","0.2","0.6","0.8","0.4","","","","","0.3168016653","0.4395706401","0.5361399643","0.695573978","","","","","","","","75","K","2","","","215","main_expt",""
"","bandit","295","704698","0.0-256.0-0.0","96961713","wem/bandit_either_3","A240OTT1T85UGT","either","3","147","","","","","","","1","0","0","0.620750855","","0.2","0.6","0.8","0.4","","","","","0.2870858596","0.4522294324","0.620750855","0.6531454011","","","","","","","","75","K","2","","","216","main_expt",""
"","bandit","296","706614","0.0-257.0-0.0","96961713","wem/bandit_either_3","A240OTT1T85UGT","either","3","387","","","","","","","0","0","1","0.4812239037","","0.2","0.6","0.8","0.4","","","","","0.2877345098","0.4141575353","0.4812239037","0.6459690495","","","","","","","","75","K","2","","","217","main_expt",""
"","bandit","297","708225","0.0-258.0-0.0","96961713","wem/bandit_either_3","A240OTT1T85UGT","either","3","90","","","","","","","1","0","0","0.4028497994","","0.2","0.6","0.8","0.4","","","","","0.3608492067","0.3009722504","0.4028497994","0.6679944541","","","","","","","","75","K","2","","","218","main_expt",""
"","bandit","298","709890","0.0-259.0-0.0","96961713","wem/bandit_either_3","A240OTT1T85UGT","either","3","157","","","","","","","1","0","0","0.4441021312","","0.2","0.6","0.8","0.4","","","","","0.4380407461","0.2706893249","0.4441021312","0.7159195147","","","","","","","","75","K","2","","","219","main_expt",""
"","bandit","299","711484","0.0-260.0-0.0","96961713","wem/bandit_either_3","A240OTT1T85UGT","either","3","79","","","","","","","0","0","1","0.4867825248","","0.2","0.6","0.8","0.4","","","","","0.4769938592","0.3821277721","0.4867825248","0.6874484601","","","","","","","","75","K","2","","","220","main_expt",""
"","bandit","300","713052","0.0-261.0-0.0","96961713","wem/bandit_either_3","A240OTT1T85UGT","either","3","52","","","","","","","1","0","0","0.5428062785","","0.2","0.6","0.8","0.4","","","","","0.4612627877","0.4534214389","0.5428062785","0.6528128226","","","","","","","","75","K","2","","","221","main_expt",""
"","bandit","301","714652","0.0-262.0-0.0","96961713","wem/bandit_either_3","A240OTT1T85UGT","either","3","78","","","","","","","1","0","0","0.5993321864","","0.2","0.6","0.8","0.4","","","","","0.4192901336","0.6049712458","0.5993321864","0.6836467719","","","","","","","","75","K","2","","","222","main_expt",""
"","bandit","302","716182","0.0-263.0-0.0","96961713","wem/bandit_either_3","A240OTT1T85UGT","either","3","5","","","","","","","1","0","0","0.4920604154","","0.2","0.6","0.8","0.4","","","","","0.5559965486","0.6389506418","0.4920604154","0.7820879334","","","","","","","","75","K","2","","","223","main_expt",""
"","bandit","303","717783","0.0-264.0-0.0","96961713","wem/bandit_either_3","A240OTT1T85UGT","either","3","86","","","","","","","1","0","0","0.5344282052","","0.2","0.6","0.8","0.4","","","","","0.6687933923","0.6677375732","0.5344282052","0.763226653","","","","","","","","75","K","2","","","224","main_expt",""
"","bandit","304","719424","0.0-265.0-0.0","96961713","wem/bandit_either_3","A240OTT1T85UGT","either","3","121","","","","","","","0","0","1","0.5583452501","","0.2","0.6","0.8","0.4","","","","","0.5954484576","0.7706853934","0.5583452501","0.6931961842","","","","","","","","75","K","2","","","225","main_expt",""
"","bandit","305","720993","0.0-266.0-0.0","96961713","wem/bandit_either_3","A240OTT1T85UGT","either","3","51","","","","","","","1","0","0","0.5126042404","","0.2","0.6","0.8","0.4","","","","","0.6152447968","0.7624197083","0.5126042404","0.6633974694","","","","","","","","75","K","2","","","226","main_expt",""
"","bandit","306","722538","0.0-267.0-0.0","96961713","wem/bandit_either_3","A240OTT1T85UGT","either","3","34","","","","","","","1","0","0","0.5720595628","","0.2","0.6","0.8","0.4","","","","","0.6597553912","0.7287840805","0.5720595628","0.6567175756","","","","","","","","75","K","2","","","227","main_expt",""
"","bandit","307","724240","0.0-268.0-0.0","96961713","wem/bandit_either_3","A240OTT1T85UGT","either","3","173","","","","","","","0","1","0","","0.6134710885","0.2","0.6","0.8","0.4","0.594895186","0.7993891034","0.6134710885","0.6052730858","","","","","","","","","","","","75","K","2","","","228","main_expt",""
"","bandit","308","726024","0.0-269.0-0.0","96961713","wem/bandit_either_3","A240OTT1T85UGT","either","3","261","","","","","","","1","0","0","0.5669106804","","0.2","0.6","0.8","0.4","","","","","0.5722559027","0.8374027748","0.5669106804","0.5548990383","","","","","","","","75","K","2","","","229","main_expt",""
"","bandit","309","727752","0.0-270.0-0.0","96961713","wem/bandit_either_3","A240OTT1T85UGT","either","3","221","","","","","","","1","0","0","0.6286782819","","0.2","0.6","0.8","0.4","","","","","0.5409090622","0.8414873787","0.6286782819","0.6017114108","","","","","","","","75","K","2","","","230","main_expt",""
"","bandit","310","729522","0.0-271.0-0.0","96961713","wem/bandit_either_3","A240OTT1T85UGT","either","3","236","","","","","","","1","0","0","0.5594948871","","0.2","0.6","0.8","0.4","","","","","0.518727512","0.8531648874","0.5594948871","0.5525336349","","","","","","","","75","K","2","","","231","main_expt",""
"","bandit","311","731209","0.0-272.0-0.0","96961713","wem/bandit_either_3","A240OTT1T85UGT","either","3","160","","","","","","","0","0","1","0.5817998964","","0.2","0.6","0.8","0.4","","","","","0.5200298571","0.8813812612","0.5817998964","0.4493361955","","","","","","","","75","K","2","","","232","main_expt",""
"","bandit","312","732873","0.0-273.0-0.0","96961713","wem/bandit_either_3","A240OTT1T85UGT","either","3","157","","","","","","","1","0","0","0.5971875981","","0.2","0.6","0.8","0.4","","","","","0.4564343731","0.8916766345","0.5971875981","0.5280832246","","","","","","","","75","K","2","","","233","main_expt",""
"","bandit","313","734555","0.0-274.0-0.0","96961713","wem/bandit_either_3","A240OTT1T85UGT","either","3","165","","","","","","","0","0","1","","0.5227237997","0.2","0.6","0.8","0.4","0.4168065644","0.842820862","0.5227237997","0.6814540918","","","","","","","","","","","","75","K","2","","","234","main_expt",""
"","bandit","314","736239","0.0-275.0-0.0","96961713","wem/bandit_either_3","A240OTT1T85UGT","either","3","147","","","","","","","0","0","1","0.6231997156","","0.2","0.6","0.8","0.4","","","","","0.4340770274","0.7856269381","0.6231997156","0.5518959403","","","","","","","","75","K","2","","","235","main_expt",""
"","bandit","315","737842","0.0-276.0-0.0","96961713","wem/bandit_either_3","A240OTT1T85UGT","either","3","91","","","","","","","1","0","0","0.558272317","","0.2","0.6","0.8","0.4","","","","","0.4489205242","0.8092971262","0.558272317","0.4965619817","","","","","","","","75","K","2","","","236","main_expt",""
"","bandit","316","739365","0.0-277.0-0.0","96961713","wem/bandit_either_3","A240OTT1T85UGT","either","3","11","","","","","","","0","0","1","0.6118965497","","0.2","0.6","0.8","0.4","","","","","0.4838648791","0.8125536838","0.6118965497","0.4762879104","","","","","","","","75","K","2","","","237","main_expt",""
"","bandit","317","741039","0.0-278.0-0.0","96961713","wem/bandit_either_3","A240OTT1T85UGT","either","3","158","","","","","","","1","0","0","0.7415542647","","0.2","0.6","0.8","0.4","","","","","0.4615645545","0.8684257659","0.7415542647","0.4991976808","","","","","","","","75","K","2","","","238","main_expt",""
"","bandit","318","742647","0.0-279.0-0.0","96961713","wem/bandit_either_3","A240OTT1T85UGT","either","3","99","","","","","","","1","0","0","0.794517608","","0.2","0.6","0.8","0.4","","","","","0.4263497721","0.8891050988","0.794517608","0.4627972202","","","","","","","","75","K","2","","","239","main_expt",""
"","bandit","319","744192","0.0-280.0-0.0","96961713","wem/bandit_either_3","A240OTT1T85UGT","either","3","29","","","","","","","0","0","1","0.7966429163","","0.2","0.6","0.8","0.4","","","","","0.4372282776","0.8983693474","0.7966429163","0.484486763","","","","","","","","75","K","2","","","240","main_expt",""
"","bandit","320","745762","0.0-281.0-0.0","96961713","wem/bandit_either_3","A240OTT1T85UGT","either","3","52","","","","","","","1","0","0","0.7827696357","","0.2","0.6","0.8","0.4","","","","","0.5558093781","0.8608109038","0.7827696357","0.3450886106","","","","","","","","75","K","2","","","241","main_expt",""
"","bandit","321","747277","0.0-282.0-0.0","96961713","wem/bandit_either_3","A240OTT1T85UGT","either","3","7","","","","","","","1","0","0","0.8077769827","","0.2","0.6","0.8","0.4","","","","","0.654661817","0.8807376199","0.8077769827","0.4066884652","","","","","","","","75","K","2","","","242","main_expt",""
"","bandit","322","748828","0.0-283.0-0.0","96961713","wem/bandit_either_3","A240OTT1T85UGT","either","3","33","","","","","","","1","0","0","0.7680675523","","0.2","0.6","0.8","0.4","","","","","0.5869565726","0.8782163565","0.7680675523","0.3574054959","","","","","","","","75","K","2","","","243","main_expt",""
"","bandit","323","750426","0.0-284.0-0.0","96961713","wem/bandit_either_3","A240OTT1T85UGT","either","3","79","","","","","","","1","0","0","0.6802465609","","0.2","0.6","0.8","0.4","","","","","0.6282978891","0.8691088863","0.6802465609","0.4200458239","","","","","","","","75","K","2","","","244","main_expt",""
"","bandit","324","751990","0.0-285.0-0.0","96961713","wem/bandit_either_3","A240OTT1T85UGT","either","3","41","","","","","","","0","0","1","0.6110509309","","0.2","0.6","0.8","0.4","","","","","0.5918678021","0.8516976639","0.6110509309","0.3587254574","","","","","","","","75","K","2","","","245","main_expt",""
"","bandit","325","753593","0.0-286.0-0.0","96961713","wem/bandit_either_3","A240OTT1T85UGT","either","3","77","","","","","","","0","0","1","","0.6490463127","0.2","0.6","0.8","0.4","0.5768832148","0.9024239937","0.6490463127","0.3469794694","","","","","","","","","","","","75","K","2","","","246","main_expt",""
"","bandit","326","755206","0.0-287.0-0.0","96961713","wem/bandit_either_3","A240OTT1T85UGT","either","3","83","","","","","","","1","0","0","0.666935985","","0.2","0.6","0.8","0.4","","","","","0.5921373562","0.8722687537","0.666935985","0.3633203126","","","","","","","","75","K","2","","","247","main_expt",""
"","bandit","327","756762","0.0-288.0-0.0","96961713","wem/bandit_either_3","A240OTT1T85UGT","either","3","38","","","","","","","0","1","0","","0.5523954184","0.2","0.6","0.8","0.4","0.6547465393","0.9098098352","0.5523954184","0.3823056395","","","","","","","","","","","","75","K","2","","","248","main_expt",""
