"consent","trial_type","trial_index","time_elapsed","internal_node_id","subjID","study","MID","cond","drift","rt","responses","key_press","expt_phase","like","value","connected","gems","bombs","no_reward","GemPrChosen","BombPrChosen","GainOverPainPr_0","GainOverPainPr_1","GainOverPainPr_2","GainOverPainPr_3","LosePr_0","LosePr_1","LosePr_2","LosePr_3","WinPr_0","WinPr_1","WinPr_2","WinPr_3","Q0","Q1","Q2","gender","age","ethnicity","target","respCharCode","respKey","respChoiceNum","respChoice","practice","trial_counter","trial_label","button_pressed"
"INL_behavioral_consent_30min_online.html","consent","0","10506","0.0-0.0","97272228","wem/bandit_either_3","A3IR7DFEKLLLO","either","8","","","","","","","","","","","","","","","","","","","","","","","","","","","","","","","","","","","","","","",""
"","survey-text","1","15243","0.0-1.0","97272228","wem/bandit_either_3","A3IR7DFEKLLLO","either","8","3718","{""Q0"":""A3IR7DFEKLLLO""}","","","","","","","","","","","","","","","","","","","","","","","","","","","","","","","","","","","","",""
"","text","2","20894","0.0-2.0","97272228","wem/bandit_either_3","A3IR7DFEKLLLO","either","8","4644","","32","","","","","","","","","","","","","","","","","","","","","","","","","","","","","","","","","","","",""
"","text","3","24357","0.0-3.0","97272228","wem/bandit_either_3","A3IR7DFEKLLLO","either","8","3462","","32","","","","","","","","","","","","","","","","","","","","","","","","","","","","","","","","","","","",""
"","text","4","34030","0.0-4.0","97272228","wem/bandit_either_3","A3IR7DFEKLLLO","either","8","9671","","32","","","","","","","","","","","","","","","","","","","","","","","","","","","","","","","","","","","",""
"","text","5","40328","0.0-5.0","97272228","wem/bandit_either_3","A3IR7DFEKLLLO","either","8","6296","","32","","","","","","","","","","","","","","","","","","","","","","","","","","","","","","","","","","","",""
"","text","6","45491","0.0-6.0","97272228","wem/bandit_either_3","A3IR7DFEKLLLO","either","8","5159","","32","","","","","","","","","","","","","","","","","","","","","","","","","","","","","","","","","","","",""
"","text","7","48309","0.0-7.0","97272228","wem/bandit_either_3","A3IR7DFEKLLLO","either","8","2813","","32","","","","","","","","","","","","","","","","","","","","","","","","","","","","","","","","","","","",""
"","text","8","50713","0.0-8.0","97272228","wem/bandit_either_3","A3IR7DFEKLLLO","either","8","2399","","32","","","","","","","","","","","","","","","","","","","","","","","","","","","","","","","","","","","",""
"","identification","9","57728","0.0-9.0-0.0","97272228","wem/bandit_either_3","A3IR7DFEKLLLO","either","8","6975","","","","3","4","4","","","","","","","","","","","","","","","","","","","","","","","","the village of Zur","","","","","","","",""
"","identification","10","61646","0.0-9.0-1.0","97272228","wem/bandit_either_3","A3IR7DFEKLLLO","either","8","2880","","","","2","1","2","","","","","","","","","","","","","","","","","","","","","","","","the village of Nyx","","","","","","","",""
"","text","11","67503","0.0-10.0","97272228","wem/bandit_either_3","A3IR7DFEKLLLO","either","8","4836","","32","","","","","","","","","","","","","","","","","","","","","","","","","","","","","","","","","","","",""
"","text","12","70329","0.0-11.0","97272228","wem/bandit_either_3","A3IR7DFEKLLLO","either","8","2823","","32","","","","","","","","","","","","","","","","","","","","","","","","","","","","","","","","","","","",""
"","text","13","71761","0.0-12.0","97272228","wem/bandit_either_3","A3IR7DFEKLLLO","either","8","1430","","32","","","","","","","","","","","","","","","","","","","","","","","","","","","","","","","","","","","",""
"","text","14","76178","0.0-13.0","97272228","wem/bandit_either_3","A3IR7DFEKLLLO","either","8","4413","","32","","","","","","","","","","","","","","","","","","","","","","","","","","","","","","","","","","","",""
"","bandit","15","82226","0.0-14.0-0.0","97272228","wem/bandit_either_3","A3IR7DFEKLLLO","either","8","4483","","","","","","","0","0","1","0","0","","","","","0","","","","0","","","","","","","","","","","74","J","0","img/none_selected_demo.jpg","true","0","",""
"","bandit","16","85136","0.0-15.0-0.0","97272228","wem/bandit_either_3","A3IR7DFEKLLLO","either","8","1372","","","","","","","0","0","1","0","0","","","","","0","","","","0","","","","","","","","","","","75","K","0","img/none_selected_demo.jpg","true","0","",""
"","text","17","88422","0.0-16.0","97272228","wem/bandit_either_3","A3IR7DFEKLLLO","either","8","3282","","32","","","","","","","","","","","","","","","","","","","","","","","","","","","","","","","","","","","",""
"","text","18","94511","0.0-17.0","97272228","wem/bandit_either_3","A3IR7DFEKLLLO","either","8","6084","","32","","","","","","","","","","","","","","","","","","","","","","","","","","","","","","","","","","","",""
"","text","19","96938","0.0-18.0","97272228","wem/bandit_either_3","A3IR7DFEKLLLO","either","8","2424","","32","","","","","","","","","","","","","","","","","","","","","","","","","","","","","","","","","","","",""
"","text","20","99047","0.0-19.0","97272228","wem/bandit_either_3","A3IR7DFEKLLLO","either","8","2106","","32","","","","","","","","","","","","","","","","","","","","","","","","","","","","","","","","","","","",""
"","bandit","21","102239","0.0-20.0-0.0","97272228","wem/bandit_either_3","A3IR7DFEKLLLO","either","8","1654","","","","","","","0","0","1","","0.2","0.5","0.5","","","0.8","0.2","","","","","","","","","","","","","","75","K","1","","true","0","80_20_practice",""
"","bandit","22","105042","0.0-20.0-1.0","97272228","wem/bandit_either_3","A3IR7DFEKLLLO","either","8","1275","","","","","","","1","0","0","0.8","","0.5","0.5","","","","","","","0.8","0.2","","","","","","","","","","74","J","0","img/none_selected_demo.jpg","true","0","80_20_practice",""
"","bandit","23","107261","0.0-20.0-2.0","97272228","wem/bandit_either_3","A3IR7DFEKLLLO","either","8","689","","","","","","","0","1","0","","0.8","0.5","0.5","","","0.8","0.2","","","","","","","","","","","","","","74","J","0","img/none_selected_demo.jpg","true","0","80_20_practice",""
"","bandit","24","109718","0.0-20.0-3.0","97272228","wem/bandit_either_3","A3IR7DFEKLLLO","either","8","904","","","","","","","0","0","1","0.2","","0.5","0.5","","","","","","","0.8","0.2","","","","","","","","","","75","K","1","","true","0","80_20_practice",""
"","bandit","25","111738","0.0-20.0-4.0","97272228","wem/bandit_either_3","A3IR7DFEKLLLO","either","8","481","","","","","","","0","1","0","","0.8","0.5","0.5","","","0.8","0.2","","","","","","","","","","","","","","74","J","0","img/none_selected_demo.jpg","true","0","80_20_practice",""
"","bandit","26","113724","0.0-20.0-5.0","97272228","wem/bandit_either_3","A3IR7DFEKLLLO","either","8","450","","","","","","","0","0","1","0.2","","0.5","0.5","","","","","","","0.8","0.2","","","","","","","","","","75","K","1","","true","0","80_20_practice",""
"","bandit","27","115530","0.0-20.0-6.0","97272228","wem/bandit_either_3","A3IR7DFEKLLLO","either","8","259","","","","","","","0","1","0","","0.2","0.5","0.5","","","0.8","0.2","","","","","","","","","","","","","","75","K","1","","true","0","80_20_practice",""
"","bandit","28","117325","0.0-20.0-7.0","97272228","wem/bandit_either_3","A3IR7DFEKLLLO","either","8","254","","","","","","","0","1","0","","0.2","0.5","0.5","","","0.8","0.2","","","","","","","","","","","","","","75","K","1","","true","0","80_20_practice",""
"","bandit","29","119114","0.0-20.0-8.0","97272228","wem/bandit_either_3","A3IR7DFEKLLLO","either","8","252","","","","","","","1","0","0","0.2","","0.5","0.5","","","","","","","0.8","0.2","","","","","","","","","","75","K","1","","true","0","80_20_practice",""
"","bandit","30","120861","0.0-20.0-9.0","97272228","wem/bandit_either_3","A3IR7DFEKLLLO","either","8","223","","","","","","","0","0","1","","0.2","0.5","0.5","","","0.8","0.2","","","","","","","","","","","","","","75","K","1","","true","0","80_20_practice",""
"","bandit","31","122672","0.0-20.0-10.0","97272228","wem/bandit_either_3","A3IR7DFEKLLLO","either","8","281","","","","","","","0","1","0","","0.8","0.5","0.5","","","0.8","0.2","","","","","","","","","","","","","","74","J","0","img/none_selected_demo.jpg","true","0","80_20_practice",""
"","bandit","32","124445","0.0-20.0-11.0","97272228","wem/bandit_either_3","A3IR7DFEKLLLO","either","8","239","","","","","","","0","0","1","0.8","","0.5","0.5","","","","","","","0.8","0.2","","","","","","","","","","74","J","0","img/none_selected_demo.jpg","true","0","80_20_practice",""
"","bandit","33","126344","0.0-20.0-12.0","97272228","wem/bandit_either_3","A3IR7DFEKLLLO","either","8","377","","","","","","","1","0","0","0.8","","0.5","0.5","","","","","","","0.8","0.2","","","","","","","","","","74","J","0","img/none_selected_demo.jpg","true","0","80_20_practice",""
"","bandit","34","128226","0.0-20.0-13.0","97272228","wem/bandit_either_3","A3IR7DFEKLLLO","either","8","368","","","","","","","1","0","0","0.8","","0.5","0.5","","","","","","","0.8","0.2","","","","","","","","","","74","J","0","img/none_selected_demo.jpg","true","0","80_20_practice",""
"","bandit","35","130039","0.0-20.0-14.0","97272228","wem/bandit_either_3","A3IR7DFEKLLLO","either","8","283","","","","","","","0","0","1","0.8","","0.5","0.5","","","","","","","0.8","0.2","","","","","","","","","","74","J","0","img/none_selected_demo.jpg","true","0","80_20_practice",""
"","bandit","36","131899","0.0-20.0-15.0","97272228","wem/bandit_either_3","A3IR7DFEKLLLO","either","8","321","","","","","","","0","1","0","","0.8","0.5","0.5","","","0.8","0.2","","","","","","","","","","","","","","74","J","0","img/none_selected_demo.jpg","true","0","80_20_practice",""
"","bandit","37","133726","0.0-20.0-16.0","97272228","wem/bandit_either_3","A3IR7DFEKLLLO","either","8","309","","","","","","","1","0","0","0.8","","0.5","0.5","","","","","","","0.8","0.2","","","","","","","","","","74","J","0","img/none_selected_demo.jpg","true","0","80_20_practice",""
"","bandit","38","135638","0.0-20.0-17.0","97272228","wem/bandit_either_3","A3IR7DFEKLLLO","either","8","368","","","","","","","0","1","0","","0.8","0.5","0.5","","","0.8","0.2","","","","","","","","","","","","","","74","J","0","img/none_selected_demo.jpg","true","0","80_20_practice",""
"","bandit","39","137419","0.0-20.0-18.0","97272228","wem/bandit_either_3","A3IR7DFEKLLLO","either","8","262","","","","","","","0","0","1","0.8","","0.5","0.5","","","","","","","0.8","0.2","","","","","","","","","","74","J","0","img/none_selected_demo.jpg","true","0","80_20_practice",""
"","bandit","40","139146","0.0-20.0-19.0","97272228","wem/bandit_either_3","A3IR7DFEKLLLO","either","8","173","","","","","","","1","0","0","0.8","","0.5","0.5","","","","","","","0.8","0.2","","","","","","","","","","74","J","0","img/none_selected_demo.jpg","true","0","80_20_practice",""
"","text","41","141440","0.0-21.0","97272228","wem/bandit_either_3","A3IR7DFEKLLLO","either","8","2290","","32","","","","","","","","","","","","","","","","","","","","","","","","","","","","","","","","","","","",""
"","bandit","42","146427","0.0-22.0-0.0","97272228","wem/bandit_either_3","A3IR7DFEKLLLO","either","8","3444","","","","","","","1","0","0","1","0","","","","","0","1","","","1","0","","","","","","","","","","74","J","0","img/none_selected_demo.jpg","true","0","",""
"","text","43","148838","0.0-23.0","97272228","wem/bandit_either_3","A3IR7DFEKLLLO","either","8","2404","","32","","","","","","","","","","","","","","","","","","","","","","","","","","","","","","","","","","","",""
"","text","44","151002","0.0-24.0","97272228","wem/bandit_either_3","A3IR7DFEKLLLO","either","8","2158","","32","","","","","","","","","","","","","","","","","","","","","","","","","","","","","","","","","","","",""
"","text","45","152313","0.0-25.0","97272228","wem/bandit_either_3","A3IR7DFEKLLLO","either","8","1304","","32","","","","","","","","","","","","","","","","","","","","","","","","","","","","","","","","","","","",""
"","text","46","153657","0.0-26.0","97272228","wem/bandit_either_3","A3IR7DFEKLLLO","either","8","1334","","32","","","","","","","","","","","","","","","","","","","","","","","","","","","","","","","","","","","",""
"","text","47","155295","0.0-27.0","97272228","wem/bandit_either_3","A3IR7DFEKLLLO","either","8","1630","","32","","","","","","","","","","","","","","","","","","","","","","","","","","","","","","","","","","","",""
"","text","48","156312","0.0-28.0","97272228","wem/bandit_either_3","A3IR7DFEKLLLO","either","8","1012","","32","","","","","","","","","","","","","","","","","","","","","","","","","","","","","","","","","","","",""
"","text","49","157379","0.0-29.0","97272228","wem/bandit_either_3","A3IR7DFEKLLLO","either","8","1064","","32","","","","","","","","","","","","","","","","","","","","","","","","","","","","","","","","","","","",""
"","text","50","158683","0.0-30.0","97272228","wem/bandit_either_3","A3IR7DFEKLLLO","either","8","1300","","32","","","","","","","","","","","","","","","","","","","","","","","","","","","","","","","","","","","",""
"","text","51","160807","0.0-31.0","97272228","wem/bandit_either_3","A3IR7DFEKLLLO","either","8","2120","","32","","","","","","","","","","","","","","","","","","","","","","","","","","","","","","","","","","","",""
"","text","52","162369","0.0-32.0","97272228","wem/bandit_either_3","A3IR7DFEKLLLO","either","8","1559","","32","","","","","","","","","","","","","","","","","","","","","","","","","","","","","","","","","","","",""
"","text","53","164373","0.0-33.0","97272228","wem/bandit_either_3","A3IR7DFEKLLLO","either","8","2002","","32","","","","","","","","","","","","","","","","","","","","","","","","","","","","","","","","","","","",""
"","bandit","54","166430","0.0-34.0-0.0","97272228","wem/bandit_either_3","A3IR7DFEKLLLO","either","8","510","","","","","","","0","0","1","","0.8","0.5","0.5","0.5","0.5","0.8","0.2","0.6","0.2","","","","","","","","","","","","72","H","0","img/none_selected.jpg","true","0","full_practice",""
"","bandit","55","168073","0.0-34.0-1.0","97272228","wem/bandit_either_3","A3IR7DFEKLLLO","either","8","106","","","","","","","0","1","0","","0.6","0.5","0.5","0.5","0.5","0.8","0.2","0.6","0.2","","","","","","","","","","","","75","K","2","","true","0","full_practice",""
"","bandit","56","170054","0.0-34.0-2.0","97272228","wem/bandit_either_3","A3IR7DFEKLLLO","either","8","452","","","","","","","0","0","1","","0.2","0.5","0.5","0.5","0.5","0.8","0.2","0.6","0.2","","","","","","","","","","","","74","J","1","","true","0","full_practice",""
"","bandit","57","171889","0.0-34.0-3.0","97272228","wem/bandit_either_3","A3IR7DFEKLLLO","either","8","270","","","","","","","0","0","1","","0.2","0.5","0.5","0.5","0.5","0.8","0.2","0.6","0.2","","","","","","","","","","","","74","J","1","","true","0","full_practice",""
"","bandit","58","173945","0.0-34.0-4.0","97272228","wem/bandit_either_3","A3IR7DFEKLLLO","either","8","495","","","","","","","0","0","1","0.2","","0.5","0.5","0.5","0.5","","","","","0.8","0.2","0.6","0.2","","","","","","","","76","L","3","","true","0","full_practice",""
"","bandit","59","175695","0.0-34.0-5.0","97272228","wem/bandit_either_3","A3IR7DFEKLLLO","either","8","219","","","","","","","0","0","1","","0.2","0.5","0.5","0.5","0.5","0.8","0.2","0.6","0.2","","","","","","","","","","","","74","J","1","","true","0","full_practice",""
"","bandit","60","177239","0.0-34.0-6.0","97272228","wem/bandit_either_3","A3IR7DFEKLLLO","either","8","12","","","","","","","0","1","0","","0.2","0.5","0.5","0.5","0.5","0.8","0.2","0.6","0.2","","","","","","","","","","","","74","J","1","","true","0","full_practice",""
"","bandit","61","180311","0.0-34.0-7.0","97272228","wem/bandit_either_3","A3IR7DFEKLLLO","either","8","1214","","","","","","","1","0","0","0.6","","0.5","0.5","0.5","0.5","","","","","0.8","0.2","0.6","0.2","","","","","","","","75","K","2","","true","0","full_practice",""
"","bandit","62","182158","0.0-34.0-8.0","97272228","wem/bandit_either_3","A3IR7DFEKLLLO","either","8","285","","","","","","","1","0","0","0.6","","0.5","0.5","0.5","0.5","","","","","0.8","0.2","0.6","0.2","","","","","","","","75","K","2","","true","0","full_practice",""
"","bandit","63","184048","0.0-34.0-9.0","97272228","wem/bandit_either_3","A3IR7DFEKLLLO","either","8","365","","","","","","","0","1","0","","0.8","0.5","0.5","0.5","0.5","0.8","0.2","0.6","0.2","","","","","","","","","","","","72","H","0","img/none_selected.jpg","true","0","full_practice",""
"","bandit","64","185841","0.0-34.0-10.0","97272228","wem/bandit_either_3","A3IR7DFEKLLLO","either","8","251","","","","","","","0","1","0","","0.8","0.5","0.5","0.5","0.5","0.8","0.2","0.6","0.2","","","","","","","","","","","","72","H","0","img/none_selected.jpg","true","0","full_practice",""
"","bandit","65","187494","0.0-34.0-11.0","97272228","wem/bandit_either_3","A3IR7DFEKLLLO","either","8","1","","","","","","","1","0","0","0.8","","0.5","0.5","0.5","0.5","","","","","0.8","0.2","0.6","0.2","","","","","","","","72","H","0","img/none_selected.jpg","true","0","full_practice",""
"","bandit","66","189068","0.0-34.0-12.0","97272228","wem/bandit_either_3","A3IR7DFEKLLLO","either","8","12","","","","","","","0","1","0","","0.8","0.5","0.5","0.5","0.5","0.8","0.2","0.6","0.2","","","","","","","","","","","","72","H","0","img/none_selected.jpg","true","0","full_practice",""
"","bandit","67","190847","0.0-34.0-13.0","97272228","wem/bandit_either_3","A3IR7DFEKLLLO","either","8","240","","","","","","","0","0","1","0.2","","0.5","0.5","0.5","0.5","","","","","0.8","0.2","0.6","0.2","","","","","","","","74","J","1","","true","0","full_practice",""
"","bandit","68","192822","0.0-34.0-14.0","97272228","wem/bandit_either_3","A3IR7DFEKLLLO","either","8","430","","","","","","","0","0","1","","0.2","0.5","0.5","0.5","0.5","0.8","0.2","0.6","0.2","","","","","","","","","","","","76","L","3","","true","0","full_practice",""
"","bandit","69","194725","0.0-34.0-15.0","97272228","wem/bandit_either_3","A3IR7DFEKLLLO","either","8","380","","","","","","","0","1","0","","0.8","0.5","0.5","0.5","0.5","0.8","0.2","0.6","0.2","","","","","","","","","","","","72","H","0","img/none_selected.jpg","true","0","full_practice",""
"","bandit","70","196568","0.0-34.0-16.0","97272228","wem/bandit_either_3","A3IR7DFEKLLLO","either","8","232","","","","","","","0","1","0","","0.6","0.5","0.5","0.5","0.5","0.8","0.2","0.6","0.2","","","","","","","","","","","","75","K","2","","true","0","full_practice",""
"","bandit","71","199644","0.0-34.0-17.0","97272228","wem/bandit_either_3","A3IR7DFEKLLLO","either","8","1477","","","","","","","0","0","1","0.8","","0.5","0.5","0.5","0.5","","","","","0.8","0.2","0.6","0.2","","","","","","","","72","H","0","img/none_selected.jpg","true","0","full_practice",""
"","bandit","72","201547","0.0-34.0-18.0","97272228","wem/bandit_either_3","A3IR7DFEKLLLO","either","8","378","","","","","","","0","1","0","","0.2","0.5","0.5","0.5","0.5","0.8","0.2","0.6","0.2","","","","","","","","","","","","74","J","1","","true","0","full_practice",""
"","bandit","73","203306","0.0-34.0-19.0","97272228","wem/bandit_either_3","A3IR7DFEKLLLO","either","8","234","","","","","","","0","1","0","","0.8","0.5","0.5","0.5","0.5","0.8","0.2","0.6","0.2","","","","","","","","","","","","72","H","0","img/none_selected.jpg","true","0","full_practice",""
"","text","74","205945","0.0-35.0","97272228","wem/bandit_either_3","A3IR7DFEKLLLO","either","8","2631","","32","","","","","","","","","","","","","","","","","","","","","","","","","","","","","","","","","","","",""
"","text","75","214206","0.0-36.0","97272228","wem/bandit_either_3","A3IR7DFEKLLLO","either","8","7246","","32","","","","","","","","","","","","","","","","","","","","","","","","","","","","","","","","","","","",""
"","text","76","217612","0.0-37.0","97272228","wem/bandit_either_3","A3IR7DFEKLLLO","either","8","3396","","32","","","","","","","","","","","","","","","","","","","","","","","","","","","","","","","","","","","",""
"","text","77","219692","0.0-38.0","97272228","wem/bandit_either_3","A3IR7DFEKLLLO","either","8","2072","","32","","","","","","","","","","","","","","","","","","","","","","","","","","","","","","","","","","","",""
"","text","78","222231","0.0-39.0","97272228","wem/bandit_either_3","A3IR7DFEKLLLO","either","8","2527","","32","","","","","","","","","","","","","","","","","","","","","","","","","","","","","","","","","","","",""
"","text","79","224276","0.0-40.0","97272228","wem/bandit_either_3","A3IR7DFEKLLLO","either","8","2039","","32","","","","","","","","","","","","","","","","","","","","","","","","","","","","","","","","","","","",""
"","bandit","80","227582","0.0-41.0-0.0","97272228","wem/bandit_either_3","A3IR7DFEKLLLO","either","8","1758","","","","","","","0","0","1","","0.3040937467","0.2","0.8","0.4","0.6","0.4468950172","0.6337563202","0.3040937467","0.2428949588","","","","","","","","","","","","75","K","2","","","1","main_expt",""
"","bandit","81","229921","0.0-42.0-0.0","97272228","wem/bandit_either_3","A3IR7DFEKLLLO","either","8","792","","","","","","","0","0","1","0.248961424","","0.2","0.8","0.4","0.6","","","","","0.3846124694","0.7380673114","0.2687625136","0.248961424","","","","","","","","76","L","3","","","2","main_expt",""
"","bandit","82","232569","0.0-43.0-0.0","97272228","wem/bandit_either_3","A3IR7DFEKLLLO","either","8","1118","","","","","","","0","1","0","","0.3885967974","0.2","0.8","0.4","0.6","0.3885967974","0.7715549737","0.3017919557","0.1878604038","","","","","","","","","","","","72","H","0","img/none_selected.jpg","","3","main_expt",""
"","bandit","83","234605","0.0-44.0-0.0","97272228","wem/bandit_either_3","A3IR7DFEKLLLO","either","8","474","","","","","","","0","1","0","","0.2891644394","0.2","0.8","0.4","0.6","0.2891644394","0.8257013646","0.3388517529","0.1194049449","","","","","","","","","","","","72","H","0","img/none_selected.jpg","","4","main_expt",""
"","bandit","84","236402","0.0-45.0-0.0","97272228","wem/bandit_either_3","A3IR7DFEKLLLO","either","8","277","","","","","","","1","0","0","0.2654579937","","0.2","0.8","0.4","0.6","","","","","0.2654579937","0.8617886559","0.389096829","0.197046458","","","","","","","","72","H","0","img/none_selected.jpg","","5","main_expt",""
"","bandit","85","238211","0.0-46.0-0.0","97272228","wem/bandit_either_3","A3IR7DFEKLLLO","either","8","280","","","","","","","1","0","0","0.355160999","","0.2","0.8","0.4","0.6","","","","","0.355160999","0.8452125903","0.4799636182","0.2312720201","","","","","","","","72","H","0","img/none_selected.jpg","","6","main_expt",""
"","bandit","86","240039","0.0-47.0-0.0","97272228","wem/bandit_either_3","A3IR7DFEKLLLO","either","8","300","","","","","","","1","0","0","0.8765288384","","0.2","0.8","0.4","0.6","","","","","0.4733904832","0.8765288384","0.5316557606","0.3255591742","","","","","","","","74","J","1","","","7","main_expt",""
"","bandit","87","242217","0.0-48.0-0.0","97272228","wem/bandit_either_3","A3IR7DFEKLLLO","either","8","649","","","","","","","1","0","0","0.8625068071","","0.2","0.8","0.4","0.6","","","","","0.4900136729","0.8625068071","0.4935712437","0.163151729","","","","","","","","74","J","1","","","8","main_expt",""
"","bandit","88","244045","0.0-49.0-0.0","97272228","wem/bandit_either_3","A3IR7DFEKLLLO","either","8","285","","","","","","","0","0","1","","0.4543552171","0.2","0.8","0.4","0.6","0.4543552171","0.8385781597","0.5400450001","0.1671639775","","","","","","","","","","","","72","H","0","img/none_selected.jpg","","9","main_expt",""
"","bandit","89","246332","0.0-50.0-0.0","97272228","wem/bandit_either_3","A3IR7DFEKLLLO","either","8","743","","","","","","","0","0","1","0.1315225434","","0.2","0.8","0.4","0.6","","","","","0.4523920981","0.833356221","0.6510952772","0.1315225434","","","","","","","","76","L","3","","","10","main_expt",""
"","bandit","90","248143","0.0-51.0-0.0","97272228","wem/bandit_either_3","A3IR7DFEKLLLO","either","8","274","","","","","","","0","1","0","","0.4053083118","0.2","0.8","0.4","0.6","0.4053083118","0.9030756702","0.6117649901","0.1287002637","","","","","","","","","","","","72","H","0","img/none_selected.jpg","","11","main_expt",""
"","bandit","91","249992","0.0-52.0-0.0","97272228","wem/bandit_either_3","A3IR7DFEKLLLO","either","8","221","","","","","","","0","0","1","","0.4059907931","0.2","0.8","0.4","0.6","0.4059907931","0.9129290363","0.6360746298","0.1026596936","","","","","","","","","","","","72","H","0","img/none_selected.jpg","","12","main_expt",""
"","bandit","92","251808","0.0-53.0-0.0","97272228","wem/bandit_either_3","A3IR7DFEKLLLO","either","8","276","","","","","","","0","1","0","","0.5673960652","0.2","0.8","0.4","0.6","0.2934167972","0.8638417716","0.5673960652","0.1287514256","","","","","","","","","","","","75","K","2","","","13","main_expt",""
"","bandit","93","253739","0.0-54.0-0.0","97272228","wem/bandit_either_3","A3IR7DFEKLLLO","either","8","401","","","","","","","1","0","0","0.787806988","","0.2","0.8","0.4","0.6","","","","","0.3260927596","0.787806988","0.6747725803","0.1786171179","","","","","","","","74","J","1","","","14","main_expt",""
"","bandit","94","255817","0.0-55.0-0.0","97272228","wem/bandit_either_3","A3IR7DFEKLLLO","either","8","552","","","","","","","0","0","1","0.3355382734","","0.2","0.8","0.4","0.6","","","","","0.3355382734","0.7254212376","0.6277188345","0.1459410532","","","","","","","","72","H","0","img/none_selected.jpg","","15","main_expt",""
"","bandit","95","257625","0.0-56.0-0.0","97272228","wem/bandit_either_3","A3IR7DFEKLLLO","either","8","279","","","","","","","0","0","1","0.7238415528","","0.2","0.8","0.4","0.6","","","","","0.3040928121","0.7238415528","0.5435568235","0.2255600906","","","","","","","","74","J","1","","","16","main_expt",""
"","bandit","96","259448","0.0-57.0-0.0","97272228","wem/bandit_either_3","A3IR7DFEKLLLO","either","8","276","","","","","","","1","0","0","0.2052013943","","0.2","0.8","0.4","0.6","","","","","0.2730366263","0.7796243455","0.4180161478","0.2052013943","","","","","","","","76","L","3","","","17","main_expt",""
"","bandit","97","261300","0.0-58.0-0.0","97272228","wem/bandit_either_3","A3IR7DFEKLLLO","either","8","321","","","","","","","0","0","1","","0.4105298721","0.2","0.8","0.4","0.6","0.4105298721","0.6928902724","0.4961111773","0.1780354615","","","","","","","","","","","","72","H","0","img/none_selected.jpg","","18","main_expt",""
"","bandit","98","263172","0.0-59.0-0.0","97272228","wem/bandit_either_3","A3IR7DFEKLLLO","either","8","293","","","","","","","0","0","1","0.445530788","","0.2","0.8","0.4","0.6","","","","","0.3586923344","0.7658630901","0.445530788","0.1576496117","","","","","","","","75","K","2","","","19","main_expt",""
"","bandit","99","264882","0.0-60.0-0.0","97272228","wem/bandit_either_3","A3IR7DFEKLLLO","either","8","171","","","","","","","0","0","1","0.1618752313","","0.2","0.8","0.4","0.6","","","","","0.3220075653","0.7584200513","0.3443163705","0.1618752313","","","","","","","","76","L","3","","","20","main_expt",""
"","bandit","100","267045","0.0-61.0-0.0","97272228","wem/bandit_either_3","A3IR7DFEKLLLO","either","8","631","","","","","","","0","0","1","0.2729660799","","0.2","0.8","0.4","0.6","","","","","0.2729660799","0.7727038765","0.3012808647","0.2152187387","","","","","","","","72","H","0","img/none_selected.jpg","","21","main_expt",""
"","bandit","101","268592","0.0-62.0-0.0","97272228","wem/bandit_either_3","A3IR7DFEKLLLO","either","8","25","","","","","","","1","0","0","0.8152565923","","0.2","0.8","0.4","0.6","","","","","0.2712352107","0.8152565923","0.2882062485","0.3547982299","","","","","","","","74","J","1","","","22","main_expt",""
"","bandit","102","270412","0.0-63.0-0.0","97272228","wem/bandit_either_3","A3IR7DFEKLLLO","either","8","285","","","","","","","0","0","1","","0.3390855774","0.2","0.8","0.4","0.6","0.3390855774","0.7537075358","0.2113421372","0.323805638","","","","","","","","","","","","72","H","0","img/none_selected.jpg","","23","main_expt",""
"","bandit","103","272073","0.0-64.0-0.0","97272228","wem/bandit_either_3","A3IR7DFEKLLLO","either","8","129","","","","","","","1","0","0","0.7108822858","","0.2","0.8","0.4","0.6","","","","","0.3483259141","0.7108822858","0.2201805416","0.3588909826","","","","","","","","74","J","1","","","24","main_expt",""
"","bandit","104","274083","0.0-65.0-0.0","97272228","wem/bandit_either_3","A3IR7DFEKLLLO","either","8","487","","","","","","","0","1","0","","0.2580956466","0.2","0.8","0.4","0.6","0.3416976173","0.6930515954","0.2580956466","0.3885553436","","","","","","","","","","","","75","K","2","","","25","main_expt",""
"","bandit","105","276083","0.0-66.0-0.0","97272228","wem/bandit_either_3","A3IR7DFEKLLLO","either","8","457","","","","","","","1","0","0","0.6905393417","","0.2","0.8","0.4","0.6","","","","","0.4243476322","0.6905393417","0.2153432854","0.4871556374","","","","","","","","74","J","1","","","26","main_expt",""
"","bandit","106","277815","0.0-67.0-0.0","97272228","wem/bandit_either_3","A3IR7DFEKLLLO","either","8","132","","","","","","","0","0","1","","0.1727955236","0.2","0.8","0.4","0.6","0.5257754898","0.7531652131","0.1727955236","0.4934119911","","","","","","","","","","","","75","K","2","","","27","main_expt",""
"","bandit","107","279701","0.0-68.0-0.0","97272228","wem/bandit_either_3","A3IR7DFEKLLLO","either","8","359","","","","","","","1","0","0","0.8001777041","","0.2","0.8","0.4","0.6","","","","","0.5246232361","0.8001777041","0.1894296703","0.4322092846","","","","","","","","74","J","1","","","28","main_expt",""
"","bandit","108","281676","0.0-69.0-0.0","97272228","wem/bandit_either_3","A3IR7DFEKLLLO","either","8","415","","","","","","","0","1","0","","0.375994784","0.2","0.8","0.4","0.6","0.375994784","0.8118404327","0.2128919211","0.3459113699","","","","","","","","","","","","72","H","0","img/none_selected.jpg","","29","main_expt",""
"","bandit","109","283277","0.0-70.0-0.0","97272228","wem/bandit_either_3","A3IR7DFEKLLLO","either","8","46","","","","","","","1","0","0","0.7839534503","","0.2","0.8","0.4","0.6","","","","","0.2936890161","0.7839534503","0.206056468","0.280789843","","","","","","","","74","J","1","","","30","main_expt",""
"","bandit","110","285329","0.0-71.0-0.0","97272228","wem/bandit_either_3","A3IR7DFEKLLLO","either","8","513","","","","","","","0","0","1","","0.2878812258","0.2","0.8","0.4","0.6","0.2878812258","0.8066372971","0.1725623241","0.2613810438","","","","","","","","","","","","72","H","0","img/none_selected.jpg","","31","main_expt",""
"","bandit","111","287164","0.0-72.0-0.0","97272228","wem/bandit_either_3","A3IR7DFEKLLLO","either","8","291","","","","","","","1","0","0","0.8049259064","","0.2","0.8","0.4","0.6","","","","","0.2451492808","0.8049259064","0.1629883914","0.3821585683","","","","","","","","74","J","1","","","32","main_expt",""
"","bandit","112","289131","0.0-73.0-0.0","97272228","wem/bandit_either_3","A3IR7DFEKLLLO","either","8","429","","","","","","","0","0","1","0.2714925976","","0.2","0.8","0.4","0.6","","","","","0.2802113289","0.7891664673","0.2107911223","0.2714925976","","","","","","","","76","L","3","","","33","main_expt",""
"","bandit","113","291401","0.0-74.0-0.0","97272228","wem/bandit_either_3","A3IR7DFEKLLLO","either","8","740","","","","","","","1","0","0","0.7854278051","","0.2","0.8","0.4","0.6","","","","","0.2892342718","0.7854278051","0.1025901997","0.2755575364","","","","","","","","74","J","1","","","34","main_expt",""
"","bandit","114","293271","0.0-75.0-0.0","97272228","wem/bandit_either_3","A3IR7DFEKLLLO","either","8","327","","","","","","","0","0","1","0.1289879153","","0.2","0.8","0.4","0.6","","","","","0.2486893666","0.7260182018","0.1289879153","0.2697856654","","","","","","","","75","K","2","","","35","main_expt",""
"","bandit","115","295127","0.0-76.0-0.0","97272228","wem/bandit_either_3","A3IR7DFEKLLLO","either","8","331","","","","","","","0","0","1","0.7910957192","","0.2","0.8","0.4","0.6","","","","","0.3536408983","0.7910957192","0.1645491317","0.2483646443","","","","","","","","74","J","1","","","36","main_expt",""
"","bandit","116","296925","0.0-77.0-0.0","97272228","wem/bandit_either_3","A3IR7DFEKLLLO","either","8","276","","","","","","","0","1","0","","0.2493566902","0.2","0.8","0.4","0.6","0.2493566902","0.7996551039","0.1698046746","0.2103950957","","","","","","","","","","","","72","H","0","img/none_selected.jpg","","37","main_expt",""
"","bandit","117","298681","0.0-78.0-0.0","97272228","wem/bandit_either_3","A3IR7DFEKLLLO","either","8","232","","","","","","","0","0","1","","0.2948354516","0.2","0.8","0.4","0.6","0.2948354516","0.6717479894","0.2281502886","0.2128944509","","","","","","","","","","","","72","H","0","img/none_selected.jpg","","38","main_expt",""
"","bandit","118","300336","0.0-79.0-0.0","97272228","wem/bandit_either_3","A3IR7DFEKLLLO","either","8","128","","","","","","","0","0","1","","0.3373274679","0.2","0.8","0.4","0.6","0.3373274679","0.7121128808","0.1561271762","0.2965153327","","","","","","","","","","","","72","H","0","img/none_selected.jpg","","39","main_expt",""
"","bandit","119","302239","0.0-80.0-0.0","97272228","wem/bandit_either_3","A3IR7DFEKLLLO","either","8","374","","","","","","","0","0","1","0.4447532253","","0.2","0.8","0.4","0.6","","","","","0.4138768052","0.7157410044","0.1543620621","0.4447532253","","","","","","","","76","L","3","","","40","main_expt",""
"","bandit","120","303829","0.0-81.0-0.0","97272228","wem/bandit_either_3","A3IR7DFEKLLLO","either","8","70","","","","","","","0","0","1","","0.2271499981","0.2","0.8","0.4","0.6","0.438096834","0.681196038","0.2271499981","0.5330008696","","","","","","","","","","","","75","K","2","","","41","main_expt",""
"","bandit","121","305467","0.0-82.0-0.0","97272228","wem/bandit_either_3","A3IR7DFEKLLLO","either","8","100","","","","","","","0","0","1","0.2882452936","","0.2","0.8","0.4","0.6","","","","","0.4185173612","0.6504320647","0.2882452936","0.573861049","","","","","","","","75","K","2","","","42","main_expt",""
"","bandit","122","307292","0.0-83.0-0.0","97272228","wem/bandit_either_3","A3IR7DFEKLLLO","either","8","287","","","","","","","1","0","0","0.6654349765","","0.2","0.8","0.4","0.6","","","","","0.3796335567","0.7369830744","0.298522686","0.6654349765","","","","","","","","76","L","3","","","43","main_expt",""
"","bandit","123","309725","0.0-84.0-0.0","97272228","wem/bandit_either_3","A3IR7DFEKLLLO","either","8","906","","","","","","","0","0","1","0.3188886026","","0.2","0.8","0.4","0.6","","","","","0.31766129","0.6797935378","0.3188886026","0.691198465","","","","","","","","75","K","2","","","44","main_expt",""
"","bandit","124","311376","0.0-85.0-0.0","97272228","wem/bandit_either_3","A3IR7DFEKLLLO","either","8","106","","","","","","","1","0","0","0.7652674903","","0.2","0.8","0.4","0.6","","","","","0.4047397141","0.6507473666","0.2705760174","0.7652674903","","","","","","","","76","L","3","","","45","main_expt",""
"","bandit","125","313766","0.0-86.0-0.0","97272228","wem/bandit_either_3","A3IR7DFEKLLLO","either","8","865","","","","","","","1","0","0","0.6334510787","","0.2","0.8","0.4","0.6","","","","","0.4961613307","0.6334510787","0.2506880939","0.8065230058","","","","","","","","74","J","1","","","46","main_expt",""
"","bandit","126","315670","0.0-87.0-0.0","97272228","wem/bandit_either_3","A3IR7DFEKLLLO","either","8","370","","","","","","","0","1","0","","0.7774474893","0.2","0.8","0.4","0.6","0.4624468315","0.6143175143","0.2491585872","0.7774474893","","","","","","","","","","","","76","L","3","","","47","main_expt",""
"","bandit","127","317542","0.0-88.0-0.0","97272228","wem/bandit_either_3","A3IR7DFEKLLLO","either","8","350","","","","","","","1","0","0","0.6404512611","","0.2","0.8","0.4","0.6","","","","","0.4886537242","0.6404512611","0.1997021219","0.7693176975","","","","","","","","74","J","1","","","48","main_expt",""
"","bandit","128","319281","0.0-89.0-0.0","97272228","wem/bandit_either_3","A3IR7DFEKLLLO","either","8","216","","","","","","","0","0","1","","0.807419373","0.2","0.8","0.4","0.6","0.4270302022","0.6758621215","0.2119577724","0.807419373","","","","","","","","","","","","76","L","3","","","49","main_expt",""
"","bandit","129","321069","0.0-90.0-0.0","97272228","wem/bandit_either_3","A3IR7DFEKLLLO","either","8","232","","","","","","","1","0","0","0.6873234502","","0.2","0.8","0.4","0.6","","","","","0.5151345658","0.6873234502","0.2615271711","0.8562769227","","","","","","","","74","J","1","","","50","main_expt",""
"","bandit","130","322815","0.0-91.0-0.0","97272228","wem/bandit_either_3","A3IR7DFEKLLLO","either","8","196","","","","","","","0","0","1","","0.2764427577","0.2","0.8","0.4","0.6","0.5134524181","0.7776044395","0.2764427577","0.8705114925","","","","","","","","","","","","75","K","2","","","51","main_expt",""
"","bandit","131","324682","0.0-92.0-0.0","97272228","wem/bandit_either_3","A3IR7DFEKLLLO","either","8","322","","","","","","","1","0","0","0.8403410939","","0.2","0.8","0.4","0.6","","","","","0.4842684999","0.8403410939","0.3833776697","0.9310361031","","","","","","","","74","J","1","","","52","main_expt",""
"","bandit","132","326658","0.0-93.0-0.0","97272228","wem/bandit_either_3","A3IR7DFEKLLLO","either","8","366","","","","","","","0","0","1","0.4412850773","","0.2","0.8","0.4","0.6","","","","","0.4412850773","0.8151983534","0.4356502318","0.905794742","","","","","","","","72","H","0","img/none_selected.jpg","","53","main_expt",""
"","bandit","133","328429","0.0-94.0-0.0","97272228","wem/bandit_either_3","A3IR7DFEKLLLO","either","8","232","","","","","","","1","0","0","0.8081222638","","0.2","0.8","0.4","0.6","","","","","0.4397693946","0.8081222638","0.4120588364","0.9391541593","","","","","","","","74","J","1","","","54","main_expt",""
"","bandit","134","330287","0.0-95.0-0.0","97272228","wem/bandit_either_3","A3IR7DFEKLLLO","either","8","300","","","","","","","0","1","0","","0.3928202278","0.2","0.8","0.4","0.6","0.3928202278","0.742009976","0.2714296105","0.9596285882","","","","","","","","","","","","72","H","0","img/none_selected.jpg","","55","main_expt",""
"","bandit","135","331866","0.0-96.0-0.0","97272228","wem/bandit_either_3","A3IR7DFEKLLLO","either","8","26","","","","","","","0","1","0","","0.7065076074","0.2","0.8","0.4","0.6","0.4593665993","0.7065076074","0.2122311877","0.9565658233","","","","","","","","","","","","74","J","1","","","56","main_expt",""
"","bandit","136","333426","0.0-97.0-0.0","97272228","wem/bandit_either_3","A3IR7DFEKLLLO","either","8","26","","","","","","","0","1","0","","0.6860695476","0.2","0.8","0.4","0.6","0.4006145211","0.6860695476","0.2282278588","0.9681540372","","","","","","","","","","","","74","J","1","","","57","main_expt",""
"","bandit","137","335027","0.0-98.0-0.0","97272228","wem/bandit_either_3","A3IR7DFEKLLLO","either","8","63","","","","","","","1","0","0","0.742301155","","0.2","0.8","0.4","0.6","","","","","0.4597890412","0.742301155","0.1392076118","0.9207083952","","","","","","","","74","J","1","","","58","main_expt",""
"","bandit","138","336622","0.0-99.0-0.0","97272228","wem/bandit_either_3","A3IR7DFEKLLLO","either","8","58","","","","","","","0","1","0","","0.5291004622","0.2","0.8","0.4","0.6","0.4232266093","0.5291004622","0.1706239206","0.9178227258","","","","","","","","","","","","74","J","1","","","59","main_expt",""
"","bandit","139","338165","0.0-100.0-0.0","97272228","wem/bandit_either_3","A3IR7DFEKLLLO","either","8","1","","","","","","","0","1","0","","0.3565880291","0.2","0.8","0.4","0.6","0.3565880291","0.6348838793","0.1674269281","0.8951285427","","","","","","","","","","","","72","H","0","img/none_selected.jpg","","60","main_expt",""
"","bandit","140","339799","0.0-101.0-0.0","97272228","wem/bandit_either_3","A3IR7DFEKLLLO","either","8","90","","","","","","","0","0","1","","0.3663276413","0.2","0.8","0.4","0.6","0.3663276413","0.6796423313","0.2182313474","0.8506814954","","","","","","","","","","","","72","H","0","img/none_selected.jpg","","61","main_expt",""
"","bandit","141","341413","0.0-102.0-0.0","97272228","wem/bandit_either_3","A3IR7DFEKLLLO","either","8","66","","","","","","","0","1","0","","0.6928172916","0.2","0.8","0.4","0.6","0.3193005293","0.6928172916","0.2949218256","0.8513854559","","","","","","","","","","","","74","J","1","","","62","main_expt",""
"","bandit","142","343253","0.0-103.0-0.0","97272228","wem/bandit_either_3","A3IR7DFEKLLLO","either","8","311","","","","","","","0","0","1","0.3170222383","","0.2","0.8","0.4","0.6","","","","","0.1562068481","0.6996506825","0.3170222383","0.8927579502","","","","","","","","75","K","2","","","63","main_expt",""
"","bandit","143","345139","0.0-104.0-0.0","97272228","wem/bandit_either_3","A3IR7DFEKLLLO","either","8","354","","","","","","","0","1","0","","0.9217936765","0.2","0.8","0.4","0.6","0.2300477965","0.7294442249","0.3033511374","0.9217936765","","","","","","","","","","","","76","L","3","","","64","main_expt",""
"","bandit","144","346793","0.0-105.0-0.0","97272228","wem/bandit_either_3","A3IR7DFEKLLLO","either","8","106","","","","","","","0","1","0","","0.9357047413","0.2","0.8","0.4","0.6","0.2869838185","0.6605354899","0.3973690147","0.9357047413","","","","","","","","","","","","76","L","3","","","65","main_expt",""
"","bandit","145","348497","0.0-106.0-0.0","97272228","wem/bandit_either_3","A3IR7DFEKLLLO","either","8","166","","","","","","","0","1","0","","0.910343843","0.2","0.8","0.4","0.6","0.3287476356","0.6959621059","0.4320294497","0.910343843","","","","","","","","","","","","76","L","3","","","66","main_expt",""
"","bandit","146","350233","0.0-107.0-0.0","97272228","wem/bandit_either_3","A3IR7DFEKLLLO","either","8","205","","","","","","","1","0","0","0.9022080512","","0.2","0.8","0.4","0.6","","","","","0.3018365728","0.653899752","0.3208465419","0.9022080512","","","","","","","","76","L","3","","","67","main_expt",""
"","bandit","147","351994","0.0-108.0-0.0","97272228","wem/bandit_either_3","A3IR7DFEKLLLO","either","8","238","","","","","","","0","1","0","","0.8492414063","0.2","0.8","0.4","0.6","0.3208616414","0.6517851336","0.3570730799","0.8492414063","","","","","","","","","","","","76","L","3","","","68","main_expt",""
"","bandit","148","353666","0.0-109.0-0.0","97272228","wem/bandit_either_3","A3IR7DFEKLLLO","either","8","149","","","","","","","0","1","0","","0.3451514791","0.2","0.8","0.4","0.6","0.386863802","0.7011615004","0.3451514791","0.768219052","","","","","","","","","","","","75","K","2","","","69","main_expt",""
"","bandit","149","355291","0.0-110.0-0.0","97272228","wem/bandit_either_3","A3IR7DFEKLLLO","either","8","74","","","","","","","0","0","1","0.7996218848","","0.2","0.8","0.4","0.6","","","","","0.3628244161","0.6278947594","0.3127714871","0.7996218848","","","","","","","","76","L","3","","","70","main_expt",""
"","bandit","150","356879","0.0-111.0-0.0","97272228","wem/bandit_either_3","A3IR7DFEKLLLO","either","8","28","","","","","","","0","1","0","","0.3855297895","0.2","0.8","0.4","0.6","0.2969295023","0.688517509","0.3855297895","0.9130189757","","","","","","","","","","","","75","K","2","","","71","main_expt",""
"","bandit","151","358782","0.0-112.0-0.0","97272228","wem/bandit_either_3","A3IR7DFEKLLLO","either","8","349","","","","","","","0","0","1","","0.6125440106","0.2","0.8","0.4","0.6","0.3512325323","0.6125440106","0.3555010044","0.9016843832","","","","","","","","","","","","74","J","1","","","72","main_expt",""
"","bandit","152","360519","0.0-113.0-0.0","97272228","wem/bandit_either_3","A3IR7DFEKLLLO","either","8","22","","","","","","","0","0","1","0.3845321254","","0.2","0.8","0.4","0.6","","","","","0.3845321254","0.4884410468","0.3278360739","0.9166584401","","","","","","","","72","H","0","img/none_selected.jpg","","73","main_expt",""
"","bandit","153","362097","0.0-114.0-0.0","97272228","wem/bandit_either_3","A3IR7DFEKLLLO","either","8","54","","","","","","","0","0","1","","0.3760614253","0.2","0.8","0.4","0.6","0.3760614253","0.5800760741","0.3275161349","0.8699410266","","","","","","","","","","","","72","H","0","img/none_selected.jpg","","74","main_expt",""
"","bandit","154","364356","0.0-115.0-0.0","97272228","wem/bandit_either_3","A3IR7DFEKLLLO","either","8","624","","","","","","","1","0","0","0.6614390465","","0.2","0.8","0.4","0.6","","","","","0.370831352","0.6614390465","0.3454333807","0.8192171788","","","","","","","","74","J","1","","","75","main_expt",""
"","bandit","155","365952","0.0-116.0-0.0","97272228","wem/bandit_either_3","A3IR7DFEKLLLO","either","8","51","","","","","","","0","0","1","0.4213924804","","0.2","0.8","0.4","0.6","","","","","0.4008199491","0.6861570843","0.4213924804","0.8990587115","","","","","","","","75","K","2","","","76","main_expt",""
"","bandit","156","367704","0.0-117.0-0.0","97272228","wem/bandit_either_3","A3IR7DFEKLLLO","either","8","130","","","","","","","1","0","0","0.5980737028","","0.2","0.8","0.4","0.6","","","","","0.3928984844","0.5980737028","0.439510692","0.9062137116","","","","","","","","74","J","1","","","77","main_expt",""
"","bandit","157","369386","0.0-118.0-0.0","97272228","wem/bandit_either_3","A3IR7DFEKLLLO","either","8","40","","","","","","","1","0","0","0.4419424199","","0.2","0.8","0.4","0.6","","","","","0.4709058574","0.6754083514","0.4419424199","0.9215914722","","","","","","","","75","K","2","","","78","main_expt",""
"","bandit","158","371516","0.0-119.0-0.0","97272228","wem/bandit_either_3","A3IR7DFEKLLLO","either","8","533","","","","","","","1","0","0","0.7012934339","","0.2","0.8","0.4","0.6","","","","","0.4971614577","0.7012934339","0.5056762283","0.895443078","","","","","","","","74","J","1","","","79","main_expt",""
"","bandit","159","373315","0.0-120.0-0.0","97272228","wem/bandit_either_3","A3IR7DFEKLLLO","either","8","263","","","","","","","0","0","1","","0.4828267768","0.2","0.8","0.4","0.6","0.4828267768","0.7067798052","0.4558190996","0.7789772955","","","","","","","","","","","","72","H","0","img/none_selected.jpg","","80","main_expt",""
"","bandit","160","374894","0.0-121.0-0.0","97272228","wem/bandit_either_3","A3IR7DFEKLLLO","either","8","44","","","","","","","1","0","0","0.7259433061","","0.2","0.8","0.4","0.6","","","","","0.4280570329","0.7259433061","0.4774921548","0.755426824","","","","","","","","74","J","1","","","81","main_expt",""
"","bandit","161","376623","0.0-122.0-0.0","97272228","wem/bandit_either_3","A3IR7DFEKLLLO","either","8","192","","","","","","","1","0","0","0.3611036613","","0.2","0.8","0.4","0.6","","","","","0.486136241","0.7022130872","0.3611036613","0.8356426425","","","","","","","","75","K","2","","","82","main_expt",""
"","bandit","162","378419","0.0-123.0-0.0","97272228","wem/bandit_either_3","A3IR7DFEKLLLO","either","8","268","","","","","","","0","0","1","","0.75927227","0.2","0.8","0.4","0.6","0.3539143083","0.75927227","0.3341354767","0.8783145762","","","","","","","","","","","","74","J","1","","","83","main_expt",""
"","bandit","163","380043","0.0-124.0-0.0","97272228","wem/bandit_either_3","A3IR7DFEKLLLO","either","8","102","","","","","","","0","0","1","","0.288479151","0.2","0.8","0.4","0.6","0.374811954","0.8556046088","0.288479151","0.9087743635","","","","","","","","","","","","75","K","2","","","84","main_expt",""
"","bandit","164","381744","0.0-125.0-0.0","97272228","wem/bandit_either_3","A3IR7DFEKLLLO","either","8","159","","","","","","","0","0","1","","0.3061923995","0.2","0.8","0.4","0.6","0.4518264681","0.7835234447","0.3061923995","0.8632011641","","","","","","","","","","","","75","K","2","","","85","main_expt",""
"","bandit","165","383713","0.0-126.0-0.0","97272228","wem/bandit_either_3","A3IR7DFEKLLLO","either","8","409","","","","","","","1","0","0","0.7037548709","","0.2","0.8","0.4","0.6","","","","","0.461936863","0.7037548709","0.3370204437","0.8341253046","","","","","","","","74","J","1","","","86","main_expt",""
"","bandit","166","385781","0.0-127.0-0.0","97272228","wem/bandit_either_3","A3IR7DFEKLLLO","either","8","514","","","","","","","0","1","0","","0.8728746981","0.2","0.8","0.4","0.6","0.3681660755","0.6903674631","0.3900809043","0.8728746981","","","","","","","","","","","","76","L","3","","","87","main_expt",""
"","bandit","167","387530","0.0-128.0-0.0","97272228","wem/bandit_either_3","A3IR7DFEKLLLO","either","8","208","","","","","","","0","0","1","0.5883284312","","0.2","0.8","0.4","0.6","","","","","0.3788462328","0.5883284312","0.4296615172","0.8408980459","","","","","","","","74","J","1","","","88","main_expt",""
"","bandit","168","389333","0.0-129.0-0.0","97272228","wem/bandit_either_3","A3IR7DFEKLLLO","either","8","243","","","","","","","1","0","0","0.8585781628","","0.2","0.8","0.4","0.6","","","","","0.3316952272","0.5258490985","0.4636560077","0.8585781628","","","","","","","","76","L","3","","","89","main_expt",""
"","bandit","169","391069","0.0-130.0-0.0","97272228","wem/bandit_either_3","A3IR7DFEKLLLO","either","8","190","","","","","","","1","0","0","0.6395041767","","0.2","0.8","0.4","0.6","","","","","0.438068917","0.6395041767","0.4463585346","0.925840658","","","","","","","","74","J","1","","","90","main_expt",""
"","bandit","170","392730","0.0-131.0-0.0","97272228","wem/bandit_either_3","A3IR7DFEKLLLO","either","8","126","","","","","","","0","1","0","","0.9201841885","0.2","0.8","0.4","0.6","0.5158843935","0.6931091445","0.4734463503","0.9201841885","","","","","","","","","","","","76","L","3","","","91","main_expt",""
"","bandit","171","394291","0.0-132.0-0.0","97272228","wem/bandit_either_3","A3IR7DFEKLLLO","either","8","38","","","","","","","1","0","0","0.6725373887","","0.2","0.8","0.4","0.6","","","","","0.5182757575","0.6725373887","0.5248255385","0.8508076908","","","","","","","","74","J","1","","","92","main_expt",""
"","bandit","172","395947","0.0-133.0-0.0","97272228","wem/bandit_either_3","A3IR7DFEKLLLO","either","8","123","","","","","","","0","0","1","","0.5498130742","0.2","0.8","0.4","0.6","0.5498130742","0.7388835399","0.3386726181","0.8106711147","","","","","","","","","","","","72","H","0","img/none_selected.jpg","","93","main_expt",""
"","bandit","173","397620","0.0-134.0-0.0","97272228","wem/bandit_either_3","A3IR7DFEKLLLO","either","8","148","","","","","","","1","0","0","0.697373586","","0.2","0.8","0.4","0.6","","","","","0.6049407638","0.697373586","0.3718894848","0.8543263914","","","","","","","","74","J","1","","","94","main_expt",""
"","bandit","174","399468","0.0-135.0-0.0","97272228","wem/bandit_either_3","A3IR7DFEKLLLO","either","8","321","","","","","","","1","0","0","0.4005278521","","0.2","0.8","0.4","0.6","","","","","0.6604115927","0.7550322224","0.4005278521","0.8387782901","","","","","","","","75","K","2","","","95","main_expt",""
"","bandit","175","401044","0.0-136.0-0.0","97272228","wem/bandit_either_3","A3IR7DFEKLLLO","either","8","50","","","","","","","0","1","0","","0.6576962358","0.2","0.8","0.4","0.6","0.7003847986","0.6576962358","0.3694595514","0.8208071174","","","","","","","","","","","","74","J","1","","","96","main_expt",""
"","bandit","176","402885","0.0-137.0-0.0","97272228","wem/bandit_either_3","A3IR7DFEKLLLO","either","8","308","","","","","","","0","0","1","","0.3186037095","0.2","0.8","0.4","0.6","0.6793148949","0.6802484638","0.3186037095","0.765358829","","","","","","","","","","","","75","K","2","","","97","main_expt",""
"","bandit","177","404613","0.0-138.0-0.0","97272228","wem/bandit_either_3","A3IR7DFEKLLLO","either","8","178","","","","","","","1","0","0","0.7042077447","","0.2","0.8","0.4","0.6","","","","","0.6204607354","0.7042077447","0.2786717818","0.7823463211","","","","","","","","74","J","1","","","98","main_expt",""
"","bandit","178","406292","0.0-139.0-0.0","97272228","wem/bandit_either_3","A3IR7DFEKLLLO","either","8","141","","","","","","","0","0","1","","0.32929866","0.2","0.8","0.4","0.6","0.6166262367","0.7355617892","0.32929866","0.7523003034","","","","","","","","","","","","75","K","2","","","99","main_expt",""
"","bandit","179","407824","0.0-140.0-0.0","97272228","wem/bandit_either_3","A3IR7DFEKLLLO","either","8","4","","","","","","","0","1","0","","0.7117411671","0.2","0.8","0.4","0.6","0.5347115766","0.7117411671","0.3115323478","0.7174790615","","","","","","","","","","","","74","J","1","","","100","main_expt",""
"","bandit","180","409358","0.0-141.0-0.0","97272228","wem/bandit_either_3","A3IR7DFEKLLLO","either","8","4","","","","","","","0","0","1","0.4221749579","","0.2","0.8","0.4","0.6","","","","","0.3418016043","0.7263903312","0.4221749579","0.7660578318","","","","","","","","75","K","2","","","101","main_expt",""
"","bandit","181","411174","0.0-142.0-0.0","97272228","wem/bandit_either_3","A3IR7DFEKLLLO","either","8","176","","","","","","","0","0","1","0.2718078598","","0.2","0.8","0.4","0.6","","","","","0.2550922237","0.7357346189","0.2718078598","0.7201180075","","","","","","","","75","K","2","","","102","main_expt",""
"","bandit","182","412719","0.0-143.0-0.0","97272228","wem/bandit_either_3","A3IR7DFEKLLLO","either","8","7","","","","","","","0","0","1","","0.3011307106","0.2","0.8","0.4","0.6","0.3181696353","0.7026134783","0.3011307106","0.8452780714","","","","","","","","","","","","75","K","2","","","103","main_expt",""
"","bandit","183","414513","0.0-144.0-0.0","97272228","wem/bandit_either_3","A3IR7DFEKLLLO","either","8","247","","","","","","","0","1","0","","0.7236924273","0.2","0.8","0.4","0.6","0.3383579412","0.8073666152","0.3659291838","0.7236924273","","","","","","","","","","","","76","L","3","","","104","main_expt",""
"","bandit","184","416260","0.0-145.0-0.0","97272228","wem/bandit_either_3","A3IR7DFEKLLLO","either","8","184","","","","","","","0","0","1","","0.2354673658","0.2","0.8","0.4","0.6","0.2354673658","0.824483439","0.3499435223","0.743719778","","","","","","","","","","","","72","H","0","img/none_selected.jpg","","105","main_expt",""
"","bandit","185","417892","0.0-146.0-0.0","97272228","wem/bandit_either_3","A3IR7DFEKLLLO","either","8","99","","","","","","","0","1","0","","0.7985687284","0.2","0.8","0.4","0.6","0.159398249","0.9208810438","0.3602262465","0.7985687284","","","","","","","","","","","","76","L","3","","","106","main_expt",""
"","bandit","186","419501","0.0-147.0-0.0","97272228","wem/bandit_either_3","A3IR7DFEKLLLO","either","8","71","","","","","","","0","1","0","","0.3252215163","0.2","0.8","0.4","0.6","0.1295169146","0.8911910097","0.3252215163","0.799345197","","","","","","","","","","","","75","K","2","","","107","main_expt",""
"","bandit","187","421248","0.0-148.0-0.0","97272228","wem/bandit_either_3","A3IR7DFEKLLLO","either","8","171","","","","","","","0","0","1","","0.2812406992","0.2","0.8","0.4","0.6","0.07754053308","0.8450149587","0.2812406992","0.8681690713","","","","","","","","","","","","75","K","2","","","108","main_expt",""
"","bandit","188","422811","0.0-149.0-0.0","97272228","wem/bandit_either_3","A3IR7DFEKLLLO","either","8","30","","","","","","","0","0","1","0.2559497519","","0.2","0.8","0.4","0.6","","","","","0.06591215473","0.868327257","0.2559497519","0.8556732204","","","","","","","","75","K","2","","","109","main_expt",""
"","bandit","189","424430","0.0-150.0-0.0","97272228","wem/bandit_either_3","A3IR7DFEKLLLO","either","8","33","","","","","","","0","0","1","0.2817400418","","0.2","0.8","0.4","0.6","","","","","0.1189546392","0.8868335222","0.2817400418","0.8669893864","","","","","","","","75","K","2","","","110","main_expt",""
"","bandit","190","426521","0.0-151.0-0.0","97272228","wem/bandit_either_3","A3IR7DFEKLLLO","either","8","541","","","","","","","0","1","0","","0.2773620367","0.2","0.8","0.4","0.6","0.09523351692","0.8770728171","0.2773620367","0.799383849","","","","","","","","","","","","75","K","2","","","111","main_expt",""
"","bandit","191","428203","0.0-152.0-0.0","97272228","wem/bandit_either_3","A3IR7DFEKLLLO","either","8","118","","","","","","","1","0","0","0.8481710002","","0.2","0.8","0.4","0.6","","","","","0.107489667","0.8481710002","0.2833316415","0.859799476","","","","","","","","74","J","1","","","112","main_expt",""
"","bandit","192","429993","0.0-153.0-0.0","97272228","wem/bandit_either_3","A3IR7DFEKLLLO","either","8","228","","","","","","","0","0","1","0.3433702059","","0.2","0.8","0.4","0.6","","","","","0.1026187258","0.8573528835","0.3433702059","0.7932436089","","","","","","","","75","K","2","","","113","main_expt",""
"","bandit","193","431706","0.0-154.0-0.0","97272228","wem/bandit_either_3","A3IR7DFEKLLLO","either","8","166","","","","","","","1","0","0","0.8291807482","","0.2","0.8","0.4","0.6","","","","","0.1044839951","0.8291807482","0.4828882278","0.849407262","","","","","","","","74","J","1","","","114","main_expt",""
"","bandit","194","433319","0.0-155.0-0.0","97272228","wem/bandit_either_3","A3IR7DFEKLLLO","either","8","57","","","","","","","1","0","0","0.8882716547","","0.2","0.8","0.4","0.6","","","","","0.1213931844","0.761972944","0.54932579","0.8882716547","","","","","","","","76","L","3","","","115","main_expt",""
"","bandit","195","434917","0.0-156.0-0.0","97272228","wem/bandit_either_3","A3IR7DFEKLLLO","either","8","60","","","","","","","1","0","0","0.786197192","","0.2","0.8","0.4","0.6","","","","","0.1184144227","0.786197192","0.6971345968","0.8741354715","","","","","","","","74","J","1","","","116","main_expt",""
"","bandit","196","436949","0.0-157.0-0.0","97272228","wem/bandit_either_3","A3IR7DFEKLLLO","either","8","502","","","","","","","0","1","0","","0.8083823922","0.2","0.8","0.4","0.6","0.1983931569","0.7834453561","0.5396272374","0.8083823922","","","","","","","","","","","","76","L","3","","","117","main_expt",""
"","bandit","197","438635","0.0-158.0-0.0","97272228","wem/bandit_either_3","A3IR7DFEKLLLO","either","8","39","","","","","","","1","0","0","0.6742380839","","0.2","0.8","0.4","0.6","","","","","0.2840039584","0.6742380839","0.5544567993","0.868525306","","","","","","","","74","J","1","","","118","main_expt",""
"","bandit","198","440243","0.0-159.0-0.0","97272228","wem/bandit_either_3","A3IR7DFEKLLLO","either","8","82","","","","","","","0","1","0","","0.8386471998","0.2","0.8","0.4","0.6","0.3563325119","0.7350700153","0.5504896642","0.8386471998","","","","","","","","","","","","76","L","3","","","119","main_expt",""
"","bandit","199","442226","0.0-160.0-0.0","97272228","wem/bandit_either_3","A3IR7DFEKLLLO","either","8","444","","","","","","","1","0","0","0.70601835","","0.2","0.8","0.4","0.6","","","","","0.5682387565","0.70601835","0.5812137135","0.8103559508","","","","","","","","74","J","1","","","120","main_expt",""
"","bandit","200","444349","0.0-161.0-0.0","97272228","wem/bandit_either_3","A3IR7DFEKLLLO","either","8","569","","","","","","","0","1","0","","0.5189107771","0.2","0.8","0.4","0.6","0.5189107771","0.7347719752","0.6033058466","0.8193015173","","","","","","","","","","","","72","H","0","img/none_selected.jpg","","121","main_expt",""
"","bandit","201","446030","0.0-162.0-0.0","97272228","wem/bandit_either_3","A3IR7DFEKLLLO","either","8","145","","","","","","","1","0","0","0.8270923978","","0.2","0.8","0.4","0.6","","","","","0.4428493372","0.8270923978","0.6102220397","0.8025146027","","","","","","","","74","J","1","","","122","main_expt",""
"","bandit","202","447961","0.0-163.0-0.0","97272228","wem/bandit_either_3","A3IR7DFEKLLLO","either","8","399","","","","","","","0","1","0","","0.6108151959","0.2","0.8","0.4","0.6","0.472724465","0.7980631313","0.6108151959","0.8121847492","","","","","","","","","","","","75","K","2","","","123","main_expt",""
"","bandit","203","449825","0.0-164.0-0.0","97272228","wem/bandit_either_3","A3IR7DFEKLLLO","either","8","329","","","","","","","0","0","1","0.7369852887","","0.2","0.8","0.4","0.6","","","","","0.4799585558","0.7369852887","0.7117385939","0.8299418439","","","","","","","","74","J","1","","","124","main_expt",""
"","bandit","204","451450","0.0-165.0-0.0","97272228","wem/bandit_either_3","A3IR7DFEKLLLO","either","8","90","","","","","","","1","0","0","0.7554186078","","0.2","0.8","0.4","0.6","","","","","0.5080184993","0.7465944313","0.7554186078","0.825688343","","","","","","","","75","K","2","","","125","main_expt",""
"","bandit","205","453533","0.0-166.0-0.0","97272228","wem/bandit_either_3","A3IR7DFEKLLLO","either","8","548","","","","","","","1","0","0","0.7596834852","","0.2","0.8","0.4","0.6","","","","","0.4555098289","0.7596834852","0.8855751833","0.8372054396","","","","","","","","74","J","1","","","126","main_expt",""
"","bandit","206","455205","0.0-167.0-0.0","97272228","wem/bandit_either_3","A3IR7DFEKLLLO","either","8","129","","","","","","","0","1","0","","0.8003015049","0.2","0.8","0.4","0.6","0.5475411796","0.7398299979","0.8003015049","0.7906689898","","","","","","","","","","","","75","K","2","","","127","main_expt",""
"","bandit","207","456982","0.0-168.0-0.0","97272228","wem/bandit_either_3","A3IR7DFEKLLLO","either","8","190","","","","","","","1","0","0","0.7764866849","","0.2","0.8","0.4","0.6","","","","","0.612647382","0.7764866849","0.8403113951","0.8008571507","","","","","","","","74","J","1","","","128","main_expt",""
"","bandit","208","458591","0.0-169.0-0.0","97272228","wem/bandit_either_3","A3IR7DFEKLLLO","either","8","70","","","","","","","0","1","0","","0.7829297973","0.2","0.8","0.4","0.6","0.7128970287","0.6435675963","0.8826872071","0.7829297973","","","","","","","","","","","","76","L","3","","","129","main_expt",""
"","bandit","209","460574","0.0-170.0-0.0","97272228","wem/bandit_either_3","A3IR7DFEKLLLO","either","8","429","","","","","","","0","0","1","0.7030252038","","0.2","0.8","0.4","0.6","","","","","0.7309911721","0.7030252038","0.8641000085","0.6898445721","","","","","","","","74","J","1","","","130","main_expt",""
"","bandit","210","462260","0.0-171.0-0.0","97272228","wem/bandit_either_3","A3IR7DFEKLLLO","either","8","127","","","","","","","0","1","0","","0.5864867529","0.2","0.8","0.4","0.6","0.73180147","0.6829232191","0.8752037592","0.5864867529","","","","","","","","","","","","76","L","3","","","131","main_expt",""
"","bandit","211","464130","0.0-172.0-0.0","97272228","wem/bandit_either_3","A3IR7DFEKLLLO","either","8","328","","","","","","","0","1","0","","0.8279556795","0.2","0.8","0.4","0.6","0.8467134838","0.7406452387","0.8279556795","0.560122833","","","","","","","","","","","","75","K","2","","","132","main_expt",""
"","bandit","212","465666","0.0-173.0-0.0","97272228","wem/bandit_either_3","A3IR7DFEKLLLO","either","8","1","","","","","","","0","0","1","0.6666234363","","0.2","0.8","0.4","0.6","","","","","0.8481264083","0.6666234363","0.8194722428","0.48439517","","","","","","","","74","J","1","","","133","main_expt",""
"","bandit","213","467383","0.0-174.0-0.0","97272228","wem/bandit_either_3","A3IR7DFEKLLLO","either","8","179","","","","","","","0","1","0","","0.8771050955","0.2","0.8","0.4","0.6","0.8771050955","0.680542061","0.8037084922","0.3919863126","","","","","","","","","","","","72","H","0","img/none_selected.jpg","","134","main_expt",""
"","bandit","214","469056","0.0-175.0-0.0","97272228","wem/bandit_either_3","A3IR7DFEKLLLO","either","8","103","","","","","","","1","0","0","0.7006187635","","0.2","0.8","0.4","0.6","","","","","0.9103241533","0.7006187635","0.8155916457","0.5174750093","","","","","","","","74","J","1","","","135","main_expt",""
"","bandit","215","471125","0.0-176.0-0.0","97272228","wem/bandit_either_3","A3IR7DFEKLLLO","either","8","507","","","","","","","0","0","1","","0.8281957705","0.2","0.8","0.4","0.6","0.9126032517","0.6936815578","0.8281957705","0.4264762493","","","","","","","","","","","","75","K","2","","","136","main_expt",""
"","bandit","216","472766","0.0-177.0-0.0","97272228","wem/bandit_either_3","A3IR7DFEKLLLO","either","8","104","","","","","","","0","0","1","","0.6531428085","0.2","0.8","0.4","0.6","0.8983360858","0.6531428085","0.7055403129","0.5351999402","","","","","","","","","","","","74","J","1","","","137","main_expt",""
"","bandit","217","474394","0.0-178.0-0.0","97272228","wem/bandit_either_3","A3IR7DFEKLLLO","either","8","88","","","","","","","0","1","0","","0.6884351598","0.2","0.8","0.4","0.6","0.8851370462","0.6769758131","0.6884351598","0.4758748922","","","","","","","","","","","","75","K","2","","","138","main_expt",""
"","bandit","218","476290","0.0-179.0-0.0","97272228","wem/bandit_either_3","A3IR7DFEKLLLO","either","8","315","","","","","","","0","1","0","","0.6090423031","0.2","0.8","0.4","0.6","0.8662270416","0.7649589049","0.6090423031","0.4039793023","","","","","","","","","","","","75","K","2","","","139","main_expt",""
"","bandit","219","477830","0.0-180.0-0.0","97272228","wem/bandit_either_3","A3IR7DFEKLLLO","either","8","10","","","","","","","0","0","1","0.7000077187","","0.2","0.8","0.4","0.6","","","","","0.8345767194","0.7674202191","0.7000077187","0.384774136","","","","","","","","75","K","2","","","140","main_expt",""
"","bandit","220","479673","0.0-181.0-0.0","97272228","wem/bandit_either_3","A3IR7DFEKLLLO","either","8","309","","","","","","","0","0","1","0.6643185619","","0.2","0.8","0.4","0.6","","","","","0.8783670964","0.8575114448","0.6643185619","0.327254859","","","","","","","","75","K","2","","","141","main_expt",""
"","bandit","221","481290","0.0-182.0-0.0","97272228","wem/bandit_either_3","A3IR7DFEKLLLO","either","8","81","","","","","","","1","0","0","0.4536641492","","0.2","0.8","0.4","0.6","","","","","0.8895828315","0.8134430427","0.7079845674","0.4536641492","","","","","","","","76","L","3","","","142","main_expt",""
"","bandit","222","483469","0.0-183.0-0.0","97272228","wem/bandit_either_3","A3IR7DFEKLLLO","either","8","646","","","","","","","1","0","0","0.8345505038","","0.2","0.8","0.4","0.6","","","","","0.9053928798","0.8345505038","0.6624187643","0.4348486293","","","","","","","","74","J","1","","","143","main_expt",""
"","bandit","223","485138","0.0-184.0-0.0","97272228","wem/bandit_either_3","A3IR7DFEKLLLO","either","8","132","","","","","","","0","0","1","0.4086594597","","0.2","0.8","0.4","0.6","","","","","0.9033088386","0.7482817554","0.6779247185","0.4086594597","","","","","","","","76","L","3","","","144","main_expt",""
"","bandit","224","486789","0.0-185.0-0.0","97272228","wem/bandit_either_3","A3IR7DFEKLLLO","either","8","108","","","","","","","0","1","0","","0.7400387939","0.2","0.8","0.4","0.6","0.8572864227","0.7400387939","0.7216102374","0.4420772456","","","","","","","","","","","","74","J","1","","","145","main_expt",""
"","bandit","225","488615","0.0-186.0-0.0","97272228","wem/bandit_either_3","A3IR7DFEKLLLO","either","8","297","","","","","","","1","0","0","0.795971973","","0.2","0.8","0.4","0.6","","","","","0.8687508917","0.795971973","0.7837267619","0.508741462","","","","","","","","74","J","1","","","146","main_expt",""
"","bandit","226","490357","0.0-187.0-0.0","97272228","wem/bandit_either_3","A3IR7DFEKLLLO","either","8","199","","","","","","","1","0","0","0.4624398998","","0.2","0.8","0.4","0.6","","","","","0.8657621525","0.7503502301","0.7652264833","0.4624398998","","","","","","","","76","L","3","","","147","main_expt",""
"","bandit","227","492362","0.0-188.0-0.0","97272228","wem/bandit_either_3","A3IR7DFEKLLLO","either","8","457","","","","","","","0","0","1","0.8200474043","","0.2","0.8","0.4","0.6","","","","","0.8362891365","0.8200474043","0.7358716413","0.4062589849","","","","","","","","74","J","1","","","148","main_expt",""
"","bandit","228","493947","0.0-189.0-0.0","97272228","wem/bandit_either_3","A3IR7DFEKLLLO","either","8","44","","","","","","","1","0","0","0.8509010271","","0.2","0.8","0.4","0.6","","","","","0.8144386017","0.8509010271","0.7129200786","0.4895331913","","","","","","","","74","J","1","","","149","main_expt",""
"","bandit","229","495654","0.0-190.0-0.0","97272228","wem/bandit_either_3","A3IR7DFEKLLLO","either","8","152","","","","","","","0","0","1","0.4704746919","","0.2","0.8","0.4","0.6","","","","","0.6948055455","0.8298908313","0.705531668","0.4704746919","","","","","","","","76","L","3","","","150","main_expt",""
"","bandit","230","497535","0.0-191.0-0.0","97272228","wem/bandit_either_3","A3IR7DFEKLLLO","either","8","278","","","","","","","0","0","1","0.7362749002","","0.2","0.8","0.4","0.6","","","","","0.6231991314","0.7362749002","0.5744604188","0.4725745774","","","","","","","","74","J","1","","","151","main_expt",""
"","bandit","231","499202","0.0-192.0-0.0","97272228","wem/bandit_either_3","A3IR7DFEKLLLO","either","8","98","","","","","","","0","0","1","","0.4943906398","0.2","0.8","0.4","0.6","0.7045057733","0.7601791643","0.5372669321","0.4943906398","","","","","","","","","","","","76","L","3","","","152","main_expt",""
"","bandit","232","500813","0.0-193.0-0.0","97272228","wem/bandit_either_3","A3IR7DFEKLLLO","either","8","54","","","","","","","0","0","1","0.7590648118","","0.2","0.8","0.4","0.6","","","","","0.5331338622","0.7590648118","0.5447545218","0.4639524782","","","","","","","","74","J","1","","","153","main_expt",""
"","bandit","233","502589","0.0-194.0-0.0","97272228","wem/bandit_either_3","A3IR7DFEKLLLO","either","8","155","","","","","","","0","0","1","","0.4191749193","0.2","0.8","0.4","0.6","0.5096720896","0.7805387907","0.4191749193","0.3935792086","","","","","","","","","","","","75","K","2","","","154","main_expt",""
"","bandit","234","504381","0.0-195.0-0.0","97272228","wem/bandit_either_3","A3IR7DFEKLLLO","either","8","257","","","","","","","1","0","0","0.8450805748","","0.2","0.8","0.4","0.6","","","","","0.4719011365","0.8450805748","0.4269770229","0.4127348605","","","","","","","","74","J","1","","","155","main_expt",""
"","bandit","235","506400","0.0-196.0-0.0","97272228","wem/bandit_either_3","A3IR7DFEKLLLO","either","8","478","","","","","","","0","1","0","","0.5818713095","0.2","0.8","0.4","0.6","0.5818713095","0.8513110265","0.4589862704","0.3697675558","","","","","","","","","","","","72","H","0","img/none_selected.jpg","","156","main_expt",""
"","bandit","236","508142","0.0-197.0-0.0","97272228","wem/bandit_either_3","A3IR7DFEKLLLO","either","8","191","","","","","","","1","0","0","0.8226236001","","0.2","0.8","0.4","0.6","","","","","0.5804022203","0.8226236001","0.5370818316","0.3604398023","","","","","","","","74","J","1","","","157","main_expt",""
"","bandit","237","509836","0.0-198.0-0.0","97272228","wem/bandit_either_3","A3IR7DFEKLLLO","either","8","89","","","","","","","1","0","0","0.8843141367","","0.2","0.8","0.4","0.6","","","","","0.4773166223","0.8843141367","0.4757376888","0.4061750625","","","","","","","","74","J","1","","","158","main_expt",""
"","bandit","238","511558","0.0-199.0-0.0","97272228","wem/bandit_either_3","A3IR7DFEKLLLO","either","8","187","","","","","","","1","0","0","0.8078798749","","0.2","0.8","0.4","0.6","","","","","0.419048585","0.8078798749","0.4887287223","0.4696417586","","","","","","","","74","J","1","","","159","main_expt",""
"","bandit","239","513372","0.0-200.0-0.0","97272228","wem/bandit_either_3","A3IR7DFEKLLLO","either","8","284","","","","","","","0","0","1","0.7689164465","","0.2","0.8","0.4","0.6","","","","","0.4672574386","0.7689164465","0.4588489809","0.4659569923","","","","","","","","74","J","1","","","160","main_expt",""
"","bandit","240","516004","0.0-201.0-0.0","97272228","wem/bandit_either_3","A3IR7DFEKLLLO","either","8","1077","","","","","","","1","0","0","0.7863156869","","0.2","0.8","0.4","0.6","","","","","0.5612985374","0.7863156869","0.4920004413","0.3947207546","","","","","","","","74","J","1","","","161","main_expt",""
"","bandit","241","517810","0.0-202.0-0.0","97272228","wem/bandit_either_3","A3IR7DFEKLLLO","either","8","238","","","","","","","1","0","0","0.8098475403","","0.2","0.8","0.4","0.6","","","","","0.5288680036","0.8098475403","0.5389881207","0.2460097942","","","","","","","","74","J","1","","","162","main_expt",""
"","bandit","242","519639","0.0-203.0-0.0","97272228","wem/bandit_either_3","A3IR7DFEKLLLO","either","8","272","","","","","","","1","0","0","0.8222712862","","0.2","0.8","0.4","0.6","","","","","0.6096883849","0.8222712862","0.6040136001","0.3603606056","","","","","","","","74","J","1","","","163","main_expt",""
"","bandit","243","521446","0.0-204.0-0.0","97272228","wem/bandit_either_3","A3IR7DFEKLLLO","either","8","274","","","","","","","1","0","0","0.7876031225","","0.2","0.8","0.4","0.6","","","","","0.4868922288","0.7876031225","0.623756827","0.2507209727","","","","","","","","74","J","1","","","164","main_expt",""
"","bandit","244","523287","0.0-205.0-0.0","97272228","wem/bandit_either_3","A3IR7DFEKLLLO","either","8","313","","","","","","","1","0","0","0.7435052823","","0.2","0.8","0.4","0.6","","","","","0.4055552053","0.7435052823","0.6164515281","0.2162043423","","","","","","","","74","J","1","","","165","main_expt",""
"","bandit","245","524925","0.0-206.0-0.0","97272228","wem/bandit_either_3","A3IR7DFEKLLLO","either","8","96","","","","","","","0","0","1","","0.6545739251","0.2","0.8","0.4","0.6","0.4748236382","0.6545739251","0.4660222187","0.2573409732","","","","","","","","","","","","74","J","1","","","166","main_expt",""
"","bandit","246","526634","0.0-207.0-0.0","97272228","wem/bandit_either_3","A3IR7DFEKLLLO","either","8","184","","","","","","","1","0","0","0.6645907447","","0.2","0.8","0.4","0.6","","","","","0.4725242185","0.6645907447","0.3336058786","0.4016088623","","","","","","","","74","J","1","","","167","main_expt",""
"","bandit","247","528427","0.0-208.0-0.0","97272228","wem/bandit_either_3","A3IR7DFEKLLLO","either","8","262","","","","","","","0","1","0","","0.7243751722","0.2","0.8","0.4","0.6","0.4775208721","0.7243751722","0.2887723434","0.5522858252","","","","","","","","","","","","74","J","1","","","168","main_expt",""
"","bandit","248","530219","0.0-209.0-0.0","97272228","wem/bandit_either_3","A3IR7DFEKLLLO","either","8","189","","","","","","","1","0","0","0.6453105543","","0.2","0.8","0.4","0.6","","","","","0.4682732781","0.6453105543","0.3357056981","0.5461138513","","","","","","","","74","J","1","","","169","main_expt",""
"","bandit","249","532206","0.0-210.0-0.0","97272228","wem/bandit_either_3","A3IR7DFEKLLLO","either","8","383","","","","","","","1","0","0","0.4179693295","","0.2","0.8","0.4","0.6","","","","","0.4246621539","0.5334010147","0.4179693295","0.4402798015","","","","","","","","75","K","2","","","170","main_expt",""
"","bandit","250","533887","0.0-211.0-0.0","97272228","wem/bandit_either_3","A3IR7DFEKLLLO","either","8","124","","","","","","","0","0","1","0.498122785","","0.2","0.8","0.4","0.6","","","","","0.2843380906","0.498122785","0.3050406521","0.450294849","","","","","","","","74","J","1","","","171","main_expt",""
"","bandit","251","535568","0.0-212.0-0.0","97272228","wem/bandit_either_3","A3IR7DFEKLLLO","either","8","141","","","","","","","0","1","0","","0.3364500029","0.2","0.8","0.4","0.6","0.2668952485","0.4356988635","0.3364500029","0.6475755847","","","","","","","","","","","","75","K","2","","","172","main_expt",""
"","bandit","252","537374","0.0-213.0-0.0","97272228","wem/bandit_either_3","A3IR7DFEKLLLO","either","8","277","","","","","","","0","1","0","","0.3964199688","0.2","0.8","0.4","0.6","0.3802819164","0.3964199688","0.421339117","0.6095255177","","","","","","","","","","","","74","J","1","","","173","main_expt",""
"","bandit","253","538950","0.0-214.0-0.0","97272228","wem/bandit_either_3","A3IR7DFEKLLLO","either","8","23","","","","","","","0","0","1","0.3194345802","","0.2","0.8","0.4","0.6","","","","","0.4042455133","0.3194345802","0.4913704717","0.5003628493","","","","","","","","74","J","1","","","174","main_expt",""
"","bandit","254","540539","0.0-215.0-0.0","97272228","wem/bandit_either_3","A3IR7DFEKLLLO","either","8","66","","","","","","","0","0","1","0.2865230234","","0.2","0.8","0.4","0.6","","","","","0.4393989914","0.2865230234","0.5882611891","0.5576212716","","","","","","","","74","J","1","","","175","main_expt",""
"","bandit","255","542213","0.0-216.0-0.0","97272228","wem/bandit_either_3","A3IR7DFEKLLLO","either","8","142","","","","","","","0","0","1","0.3352692614","","0.2","0.8","0.4","0.6","","","","","0.4705173801","0.3352692614","0.6313830356","0.6230679906","","","","","","","","74","J","1","","","176","main_expt",""
"","bandit","256","543986","0.0-217.0-0.0","97272228","wem/bandit_either_3","A3IR7DFEKLLLO","either","8","228","","","","","","","0","0","1","0.3389264817","","0.2","0.8","0.4","0.6","","","","","0.4698597734","0.3389264817","0.5531265137","0.6501784685","","","","","","","","74","J","1","","","177","main_expt",""
"","bandit","257","545779","0.0-218.0-0.0","97272228","wem/bandit_either_3","A3IR7DFEKLLLO","either","8","258","","","","","","","0","0","1","0.4621004187","","0.2","0.8","0.4","0.6","","","","","0.3570804947","0.3709673039","0.4621004187","0.6334155083","","","","","","","","75","K","2","","","178","main_expt",""
"","bandit","258","547533","0.0-219.0-0.0","97272228","wem/bandit_either_3","A3IR7DFEKLLLO","either","8","133","","","","","","","1","0","0","0.512884041","","0.2","0.8","0.4","0.6","","","","","0.3441184995","0.2940579202","0.512884041","0.7548338289","","","","","","","","75","K","2","","","179","main_expt",""
"","bandit","259","549371","0.0-220.0-0.0","97272228","wem/bandit_either_3","A3IR7DFEKLLLO","either","8","302","","","","","","","0","0","1","","0.506744284","0.2","0.8","0.4","0.6","0.3646136501","0.3218724025","0.506744284","0.8074073351","","","","","","","","","","","","75","K","2","","","180","main_expt",""
"","bandit","260","551216","0.0-221.0-0.0","97272228","wem/bandit_either_3","A3IR7DFEKLLLO","either","8","286","","","","","","","0","0","1","","0.4556494723","0.2","0.8","0.4","0.6","0.3777688814","0.3633286182","0.4556494723","0.780721516","","","","","","","","","","","","75","K","2","","","181","main_expt",""
"","bandit","261","553351","0.0-222.0-0.0","97272228","wem/bandit_either_3","A3IR7DFEKLLLO","either","8","560","","","","","","","0","0","1","","0.4494525508","0.2","0.8","0.4","0.6","0.4578236703","0.3324048704","0.4494525508","0.7647415088","","","","","","","","","","","","75","K","2","","","182","main_expt",""
"","bandit","262","555047","0.0-223.0-0.0","97272228","wem/bandit_either_3","A3IR7DFEKLLLO","either","8","142","","","","","","","0","1","0","","0.7349307529","0.2","0.8","0.4","0.6","0.4244895098","0.3092830871","0.5189143621","0.7349307529","","","","","","","","","","","","76","L","3","","","183","main_expt",""
"","bandit","263","556946","0.0-224.0-0.0","97272228","wem/bandit_either_3","A3IR7DFEKLLLO","either","8","353","","","","","","","0","0","1","","0.3566779322","0.2","0.8","0.4","0.6","0.3566779322","0.3905692936","0.5167606333","0.8298088288","","","","","","","","","","","","72","H","0","img/none_selected.jpg","","184","main_expt",""
"","bandit","264","558798","0.0-225.0-0.0","97272228","wem/bandit_either_3","A3IR7DFEKLLLO","either","8","268","","","","","","","0","0","1","","0.3737416658","0.2","0.8","0.4","0.6","0.3737416658","0.4626192444","0.5270237034","0.7894193193","","","","","","","","","","","","72","H","0","img/none_selected.jpg","","185","main_expt",""
"","bandit","265","560458","0.0-226.0-0.0","97272228","wem/bandit_either_3","A3IR7DFEKLLLO","either","8","131","","","","","","","0","0","1","","0.3120176694","0.2","0.8","0.4","0.6","0.3120176694","0.6061762586","0.5556036571","0.7665022487","","","","","","","","","","","","72","H","0","img/none_selected.jpg","","186","main_expt",""
"","bandit","266","562298","0.0-227.0-0.0","97272228","wem/bandit_either_3","A3IR7DFEKLLLO","either","8","302","","","","","","","0","1","0","","0.4134691065","0.2","0.8","0.4","0.6","0.4134691065","0.530958695","0.5865134094","0.7394266891","","","","","","","","","","","","72","H","0","img/none_selected.jpg","","187","main_expt",""
"","bandit","267","564089","0.0-228.0-0.0","97272228","wem/bandit_either_3","A3IR7DFEKLLLO","either","8","259","","","","","","","1","0","0","0.4637770407","","0.2","0.8","0.4","0.6","","","","","0.4637770407","0.380024655","0.5034866795","0.6567361442","","","","","","","","72","H","0","img/none_selected.jpg","","188","main_expt",""
"","bandit","268","565903","0.0-229.0-0.0","97272228","wem/bandit_either_3","A3IR7DFEKLLLO","either","8","273","","","","","","","0","0","1","","0.5739034088","0.2","0.8","0.4","0.6","0.5739034088","0.4563575644","0.5761715841","0.6572443956","","","","","","","","","","","","72","H","0","img/none_selected.jpg","","189","main_expt",""
"","bandit","269","567698","0.0-230.0-0.0","97272228","wem/bandit_either_3","A3IR7DFEKLLLO","either","8","268","","","","","","","0","1","0","","0.5859504021","0.2","0.8","0.4","0.6","0.5859504021","0.4540853102","0.5325489933","0.6735764162","","","","","","","","","","","","72","H","0","img/none_selected.jpg","","190","main_expt",""
"","bandit","270","569402","0.0-231.0-0.0","97272228","wem/bandit_either_3","A3IR7DFEKLLLO","either","8","178","","","","","","","0","1","0","","0.5325822721","0.2","0.8","0.4","0.6","0.5325822721","0.4328006462","0.5614919892","0.5997518312","","","","","","","","","","","","72","H","0","img/none_selected.jpg","","191","main_expt",""
"","bandit","271","571192","0.0-232.0-0.0","97272228","wem/bandit_either_3","A3IR7DFEKLLLO","either","8","247","","","","","","","0","0","1","","0.4622441745","0.2","0.8","0.4","0.6","0.4622441745","0.4979354652","0.5972832049","0.6582178794","","","","","","","","","","","","72","H","0","img/none_selected.jpg","","192","main_expt",""
"","bandit","272","572906","0.0-233.0-0.0","97272228","wem/bandit_either_3","A3IR7DFEKLLLO","either","8","182","","","","","","","0","1","0","","0.4765036663","0.2","0.8","0.4","0.6","0.4765036663","0.4887187701","0.6997951875","0.7246172867","","","","","","","","","","","","72","H","0","img/none_selected.jpg","","193","main_expt",""
"","bandit","273","574778","0.0-234.0-0.0","97272228","wem/bandit_either_3","A3IR7DFEKLLLO","either","8","347","","","","","","","1","0","0","0.4993882896","","0.2","0.8","0.4","0.6","","","","","0.4504155567","0.4993882896","0.7511051992","0.7721250451","","","","","","","","74","J","1","","","194","main_expt",""
"","bandit","274","576463","0.0-235.0-0.0","97272228","wem/bandit_either_3","A3IR7DFEKLLLO","either","8","145","","","","","","","0","0","1","0.5011331455","","0.2","0.8","0.4","0.6","","","","","0.4354252764","0.5011331455","0.8281457055","0.8366496483","","","","","","","","74","J","1","","","195","main_expt",""
"","bandit","275","578210","0.0-236.0-0.0","97272228","wem/bandit_either_3","A3IR7DFEKLLLO","either","8","217","","","","","","","0","0","1","","0.4487960683","0.2","0.8","0.4","0.6","0.4170899215","0.4487960683","0.8248544968","0.8484646997","","","","","","","","","","","","74","J","1","","","196","main_expt",""
"","bandit","276","579944","0.0-237.0-0.0","97272228","wem/bandit_either_3","A3IR7DFEKLLLO","either","8","205","","","","","","","1","0","0","0.3975590019","","0.2","0.8","0.4","0.6","","","","","0.4149059055","0.3975590019","0.8532714289","0.8734060335","","","","","","","","74","J","1","","","197","main_expt",""
"","bandit","277","581866","0.0-238.0-0.0","97272228","wem/bandit_either_3","A3IR7DFEKLLLO","either","8","386","","","","","","","0","0","1","","0.4161601929","0.2","0.8","0.4","0.6","0.4737306044","0.4161601929","0.7587337752","0.8515360685","","","","","","","","","","","","74","J","1","","","198","main_expt",""
"","bandit","278","583717","0.0-239.0-0.0","97272228","wem/bandit_either_3","A3IR7DFEKLLLO","either","8","297","","","","","","","1","0","0","0.4483979408","","0.2","0.8","0.4","0.6","","","","","0.4541760911","0.4483979408","0.8124408481","0.8805923715","","","","","","","","74","J","1","","","199","main_expt",""
"","bandit","279","585560","0.0-240.0-0.0","97272228","wem/bandit_either_3","A3IR7DFEKLLLO","either","8","291","","","","","","","1","0","0","0.5303380975","","0.2","0.8","0.4","0.6","","","","","0.3964714959","0.5303380975","0.7935778268","0.9645818821","","","","","","","","74","J","1","","","200","main_expt",""
"","bandit","280","587384","0.0-241.0-0.0","97272228","wem/bandit_either_3","A3IR7DFEKLLLO","either","8","272","","","","","","","0","0","1","0.4014045657","","0.2","0.8","0.4","0.6","","","","","0.3815447649","0.4014045657","0.736942723","0.9689478708","","","","","","","","74","J","1","","","201","main_expt",""
"","bandit","281","589174","0.0-242.0-0.0","97272228","wem/bandit_either_3","A3IR7DFEKLLLO","either","8","243","","","","","","","1","0","0","0.5115169607","","0.2","0.8","0.4","0.6","","","","","0.3726367513","0.5115169607","0.7001951276","0.9678291885","","","","","","","","74","J","1","","","202","main_expt",""
"","bandit","282","591116","0.0-243.0-0.0","97272228","wem/bandit_either_3","A3IR7DFEKLLLO","either","8","391","","","","","","","1","0","0","0.5026191452","","0.2","0.8","0.4","0.6","","","","","0.3062653216","0.5026191452","0.7209300446","0.9633244117","","","","","","","","74","J","1","","","203","main_expt",""
"","bandit","283","592990","0.0-244.0-0.0","97272228","wem/bandit_either_3","A3IR7DFEKLLLO","either","8","340","","","","","","","0","1","0","","0.8574132932","0.2","0.8","0.4","0.6","0.2848501254","0.4736298566","0.8574132932","0.9730812582","","","","","","","","","","","","75","K","2","","","204","main_expt",""
"","bandit","284","594805","0.0-245.0-0.0","97272228","wem/bandit_either_3","A3IR7DFEKLLLO","either","8","276","","","","","","","1","0","0","0.9038760074","","0.2","0.8","0.4","0.6","","","","","0.3457586416","0.6121858428","0.9038760074","0.9521206422","","","","","","","","75","K","2","","","205","main_expt",""
"","bandit","285","596553","0.0-246.0-0.0","97272228","wem/bandit_either_3","A3IR7DFEKLLLO","either","8","188","","","","","","","1","0","0","0.9273356803","","0.2","0.8","0.4","0.6","","","","","0.4609097875","0.6377028942","0.9273356803","0.9614764056","","","","","","","","75","K","2","","","206","main_expt",""
"","bandit","286","598468","0.0-247.0-0.0","97272228","wem/bandit_either_3","A3IR7DFEKLLLO","either","8","335","","","","","","","0","1","0","","0.9502037039","0.2","0.8","0.4","0.6","0.4980316736","0.5700483165","0.9502037039","0.9625830716","","","","","","","","","","","","75","K","2","","","207","main_expt",""
"","bandit","287","600089","0.0-248.0-0.0","97272228","wem/bandit_either_3","A3IR7DFEKLLLO","either","8","92","","","","","","","0","1","0","","0.944094639","0.2","0.8","0.4","0.6","0.4537691537","0.624428721","0.944094639","0.9359306517","","","","","","","","","","","","75","K","2","","","208","main_expt",""
"","bandit","288","601892","0.0-249.0-0.0","97272228","wem/bandit_either_3","A3IR7DFEKLLLO","either","8","261","","","","","","","0","1","0","","0.9070839441","0.2","0.8","0.4","0.6","0.4475842875","0.4861871301","0.9070839441","0.9632917203","","","","","","","","","","","","75","K","2","","","209","main_expt",""
"","bandit","289","603614","0.0-250.0-0.0","97272228","wem/bandit_either_3","A3IR7DFEKLLLO","either","8","180","","","","","","","1","0","0","0.8960653589","","0.2","0.8","0.4","0.6","","","","","0.4803454055","0.3956361612","0.8960653589","0.9633226214","","","","","","","","75","K","2","","","210","main_expt",""
"","bandit","290","605391","0.0-251.0-0.0","97272228","wem/bandit_either_3","A3IR7DFEKLLLO","either","8","245","","","","","","","0","1","0","","0.9155455821","0.2","0.8","0.4","0.6","0.4126443349","0.3599204452","0.9155455821","0.9719781217","","","","","","","","","","","","75","K","2","","","211","main_expt",""
"","bandit","291","607144","0.0-252.0-0.0","97272228","wem/bandit_either_3","A3IR7DFEKLLLO","either","8","216","","","","","","","1","0","0","0.9087954588","","0.2","0.8","0.4","0.6","","","","","0.3384802849","0.3349000901","0.9087954588","0.9700781686","","","","","","","","75","K","2","","","212","main_expt",""
"","bandit","292","608936","0.0-253.0-0.0","97272228","wem/bandit_either_3","A3IR7DFEKLLLO","either","8","258","","","","","","","0","1","0","","0.8528540962","0.2","0.8","0.4","0.6","0.3039242722","0.3183344176","0.8528540962","0.971165811","","","","","","","","","","","","75","K","2","","","213","main_expt",""
"","bandit","293","610956","0.0-254.0-0.0","97272228","wem/bandit_either_3","A3IR7DFEKLLLO","either","8","233","","","","","","","1","0","0","0.9627117","","0.2","0.8","0.4","0.6","","","","","0.4541530846","0.2390758011","0.8506041988","0.9627117","","","","","","","","76","L","3","","","214","main_expt",""
"","bandit","294","612956","0.0-255.0-0.0","97272228","wem/bandit_either_3","A3IR7DFEKLLLO","either","8","380","","","","","","","1","0","0","0.9552130497","","0.2","0.8","0.4","0.6","","","","","0.5101749692","0.1997060473","0.8001829978","0.9552130497","","","","","","","","76","L","3","","","215","main_expt",""
"","bandit","295","614841","0.0-256.0-0.0","97272228","wem/bandit_either_3","A3IR7DFEKLLLO","either","8","344","","","","","","","0","1","0","","0.9220350188","0.2","0.8","0.4","0.6","0.5580520347","0.2326539104","0.733614842","0.9220350188","","","","","","","","","","","","76","L","3","","","216","main_expt",""
"","bandit","296","616436","0.0-257.0-0.0","97272228","wem/bandit_either_3","A3IR7DFEKLLLO","either","8","39","","","","","","","1","0","0","0.8736667029","","0.2","0.8","0.4","0.6","","","","","0.4368451062","0.2319826337","0.7479737912","0.8736667029","","","","","","","","76","L","3","","","217","main_expt",""
"","bandit","297","618292","0.0-258.0-0.0","97272228","wem/bandit_either_3","A3IR7DFEKLLLO","either","8","284","","","","","","","1","0","0","0.7602784417","","0.2","0.8","0.4","0.6","","","","","0.3963441813","0.3143382807","0.7713398237","0.7602784417","","","","","","","","76","L","3","","","218","main_expt",""
"","bandit","298","620101","0.0-259.0-0.0","97272228","wem/bandit_either_3","A3IR7DFEKLLLO","either","8","256","","","","","","","1","0","0","0.7643050859","","0.2","0.8","0.4","0.6","","","","","0.4809426617","0.3304972923","0.8077055691","0.7643050859","","","","","","","","76","L","3","","","219","main_expt",""
"","bandit","299","621930","0.0-260.0-0.0","97272228","wem/bandit_either_3","A3IR7DFEKLLLO","either","8","299","","","","","","","0","1","0","","0.7793587236","0.2","0.8","0.4","0.6","0.397759556","0.2866104843","0.7778114837","0.7793587236","","","","","","","","","","","","76","L","3","","","220","main_expt",""
"","bandit","300","623709","0.0-261.0-0.0","97272228","wem/bandit_either_3","A3IR7DFEKLLLO","either","8","224","","","","","","","0","1","0","","0.82086311","0.2","0.8","0.4","0.6","0.4087677593","0.3602561646","0.7214198583","0.82086311","","","","","","","","","","","","76","L","3","","","221","main_expt",""
"","bandit","301","625470","0.0-262.0-0.0","97272228","wem/bandit_either_3","A3IR7DFEKLLLO","either","8","237","","","","","","","0","1","0","","0.8543662658","0.2","0.8","0.4","0.6","0.4561280915","0.3228749062","0.8091526303","0.8543662658","","","","","","","","","","","","76","L","3","","","222","main_expt",""
"","bandit","302","627141","0.0-263.0-0.0","97272228","wem/bandit_either_3","A3IR7DFEKLLLO","either","8","145","","","","","","","0","1","0","","0.8599459829","0.2","0.8","0.4","0.6","0.4419858618","0.2549485676","0.8240838469","0.8599459829","","","","","","","","","","","","76","L","3","","","223","main_expt",""
"","bandit","303","629004","0.0-264.0-0.0","97272228","wem/bandit_either_3","A3IR7DFEKLLLO","either","8","281","","","","","","","0","1","0","","0.8747991669","0.2","0.8","0.4","0.6","0.494409337","0.2389333491","0.7670685714","0.8747991669","","","","","","","","","","","","76","L","3","","","224","main_expt",""
"","bandit","304","630862","0.0-265.0-0.0","97272228","wem/bandit_either_3","A3IR7DFEKLLLO","either","8","334","","","","","","","0","0","1","0.1517307125","","0.2","0.8","0.4","0.6","","","","","0.3713348049","0.1517307125","0.8775689376","0.7910409491","","","","","","","","74","J","1","","","225","main_expt",""
"","bandit","305","632560","0.0-266.0-0.0","97272228","wem/bandit_either_3","A3IR7DFEKLLLO","either","8","169","","","","","","","0","0","1","","0.1002450003","0.2","0.8","0.4","0.6","0.4013452417","0.1002450003","0.8846504348","0.7212928749","","","","","","","","","","","","74","J","1","","","226","main_expt",""
"","bandit","306","634390","0.0-267.0-0.0","97272228","wem/bandit_either_3","A3IR7DFEKLLLO","either","8","288","","","","","","","0","0","1","","0.1049945928","0.2","0.8","0.4","0.6","0.393451628","0.1049945928","0.851087938","0.7090989562","","","","","","","","","","","","74","J","1","","","227","main_expt",""
"","bandit","307","636009","0.0-268.0-0.0","97272228","wem/bandit_either_3","A3IR7DFEKLLLO","either","8","68","","","","","","","0","0","1","0.03915988122","","0.2","0.8","0.4","0.6","","","","","0.4175844788","0.03915988122","0.9074720337","0.6606736223","","","","","","","","74","J","1","","","228","main_expt",""
"","bandit","308","637647","0.0-269.0-0.0","97272228","wem/bandit_either_3","A3IR7DFEKLLLO","either","8","101","","","","","","","0","1","0","","0.872332114","0.2","0.8","0.4","0.6","0.408368909","0.03767516843","0.872332114","0.6893924153","","","","","","","","","","","","75","K","2","","","229","main_expt",""
"","bandit","309","639331","0.0-270.0-0.0","97272228","wem/bandit_either_3","A3IR7DFEKLLLO","either","8","152","","","","","","","0","0","1","0.05804790214","","0.2","0.8","0.4","0.6","","","","","0.4777699032","0.05804790214","0.7967167456","0.6067604319","","","","","","","","74","J","1","","","230","main_expt",""
"","bandit","310","641061","0.0-271.0-0.0","97272228","wem/bandit_either_3","A3IR7DFEKLLLO","either","8","197","","","","","","","0","1","0","","0.4935442242","0.2","0.8","0.4","0.6","0.4935442242","0.04963095007","0.7760618079","0.5037419277","","","","","","","","","","","","72","H","0","img/none_selected.jpg","","231","main_expt",""
"","bandit","311","643060","0.0-272.0-0.0","97272228","wem/bandit_either_3","A3IR7DFEKLLLO","either","8","463","","","","","","","1","0","0","0.4339479185","","0.2","0.8","0.4","0.6","","","","","0.4889590317","0.03759782928","0.7765467853","0.4339479185","","","","","","","","76","L","3","","","232","main_expt",""
"","bandit","312","644990","0.0-273.0-0.0","97272228","wem/bandit_either_3","A3IR7DFEKLLLO","either","8","378","","","","","","","1","0","0","0.03147013274","","0.2","0.8","0.4","0.6","","","","","0.5212294662","0.03147013274","0.7895219362","0.4525546635","","","","","","","","74","J","1","","","233","main_expt",""
"","bandit","313","646913","0.0-274.0-0.0","97272228","wem/bandit_either_3","A3IR7DFEKLLLO","either","8","380","","","","","","","1","0","0","0.3680080929","","0.2","0.8","0.4","0.6","","","","","0.4420617392","0.03547440544","0.7491899586","0.3680080929","","","","","","","","76","L","3","","","234","main_expt",""
"","bandit","314","648536","0.0-275.0-0.0","97272228","wem/bandit_either_3","A3IR7DFEKLLLO","either","8","78","","","","","","","0","0","1","0.04486782706","","0.2","0.8","0.4","0.6","","","","","0.4816955248","0.04486782706","0.7397351474","0.3416373547","","","","","","","","74","J","1","","","235","main_expt",""
"","bandit","315","650214","0.0-276.0-0.0","97272228","wem/bandit_either_3","A3IR7DFEKLLLO","either","8","135","","","","","","","0","0","1","0.3722877153","","0.2","0.8","0.4","0.6","","","","","0.3028121716","0.03122339122","0.6587673302","0.3722877153","","","","","","","","76","L","3","","","236","main_expt",""
"","bandit","316","651935","0.0-277.0-0.0","97272228","wem/bandit_either_3","A3IR7DFEKLLLO","either","8","180","","","","","","","0","0","1","","0.04191117605","0.2","0.8","0.4","0.6","0.3802502189","0.04191117605","0.7534934878","0.3081002542","","","","","","","","","","","","74","J","1","","","237","main_expt",""
"","bandit","317","653483","0.0-278.0-0.0","97272228","wem/bandit_either_3","A3IR7DFEKLLLO","either","8","23","","","","","","","0","0","1","","0.2546656634","0.2","0.8","0.4","0.6","0.4160754302","0.06367740527","0.8023031038","0.2546656634","","","","","","","","","","","","76","L","3","","","238","main_expt",""
"","bandit","318","655124","0.0-279.0-0.0","97272228","wem/bandit_either_3","A3IR7DFEKLLLO","either","8","99","","","","","","","0","0","1","0.06315957527","","0.2","0.8","0.4","0.6","","","","","0.3510440385","0.06315957527","0.8333986962","0.3038323055","","","","","","","","74","J","1","","","239","main_expt",""
"","bandit","319","656840","0.0-280.0-0.0","97272228","wem/bandit_either_3","A3IR7DFEKLLLO","either","8","141","","","","","","","0","1","0","","0.840768508","0.2","0.8","0.4","0.6","0.4182550587","0.05324295338","0.840768508","0.291884511","","","","","","","","","","","","75","K","2","","","240","main_expt",""
"","bandit","320","658658","0.0-281.0-0.0","97272228","wem/bandit_either_3","A3IR7DFEKLLLO","either","8","261","","","","","","","0","0","1","0.3124975621","","0.2","0.8","0.4","0.6","","","","","0.5037088371","0.04641095239","0.823006268","0.3124975621","","","","","","","","76","L","3","","","241","main_expt",""
"","bandit","321","660427","0.0-282.0-0.0","97272228","wem/bandit_either_3","A3IR7DFEKLLLO","either","8","226","","","","","","","0","0","1","","0.04954190216","0.2","0.8","0.4","0.6","0.4877747003","0.04954190216","0.8152254121","0.3637146884","","","","","","","","","","","","74","J","1","","","242","main_expt",""
"","bandit","322","662609","0.0-283.0-0.0","97272228","wem/bandit_either_3","A3IR7DFEKLLLO","either","8","650","","","","","","","0","0","1","0.05592390002","","0.2","0.8","0.4","0.6","","","","","0.5007011316","0.05592390002","0.8377493118","0.3304840913","","","","","","","","74","J","1","","","243","main_expt",""
"","bandit","323","664684","0.0-284.0-0.0","97272228","wem/bandit_either_3","A3IR7DFEKLLLO","either","8","536","","","","","","","1","0","0","0.03808637997","","0.2","0.8","0.4","0.6","","","","","0.5730304632","0.03808637997","0.8258586067","0.4067767971","","","","","","","","74","J","1","","","244","main_expt",""
"","bandit","324","672565","0.0-285.0-0.0","97272228","wem/bandit_either_3","A3IR7DFEKLLLO","either","8","6309","","","","","","","0","0","1","","0.02077199453","0.2","0.8","0.4","0.6","0.6096531262","0.02077199453","0.7889424323","0.4091901929","","","","","","","","","","","","74","J","1","","","245","main_expt",""
"","bandit","325","674484","0.0-286.0-0.0","97272228","wem/bandit_either_3","A3IR7DFEKLLLO","either","8","351","","","","","","","1","0","0","0.7288058668","","0.2","0.8","0.4","0.6","","","","","0.6433625309","0.01756278659","0.7288058668","0.3814802778","","","","","","","","75","K","2","","","246","main_expt",""
"","bandit","326","676254","0.0-287.0-0.0","97272228","wem/bandit_either_3","A3IR7DFEKLLLO","either","8","222","","","","","","","0","0","1","","0.02612390617","0.2","0.8","0.4","0.6","0.5912901759","0.02612390617","0.6944890646","0.4081758168","","","","","","","","","","","","74","J","1","","","247","main_expt",""
