"consent","trial_type","trial_index","time_elapsed","internal_node_id","subjID","study","MID","cond","drift","rt","responses","key_press","expt_phase","like","value","connected","gems","bombs","no_reward","GemPrChosen","BombPrChosen","GainOverPainPr_0","GainOverPainPr_1","GainOverPainPr_2","GainOverPainPr_3","LosePr_0","LosePr_1","LosePr_2","LosePr_3","WinPr_0","WinPr_1","WinPr_2","WinPr_3","Q0","Q1","Q2","gender","age","ethnicity","target","respCharCode","respKey","respChoiceNum","respChoice","practice","trial_counter","trial_label","button_pressed"
"INL_behavioral_consent_30min_online.html","consent","0","19215","0.0-0.0","98785857","wem/bandit_either_3","A1NGABF082HR2P","either","2","","","","","","","","","","","","","","","","","","","","","","","","","","","","","","","","","","","","","","",""
"","survey-text","1","25352","0.0-1.0","98785857","wem/bandit_either_3","A1NGABF082HR2P","either","2","5129","{""Q0"":""A1NGABF082HR2P""}","","","","","","","","","","","","","","","","","","","","","","","","","","","","","","","","","","","","",""
"","text","2","36940","0.0-2.0","98785857","wem/bandit_either_3","A1NGABF082HR2P","either","2","10585","","32","","","","","","","","","","","","","","","","","","","","","","","","","","","","","","","","","","","",""
"","text","3","44227","0.0-3.0","98785857","wem/bandit_either_3","A1NGABF082HR2P","either","2","7286","","32","","","","","","","","","","","","","","","","","","","","","","","","","","","","","","","","","","","",""
"","text","4","87091","0.0-4.0","98785857","wem/bandit_either_3","A1NGABF082HR2P","either","2","42862","","32","","","","","","","","","","","","","","","","","","","","","","","","","","","","","","","","","","","",""
"","text","5","99867","0.0-5.0","98785857","wem/bandit_either_3","A1NGABF082HR2P","either","2","12775","","32","","","","","","","","","","","","","","","","","","","","","","","","","","","","","","","","","","","",""
"","text","6","121588","0.0-6.0","98785857","wem/bandit_either_3","A1NGABF082HR2P","either","2","21720","","32","","","","","","","","","","","","","","","","","","","","","","","","","","","","","","","","","","","",""
"","text","7","129099","0.0-7.0","98785857","wem/bandit_either_3","A1NGABF082HR2P","either","2","7510","","32","","","","","","","","","","","","","","","","","","","","","","","","","","","","","","","","","","","",""
"","text","8","133468","0.0-8.0","98785857","wem/bandit_either_3","A1NGABF082HR2P","either","2","4357","","32","","","","","","","","","","","","","","","","","","","","","","","","","","","","","","","","","","","",""
"","identification","9","139675","0.0-9.0-0.0","98785857","wem/bandit_either_3","A1NGABF082HR2P","either","2","6193","","","","3","3","3","","","","","","","","","","","","","","","","","","","","","","","","the village of Zur","","","","","","","",""
"","identification","10","150859","0.0-9.0-1.0","98785857","wem/bandit_either_3","A1NGABF082HR2P","either","2","10170","","","","2","2","0","","","","","","","","","","","","","","","","","","","","","","","","the village of Nyx","","","","","","","",""
"","text","11","158956","0.0-10.0","98785857","wem/bandit_either_3","A1NGABF082HR2P","either","2","7095","","32","","","","","","","","","","","","","","","","","","","","","","","","","","","","","","","","","","","",""
"","text","12","164522","0.0-11.0","98785857","wem/bandit_either_3","A1NGABF082HR2P","either","2","5566","","32","","","","","","","","","","","","","","","","","","","","","","","","","","","","","","","","","","","",""
"","text","13","168058","0.0-12.0","98785857","wem/bandit_either_3","A1NGABF082HR2P","either","2","3534","","32","","","","","","","","","","","","","","","","","","","","","","","","","","","","","","","","","","","",""
"","text","14","172274","0.0-13.0","98785857","wem/bandit_either_3","A1NGABF082HR2P","either","2","4215","","32","","","","","","","","","","","","","","","","","","","","","","","","","","","","","","","","","","","",""
"","bandit","15","176608","0.0-14.0-0.0","98785857","wem/bandit_either_3","A1NGABF082HR2P","either","2","2828","","","","","","","0","0","1","0","0","","","","","0","","","","0","","","","","","","","","","","74","J","0","img/none_selected_demo.jpg","true","0","",""
"","bandit","16","180551","0.0-15.0-0.0","98785857","wem/bandit_either_3","A1NGABF082HR2P","either","2","2439","","","","","","","0","0","1","0","0","","","","","0","","","","0","","","","","","","","","","","75","K","0","img/none_selected_demo.jpg","true","0","",""
"","text","17","189587","0.0-16.0","98785857","wem/bandit_either_3","A1NGABF082HR2P","either","2","9034","","32","","","","","","","","","","","","","","","","","","","","","","","","","","","","","","","","","","","",""
"","text","18","200499","0.0-17.0","98785857","wem/bandit_either_3","A1NGABF082HR2P","either","2","10911","","32","","","","","","","","","","","","","","","","","","","","","","","","","","","","","","","","","","","",""
"","text","19","208194","0.0-18.0","98785857","wem/bandit_either_3","A1NGABF082HR2P","either","2","7693","","32","","","","","","","","","","","","","","","","","","","","","","","","","","","","","","","","","","","",""
"","text","20","215162","0.0-19.0","98785857","wem/bandit_either_3","A1NGABF082HR2P","either","2","6966","","32","","","","","","","","","","","","","","","","","","","","","","","","","","","","","","","","","","","",""
"","bandit","21","220951","0.0-20.0-0.0","98785857","wem/bandit_either_3","A1NGABF082HR2P","either","2","4285","","","","","","","0","1","0","","0.2","0.5","0.5","","","0.8","0.2","","","","","","","","","","","","","","75","K","1","","true","0","80_20_practice",""
"","bandit","22","224511","0.0-20.0-1.0","98785857","wem/bandit_either_3","A1NGABF082HR2P","either","2","2056","","","","","","","1","0","0","0.8","","0.5","0.5","","","","","","","0.8","0.2","","","","","","","","","","74","J","0","img/none_selected_demo.jpg","true","0","80_20_practice",""
"","bandit","23","228335","0.0-20.0-2.0","98785857","wem/bandit_either_3","A1NGABF082HR2P","either","2","2322","","","","","","","0","0","1","","0.8","0.5","0.5","","","0.8","0.2","","","","","","","","","","","","","","74","J","0","img/none_selected_demo.jpg","true","0","80_20_practice",""
"","bandit","24","230624","0.0-20.0-3.0","98785857","wem/bandit_either_3","A1NGABF082HR2P","either","2","785","","","","","","","0","0","1","0.2","","0.5","0.5","","","","","","","0.8","0.2","","","","","","","","","","75","K","1","","true","0","80_20_practice",""
"","bandit","25","233230","0.0-20.0-4.0","98785857","wem/bandit_either_3","A1NGABF082HR2P","either","2","1104","","","","","","","1","0","0","0.2","","0.5","0.5","","","","","","","0.8","0.2","","","","","","","","","","75","K","1","","true","0","80_20_practice",""
"","bandit","26","235720","0.0-20.0-5.0","98785857","wem/bandit_either_3","A1NGABF082HR2P","either","2","985","","","","","","","0","0","1","0.2","","0.5","0.5","","","","","","","0.8","0.2","","","","","","","","","","75","K","1","","true","0","80_20_practice",""
"","bandit","27","237743","0.0-20.0-6.0","98785857","wem/bandit_either_3","A1NGABF082HR2P","either","2","520","","","","","","","1","0","0","0.8","","0.5","0.5","","","","","","","0.8","0.2","","","","","","","","","","74","J","0","img/none_selected_demo.jpg","true","0","80_20_practice",""
"","bandit","28","239801","0.0-20.0-7.0","98785857","wem/bandit_either_3","A1NGABF082HR2P","either","2","553","","","","","","","1","0","0","0.2","","0.5","0.5","","","","","","","0.8","0.2","","","","","","","","","","75","K","1","","true","0","80_20_practice",""
"","bandit","29","243697","0.0-20.0-8.0","98785857","wem/bandit_either_3","A1NGABF082HR2P","either","2","2391","","","","","","","0","0","1","","0.2","0.5","0.5","","","0.8","0.2","","","","","","","","","","","","","","75","K","1","","true","0","80_20_practice",""
"","bandit","30","247120","0.0-20.0-9.0","98785857","wem/bandit_either_3","A1NGABF082HR2P","either","2","1919","","","","","","","0","0","1","","0.2","0.5","0.5","","","0.8","0.2","","","","","","","","","","","","","","75","K","1","","true","0","80_20_practice",""
"","bandit","31","249640","0.0-20.0-10.0","98785857","wem/bandit_either_3","A1NGABF082HR2P","either","2","1015","","","","","","","0","1","0","","0.8","0.5","0.5","","","0.8","0.2","","","","","","","","","","","","","","74","J","0","img/none_selected_demo.jpg","true","0","80_20_practice",""
"","bandit","32","252350","0.0-20.0-11.0","98785857","wem/bandit_either_3","A1NGABF082HR2P","either","2","1208","","","","","","","0","0","1","","0.2","0.5","0.5","","","0.8","0.2","","","","","","","","","","","","","","75","K","1","","true","0","80_20_practice",""
"","bandit","33","254248","0.0-20.0-12.0","98785857","wem/bandit_either_3","A1NGABF082HR2P","either","2","394","","","","","","","1","0","0","0.8","","0.5","0.5","","","","","","","0.8","0.2","","","","","","","","","","74","J","0","img/none_selected_demo.jpg","true","0","80_20_practice",""
"","bandit","34","256191","0.0-20.0-13.0","98785857","wem/bandit_either_3","A1NGABF082HR2P","either","2","440","","","","","","","0","0","1","","0.2","0.5","0.5","","","0.8","0.2","","","","","","","","","","","","","","75","K","1","","true","0","80_20_practice",""
"","bandit","35","257992","0.0-20.0-14.0","98785857","wem/bandit_either_3","A1NGABF082HR2P","either","2","296","","","","","","","0","0","1","0.8","","0.5","0.5","","","","","","","0.8","0.2","","","","","","","","","","74","J","0","img/none_selected_demo.jpg","true","0","80_20_practice",""
"","bandit","36","259872","0.0-20.0-15.0","98785857","wem/bandit_either_3","A1NGABF082HR2P","either","2","375","","","","","","","1","0","0","0.8","","0.5","0.5","","","","","","","0.8","0.2","","","","","","","","","","74","J","0","img/none_selected_demo.jpg","true","0","80_20_practice",""
"","bandit","37","261880","0.0-20.0-16.0","98785857","wem/bandit_either_3","A1NGABF082HR2P","either","2","505","","","","","","","1","0","0","0.8","","0.5","0.5","","","","","","","0.8","0.2","","","","","","","","","","74","J","0","img/none_selected_demo.jpg","true","0","80_20_practice",""
"","bandit","38","263736","0.0-20.0-17.0","98785857","wem/bandit_either_3","A1NGABF082HR2P","either","2","352","","","","","","","1","0","0","0.8","","0.5","0.5","","","","","","","0.8","0.2","","","","","","","","","","74","J","0","img/none_selected_demo.jpg","true","0","80_20_practice",""
"","bandit","39","265568","0.0-20.0-18.0","98785857","wem/bandit_either_3","A1NGABF082HR2P","either","2","328","","","","","","","0","1","0","","0.8","0.5","0.5","","","0.8","0.2","","","","","","","","","","","","","","74","J","0","img/none_selected_demo.jpg","true","0","80_20_practice",""
"","bandit","40","267462","0.0-20.0-19.0","98785857","wem/bandit_either_3","A1NGABF082HR2P","either","2","392","","","","","","","0","0","1","","0.2","0.5","0.5","","","0.8","0.2","","","","","","","","","","","","","","75","K","1","","true","0","80_20_practice",""
"","text","41","276796","0.0-21.0","98785857","wem/bandit_either_3","A1NGABF082HR2P","either","2","9331","","32","","","","","","","","","","","","","","","","","","","","","","","","","","","","","","","","","","","",""
"","bandit","42","280904","0.0-22.0-0.0","98785857","wem/bandit_either_3","A1NGABF082HR2P","either","2","2604","","","","","","","1","0","0","1","0","","","","","0","1","","","1","0","","","","","","","","","","74","J","0","img/none_selected_demo.jpg","true","0","",""
"","text","43","288268","0.0-23.0","98785857","wem/bandit_either_3","A1NGABF082HR2P","either","2","7362","","32","","","","","","","","","","","","","","","","","","","","","","","","","","","","","","","","","","","",""
"","text","44","303611","0.0-24.0","98785857","wem/bandit_either_3","A1NGABF082HR2P","either","2","15341","","32","","","","","","","","","","","","","","","","","","","","","","","","","","","","","","","","","","","",""
"","text","45","306203","0.0-25.0","98785857","wem/bandit_either_3","A1NGABF082HR2P","either","2","2590","","32","","","","","","","","","","","","","","","","","","","","","","","","","","","","","","","","","","","",""
"","text","46","309859","0.0-26.0","98785857","wem/bandit_either_3","A1NGABF082HR2P","either","2","3654","","32","","","","","","","","","","","","","","","","","","","","","","","","","","","","","","","","","","","",""
"","text","47","318131","0.0-27.0","98785857","wem/bandit_either_3","A1NGABF082HR2P","either","2","8271","","32","","","","","","","","","","","","","","","","","","","","","","","","","","","","","","","","","","","",""
"","text","48","321546","0.0-28.0","98785857","wem/bandit_either_3","A1NGABF082HR2P","either","2","3413","","32","","","","","","","","","","","","","","","","","","","","","","","","","","","","","","","","","","","",""
"","text","49","326147","0.0-29.0","98785857","wem/bandit_either_3","A1NGABF082HR2P","either","2","4599","","32","","","","","","","","","","","","","","","","","","","","","","","","","","","","","","","","","","","",""
"","text","50","329372","0.0-30.0","98785857","wem/bandit_either_3","A1NGABF082HR2P","either","2","3223","","32","","","","","","","","","","","","","","","","","","","","","","","","","","","","","","","","","","","",""
"","text","51","335579","0.0-31.0","98785857","wem/bandit_either_3","A1NGABF082HR2P","either","2","6205","","32","","","","","","","","","","","","","","","","","","","","","","","","","","","","","","","","","","","",""
"","text","52","337811","0.0-32.0","98785857","wem/bandit_either_3","A1NGABF082HR2P","either","2","2230","","32","","","","","","","","","","","","","","","","","","","","","","","","","","","","","","","","","","","",""
"","text","53","352915","0.0-33.0","98785857","wem/bandit_either_3","A1NGABF082HR2P","either","2","15102","","32","","","","","","","","","","","","","","","","","","","","","","","","","","","","","","","","","","","",""
"","bandit","54","355703","0.0-34.0-0.0","98785857","wem/bandit_either_3","A1NGABF082HR2P","either","2","1284","","","","","","","0","0","1","0.8","","0.5","0.5","0.5","0.5","","","","","0.8","0.2","0.6","0.2","","","","","","","","72","H","0","img/none_selected.jpg","true","0","full_practice",""
"","bandit","55","358302","0.0-34.0-1.0","98785857","wem/bandit_either_3","A1NGABF082HR2P","either","2","1097","","","","","","","0","0","1","0.2","","0.5","0.5","0.5","0.5","","","","","0.8","0.2","0.6","0.2","","","","","","","","76","L","3","","true","0","full_practice",""
"","bandit","56","362231","0.0-34.0-2.0","98785857","wem/bandit_either_3","A1NGABF082HR2P","either","2","2425","","","","","","","0","0","1","0.2","","0.5","0.5","0.5","0.5","","","","","0.8","0.2","0.6","0.2","","","","","","","","74","J","1","","true","0","full_practice",""
"","bandit","57","364263","0.0-34.0-3.0","98785857","wem/bandit_either_3","A1NGABF082HR2P","either","2","529","","","","","","","1","0","0","0.6","","0.5","0.5","0.5","0.5","","","","","0.8","0.2","0.6","0.2","","","","","","","","75","K","2","","true","0","full_practice",""
"","bandit","58","368840","0.0-34.0-4.0","98785857","wem/bandit_either_3","A1NGABF082HR2P","either","2","3072","","","","","","","1","0","0","0.6","","0.5","0.5","0.5","0.5","","","","","0.8","0.2","0.6","0.2","","","","","","","","75","K","2","","true","0","full_practice",""
"","bandit","59","371361","0.0-34.0-5.0","98785857","wem/bandit_either_3","A1NGABF082HR2P","either","2","1014","","","","","","","0","0","1","","0.6","0.5","0.5","0.5","0.5","0.8","0.2","0.6","0.2","","","","","","","","","","","","75","K","2","","true","0","full_practice",""
"","bandit","60","373870","0.0-34.0-6.0","98785857","wem/bandit_either_3","A1NGABF082HR2P","either","2","1006","","","","","","","0","0","1","0.2","","0.5","0.5","0.5","0.5","","","","","0.8","0.2","0.6","0.2","","","","","","","","74","J","1","","true","0","full_practice",""
"","bandit","61","375847","0.0-34.0-7.0","98785857","wem/bandit_either_3","A1NGABF082HR2P","either","2","473","","","","","","","1","0","0","0.8","","0.5","0.5","0.5","0.5","","","","","0.8","0.2","0.6","0.2","","","","","","","","72","H","0","img/none_selected.jpg","true","0","full_practice",""
"","bandit","62","378663","0.0-34.0-8.0","98785857","wem/bandit_either_3","A1NGABF082HR2P","either","2","1312","","","","","","","0","1","0","","0.8","0.5","0.5","0.5","0.5","0.8","0.2","0.6","0.2","","","","","","","","","","","","72","H","0","img/none_selected.jpg","true","0","full_practice",""
"","bandit","63","380952","0.0-34.0-9.0","98785857","wem/bandit_either_3","A1NGABF082HR2P","either","2","783","","","","","","","1","0","0","0.8","","0.5","0.5","0.5","0.5","","","","","0.8","0.2","0.6","0.2","","","","","","","","72","H","0","img/none_selected.jpg","true","0","full_practice",""
"","bandit","64","383161","0.0-34.0-10.0","98785857","wem/bandit_either_3","A1NGABF082HR2P","either","2","704","","","","","","","1","0","0","0.8","","0.5","0.5","0.5","0.5","","","","","0.8","0.2","0.6","0.2","","","","","","","","72","H","0","img/none_selected.jpg","true","0","full_practice",""
"","bandit","65","385000","0.0-34.0-11.0","98785857","wem/bandit_either_3","A1NGABF082HR2P","either","2","334","","","","","","","0","0","1","","0.8","0.5","0.5","0.5","0.5","0.8","0.2","0.6","0.2","","","","","","","","","","","","72","H","0","img/none_selected.jpg","true","0","full_practice",""
"","bandit","66","386847","0.0-34.0-12.0","98785857","wem/bandit_either_3","A1NGABF082HR2P","either","2","342","","","","","","","0","0","1","","0.2","0.5","0.5","0.5","0.5","0.8","0.2","0.6","0.2","","","","","","","","","","","","76","L","3","","true","0","full_practice",""
"","bandit","67","390518","0.0-34.0-13.0","98785857","wem/bandit_either_3","A1NGABF082HR2P","either","2","2167","","","","","","","0","0","1","","0.6","0.5","0.5","0.5","0.5","0.8","0.2","0.6","0.2","","","","","","","","","","","","75","K","2","","true","0","full_practice",""
"","bandit","68","392422","0.0-34.0-14.0","98785857","wem/bandit_either_3","A1NGABF082HR2P","either","2","400","","","","","","","0","0","1","0.2","","0.5","0.5","0.5","0.5","","","","","0.8","0.2","0.6","0.2","","","","","","","","74","J","1","","true","0","full_practice",""
"","bandit","69","394346","0.0-34.0-15.0","98785857","wem/bandit_either_3","A1NGABF082HR2P","either","2","420","","","","","","","1","0","0","0.8","","0.5","0.5","0.5","0.5","","","","","0.8","0.2","0.6","0.2","","","","","","","","72","H","0","img/none_selected.jpg","true","0","full_practice",""
"","bandit","70","396225","0.0-34.0-16.0","98785857","wem/bandit_either_3","A1NGABF082HR2P","either","2","372","","","","","","","0","0","1","","0.8","0.5","0.5","0.5","0.5","0.8","0.2","0.6","0.2","","","","","","","","","","","","72","H","0","img/none_selected.jpg","true","0","full_practice",""
"","bandit","71","398145","0.0-34.0-17.0","98785857","wem/bandit_either_3","A1NGABF082HR2P","either","2","413","","","","","","","1","0","0","0.8","","0.5","0.5","0.5","0.5","","","","","0.8","0.2","0.6","0.2","","","","","","","","72","H","0","img/none_selected.jpg","true","0","full_practice",""
"","bandit","72","400120","0.0-34.0-18.0","98785857","wem/bandit_either_3","A1NGABF082HR2P","either","2","470","","","","","","","0","0","1","0.2","","0.5","0.5","0.5","0.5","","","","","0.8","0.2","0.6","0.2","","","","","","","","76","L","3","","true","0","full_practice",""
"","bandit","73","402288","0.0-34.0-19.0","98785857","wem/bandit_either_3","A1NGABF082HR2P","either","2","663","","","","","","","1","0","0","0.6","","0.5","0.5","0.5","0.5","","","","","0.8","0.2","0.6","0.2","","","","","","","","75","K","2","","true","0","full_practice",""
"","text","74","408851","0.0-35.0","98785857","wem/bandit_either_3","A1NGABF082HR2P","either","2","6557","","32","","","","","","","","","","","","","","","","","","","","","","","","","","","","","","","","","","","",""
"","text","75","434171","0.0-36.0","98785857","wem/bandit_either_3","A1NGABF082HR2P","either","2","24319","","32","","","","","","","","","","","","","","","","","","","","","","","","","","","","","","","","","","","",""
"","text","76","447172","0.0-37.0","98785857","wem/bandit_either_3","A1NGABF082HR2P","either","2","12998","","32","","","","","","","","","","","","","","","","","","","","","","","","","","","","","","","","","","","",""
"","text","77","456963","0.0-38.0","98785857","wem/bandit_either_3","A1NGABF082HR2P","either","2","9788","","32","","","","","","","","","","","","","","","","","","","","","","","","","","","","","","","","","","","",""
"","text","78","463380","0.0-39.0","98785857","wem/bandit_either_3","A1NGABF082HR2P","either","2","6415","","32","","","","","","","","","","","","","","","","","","","","","","","","","","","","","","","","","","","",""
"","text","79","474347","0.0-40.0","98785857","wem/bandit_either_3","A1NGABF082HR2P","either","2","10965","","32","","","","","","","","","","","","","","","","","","","","","","","","","","","","","","","","","","","",""
"","bandit","80","483120","0.0-41.0-0.0","98785857","wem/bandit_either_3","A1NGABF082HR2P","either","2","7269","","","","","","","1","0","0","0.7092854079","","0.2","0.8","0.4","0.6","","","","","0.4841938304","0.9925337928","0.7961415707","0.7092854079","","","","","","","","76","L","3","","","1","main_expt",""
"","bandit","81","485536","0.0-42.0-0.0","98785857","wem/bandit_either_3","A1NGABF082HR2P","either","2","910","","","","","","","0","0","1","","0.5300888233","0.2","0.8","0.4","0.6","0.5300888233","0.9909612399","0.7739630809","0.7343230146","","","","","","","","","","","","72","H","0","img/none_selected.jpg","","2","main_expt",""
"","bandit","82","487512","0.0-43.0-0.0","98785857","wem/bandit_either_3","A1NGABF082HR2P","either","2","472","","","","","","","1","0","0","0.7616266478","","0.2","0.8","0.4","0.6","","","","","0.4747636274","0.9875934203","0.807852523","0.7616266478","","","","","","","","76","L","3","","","3","main_expt",""
"","bandit","83","489848","0.0-44.0-0.0","98785857","wem/bandit_either_3","A1NGABF082HR2P","either","2","830","","","","","","","1","0","0","0.7555889459","","0.2","0.8","0.4","0.6","","","","","0.4841015375","0.9782241123","0.7922386472","0.7555889459","","","","","","","","76","L","3","","","4","main_expt",""
"","bandit","84","492008","0.0-45.0-0.0","98785857","wem/bandit_either_3","A1NGABF082HR2P","either","2","654","","","","","","","0","0","1","","0.733520678","0.2","0.8","0.4","0.6","0.5545204825","0.9756627961","0.865094385","0.733520678","","","","","","","","","","","","76","L","3","","","5","main_expt",""
"","bandit","85","494238","0.0-46.0-0.0","98785857","wem/bandit_either_3","A1NGABF082HR2P","either","2","725","","","","","","","1","0","0","0.800956518","","0.2","0.8","0.4","0.6","","","","","0.6032406034","0.967089612","0.800956518","0.6705264102","","","","","","","","75","K","2","","","6","main_expt",""
"","bandit","86","496710","0.0-47.0-0.0","98785857","wem/bandit_either_3","A1NGABF082HR2P","either","2","968","","","","","","","0","1","0","","0.826484282","0.2","0.8","0.4","0.6","0.6629125932","0.9581374084","0.826484282","0.6395389268","","","","","","","","","","","","75","K","2","","","7","main_expt",""
"","bandit","87","499352","0.0-48.0-0.0","98785857","wem/bandit_either_3","A1NGABF082HR2P","either","2","1136","","","","","","","0","1","0","","0.8721258401","0.2","0.8","0.4","0.6","0.6179372523","0.9470057872","0.8721258401","0.6463283336","","","","","","","","","","","","75","K","2","","","8","main_expt",""
"","bandit","88","501863","0.0-49.0-0.0","98785857","wem/bandit_either_3","A1NGABF082HR2P","either","2","1006","","","","","","","1","0","0","0.9123847657","","0.2","0.8","0.4","0.6","","","","","0.7126464358","0.9776699295","0.9123847657","0.5257156782","","","","","","","","75","K","2","","","9","main_expt",""
"","bandit","89","504040","0.0-50.0-0.0","98785857","wem/bandit_either_3","A1NGABF082HR2P","either","2","671","","","","","","","0","1","0","","0.8996742502","0.2","0.8","0.4","0.6","0.7356985298","0.9728878591","0.8996742502","0.4763364632","","","","","","","","","","","","75","K","2","","","10","main_expt",""
"","bandit","90","505935","0.0-51.0-0.0","98785857","wem/bandit_either_3","A1NGABF082HR2P","either","2","390","","","","","","","1","0","0","0.9131723876","","0.2","0.8","0.4","0.6","","","","","0.768711937","0.9593139104","0.9131723876","0.4284616273","","","","","","","","75","K","2","","","11","main_expt",""
"","bandit","91","507769","0.0-52.0-0.0","98785857","wem/bandit_either_3","A1NGABF082HR2P","either","2","327","","","","","","","1","0","0","0.8766857583","","0.2","0.8","0.4","0.6","","","","","0.775032537","0.9498917819","0.8766857583","0.3846657661","","","","","","","","75","K","2","","","12","main_expt",""
"","bandit","92","509703","0.0-53.0-0.0","98785857","wem/bandit_either_3","A1NGABF082HR2P","either","2","431","","","","","","","0","1","0","","0.8395211377","0.2","0.8","0.4","0.6","0.8005481332","0.9541602679","0.8395211377","0.4534267517","","","","","","","","","","","","75","K","2","","","13","main_expt",""
"","bandit","93","511558","0.0-54.0-0.0","98785857","wem/bandit_either_3","A1NGABF082HR2P","either","2","350","","","","","","","1","0","0","0.8716273459","","0.2","0.8","0.4","0.6","","","","","0.8437703121","0.9457654821","0.8716273459","0.5781166702","","","","","","","","75","K","2","","","14","main_expt",""
"","bandit","94","513398","0.0-55.0-0.0","98785857","wem/bandit_either_3","A1NGABF082HR2P","either","2","336","","","","","","","1","0","0","0.8884181174","","0.2","0.8","0.4","0.6","","","","","0.7878475566","0.961431504","0.8884181174","0.6683268695","","","","","","","","75","K","2","","","15","main_expt",""
"","bandit","95","515214","0.0-56.0-0.0","98785857","wem/bandit_either_3","A1NGABF082HR2P","either","2","312","","","","","","","0","0","1","0.9144873871","","0.2","0.8","0.4","0.6","","","","","0.7873795395","0.9614480804","0.9144873871","0.6948649322","","","","","","","","75","K","2","","","16","main_expt",""
"","bandit","96","517144","0.0-57.0-0.0","98785857","wem/bandit_either_3","A1NGABF082HR2P","either","2","424","","","","","","","1","0","0","0.8084550093","","0.2","0.8","0.4","0.6","","","","","0.8084550093","0.981184269","0.915766025","0.7674725463","","","","","","","","72","H","0","img/none_selected.jpg","","17","main_expt",""
"","bandit","97","518984","0.0-58.0-0.0","98785857","wem/bandit_either_3","A1NGABF082HR2P","either","2","335","","","","","","","0","1","0","","0.8436933745","0.2","0.8","0.4","0.6","0.8436933745","0.9861919244","0.9357816117","0.7706733977","","","","","","","","","","","","72","H","0","img/none_selected.jpg","","18","main_expt",""
"","bandit","98","520824","0.0-59.0-0.0","98785857","wem/bandit_either_3","A1NGABF082HR2P","either","2","336","","","","","","","0","1","0","","0.8059530903","0.2","0.8","0.4","0.6","0.8059530903","0.986789567","0.9482019282","0.7396491891","","","","","","","","","","","","72","H","0","img/none_selected.jpg","","19","main_expt",""
"","bandit","99","522682","0.0-60.0-0.0","98785857","wem/bandit_either_3","A1NGABF082HR2P","either","2","348","","","","","","","0","1","0","","0.7839513496","0.2","0.8","0.4","0.6","0.7839513496","0.986183881","0.9433726768","0.6712916173","","","","","","","","","","","","72","H","0","img/none_selected.jpg","","20","main_expt",""
"","bandit","100","524560","0.0-61.0-0.0","98785857","wem/bandit_either_3","A1NGABF082HR2P","either","2","371","","","","","","","0","1","0","","0.7841815244","0.2","0.8","0.4","0.6","0.7841815244","0.9887099493","0.9488284628","0.6728887443","","","","","","","","","","","","72","H","0","img/none_selected.jpg","","21","main_expt",""
"","bandit","101","526456","0.0-62.0-0.0","98785857","wem/bandit_either_3","A1NGABF082HR2P","either","2","389","","","","","","","0","1","0","","0.8256278583","0.2","0.8","0.4","0.6","0.8256278583","0.992558567","0.9500515088","0.7838502077","","","","","","","","","","","","72","H","0","img/none_selected.jpg","","22","main_expt",""
"","bandit","102","528287","0.0-63.0-0.0","98785857","wem/bandit_either_3","A1NGABF082HR2P","either","2","326","","","","","","","0","0","1","","0.7043778873","0.2","0.8","0.4","0.6","0.7043778873","0.9906074595","0.9645760881","0.8711917965","","","","","","","","","","","","72","H","0","img/none_selected.jpg","","23","main_expt",""
"","bandit","103","531360","0.0-64.0-0.0","98785857","wem/bandit_either_3","A1NGABF082HR2P","either","2","1567","","","","","","","1","0","0","0.9828703082","","0.2","0.8","0.4","0.6","","","","","0.7662705475","0.9828703082","0.946785539","0.861124964","","","","","","","","74","J","1","","","24","main_expt",""
"","bandit","104","533238","0.0-65.0-0.0","98785857","wem/bandit_either_3","A1NGABF082HR2P","either","2","374","","","","","","","1","0","0","0.984618899","","0.2","0.8","0.4","0.6","","","","","0.6915147264","0.984618899","0.9229473608","0.8551403996","","","","","","","","74","J","1","","","25","main_expt",""
"","bandit","105","535199","0.0-66.0-0.0","98785857","wem/bandit_either_3","A1NGABF082HR2P","either","2","456","","","","","","","0","1","0","","0.9780938917","0.2","0.8","0.4","0.6","0.6844606422","0.9780938917","0.8729820127","0.8959771014","","","","","","","","","","","","74","J","1","","","26","main_expt",""
"","bandit","106","537055","0.0-67.0-0.0","98785857","wem/bandit_either_3","A1NGABF082HR2P","either","2","351","","","","","","","0","1","0","","0.9634866904","0.2","0.8","0.4","0.6","0.7953701942","0.9634866904","0.859067388","0.8786292531","","","","","","","","","","","","74","J","1","","","27","main_expt",""
"","bandit","107","540240","0.0-68.0-0.0","98785857","wem/bandit_either_3","A1NGABF082HR2P","either","2","1678","","","","","","","1","0","0","0.946494378","","0.2","0.8","0.4","0.6","","","","","0.622657036","0.946494378","0.836267867","0.8920593834","","","","","","","","74","J","1","","","28","main_expt",""
"","bandit","108","542064","0.0-69.0-0.0","98785857","wem/bandit_either_3","A1NGABF082HR2P","either","2","319","","","","","","","0","0","1","0.9338647731","","0.2","0.8","0.4","0.6","","","","","0.5757463716","0.9338647731","0.7158546556","0.8234517222","","","","","","","","74","J","1","","","29","main_expt",""
"","bandit","109","544143","0.0-70.0-0.0","98785857","wem/bandit_either_3","A1NGABF082HR2P","either","2","574","","","","","","","1","0","0","0.7963444676","","0.2","0.8","0.4","0.6","","","","","0.6048158844","0.9354801528","0.7262950886","0.7963444676","","","","","","","","76","L","3","","","30","main_expt",""
"","bandit","110","545936","0.0-71.0-0.0","98785857","wem/bandit_either_3","A1NGABF082HR2P","either","2","286","","","","","","","1","0","0","0.6847131082","","0.2","0.8","0.4","0.6","","","","","0.4831208743","0.9323861487","0.7049485024","0.6847131082","","","","","","","","76","L","3","","","31","main_expt",""
"","bandit","111","547758","0.0-72.0-0.0","98785857","wem/bandit_either_3","A1NGABF082HR2P","either","2","318","","","","","","","0","1","0","","0.7745616343","0.2","0.8","0.4","0.6","0.4413454117","0.9159531952","0.6294605358","0.7745616343","","","","","","","","","","","","76","L","3","","","32","main_expt",""
"","bandit","112","549791","0.0-73.0-0.0","98785857","wem/bandit_either_3","A1NGABF082HR2P","either","2","527","","","","","","","0","1","0","","0.8111568365","0.2","0.8","0.4","0.6","0.589686364","0.9501333659","0.7097184707","0.8111568365","","","","","","","","","","","","76","L","3","","","33","main_expt",""
"","bandit","113","551887","0.0-74.0-0.0","98785857","wem/bandit_either_3","A1NGABF082HR2P","either","2","592","","","","","","","0","0","1","","0.7291364049","0.2","0.8","0.4","0.6","0.5789977489","0.9485118263","0.6324728327","0.7291364049","","","","","","","","","","","","76","L","3","","","34","main_expt",""
"","bandit","114","554520","0.0-75.0-0.0","98785857","wem/bandit_either_3","A1NGABF082HR2P","either","2","1127","","","","","","","0","0","1","","0.6809104991","0.2","0.8","0.4","0.6","0.5605822786","0.959491173","0.6809104991","0.7920219322","","","","","","","","","","","","75","K","2","","","35","main_expt",""
"","bandit","115","556912","0.0-76.0-0.0","98785857","wem/bandit_either_3","A1NGABF082HR2P","either","2","885","","","","","","","0","0","1","0.3330948712","","0.2","0.8","0.4","0.6","","","","","0.3330948712","0.9523687656","0.5745256001","0.7889809596","","","","","","","","72","H","0","img/none_selected.jpg","","36","main_expt",""
"","bandit","116","558720","0.0-77.0-0.0","98785857","wem/bandit_either_3","A1NGABF082HR2P","either","2","301","","","","","","","1","0","0","0.9504344127","","0.2","0.8","0.4","0.6","","","","","0.2430176499","0.9504344127","0.6249275122","0.8060385269","","","","","","","","74","J","1","","","37","main_expt",""
"","bandit","117","560576","0.0-78.0-0.0","98785857","wem/bandit_either_3","A1NGABF082HR2P","either","2","349","","","","","","","0","1","0","","0.9321408283","0.2","0.8","0.4","0.6","0.3106083343","0.9321408283","0.5582777804","0.7188782676","","","","","","","","","","","","74","J","1","","","38","main_expt",""
"","bandit","118","562512","0.0-79.0-0.0","98785857","wem/bandit_either_3","A1NGABF082HR2P","either","2","428","","","","","","","1","0","0","0.9135525369","","0.2","0.8","0.4","0.6","","","","","0.3239447463","0.9135525369","0.6619895395","0.7387945131","","","","","","","","74","J","1","","","39","main_expt",""
"","bandit","119","564334","0.0-80.0-0.0","98785857","wem/bandit_either_3","A1NGABF082HR2P","either","2","318","","","","","","","1","0","0","0.8840916364","","0.2","0.8","0.4","0.6","","","","","0.2946631509","0.8840916364","0.6522152691","0.7478035428","","","","","","","","74","J","1","","","40","main_expt",""
"","bandit","120","566168","0.0-81.0-0.0","98785857","wem/bandit_either_3","A1NGABF082HR2P","either","2","326","","","","","","","1","0","0","0.8747037504","","0.2","0.8","0.4","0.6","","","","","0.193597671","0.8747037504","0.6714070371","0.7802386085","","","","","","","","74","J","1","","","41","main_expt",""
"","bandit","121","567998","0.0-82.0-0.0","98785857","wem/bandit_either_3","A1NGABF082HR2P","either","2","325","","","","","","","1","0","0","0.826315498","","0.2","0.8","0.4","0.6","","","","","0.1834529884","0.826315498","0.6390104416","0.7994277013","","","","","","","","74","J","1","","","42","main_expt",""
"","bandit","122","569847","0.0-83.0-0.0","98785857","wem/bandit_either_3","A1NGABF082HR2P","either","2","343","","","","","","","1","0","0","0.7681371561","","0.2","0.8","0.4","0.6","","","","","0.1558663495","0.7681371561","0.6318841448","0.8718069658","","","","","","","","74","J","1","","","43","main_expt",""
"","bandit","123","571656","0.0-84.0-0.0","98785857","wem/bandit_either_3","A1NGABF082HR2P","either","2","301","","","","","","","1","0","0","0.7584360225","","0.2","0.8","0.4","0.6","","","","","0.1573065196","0.7584360225","0.5708139437","0.7725207311","","","","","","","","74","J","1","","","44","main_expt",""
"","bandit","124","574880","0.0-85.0-0.0","98785857","wem/bandit_either_3","A1NGABF082HR2P","either","2","1717","","","","","","","0","0","1","0.8399140445","","0.2","0.8","0.4","0.6","","","","","0.1743203636","0.816959585","0.5703812278","0.8399140445","","","","","","","","76","L","3","","","45","main_expt",""
"","bandit","125","577160","0.0-86.0-0.0","98785857","wem/bandit_either_3","A1NGABF082HR2P","either","2","774","","","","","","","0","1","0","","0.7830678696","0.2","0.8","0.4","0.6","0.1234040722","0.7571269921","0.4520700595","0.7830678696","","","","","","","","","","","","76","L","3","","","46","main_expt",""
"","bandit","126","578768","0.0-87.0-0.0","98785857","wem/bandit_either_3","A1NGABF082HR2P","either","2","101","","","","","","","0","0","1","0.8255209912","","0.2","0.8","0.4","0.6","","","","","0.1592846429","0.7086567283","0.4953600952","0.8255209912","","","","","","","","76","L","3","","","47","main_expt",""
"","bandit","127","580839","0.0-88.0-0.0","98785857","wem/bandit_either_3","A1NGABF082HR2P","either","2","566","","","","","","","1","0","0","0.4912921637","","0.2","0.8","0.4","0.6","","","","","0.1880090658","0.6428227569","0.4912921637","0.7728754614","","","","","","","","75","K","2","","","48","main_expt",""
"","bandit","128","582654","0.0-89.0-0.0","98785857","wem/bandit_either_3","A1NGABF082HR2P","either","2","310","","","","","","","1","0","0","0.4694413912","","0.2","0.8","0.4","0.6","","","","","0.3190576765","0.7004196772","0.4694413912","0.8607162984","","","","","","","","75","K","2","","","49","main_expt",""
"","bandit","129","584582","0.0-90.0-0.0","98785857","wem/bandit_either_3","A1NGABF082HR2P","either","2","423","","","","","","","1","0","0","0.5835687148","","0.2","0.8","0.4","0.6","","","","","0.277770718","0.6418514465","0.5835687148","0.8526113732","","","","","","","","75","K","2","","","50","main_expt",""
"","bandit","130","586479","0.0-91.0-0.0","98785857","wem/bandit_either_3","A1NGABF082HR2P","either","2","392","","","","","","","0","1","0","","0.581499138","0.2","0.8","0.4","0.6","0.3304163056","0.6322169777","0.581499138","0.8630835666","","","","","","","","","","","","75","K","2","","","51","main_expt",""
"","bandit","131","588528","0.0-92.0-0.0","98785857","wem/bandit_either_3","A1NGABF082HR2P","either","2","543","","","","","","","0","1","0","","0.6521379128","0.2","0.8","0.4","0.6","0.3074301744","0.6160259873","0.6521379128","0.8689990829","","","","","","","","","","","","75","K","2","","","52","main_expt",""
"","bandit","132","590480","0.0-93.0-0.0","98785857","wem/bandit_either_3","A1NGABF082HR2P","either","2","445","","","","","","","1","0","0","0.5743957808","","0.2","0.8","0.4","0.6","","","","","0.3292402402","0.6635838846","0.5743957808","0.8829627288","","","","","","","","75","K","2","","","53","main_expt",""
"","bandit","133","595000","0.0-94.0-0.0","98785857","wem/bandit_either_3","A1NGABF082HR2P","either","2","3014","","","","","","","0","0","1","","0.3701383524","0.2","0.8","0.4","0.6","0.3701383524","0.7334380463","0.4765250731","0.8577096669","","","","","","","","","","","","72","H","0","img/none_selected.jpg","","54","main_expt",""
"","bandit","134","598023","0.0-95.0-0.0","98785857","wem/bandit_either_3","A1NGABF082HR2P","either","2","1516","","","","","","","0","1","0","","0.6625049704","0.2","0.8","0.4","0.6","0.4023440482","0.6625049704","0.472038817","0.7951355038","","","","","","","","","","","","74","J","1","","","55","main_expt",""
"","bandit","135","599865","0.0-96.0-0.0","98785857","wem/bandit_either_3","A1NGABF082HR2P","either","2","334","","","","","","","0","0","1","0.6244126183","","0.2","0.8","0.4","0.6","","","","","0.3320470731","0.6244126183","0.6060805283","0.7832403428","","","","","","","","74","J","1","","","56","main_expt",""
"","bandit","136","601742","0.0-97.0-0.0","98785857","wem/bandit_either_3","A1NGABF082HR2P","either","2","372","","","","","","","1","0","0","0.7165346004","","0.2","0.8","0.4","0.6","","","","","0.3398704556","0.693445159","0.5733746242","0.7165346004","","","","","","","","76","L","3","","","57","main_expt",""
"","bandit","137","603574","0.0-98.0-0.0","98785857","wem/bandit_either_3","A1NGABF082HR2P","either","2","327","","","","","","","0","1","0","","0.7840704931","0.2","0.8","0.4","0.6","0.3171476707","0.6603141298","0.5268086549","0.7840704931","","","","","","","","","","","","76","L","3","","","58","main_expt",""
"","bandit","138","605592","0.0-99.0-0.0","98785857","wem/bandit_either_3","A1NGABF082HR2P","either","2","512","","","","","","","1","0","0","0.7166558068","","0.2","0.8","0.4","0.6","","","","","0.1868584885","0.6435133917","0.5298916697","0.7166558068","","","","","","","","76","L","3","","","59","main_expt",""
"","bandit","139","608024","0.0-100.0-0.0","98785857","wem/bandit_either_3","A1NGABF082HR2P","either","2","926","","","","","","","0","1","0","","0.6505055492","0.2","0.8","0.4","0.6","0.2163153633","0.6720075741","0.5547432704","0.6505055492","","","","","","","","","","","","76","L","3","","","60","main_expt",""
"","bandit","140","610088","0.0-101.0-0.0","98785857","wem/bandit_either_3","A1NGABF082HR2P","either","2","559","","","","","","","0","1","0","","0.6465946667","0.2","0.8","0.4","0.6","0.2086512551","0.6703611074","0.5407031957","0.6465946667","","","","","","","","","","","","76","L","3","","","61","main_expt",""
"","bandit","141","612007","0.0-102.0-0.0","98785857","wem/bandit_either_3","A1NGABF082HR2P","either","2","412","","","","","","","0","1","0","","0.709990362","0.2","0.8","0.4","0.6","0.2250062338","0.64477312","0.6993449034","0.709990362","","","","","","","","","","","","76","L","3","","","62","main_expt",""
"","bandit","142","613992","0.0-103.0-0.0","98785857","wem/bandit_either_3","A1NGABF082HR2P","either","2","478","","","","","","","0","0","1","0.7542168012","","0.2","0.8","0.4","0.6","","","","","0.2739380208","0.509049177","0.6342967703","0.7542168012","","","","","","","","76","L","3","","","63","main_expt",""
"","bandit","143","616448","0.0-104.0-0.0","98785857","wem/bandit_either_3","A1NGABF082HR2P","either","2","949","","","","","","","0","1","0","","0.5961490325","0.2","0.8","0.4","0.6","0.3449536465","0.5535424332","0.5961490325","0.7660604158","","","","","","","","","","","","75","K","2","","","64","main_expt",""
"","bandit","144","618558","0.0-105.0-0.0","98785857","wem/bandit_either_3","A1NGABF082HR2P","either","2","606","","","","","","","0","0","1","","0.5771190674","0.2","0.8","0.4","0.6","0.34640195","0.6608621899","0.5771190674","0.7572602099","","","","","","","","","","","","75","K","2","","","65","main_expt",""
"","bandit","145","620831","0.0-106.0-0.0","98785857","wem/bandit_either_3","A1NGABF082HR2P","either","2","766","","","","","","","0","0","1","","0.5266288285","0.2","0.8","0.4","0.6","0.5266288285","0.6535341977","0.4765921407","0.686926195","","","","","","","","","","","","72","H","0","img/none_selected.jpg","","66","main_expt",""
"","bandit","146","623080","0.0-107.0-0.0","98785857","wem/bandit_either_3","A1NGABF082HR2P","either","2","743","","","","","","","1","0","0","0.6592628399","","0.2","0.8","0.4","0.6","","","","","0.5588671697","0.6592628399","0.5714361875","0.7334195653","","","","","","","","74","J","1","","","67","main_expt",""
"","bandit","147","625287","0.0-108.0-0.0","98785857","wem/bandit_either_3","A1NGABF082HR2P","either","2","701","","","","","","","0","1","0","","0.6735013879","0.2","0.8","0.4","0.6","0.6097536784","0.6735013879","0.6231829193","0.6114245881","","","","","","","","","","","","74","J","1","","","68","main_expt",""
"","bandit","148","627535","0.0-109.0-0.0","98785857","wem/bandit_either_3","A1NGABF082HR2P","either","2","741","","","","","","","1","0","0","0.7209687993","","0.2","0.8","0.4","0.6","","","","","0.533457584","0.7209687993","0.5130256365","0.6460921668","","","","","","","","74","J","1","","","69","main_expt",""
"","bandit","149","629711","0.0-110.0-0.0","98785857","wem/bandit_either_3","A1NGABF082HR2P","either","2","669","","","","","","","1","0","0","0.690528825","","0.2","0.8","0.4","0.6","","","","","0.4124750721","0.690528825","0.5167166","0.6700702736","","","","","","","","74","J","1","","","70","main_expt",""
"","bandit","150","631503","0.0-111.0-0.0","98785857","wem/bandit_either_3","A1NGABF082HR2P","either","2","285","","","","","","","0","0","1","0.6453310316","","0.2","0.8","0.4","0.6","","","","","0.4486526525","0.6453310316","0.6448170737","0.6388012411","","","","","","","","74","J","1","","","71","main_expt",""
"","bandit","151","633262","0.0-112.0-0.0","98785857","wem/bandit_either_3","A1NGABF082HR2P","either","2","254","","","","","","","0","1","0","","0.6046900378","0.2","0.8","0.4","0.6","0.4313602212","0.8140348339","0.5640434706","0.6046900378","","","","","","","","","","","","76","L","3","","","72","main_expt",""
"","bandit","152","635150","0.0-113.0-0.0","98785857","wem/bandit_either_3","A1NGABF082HR2P","either","2","382","","","","","","","0","0","1","0.6062428704","","0.2","0.8","0.4","0.6","","","","","0.3639072561","0.820931829","0.6296110197","0.6062428704","","","","","","","","76","L","3","","","73","main_expt",""
"","bandit","153","636983","0.0-114.0-0.0","98785857","wem/bandit_either_3","A1NGABF082HR2P","either","2","327","","","","","","","1","0","0","0.6730210969","","0.2","0.8","0.4","0.6","","","","","0.2882181569","0.8096233945","0.6730210969","0.6237194739","","","","","","","","75","K","2","","","74","main_expt",""
"","bandit","154","639047","0.0-115.0-0.0","98785857","wem/bandit_either_3","A1NGABF082HR2P","either","2","559","","","","","","","0","0","1","0.5720403827","","0.2","0.8","0.4","0.6","","","","","0.3561187133","0.7615001707","0.5720403827","0.5971007372","","","","","","","","75","K","2","","","75","main_expt",""
"","bandit","155","641744","0.0-116.0-0.0","98785857","wem/bandit_either_3","A1NGABF082HR2P","either","2","1190","","","","","","","0","0","1","","0.4480894403","0.2","0.8","0.4","0.6","0.4480894403","0.8147365981","0.6303512149","0.5810032438","","","","","","","","","","","","72","H","0","img/none_selected.jpg","","76","main_expt",""
"","bandit","156","644208","0.0-117.0-0.0","98785857","wem/bandit_either_3","A1NGABF082HR2P","either","2","956","","","","","","","1","0","0","0.8926338818","","0.2","0.8","0.4","0.6","","","","","0.3220850356","0.8926338818","0.5531797874","0.5792233978","","","","","","","","74","J","1","","","77","main_expt",""
"","bandit","157","646096","0.0-118.0-0.0","98785857","wem/bandit_either_3","A1NGABF082HR2P","either","2","381","","","","","","","0","0","1","0.8669072201","","0.2","0.8","0.4","0.6","","","","","0.3281133775","0.8669072201","0.5449672882","0.692511921","","","","","","","","74","J","1","","","78","main_expt",""
"","bandit","158","648175","0.0-119.0-0.0","98785857","wem/bandit_either_3","A1NGABF082HR2P","either","2","573","","","","","","","1","0","0","0.9114006046","","0.2","0.8","0.4","0.6","","","","","0.3814329202","0.9114006046","0.4484013318","0.7019625083","","","","","","","","74","J","1","","","79","main_expt",""
"","bandit","159","651262","0.0-120.0-0.0","98785857","wem/bandit_either_3","A1NGABF082HR2P","either","2","1582","","","","","","","1","0","0","0.9268398106","","0.2","0.8","0.4","0.6","","","","","0.3512572076","0.9268398106","0.5041425745","0.6785675641","","","","","","","","74","J","1","","","80","main_expt",""
"","bandit","160","653247","0.0-121.0-0.0","98785857","wem/bandit_either_3","A1NGABF082HR2P","either","2","478","","","","","","","1","0","0","0.9582858862","","0.2","0.8","0.4","0.6","","","","","0.3624285329","0.9582858862","0.3462078978","0.7101061672","","","","","","","","74","J","1","","","81","main_expt",""
"","bandit","161","655071","0.0-122.0-0.0","98785857","wem/bandit_either_3","A1NGABF082HR2P","either","2","317","","","","","","","0","1","0","","0.9590071975","0.2","0.8","0.4","0.6","0.3111883408","0.9590071975","0.3226795418","0.7217376576","","","","","","","","","","","","74","J","1","","","82","main_expt",""
"","bandit","162","656880","0.0-123.0-0.0","98785857","wem/bandit_either_3","A1NGABF082HR2P","either","2","303","","","","","","","0","1","0","","0.9379973093","0.2","0.8","0.4","0.6","0.243162563","0.9379973093","0.3023868023","0.6437777395","","","","","","","","","","","","74","J","1","","","83","main_expt",""
"","bandit","163","658687","0.0-124.0-0.0","98785857","wem/bandit_either_3","A1NGABF082HR2P","either","2","300","","","","","","","0","1","0","","0.9411979228","0.2","0.8","0.4","0.6","0.347146949","0.9411979228","0.4040419094","0.6533183273","","","","","","","","","","","","74","J","1","","","84","main_expt",""
"","bandit","164","661655","0.0-125.0-0.0","98785857","wem/bandit_either_3","A1NGABF082HR2P","either","2","1460","","","","","","","1","0","0","0.9441700551","","0.2","0.8","0.4","0.6","","","","","0.4416309426","0.9441700551","0.4716136817","0.7469548387","","","","","","","","74","J","1","","","85","main_expt",""
"","bandit","165","663567","0.0-126.0-0.0","98785857","wem/bandit_either_3","A1NGABF082HR2P","either","2","406","","","","","","","1","0","0","0.9323605113","","0.2","0.8","0.4","0.6","","","","","0.4523797492","0.9323605113","0.4455883603","0.7366570046","","","","","","","","74","J","1","","","86","main_expt",""
"","bandit","166","665407","0.0-127.0-0.0","98785857","wem/bandit_either_3","A1NGABF082HR2P","either","2","332","","","","","","","0","1","0","","0.8871332711","0.2","0.8","0.4","0.6","0.4621103264","0.8871332711","0.5952575165","0.7142428019","","","","","","","","","","","","74","J","1","","","87","main_expt",""
"","bandit","167","667447","0.0-128.0-0.0","98785857","wem/bandit_either_3","A1NGABF082HR2P","either","2","532","","","","","","","1","0","0","0.8520973281","","0.2","0.8","0.4","0.6","","","","","0.3800084876","0.8520973281","0.5333825583","0.7057172343","","","","","","","","74","J","1","","","88","main_expt",""
"","bandit","168","669230","0.0-129.0-0.0","98785857","wem/bandit_either_3","A1NGABF082HR2P","either","2","277","","","","","","","0","1","0","","0.7882210871","0.2","0.8","0.4","0.6","0.2354372355","0.7882210871","0.4583166828","0.7289934888","","","","","","","","","","","","74","J","1","","","89","main_expt",""
"","bandit","169","671110","0.0-130.0-0.0","98785857","wem/bandit_either_3","A1NGABF082HR2P","either","2","374","","","","","","","0","0","1","0.720110267","","0.2","0.8","0.4","0.6","","","","","0.2978482647","0.720110267","0.4782349553","0.7475354559","","","","","","","","74","J","1","","","90","main_expt",""
"","bandit","170","673384","0.0-131.0-0.0","98785857","wem/bandit_either_3","A1NGABF082HR2P","either","2","764","","","","","","","0","0","1","0.6316706059","","0.2","0.8","0.4","0.6","","","","","0.3723871884","0.7390342074","0.464138054","0.6316706059","","","","","","","","76","L","3","","","91","main_expt",""
"","bandit","171","675953","0.0-132.0-0.0","98785857","wem/bandit_either_3","A1NGABF082HR2P","either","2","1062","","","","","","","0","1","0","","0.5084128334","0.2","0.8","0.4","0.6","0.5400298203","0.8135224625","0.5084128334","0.6957908828","","","","","","","","","","","","75","K","2","","","92","main_expt",""
"","bandit","172","678063","0.0-133.0-0.0","98785857","wem/bandit_either_3","A1NGABF082HR2P","either","2","603","","","","","","","0","1","0","","0.5211356389","0.2","0.8","0.4","0.6","0.5134744583","0.7814404678","0.5211356389","0.6812665662","","","","","","","","","","","","75","K","2","","","93","main_expt",""
"","bandit","173","680127","0.0-134.0-0.0","98785857","wem/bandit_either_3","A1NGABF082HR2P","either","2","557","","","","","","","0","0","1","0.4554037602","","0.2","0.8","0.4","0.6","","","","","0.4101580275","0.7672416568","0.4554037602","0.6412933588","","","","","","","","75","K","2","","","94","main_expt",""
"","bandit","174","682144","0.0-135.0-0.0","98785857","wem/bandit_either_3","A1NGABF082HR2P","either","2","509","","","","","","","0","1","0","","0.4195046205","0.2","0.8","0.4","0.6","0.2995167601","0.7573973965","0.4195046205","0.5696630174","","","","","","","","","","","","75","K","2","","","95","main_expt",""
"","bandit","175","683775","0.0-136.0-0.0","98785857","wem/bandit_either_3","A1NGABF082HR2P","either","2","123","","","","","","","0","1","0","","0.3638478563","0.2","0.8","0.4","0.6","0.2934894425","0.8177369732","0.3638478563","0.6076398096","","","","","","","","","","","","75","K","2","","","96","main_expt",""
"","bandit","176","685615","0.0-137.0-0.0","98785857","wem/bandit_either_3","A1NGABF082HR2P","either","2","333","","","","","","","0","0","1","0.2839735208","","0.2","0.8","0.4","0.6","","","","","0.2802715202","0.8124666872","0.2839735208","0.5551612935","","","","","","","","75","K","2","","","97","main_expt",""
"","bandit","177","688136","0.0-138.0-0.0","98785857","wem/bandit_either_3","A1NGABF082HR2P","either","2","1013","","","","","","","0","0","1","","0.2703087955","0.2","0.8","0.4","0.6","0.2703087955","0.881496875","0.2109275999","0.6354974245","","","","","","","","","","","","72","H","0","img/none_selected.jpg","","98","main_expt",""
"","bandit","178","691254","0.0-139.0-0.0","98785857","wem/bandit_either_3","A1NGABF082HR2P","either","2","1612","","","","","","","1","0","0","0.8785981907","","0.2","0.8","0.4","0.6","","","","","0.3027543159","0.8785981907","0.1531506719","0.5945745664","","","","","","","","74","J","1","","","99","main_expt",""
"","bandit","179","693263","0.0-140.0-0.0","98785857","wem/bandit_either_3","A1NGABF082HR2P","either","2","501","","","","","","","1","0","0","0.8494581726","","0.2","0.8","0.4","0.6","","","","","0.3645318829","0.8494581726","0.1262108991","0.5679097985","","","","","","","","74","J","1","","","100","main_expt",""
"","bandit","180","696760","0.0-141.0-0.0","98785857","wem/bandit_either_3","A1NGABF082HR2P","either","2","1989","","","","","","","0","1","0","","0.6430580454","0.2","0.8","0.4","0.6","0.4315832637","0.7754784616","0.1340220502","0.6430580454","","","","","","","","","","","","76","L","3","","","101","main_expt",""
"","bandit","181","699031","0.0-142.0-0.0","98785857","wem/bandit_either_3","A1NGABF082HR2P","either","2","764","","","","","","","0","0","1","0.6340200926","","0.2","0.8","0.4","0.6","","","","","0.3608531129","0.7626736499","0.2167126086","0.6340200926","","","","","","","","76","L","3","","","102","main_expt",""
"","bandit","182","701256","0.0-143.0-0.0","98785857","wem/bandit_either_3","A1NGABF082HR2P","either","2","717","","","","","","","0","0","1","0.2796352144","","0.2","0.8","0.4","0.6","","","","","0.3688981903","0.7329996306","0.2796352144","0.6377668076","","","","","","","","75","K","2","","","103","main_expt",""
"","bandit","183","704006","0.0-144.0-0.0","98785857","wem/bandit_either_3","A1NGABF082HR2P","either","2","1245","","","","","","","0","0","1","","0.7467689404","0.2","0.8","0.4","0.6","0.3758155051","0.7467689404","0.3556406549","0.6578341575","","","","","","","","","","","","74","J","1","","","104","main_expt",""
"","bandit","184","706070","0.0-145.0-0.0","98785857","wem/bandit_either_3","A1NGABF082HR2P","either","2","557","","","","","","","0","1","0","","0.4508947075","0.2","0.8","0.4","0.6","0.4508947075","0.737018723","0.3233911601","0.6727034752","","","","","","","","","","","","72","H","0","img/none_selected.jpg","","105","main_expt",""
"","bandit","185","707951","0.0-146.0-0.0","98785857","wem/bandit_either_3","A1NGABF082HR2P","either","2","374","","","","","","","0","0","1","","0.4132181144","0.2","0.8","0.4","0.6","0.4132181144","0.655194185","0.2024631506","0.6386482702","","","","","","","","","","","","72","H","0","img/none_selected.jpg","","106","main_expt",""
"","bandit","186","710015","0.0-147.0-0.0","98785857","wem/bandit_either_3","A1NGABF082HR2P","either","2","556","","","","","","","1","0","0","0.6788938686","","0.2","0.8","0.4","0.6","","","","","0.4393512677","0.7122819559","0.2290393164","0.6788938686","","","","","","","","76","L","3","","","107","main_expt",""
"","bandit","187","711863","0.0-148.0-0.0","98785857","wem/bandit_either_3","A1NGABF082HR2P","either","2","339","","","","","","","0","1","0","","0.7076498576","0.2","0.8","0.4","0.6","0.4964319729","0.7326995505","0.2217712157","0.7076498576","","","","","","","","","","","","76","L","3","","","108","main_expt",""
"","bandit","188","713926","0.0-149.0-0.0","98785857","wem/bandit_either_3","A1NGABF082HR2P","either","2","557","","","","","","","0","1","0","","0.6932550908","0.2","0.8","0.4","0.6","0.4790921069","0.7165499475","0.1566860935","0.6932550908","","","","","","","","","","","","76","L","3","","","109","main_expt",""
"","bandit","189","716206","0.0-150.0-0.0","98785857","wem/bandit_either_3","A1NGABF082HR2P","either","2","773","","","","","","","1","0","0","0.7436061547","","0.2","0.8","0.4","0.6","","","","","0.5856434505","0.6058017554","0.1083987113","0.7436061547","","","","","","","","76","L","3","","","110","main_expt",""
"","bandit","190","718350","0.0-151.0-0.0","98785857","wem/bandit_either_3","A1NGABF082HR2P","either","2","636","","","","","","","0","0","1","0.657194241","","0.2","0.8","0.4","0.6","","","","","0.6444230696","0.5476823758","0.217828795","0.657194241","","","","","","","","76","L","3","","","111","main_expt",""
"","bandit","191","721479","0.0-152.0-0.0","98785857","wem/bandit_either_3","A1NGABF082HR2P","either","2","1621","","","","","","","0","0","1","0.2212119155","","0.2","0.8","0.4","0.6","","","","","0.603417252","0.5688313193","0.2212119155","0.6317228327","","","","","","","","75","K","2","","","112","main_expt",""
"","bandit","192","724478","0.0-153.0-0.0","98785857","wem/bandit_either_3","A1NGABF082HR2P","either","2","1492","","","","","","","1","0","0","0.50852785","","0.2","0.8","0.4","0.6","","","","","0.420613871","0.50852785","0.2374112476","0.4985892417","","","","","","","","74","J","1","","","113","main_expt",""
"","bandit","193","726702","0.0-154.0-0.0","98785857","wem/bandit_either_3","A1NGABF082HR2P","either","2","718","","","","","","","0","0","1","0.5711084253","","0.2","0.8","0.4","0.6","","","","","0.2851569533","0.5711084253","0.2703699348","0.579071345","","","","","","","","74","J","1","","","114","main_expt",""
"","bandit","194","728880","0.0-155.0-0.0","98785857","wem/bandit_either_3","A1NGABF082HR2P","either","2","669","","","","","","","0","0","1","0.4595939904","","0.2","0.8","0.4","0.6","","","","","0.3166589884","0.4177754351","0.1928485376","0.4595939904","","","","","","","","76","L","3","","","115","main_expt",""
"","bandit","195","731103","0.0-156.0-0.0","98785857","wem/bandit_either_3","A1NGABF082HR2P","either","2","715","","","","","","","0","0","1","","0.136356343","0.2","0.8","0.4","0.6","0.3928451607","0.387840809","0.136356343","0.3744567546","","","","","","","","","","","","75","K","2","","","116","main_expt",""
"","bandit","196","732975","0.0-157.0-0.0","98785857","wem/bandit_either_3","A1NGABF082HR2P","either","2","366","","","","","","","0","1","0","","0.560845346","0.2","0.8","0.4","0.6","0.560845346","0.4456731606","0.2193113504","0.302145019","","","","","","","","","","","","72","H","0","img/none_selected.jpg","","117","main_expt",""
"","bandit","197","734855","0.0-158.0-0.0","98785857","wem/bandit_either_3","A1NGABF082HR2P","either","2","372","","","","","","","0","0","1","","0.5536818424","0.2","0.8","0.4","0.6","0.5536818424","0.3045880574","0.2686792008","0.3522466686","","","","","","","","","","","","72","H","0","img/none_selected.jpg","","118","main_expt",""
"","bandit","198","737262","0.0-159.0-0.0","98785857","wem/bandit_either_3","A1NGABF082HR2P","either","2","900","","","","","","","1","0","0","0.2668270476","","0.2","0.8","0.4","0.6","","","","","0.3617659687","0.3994134075","0.2668270476","0.4425542362","","","","","","","","75","K","2","","","119","main_expt",""
"","bandit","199","739509","0.0-160.0-0.0","98785857","wem/bandit_either_3","A1NGABF082HR2P","either","2","740","","","","","","","0","0","1","","0.3723992114","0.2","0.8","0.4","0.6","0.3454740543","0.351449483","0.3723992114","0.3377532805","","","","","","","","","","","","75","K","2","","","120","main_expt",""
"","bandit","200","741847","0.0-161.0-0.0","98785857","wem/bandit_either_3","A1NGABF082HR2P","either","2","830","","","","","","","0","0","1","0.3641911367","","0.2","0.8","0.4","0.6","","","","","0.2798257893","0.3641911367","0.4001238515","0.2929504356","","","","","","","","74","J","1","","","121","main_expt",""
"","bandit","201","744312","0.0-162.0-0.0","98785857","wem/bandit_either_3","A1NGABF082HR2P","either","2","957","","","","","","","0","0","1","0.2504028886","","0.2","0.8","0.4","0.6","","","","","0.2261540995","0.2673706252","0.4090120715","0.2504028886","","","","","","","","76","L","3","","","122","main_expt",""
"","bandit","202","746422","0.0-163.0-0.0","98785857","wem/bandit_either_3","A1NGABF082HR2P","either","2","604","","","","","","","0","0","1","","0.2766663047","0.2","0.8","0.4","0.6","0.2766663047","0.3455372181","0.4746108064","0.2414849785","","","","","","","","","","","","72","H","0","img/none_selected.jpg","","123","main_expt",""
"","bandit","203","748606","0.0-164.0-0.0","98785857","wem/bandit_either_3","A1NGABF082HR2P","either","2","676","","","","","","","0","0","1","","0.3126864395","0.2","0.8","0.4","0.6","0.3126864395","0.3524137631","0.453231646","0.1791255979","","","","","","","","","","","","72","H","0","img/none_selected.jpg","","124","main_expt",""
"","bandit","204","750990","0.0-165.0-0.0","98785857","wem/bandit_either_3","A1NGABF082HR2P","either","2","877","","","","","","","0","0","1","0.4888945922","","0.2","0.8","0.4","0.6","","","","","0.2772507379","0.3680881866","0.4888945922","0.1952456852","","","","","","","","75","K","2","","","125","main_expt",""
"","bandit","205","752999","0.0-166.0-0.0","98785857","wem/bandit_either_3","A1NGABF082HR2P","either","2","500","","","","","","","0","0","1","0.2884444508","","0.2","0.8","0.4","0.6","","","","","0.2441417391","0.2884444508","0.396932523","0.2614303707","","","","","","","","74","J","1","","","126","main_expt",""
"","bandit","206","754959","0.0-167.0-0.0","98785857","wem/bandit_either_3","A1NGABF082HR2P","either","2","452","","","","","","","1","0","0","0.267511235","","0.2","0.8","0.4","0.6","","","","","0.2304038214","0.2931854252","0.4026562496","0.267511235","","","","","","","","76","L","3","","","127","main_expt",""
"","bandit","207","757005","0.0-168.0-0.0","98785857","wem/bandit_either_3","A1NGABF082HR2P","either","2","538","","","","","","","0","0","1","0.2582460394","","0.2","0.8","0.4","0.6","","","","","0.2463692943","0.3115494401","0.3072143153","0.2582460394","","","","","","","","76","L","3","","","128","main_expt",""
"","bandit","208","759030","0.0-169.0-0.0","98785857","wem/bandit_either_3","A1NGABF082HR2P","either","2","518","","","","","","","0","0","1","","0.262841392","0.2","0.8","0.4","0.6","0.262841392","0.287093163","0.3024431642","0.249100023","","","","","","","","","","","","72","H","0","img/none_selected.jpg","","129","main_expt",""
"","bandit","209","761039","0.0-170.0-0.0","98785857","wem/bandit_either_3","A1NGABF082HR2P","either","2","500","","","","","","","1","0","0","0.242368994","","0.2","0.8","0.4","0.6","","","","","0.3044503748","0.242368994","0.383823705","0.2014680341","","","","","","","","74","J","1","","","130","main_expt",""
"","bandit","210","763126","0.0-171.0-0.0","98785857","wem/bandit_either_3","A1NGABF082HR2P","either","2","581","","","","","","","0","0","1","","0.3141093292","0.2","0.8","0.4","0.6","0.2231782293","0.3141093292","0.5448185218","0.2514612397","","","","","","","","","","","","74","J","1","","","131","main_expt",""
"","bandit","211","765095","0.0-172.0-0.0","98785857","wem/bandit_either_3","A1NGABF082HR2P","either","2","461","","","","","","","0","1","0","","0.5741986762","0.2","0.8","0.4","0.6","0.265126842","0.3186943837","0.5741986762","0.1719215191","","","","","","","","","","","","75","K","2","","","132","main_expt",""
"","bandit","212","767046","0.0-173.0-0.0","98785857","wem/bandit_either_3","A1NGABF082HR2P","either","2","443","","","","","","","0","1","0","","0.54298015","0.2","0.8","0.4","0.6","0.1996467811","0.3218599317","0.54298015","0.151851594","","","","","","","","","","","","75","K","2","","","133","main_expt",""
"","bandit","213","768975","0.0-174.0-0.0","98785857","wem/bandit_either_3","A1NGABF082HR2P","either","2","420","","","","","","","1","0","0","0.5504084981","","0.2","0.8","0.4","0.6","","","","","0.1900899503","0.3372263261","0.5504084981","0.1693242304","","","","","","","","75","K","2","","","134","main_expt",""
"","bandit","214","770831","0.0-175.0-0.0","98785857","wem/bandit_either_3","A1NGABF082HR2P","either","2","346","","","","","","","1","0","0","0.4874659601","","0.2","0.8","0.4","0.6","","","","","0.172295534","0.3515125386","0.4874659601","0.1541174352","","","","","","","","75","K","2","","","135","main_expt",""
"","bandit","215","772680","0.0-176.0-0.0","98785857","wem/bandit_either_3","A1NGABF082HR2P","either","2","340","","","","","","","0","0","1","","0.3677382912","0.2","0.8","0.4","0.6","0.1171098277","0.2312583875","0.3677382912","0.1374012581","","","","","","","","","","","","75","K","2","","","136","main_expt",""
"","bandit","216","774686","0.0-177.0-0.0","98785857","wem/bandit_either_3","A1NGABF082HR2P","either","2","500","","","","","","","0","0","1","0.1390909791","","0.2","0.8","0.4","0.6","","","","","0.1390909791","0.3496768842","0.2944012193","0.2889288236","","","","","","","","72","H","0","img/none_selected.jpg","","137","main_expt",""
"","bandit","217","776912","0.0-178.0-0.0","98785857","wem/bandit_either_3","A1NGABF082HR2P","either","2","717","","","","","","","0","0","1","0.4217982028","","0.2","0.8","0.4","0.6","","","","","0.1209370274","0.4217982028","0.3020033879","0.2177367931","","","","","","","","74","J","1","","","138","main_expt",""
"","bandit","218","779375","0.0-179.0-0.0","98785857","wem/bandit_either_3","A1NGABF082HR2P","either","2","957","","","","","","","0","0","1","0.1704259453","","0.2","0.8","0.4","0.6","","","","","0.1441291996","0.5123523738","0.2908104057","0.1704259453","","","","","","","","76","L","3","","","139","main_expt",""
"","bandit","219","782304","0.0-180.0-0.0","98785857","wem/bandit_either_3","A1NGABF082HR2P","either","2","1420","","","","","","","0","0","1","","0.2738290205","0.2","0.8","0.4","0.6","0.1380406349","0.3892042576","0.2738290205","0.1827322183","","","","","","","","","","","","75","K","2","","","140","main_expt",""
"","bandit","220","784584","0.0-181.0-0.0","98785857","wem/bandit_either_3","A1NGABF082HR2P","either","2","772","","","","","","","0","0","1","0.4680147771","","0.2","0.8","0.4","0.6","","","","","0.1312769784","0.4680147771","0.3865798498","0.2030288612","","","","","","","","74","J","1","","","141","main_expt",""
"","bandit","221","786400","0.0-182.0-0.0","98785857","wem/bandit_either_3","A1NGABF082HR2P","either","2","307","","","","","","","0","1","0","","0.1880730553","0.2","0.8","0.4","0.6","0.1880730553","0.3970866904","0.3507917403","0.1760536641","","","","","","","","","","","","72","H","0","img/none_selected.jpg","","142","main_expt",""
"","bandit","222","788263","0.0-183.0-0.0","98785857","wem/bandit_either_3","A1NGABF082HR2P","either","2","356","","","","","","","0","0","1","","0.1798266991","0.2","0.8","0.4","0.6","0.1798266991","0.3609481858","0.2787839286","0.1428921374","","","","","","","","","","","","72","H","0","img/none_selected.jpg","","143","main_expt",""
"","bandit","223","790280","0.0-184.0-0.0","98785857","wem/bandit_either_3","A1NGABF082HR2P","either","2","508","","","","","","","0","0","1","0.1260474704","","0.2","0.8","0.4","0.6","","","","","0.1881666754","0.3701270871","0.2106619402","0.1260474704","","","","","","","","76","L","3","","","144","main_expt",""
"","bandit","224","792798","0.0-185.0-0.0","98785857","wem/bandit_either_3","A1NGABF082HR2P","either","2","1012","","","","","","","1","0","0","0.3110645609","","0.2","0.8","0.4","0.6","","","","","0.1683386122","0.3110645609","0.3211677341","0.151337539","","","","","","","","74","J","1","","","145","main_expt",""
"","bandit","225","794632","0.0-186.0-0.0","98785857","wem/bandit_either_3","A1NGABF082HR2P","either","2","324","","","","","","","1","0","0","0.356964637","","0.2","0.8","0.4","0.6","","","","","0.2609121533","0.356964637","0.4417580917","0.1600114734","","","","","","","","74","J","1","","","146","main_expt",""
"","bandit","226","797200","0.0-187.0-0.0","98785857","wem/bandit_either_3","A1NGABF082HR2P","either","2","1061","","","","","","","0","0","1","0.5143633813","","0.2","0.8","0.4","0.6","","","","","0.280259565","0.5143633813","0.278611551","0.1262446547","","","","","","","","74","J","1","","","147","main_expt",""
"","bandit","227","799104","0.0-188.0-0.0","98785857","wem/bandit_either_3","A1NGABF082HR2P","either","2","396","","","","","","","0","1","0","","0.2811332351","0.2","0.8","0.4","0.6","0.2972918914","0.5086187798","0.2811332351","0.1030311585","","","","","","","","","","","","75","K","2","","","148","main_expt",""
"","bandit","228","801001","0.0-189.0-0.0","98785857","wem/bandit_either_3","A1NGABF082HR2P","either","2","387","","","","","","","0","0","1","","0.2606345315","0.2","0.8","0.4","0.6","0.3284309668","0.4676315778","0.2606345315","0.123834606","","","","","","","","","","","","75","K","2","","","149","main_expt",""
"","bandit","229","803335","0.0-190.0-0.0","98785857","wem/bandit_either_3","A1NGABF082HR2P","either","2","827","","","","","","","0","0","1","","0.06566206942","0.2","0.8","0.4","0.6","0.3186890608","0.4737351686","0.260677327","0.06566206942","","","","","","","","","","","","76","L","3","","","150","main_expt",""
"","bandit","230","805207","0.0-191.0-0.0","98785857","wem/bandit_either_3","A1NGABF082HR2P","either","2","364","","","","","","","0","0","1","","0.3331747037","0.2","0.8","0.4","0.6","0.3331747037","0.5387476985","0.2579624968","0.06342121736","","","","","","","","","","","","72","H","0","img/none_selected.jpg","","151","main_expt",""
"","bandit","231","808959","0.0-192.0-0.0","98785857","wem/bandit_either_3","A1NGABF082HR2P","either","2","2243","","","","","","","0","0","1","","0.5065138565","0.2","0.8","0.4","0.6","0.364096089","0.5065138565","0.2536911072","0.1162046696","","","","","","","","","","","","74","J","1","","","152","main_expt",""
"","bandit","232","810855","0.0-193.0-0.0","98785857","wem/bandit_either_3","A1NGABF082HR2P","either","2","389","","","","","","","0","0","1","","0.1427943183","0.2","0.8","0.4","0.6","0.3189440566","0.5190676077","0.1427943183","0.1388943584","","","","","","","","","","","","75","K","2","","","153","main_expt",""
"","bandit","233","812871","0.0-194.0-0.0","98785857","wem/bandit_either_3","A1NGABF082HR2P","either","2","507","","","","","","","0","0","1","0.1188489222","","0.2","0.8","0.4","0.6","","","","","0.486858514","0.4944482457","0.08934943386","0.1188489222","","","","","","","","76","L","3","","","154","main_expt",""
"","bandit","234","814863","0.0-195.0-0.0","98785857","wem/bandit_either_3","A1NGABF082HR2P","either","2","486","","","","","","","0","0","1","","0.1048919666","0.2","0.8","0.4","0.6","0.398958755","0.4987902374","0.1048919666","0.1255079792","","","","","","","","","","","","75","K","2","","","155","main_expt",""
"","bandit","235","816841","0.0-196.0-0.0","98785857","wem/bandit_either_3","A1NGABF082HR2P","either","2","468","","","","","","","0","0","1","0.4151199053","","0.2","0.8","0.4","0.6","","","","","0.3508932217","0.4151199053","0.1348874752","0.1705129017","","","","","","","","74","J","1","","","156","main_expt",""
"","bandit","236","818800","0.0-197.0-0.0","98785857","wem/bandit_either_3","A1NGABF082HR2P","either","2","451","","","","","","","0","0","1","","0.3736640956","0.2","0.8","0.4","0.6","0.3736640956","0.4215128153","0.1197456909","0.1892203872","","","","","","","","","","","","72","H","0","img/none_selected.jpg","","157","main_expt",""
"","bandit","237","820687","0.0-198.0-0.0","98785857","wem/bandit_either_3","A1NGABF082HR2P","either","2","379","","","","","","","0","0","1","0.1589595026","","0.2","0.8","0.4","0.6","","","","","0.3215678611","0.3666899102","0.1343935597","0.1589595026","","","","","","","","76","L","3","","","158","main_expt",""
"","bandit","238","822911","0.0-199.0-0.0","98785857","wem/bandit_either_3","A1NGABF082HR2P","either","2","716","","","","","","","1","0","0","0.1426383857","","0.2","0.8","0.4","0.6","","","","","0.2732838962","0.3906786657","0.04604274909","0.1426383857","","","","","","","","76","L","3","","","159","main_expt",""
"","bandit","239","824895","0.0-200.0-0.0","98785857","wem/bandit_either_3","A1NGABF082HR2P","either","2","476","","","","","","","0","0","1","0.08927965808","","0.2","0.8","0.4","0.6","","","","","0.2323229575","0.4769972016","0.08927965808","0.2747613825","","","","","","","","75","K","2","","","160","main_expt",""
"","bandit","240","826815","0.0-201.0-0.0","98785857","wem/bandit_either_3","A1NGABF082HR2P","either","2","412","","","","","","","1","0","0","0.4405879513","","0.2","0.8","0.4","0.6","","","","","0.399022808","0.4405879513","0.1038156196","0.2046882866","","","","","","","","74","J","1","","","161","main_expt",""
"","bandit","241","828646","0.0-202.0-0.0","98785857","wem/bandit_either_3","A1NGABF082HR2P","either","2","323","","","","","","","1","0","0","0.44055992","","0.2","0.8","0.4","0.6","","","","","0.4967313539","0.44055992","0.1470739062","0.1715152701","","","","","","","","74","J","1","","","162","main_expt",""
"","bandit","242","830487","0.0-203.0-0.0","98785857","wem/bandit_either_3","A1NGABF082HR2P","either","2","332","","","","","","","0","0","1","0.3434222481","","0.2","0.8","0.4","0.6","","","","","0.5245029489","0.3434222481","0.1214264794","0.2396687428","","","","","","","","74","J","1","","","163","main_expt",""
"","bandit","243","832696","0.0-204.0-0.0","98785857","wem/bandit_either_3","A1NGABF082HR2P","either","2","700","","","","","","","0","0","1","","0.5808119749","0.2","0.8","0.4","0.6","0.5808119749","0.3862652833","0.1563758897","0.3359744524","","","","","","","","","","","","72","H","0","img/none_selected.jpg","","164","main_expt",""
"","bandit","244","834811","0.0-205.0-0.0","98785857","wem/bandit_either_3","A1NGABF082HR2P","either","2","597","","","","","","","1","0","0","0.4940159592","","0.2","0.8","0.4","0.6","","","","","0.6473032069","0.4270444342","0.1311500467","0.4940159592","","","","","","","","76","L","3","","","165","main_expt",""
"","bandit","245","836655","0.0-206.0-0.0","98785857","wem/bandit_either_3","A1NGABF082HR2P","either","2","336","","","","","","","1","0","0","0.5922229292","","0.2","0.8","0.4","0.6","","","","","0.6790689848","0.5073102058","0.1419689761","0.5922229292","","","","","","","","76","L","3","","","166","main_expt",""
"","bandit","246","838487","0.0-207.0-0.0","98785857","wem/bandit_either_3","A1NGABF082HR2P","either","2","324","","","","","","","1","0","0","0.5562626425","","0.2","0.8","0.4","0.6","","","","","0.5959653185","0.5417092253","0.150246256","0.5562626425","","","","","","","","76","L","3","","","167","main_expt",""
"","bandit","247","840352","0.0-208.0-0.0","98785857","wem/bandit_either_3","A1NGABF082HR2P","either","2","355","","","","","","","0","1","0","","0.6489587791","0.2","0.8","0.4","0.6","0.361841396","0.6505471885","0.2070971521","0.6489587791","","","","","","","","","","","","76","L","3","","","168","main_expt",""
"","bandit","248","842344","0.0-209.0-0.0","98785857","wem/bandit_either_3","A1NGABF082HR2P","either","2","484","","","","","","","1","0","0","0.5652428614","","0.2","0.8","0.4","0.6","","","","","0.2594844845","0.6226729341","0.2564452127","0.5652428614","","","","","","","","76","L","3","","","169","main_expt",""
"","bandit","249","844214","0.0-210.0-0.0","98785857","wem/bandit_either_3","A1NGABF082HR2P","either","2","363","","","","","","","0","0","1","0.5344749526","","0.2","0.8","0.4","0.6","","","","","0.1987556041","0.7574543886","0.2845729388","0.5344749526","","","","","","","","76","L","3","","","170","main_expt",""
"","bandit","250","846503","0.0-211.0-0.0","98785857","wem/bandit_either_3","A1NGABF082HR2P","either","2","781","","","","","","","0","0","1","0.6364900983","","0.2","0.8","0.4","0.6","","","","","0.1583585206","0.774201251","0.2360657399","0.6364900983","","","","","","","","76","L","3","","","171","main_expt",""
"","bandit","251","848103","0.0-212.0-0.0","98785857","wem/bandit_either_3","A1NGABF082HR2P","either","2","92","","","","","","","0","1","0","","0.3453554921","0.2","0.8","0.4","0.6","0.1494938987","0.7739789177","0.3453554921","0.5516193693","","","","","","","","","","","","75","K","2","","","172","main_expt",""
"","bandit","252","849961","0.0-213.0-0.0","98785857","wem/bandit_either_3","A1NGABF082HR2P","either","2","350","","","","","","","0","0","1","","0.2909261263","0.2","0.8","0.4","0.6","0.1996494969","0.7146420849","0.2909261263","0.5081608063","","","","","","","","","","","","75","K","2","","","173","main_expt",""
"","bandit","253","853223","0.0-214.0-0.0","98785857","wem/bandit_either_3","A1NGABF082HR2P","either","2","1754","","","","","","","0","0","1","","0.2200767262","0.2","0.8","0.4","0.6","0.2200767262","0.683245412","0.3807546558","0.5247340446","","","","","","","","","","","","72","H","0","img/none_selected.jpg","","174","main_expt",""
"","bandit","254","855152","0.0-215.0-0.0","98785857","wem/bandit_either_3","A1NGABF082HR2P","either","2","419","","","","","","","0","0","1","0.7163731774","","0.2","0.8","0.4","0.6","","","","","0.1929710708","0.7163731774","0.3889518003","0.5823110366","","","","","","","","74","J","1","","","175","main_expt",""
"","bandit","255","857703","0.0-216.0-0.0","98785857","wem/bandit_either_3","A1NGABF082HR2P","either","2","1042","","","","","","","0","1","0","","0.3662842853","0.2","0.8","0.4","0.6","0.1756556012","0.6676116703","0.3662842853","0.7693722391","","","","","","","","","","","","75","K","2","","","176","main_expt",""
"","bandit","256","859600","0.0-217.0-0.0","98785857","wem/bandit_either_3","A1NGABF082HR2P","either","2","386","","","","","","","0","1","0","","0.3102656016","0.2","0.8","0.4","0.6","0.2404611203","0.711116056","0.3102656016","0.8048595062","","","","","","","","","","","","75","K","2","","","177","main_expt",""
"","bandit","257","861448","0.0-218.0-0.0","98785857","wem/bandit_either_3","A1NGABF082HR2P","either","2","339","","","","","","","1","0","0","0.3272385177","","0.2","0.8","0.4","0.6","","","","","0.1651874793","0.6541247318","0.3272385177","0.8147320782","","","","","","","","75","K","2","","","178","main_expt",""
"","bandit","258","863311","0.0-219.0-0.0","98785857","wem/bandit_either_3","A1NGABF082HR2P","either","2","354","","","","","","","0","0","1","","0.3185807274","0.2","0.8","0.4","0.6","0.1297692321","0.600925469","0.3185807274","0.7755432213","","","","","","","","","","","","75","K","2","","","179","main_expt",""
"","bandit","259","865406","0.0-220.0-0.0","98785857","wem/bandit_either_3","A1NGABF082HR2P","either","2","586","","","","","","","1","0","0","0.6321701674","","0.2","0.8","0.4","0.6","","","","","0.1311169289","0.6321701674","0.3896265469","0.7309951384","","","","","","","","74","J","1","","","180","main_expt",""
"","bandit","260","867240","0.0-221.0-0.0","98785857","wem/bandit_either_3","A1NGABF082HR2P","either","2","324","","","","","","","1","0","0","0.7040606398","","0.2","0.8","0.4","0.6","","","","","0.2184653543","0.7040606398","0.4381139349","0.8068071681","","","","","","","","74","J","1","","","181","main_expt",""
"","bandit","261","869103","0.0-222.0-0.0","98785857","wem/bandit_either_3","A1NGABF082HR2P","either","2","354","","","","","","","0","0","1","0.6551517927","","0.2","0.8","0.4","0.6","","","","","0.156745214","0.6551517927","0.4339703771","0.8096694819","","","","","","","","74","J","1","","","182","main_expt",""
"","bandit","262","870975","0.0-223.0-0.0","98785857","wem/bandit_either_3","A1NGABF082HR2P","either","2","362","","","","","","","0","0","1","","0.07710569088","0.2","0.8","0.4","0.6","0.07710569088","0.7709035389","0.5270594011","0.8522040983","","","","","","","","","","","","72","H","0","img/none_selected.jpg","","183","main_expt",""
"","bandit","263","873384","0.0-224.0-0.0","98785857","wem/bandit_either_3","A1NGABF082HR2P","either","2","898","","","","","","","0","1","0","","0.8636776132","0.2","0.8","0.4","0.6","0.07901501252","0.7869666122","0.4791569234","0.8636776132","","","","","","","","","","","","76","L","3","","","184","main_expt",""
"","bandit","264","875207","0.0-225.0-0.0","98785857","wem/bandit_either_3","A1NGABF082HR2P","either","2","313","","","","","","","1","0","0","0.8605951951","","0.2","0.8","0.4","0.6","","","","","0.05695362571","0.804571828","0.464074867","0.8605951951","","","","","","","","76","L","3","","","185","main_expt",""
"","bandit","265","877047","0.0-226.0-0.0","98785857","wem/bandit_either_3","A1NGABF082HR2P","either","2","330","","","","","","","0","1","0","","0.8578427848","0.2","0.8","0.4","0.6","0.03796608352","0.7866627628","0.4654947356","0.8578427848","","","","","","","","","","","","76","L","3","","","186","main_expt",""
"","bandit","266","879111","0.0-227.0-0.0","98785857","wem/bandit_either_3","A1NGABF082HR2P","either","2","554","","","","","","","0","0","1","","0.8253306036","0.2","0.8","0.4","0.6","0.05986429342","0.8006736442","0.4338668179","0.8253306036","","","","","","","","","","","","76","L","3","","","187","main_expt",""
"","bandit","267","881207","0.0-228.0-0.0","98785857","wem/bandit_either_3","A1NGABF082HR2P","either","2","586","","","","","","","0","0","1","0.4679469354","","0.2","0.8","0.4","0.6","","","","","0.05827831728","0.7687627789","0.4679469354","0.8118593573","","","","","","","","75","K","2","","","188","main_expt",""
"","bandit","268","883151","0.0-229.0-0.0","98785857","wem/bandit_either_3","A1NGABF082HR2P","either","2","435","","","","","","","1","0","0","0.7009429779","","0.2","0.8","0.4","0.6","","","","","0.06499387038","0.7009429779","0.4645116859","0.8319104568","","","","","","","","74","J","1","","","189","main_expt",""
"","bandit","269","884999","0.0-230.0-0.0","98785857","wem/bandit_either_3","A1NGABF082HR2P","either","2","339","","","","","","","0","0","1","0.7531121838","","0.2","0.8","0.4","0.6","","","","","0.0878029059","0.7531121838","0.4260553166","0.8949986836","","","","","","","","74","J","1","","","190","main_expt",""
"","bandit","270","887103","0.0-231.0-0.0","98785857","wem/bandit_either_3","A1NGABF082HR2P","either","2","594","","","","","","","0","0","1","","0.1101088583","0.2","0.8","0.4","0.6","0.1101088583","0.6174616994","0.5323747461","0.9258368343","","","","","","","","","","","","72","H","0","img/none_selected.jpg","","191","main_expt",""
"","bandit","271","888921","0.0-232.0-0.0","98785857","wem/bandit_either_3","A1NGABF082HR2P","either","2","306","","","","","","","0","0","1","0.6331996982","","0.2","0.8","0.4","0.6","","","","","0.1559643099","0.6331996982","0.6013900654","0.9221438833","","","","","","","","74","J","1","","","192","main_expt",""
"","bandit","272","890831","0.0-233.0-0.0","98785857","wem/bandit_either_3","A1NGABF082HR2P","either","2","401","","","","","","","0","1","0","","0.5332063066","0.2","0.8","0.4","0.6","0.1348882638","0.5596167322","0.5332063066","0.878376231","","","","","","","","","","","","75","K","2","","","193","main_expt",""
"","bandit","273","892641","0.0-234.0-0.0","98785857","wem/bandit_either_3","A1NGABF082HR2P","either","2","298","","","","","","","0","0","1","","0.5499496643","0.2","0.8","0.4","0.6","0.243093686","0.5887018809","0.5499496643","0.7914694382","","","","","","","","","","","","75","K","2","","","194","main_expt",""
"","bandit","274","894487","0.0-235.0-0.0","98785857","wem/bandit_either_3","A1NGABF082HR2P","either","2","337","","","","","","","0","1","0","","0.7843027812","0.2","0.8","0.4","0.6","0.2792315856","0.561552955","0.4170732774","0.7843027812","","","","","","","","","","","","76","L","3","","","195","main_expt",""
"","bandit","275","896535","0.0-236.0-0.0","98785857","wem/bandit_either_3","A1NGABF082HR2P","either","2","538","","","","","","","0","1","0","","0.7888241066","0.2","0.8","0.4","0.6","0.2075419965","0.6199522587","0.4050854298","0.7888241066","","","","","","","","","","","","76","L","3","","","196","main_expt",""
"","bandit","276","898390","0.0-237.0-0.0","98785857","wem/bandit_either_3","A1NGABF082HR2P","either","2","345","","","","","","","1","0","0","0.8145025162","","0.2","0.8","0.4","0.6","","","","","0.1899284635","0.6886125155","0.4522405917","0.8145025162","","","","","","","","76","L","3","","","197","main_expt",""
"","bandit","277","900271","0.0-238.0-0.0","98785857","wem/bandit_either_3","A1NGABF082HR2P","either","2","371","","","","","","","0","0","1","0.8795467387","","0.2","0.8","0.4","0.6","","","","","0.1632143895","0.6468609917","0.4547961131","0.8795467387","","","","","","","","76","L","3","","","198","main_expt",""
"","bandit","278","902361","0.0-239.0-0.0","98785857","wem/bandit_either_3","A1NGABF082HR2P","either","2","580","","","","","","","0","0","1","","0.1580048483","0.2","0.8","0.4","0.6","0.1580048483","0.7134983028","0.456709553","0.8716255916","","","","","","","","","","","","72","H","0","img/none_selected.jpg","","199","main_expt",""
"","bandit","279","904143","0.0-240.0-0.0","98785857","wem/bandit_either_3","A1NGABF082HR2P","either","2","273","","","","","","","1","0","0","0.8596876402","","0.2","0.8","0.4","0.6","","","","","0.1815025648","0.6545285445","0.4197111003","0.8596876402","","","","","","","","76","L","3","","","200","main_expt",""
"","bandit","280","905735","0.0-241.0-0.0","98785857","wem/bandit_either_3","A1NGABF082HR2P","either","2","82","","","","","","","0","0","1","0.8714244785","","0.2","0.8","0.4","0.6","","","","","0.1453003075","0.6827561938","0.4468864226","0.8714244785","","","","","","","","76","L","3","","","201","main_expt",""
"","bandit","281","908816","0.0-242.0-0.0","98785857","wem/bandit_either_3","A1NGABF082HR2P","either","2","1570","","","","","","","1","0","0","0.8679491409","","0.2","0.8","0.4","0.6","","","","","0.1061510446","0.6590680519","0.3852152277","0.8679491409","","","","","","","","76","L","3","","","202","main_expt",""
"","bandit","282","910775","0.0-243.0-0.0","98785857","wem/bandit_either_3","A1NGABF082HR2P","either","2","450","","","","","","","1","0","0","0.8421855008","","0.2","0.8","0.4","0.6","","","","","0.09667757311","0.67998256","0.3481501846","0.8421855008","","","","","","","","76","L","3","","","203","main_expt",""
"","bandit","283","912615","0.0-244.0-0.0","98785857","wem/bandit_either_3","A1NGABF082HR2P","either","2","331","","","","","","","0","1","0","","0.8741547355","0.2","0.8","0.4","0.6","0.109576977","0.7157802034","0.3688904748","0.8741547355","","","","","","","","","","","","76","L","3","","","204","main_expt",""
"","bandit","284","914720","0.0-245.0-0.0","98785857","wem/bandit_either_3","A1NGABF082HR2P","either","2","594","","","","","","","1","0","0","0.8589537271","","0.2","0.8","0.4","0.6","","","","","0.1370524017","0.6750594522","0.4196025605","0.8589537271","","","","","","","","76","L","3","","","205","main_expt",""
"","bandit","285","916575","0.0-246.0-0.0","98785857","wem/bandit_either_3","A1NGABF082HR2P","either","2","346","","","","","","","1","0","0","0.8009191088","","0.2","0.8","0.4","0.6","","","","","0.1005848846","0.7170784861","0.3558717694","0.8009191088","","","","","","","","76","L","3","","","206","main_expt",""
"","bandit","286","918438","0.0-247.0-0.0","98785857","wem/bandit_either_3","A1NGABF082HR2P","either","2","352","","","","","","","0","0","1","","0.8146279372","0.2","0.8","0.4","0.6","0.1100528349","0.6886550294","0.3978287694","0.8146279372","","","","","","","","","","","","76","L","3","","","207","main_expt",""
"","bandit","287","920895","0.0-248.0-0.0","98785857","wem/bandit_either_3","A1NGABF082HR2P","either","2","947","","","","","","","0","0","1","0.3647175361","","0.2","0.8","0.4","0.6","","","","","0.1165568201","0.7340041914","0.3647175361","0.7498886323","","","","","","","","75","K","2","","","208","main_expt",""
"","bandit","288","922769","0.0-249.0-0.0","98785857","wem/bandit_either_3","A1NGABF082HR2P","either","2","363","","","","","","","1","0","0","0.7108339061","","0.2","0.8","0.4","0.6","","","","","0.1607141963","0.7108339061","0.2942091963","0.781298432","","","","","","","","74","J","1","","","209","main_expt",""
"","bandit","289","924664","0.0-250.0-0.0","98785857","wem/bandit_either_3","A1NGABF082HR2P","either","2","383","","","","","","","1","0","0","0.7322658343","","0.2","0.8","0.4","0.6","","","","","0.2005879304","0.7322658343","0.3228874634","0.8374694261","","","","","","","","74","J","1","","","210","main_expt",""
"","bandit","290","926384","0.0-251.0-0.0","98785857","wem/bandit_either_3","A1NGABF082HR2P","either","2","211","","","","","","","1","0","0","0.6220956771","","0.2","0.8","0.4","0.6","","","","","0.1999716741","0.6220956771","0.3300931135","0.7461264045","","","","","","","","74","J","1","","","211","main_expt",""
"","bandit","291","928255","0.0-252.0-0.0","98785857","wem/bandit_either_3","A1NGABF082HR2P","either","2","360","","","","","","","0","0","1","0.5400145011","","0.2","0.8","0.4","0.6","","","","","0.2135957141","0.5400145011","0.4044608811","0.7267359419","","","","","","","","74","J","1","","","212","main_expt",""
"","bandit","292","931160","0.0-253.0-0.0","98785857","wem/bandit_either_3","A1NGABF082HR2P","either","2","1394","","","","","","","0","0","1","0.2041793084","","0.2","0.8","0.4","0.6","","","","","0.2041793084","0.5419994818","0.4916994921","0.6529835343","","","","","","","","72","H","0","img/none_selected.jpg","","213","main_expt",""
"","bandit","293","933007","0.0-254.0-0.0","98785857","wem/bandit_either_3","A1NGABF082HR2P","either","2","336","","","","","","","0","0","1","0.2563089198","","0.2","0.8","0.4","0.6","","","","","0.2563089198","0.6195319152","0.5387088508","0.5734554779","","","","","","","","72","H","0","img/none_selected.jpg","","214","main_expt",""
"","bandit","294","935254","0.0-255.0-0.0","98785857","wem/bandit_either_3","A1NGABF082HR2P","either","2","737","","","","","","","1","0","0","0.7056003711","","0.2","0.8","0.4","0.6","","","","","0.2870699064","0.7405966814","0.567041903","0.7056003711","","","","","","","","76","L","3","","","215","main_expt",""
"","bandit","295","937144","0.0-256.0-0.0","98785857","wem/bandit_either_3","A1NGABF082HR2P","either","2","380","","","","","","","0","1","0","","0.7717913507","0.2","0.8","0.4","0.6","0.2715554895","0.8005734678","0.539749723","0.7717913507","","","","","","","","","","","","76","L","3","","","216","main_expt",""
"","bandit","296","939135","0.0-257.0-0.0","98785857","wem/bandit_either_3","A1NGABF082HR2P","either","2","482","","","","","","","0","0","1","","0.834894728","0.2","0.8","0.4","0.6","0.2027777883","0.8392159132","0.3803352486","0.834894728","","","","","","","","","","","","76","L","3","","","217","main_expt",""
"","bandit","297","941471","0.0-258.0-0.0","98785857","wem/bandit_either_3","A1NGABF082HR2P","either","2","826","","","","","","","0","1","0","","0.3236333655","0.2","0.8","0.4","0.6","0.2169787163","0.7445585264","0.3236333655","0.868580258","","","","","","","","","","","","75","K","2","","","218","main_expt",""
"","bandit","298","943335","0.0-259.0-0.0","98785857","wem/bandit_either_3","A1NGABF082HR2P","either","2","354","","","","","","","0","0","1","0.2612589469","","0.2","0.8","0.4","0.6","","","","","0.2292932202","0.7174829008","0.2612589469","0.8236231074","","","","","","","","75","K","2","","","219","main_expt",""
"","bandit","299","945776","0.0-260.0-0.0","98785857","wem/bandit_either_3","A1NGABF082HR2P","either","2","930","","","","","","","0","0","1","","0.2829053382","0.2","0.8","0.4","0.6","0.2829053382","0.6601767392","0.2228319794","0.7719294443","","","","","","","","","","","","72","H","0","img/none_selected.jpg","","220","main_expt",""
"","bandit","300","948520","0.0-261.0-0.0","98785857","wem/bandit_either_3","A1NGABF082HR2P","either","2","1234","","","","","","","1","0","0","0.703996204","","0.2","0.8","0.4","0.6","","","","","0.2691731019","0.703996204","0.2204856404","0.7609360252","","","","","","","","74","J","1","","","221","main_expt",""
"","bandit","301","950407","0.0-262.0-0.0","98785857","wem/bandit_either_3","A1NGABF082HR2P","either","2","378","","","","","","","1","0","0","0.6188024556","","0.2","0.8","0.4","0.6","","","","","0.1974112065","0.6188024556","0.2269951902","0.7319851961","","","","","","","","74","J","1","","","222","main_expt",""
"","bandit","302","952551","0.0-263.0-0.0","98785857","wem/bandit_either_3","A1NGABF082HR2P","either","2","633","","","","","","","0","0","1","0.5695888615","","0.2","0.8","0.4","0.6","","","","","0.08486155027","0.5695888615","0.3417830843","0.6994646324","","","","","","","","74","J","1","","","223","main_expt",""
"","bandit","303","955009","0.0-264.0-0.0","98785857","wem/bandit_either_3","A1NGABF082HR2P","either","2","947","","","","","","","1","0","0","0.6817307813","","0.2","0.8","0.4","0.6","","","","","0.1930609847","0.6590173842","0.4057490183","0.6817307813","","","","","","","","76","L","3","","","224","main_expt",""
"","bandit","304","957616","0.0-265.0-0.0","98785857","wem/bandit_either_3","A1NGABF082HR2P","either","2","1097","","","","","","","0","0","1","","0.2026087193","0.2","0.8","0.4","0.6","0.2026087193","0.6779124893","0.4266979185","0.67394888","","","","","","","","","","","","72","H","0","img/none_selected.jpg","","225","main_expt",""
"","bandit","305","959656","0.0-266.0-0.0","98785857","wem/bandit_either_3","A1NGABF082HR2P","either","2","528","","","","","","","0","0","1","","0.6520670614","0.2","0.8","0.4","0.6","0.1295559036","0.6433757785","0.4723095555","0.6520670614","","","","","","","","","","","","76","L","3","","","226","main_expt",""
"","bandit","306","961680","0.0-267.0-0.0","98785857","wem/bandit_either_3","A1NGABF082HR2P","either","2","513","","","","","","","0","0","1","0.4396274322","","0.2","0.8","0.4","0.6","","","","","0.1014701128","0.6050090536","0.4396274322","0.6598054912","","","","","","","","75","K","2","","","227","main_expt",""
"","bandit","307","964000","0.0-268.0-0.0","98785857","wem/bandit_either_3","A1NGABF082HR2P","either","2","808","","","","","","","0","0","1","0.7313296172","","0.2","0.8","0.4","0.6","","","","","0.1374428951","0.5614220587","0.4581465293","0.7313296172","","","","","","","","76","L","3","","","228","main_expt",""
"","bandit","308","965912","0.0-269.0-0.0","98785857","wem/bandit_either_3","A1NGABF082HR2P","either","2","401","","","","","","","0","0","1","0.536938762","","0.2","0.8","0.4","0.6","","","","","0.2147377822","0.536938762","0.3635076811","0.5771612872","","","","","","","","74","J","1","","","229","main_expt",""
"","bandit","309","968030","0.0-270.0-0.0","98785857","wem/bandit_either_3","A1NGABF082HR2P","either","2","609","","","","","","","0","0","1","0.4691369301","","0.2","0.8","0.4","0.6","","","","","0.2128984172","0.4691369301","0.4109812081","0.6474737632","","","","","","","","74","J","1","","","230","main_expt",""
"","bandit","310","970000","0.0-271.0-0.0","98785857","wem/bandit_either_3","A1NGABF082HR2P","either","2","458","","","","","","","0","1","0","","0.2566260117","0.2","0.8","0.4","0.6","0.2566260117","0.3801843724","0.3769467169","0.77083729","","","","","","","","","","","","72","H","0","img/none_selected.jpg","","231","main_expt",""
"","bandit","311","971991","0.0-272.0-0.0","98785857","wem/bandit_either_3","A1NGABF082HR2P","either","2","482","","","","","","","0","0","1","0.307190163","","0.2","0.8","0.4","0.6","","","","","0.307190163","0.4401380948","0.4489681289","0.7372448464","","","","","","","","72","H","0","img/none_selected.jpg","","232","main_expt",""
"","bandit","312","973912","0.0-273.0-0.0","98785857","wem/bandit_either_3","A1NGABF082HR2P","either","2","410","","","","","","","0","1","0","","0.8061851957","0.2","0.8","0.4","0.6","0.3235632008","0.4589823784","0.5191563331","0.8061851957","","","","","","","","","","","","76","L","3","","","233","main_expt",""
"","bandit","313","975807","0.0-274.0-0.0","98785857","wem/bandit_either_3","A1NGABF082HR2P","either","2","384","","","","","","","1","0","0","0.7628128465","","0.2","0.8","0.4","0.6","","","","","0.2229472669","0.412850409","0.5635532962","0.7628128465","","","","","","","","76","L","3","","","234","main_expt",""
"","bandit","314","977671","0.0-275.0-0.0","98785857","wem/bandit_either_3","A1NGABF082HR2P","either","2","354","","","","","","","1","0","0","0.7139354314","","0.2","0.8","0.4","0.6","","","","","0.3245092944","0.3071086281","0.6059211115","0.7139354314","","","","","","","","76","L","3","","","235","main_expt",""
"","bandit","315","979520","0.0-276.0-0.0","98785857","wem/bandit_either_3","A1NGABF082HR2P","either","2","337","","","","","","","0","0","1","","0.8459685894","0.2","0.8","0.4","0.6","0.3817813951","0.3088172556","0.5767319418","0.8459685894","","","","","","","","","","","","76","L","3","","","236","main_expt",""
"","bandit","316","981608","0.0-277.0-0.0","98785857","wem/bandit_either_3","A1NGABF082HR2P","either","2","577","","","","","","","1","0","0","0.6195352853","","0.2","0.8","0.4","0.6","","","","","0.5108794425","0.2725525041","0.6195352853","0.8258062243","","","","","","","","75","K","2","","","237","main_expt",""
"","bandit","317","983631","0.0-278.0-0.0","98785857","wem/bandit_either_3","A1NGABF082HR2P","either","2","512","","","","","","","1","0","0","0.2929581335","","0.2","0.8","0.4","0.6","","","","","0.545868674","0.2929581335","0.7504070514","0.7390020401","","","","","","","","74","J","1","","","238","main_expt",""
"","bandit","318","985927","0.0-279.0-0.0","98785857","wem/bandit_either_3","A1NGABF082HR2P","either","2","784","","","","","","","0","1","0","","0.5696008367","0.2","0.8","0.4","0.6","0.5696008367","0.3009301418","0.7863609923","0.7159327665","","","","","","","","","","","","72","H","0","img/none_selected.jpg","","239","main_expt",""
"","bandit","319","987743","0.0-280.0-0.0","98785857","wem/bandit_either_3","A1NGABF082HR2P","either","2","306","","","","","","","0","0","1","","0.7175907516","0.2","0.8","0.4","0.6","0.7175907516","0.1757133805","0.7472107855","0.7704913736","","","","","","","","","","","","72","H","0","img/none_selected.jpg","","240","main_expt",""
"","bandit","320","989672","0.0-281.0-0.0","98785857","wem/bandit_either_3","A1NGABF082HR2P","either","2","418","","","","","","","0","0","1","","0.1490953818","0.2","0.8","0.4","0.6","0.8333566257","0.1490953818","0.7633099306","0.7832900934","","","","","","","","","","","","74","J","1","","","241","main_expt",""
"","bandit","321","991567","0.0-282.0-0.0","98785857","wem/bandit_either_3","A1NGABF082HR2P","either","2","385","","","","","","","0","1","0","","0.1187436938","0.2","0.8","0.4","0.6","0.8661582331","0.1187436938","0.8192624891","0.746364214","","","","","","","","","","","","74","J","1","","","242","main_expt",""
"","bandit","322","993415","0.0-283.0-0.0","98785857","wem/bandit_either_3","A1NGABF082HR2P","either","2","337","","","","","","","0","0","1","0.07814629235","","0.2","0.8","0.4","0.6","","","","","0.8970489214","0.07814629235","0.7500708258","0.7014576998","","","","","","","","74","J","1","","","243","main_expt",""
"","bandit","323","995400","0.0-284.0-0.0","98785857","wem/bandit_either_3","A1NGABF082HR2P","either","2","473","","","","","","","0","0","1","","0.7656319196","0.2","0.8","0.4","0.6","0.8760308497","0.06497313331","0.7656319196","0.6810302351","","","","","","","","","","","","75","K","2","","","244","main_expt",""
"","bandit","324","997368","0.0-285.0-0.0","98785857","wem/bandit_either_3","A1NGABF082HR2P","either","2","456","","","","","","","0","0","1","0.1053527342","","0.2","0.8","0.4","0.6","","","","","0.9080051643","0.1053527342","0.7726297554","0.5349569219","","","","","","","","74","J","1","","","245","main_expt",""
"","bandit","325","999463","0.0-286.0-0.0","98785857","wem/bandit_either_3","A1NGABF082HR2P","either","2","586","","","","","","","1","0","0","0.4945526892","","0.2","0.8","0.4","0.6","","","","","0.8951486804","0.1410713538","0.8033922047","0.4945526892","","","","","","","","76","L","3","","","246","main_expt",""
