"consent","trial_type","trial_index","time_elapsed","internal_node_id","subjID","study","MID","cond","drift","rt","responses","key_press","expt_phase","like","value","connected","gems","bombs","no_reward","GemPrChosen","BombPrChosen","GainOverPainPr_0","GainOverPainPr_1","GainOverPainPr_2","GainOverPainPr_3","LosePr_0","LosePr_1","LosePr_2","LosePr_3","WinPr_0","WinPr_1","WinPr_2","WinPr_3","Q0","Q1","Q2","gender","age","ethnicity","target","respCharCode","respKey","respChoiceNum","respChoice","practice","trial_counter","trial_label","button_pressed"
"INL_behavioral_consent_30min_online.html","consent","0","34410","0.0-0.0","99047512","wem/bandit_either_3","A3IBAQLCOPU6BH","either","3","","","","","","","","","","","","","","","","","","","","","","","","","","","","","","","","","","","","","","",""
"","survey-text","1","40376","0.0-1.0","99047512","wem/bandit_either_3","A3IBAQLCOPU6BH","either","3","4935","{""Q0"":""A3IBAQLCOPU6BH""}","","","","","","","","","","","","","","","","","","","","","","","","","","","","","","","","","","","","",""
"","text","2","56172","0.0-2.0","99047512","wem/bandit_either_3","A3IBAQLCOPU6BH","either","3","14789","","32","","","","","","","","","","","","","","","","","","","","","","","","","","","","","","","","","","","",""
"","text","3","64990","0.0-3.0","99047512","wem/bandit_either_3","A3IBAQLCOPU6BH","either","3","8812","","32","","","","","","","","","","","","","","","","","","","","","","","","","","","","","","","","","","","",""
"","text","4","93744","0.0-4.0","99047512","wem/bandit_either_3","A3IBAQLCOPU6BH","either","3","28751","","32","","","","","","","","","","","","","","","","","","","","","","","","","","","","","","","","","","","",""
"","text","5","107103","0.0-5.0","99047512","wem/bandit_either_3","A3IBAQLCOPU6BH","either","3","13357","","32","","","","","","","","","","","","","","","","","","","","","","","","","","","","","","","","","","","",""
"","text","6","133858","0.0-6.0","99047512","wem/bandit_either_3","A3IBAQLCOPU6BH","either","3","26751","","32","","","","","","","","","","","","","","","","","","","","","","","","","","","","","","","","","","","",""
"","text","7","142766","0.0-7.0","99047512","wem/bandit_either_3","A3IBAQLCOPU6BH","either","3","8904","","32","","","","","","","","","","","","","","","","","","","","","","","","","","","","","","","","","","","",""
"","text","8","148307","0.0-8.0","99047512","wem/bandit_either_3","A3IBAQLCOPU6BH","either","3","5538","","32","","","","","","","","","","","","","","","","","","","","","","","","","","","","","","","","","","","",""
"","identification","9","156777","0.0-9.0-0.0","99047512","wem/bandit_either_3","A3IBAQLCOPU6BH","either","3","8393","","","","4","4","3","","","","","","","","","","","","","","","","","","","","","","","","the village of Zur","","","","","","","",""
"","identification","10","164374","0.0-9.0-1.0","99047512","wem/bandit_either_3","A3IBAQLCOPU6BH","either","3","6536","","","","2","1","2","","","","","","","","","","","","","","","","","","","","","","","","the village of Nyx","","","","","","","",""
"","text","11","172034","0.0-10.0","99047512","wem/bandit_either_3","A3IBAQLCOPU6BH","either","3","6658","","32","","","","","","","","","","","","","","","","","","","","","","","","","","","","","","","","","","","",""
"","text","12","179087","0.0-11.0","99047512","wem/bandit_either_3","A3IBAQLCOPU6BH","either","3","7049","","32","","","","","","","","","","","","","","","","","","","","","","","","","","","","","","","","","","","",""
"","text","13","180992","0.0-12.0","99047512","wem/bandit_either_3","A3IBAQLCOPU6BH","either","3","1901","","32","","","","","","","","","","","","","","","","","","","","","","","","","","","","","","","","","","","",""
"","text","14","187098","0.0-13.0","99047512","wem/bandit_either_3","A3IBAQLCOPU6BH","either","3","6102","","32","","","","","","","","","","","","","","","","","","","","","","","","","","","","","","","","","","","",""
"","bandit","15","191344","0.0-14.0-0.0","99047512","wem/bandit_either_3","A3IBAQLCOPU6BH","either","3","2731","","","","","","","0","0","1","0","0","","","","","0","","","","0","","","","","","","","","","","74","J","0","img/none_selected_demo.jpg","true","0","",""
"","bandit","16","193869","0.0-15.0-0.0","99047512","wem/bandit_either_3","A3IBAQLCOPU6BH","either","3","1017","","","","","","","0","0","1","0","0","","","","","0","","","","0","","","","","","","","","","","75","K","0","img/none_selected_demo.jpg","true","0","",""
"","text","17","201659","0.0-16.0","99047512","wem/bandit_either_3","A3IBAQLCOPU6BH","either","3","7782","","32","","","","","","","","","","","","","","","","","","","","","","","","","","","","","","","","","","","",""
"","text","18","214818","0.0-17.0","99047512","wem/bandit_either_3","A3IBAQLCOPU6BH","either","3","13155","","32","","","","","","","","","","","","","","","","","","","","","","","","","","","","","","","","","","","",""
"","text","19","223679","0.0-18.0","99047512","wem/bandit_either_3","A3IBAQLCOPU6BH","either","3","8857","","32","","","","","","","","","","","","","","","","","","","","","","","","","","","","","","","","","","","",""
"","text","20","232679","0.0-19.0","99047512","wem/bandit_either_3","A3IBAQLCOPU6BH","either","3","8996","","32","","","","","","","","","","","","","","","","","","","","","","","","","","","","","","","","","","","",""
"","bandit","21","235083","0.0-20.0-0.0","99047512","wem/bandit_either_3","A3IBAQLCOPU6BH","either","3","882","","","","","","","0","0","1","","0.8","0.5","0.5","","","0.8","0.2","","","","","","","","","","","","","","74","J","0","img/none_selected_demo.jpg","true","0","80_20_practice",""
"","bandit","22","237076","0.0-20.0-1.0","99047512","wem/bandit_either_3","A3IBAQLCOPU6BH","either","3","484","","","","","","","1","0","0","0.8","","0.5","0.5","","","","","","","0.8","0.2","","","","","","","","","","74","J","0","img/none_selected_demo.jpg","true","0","80_20_practice",""
"","bandit","23","238877","0.0-20.0-2.0","99047512","wem/bandit_either_3","A3IBAQLCOPU6BH","either","3","289","","","","","","","1","0","0","0.8","","0.5","0.5","","","","","","","0.8","0.2","","","","","","","","","","74","J","0","img/none_selected_demo.jpg","true","0","80_20_practice",""
"","bandit","24","240725","0.0-20.0-3.0","99047512","wem/bandit_either_3","A3IBAQLCOPU6BH","either","3","338","","","","","","","1","0","0","0.8","","0.5","0.5","","","","","","","0.8","0.2","","","","","","","","","","74","J","0","img/none_selected_demo.jpg","true","0","80_20_practice",""
"","bandit","25","242534","0.0-20.0-4.0","99047512","wem/bandit_either_3","A3IBAQLCOPU6BH","either","3","298","","","","","","","0","0","1","","0.8","0.5","0.5","","","0.8","0.2","","","","","","","","","","","","","","74","J","0","img/none_selected_demo.jpg","true","0","80_20_practice",""
"","bandit","26","244771","0.0-20.0-5.0","99047512","wem/bandit_either_3","A3IBAQLCOPU6BH","either","3","718","","","","","","","1","0","0","0.8","","0.5","0.5","","","","","","","0.8","0.2","","","","","","","","","","74","J","0","img/none_selected_demo.jpg","true","0","80_20_practice",""
"","bandit","27","246864","0.0-20.0-6.0","99047512","wem/bandit_either_3","A3IBAQLCOPU6BH","either","3","576","","","","","","","0","0","1","","0.8","0.5","0.5","","","0.8","0.2","","","","","","","","","","","","","","74","J","0","img/none_selected_demo.jpg","true","0","80_20_practice",""
"","bandit","28","248916","0.0-20.0-7.0","99047512","wem/bandit_either_3","A3IBAQLCOPU6BH","either","3","544","","","","","","","1","0","0","0.8","","0.5","0.5","","","","","","","0.8","0.2","","","","","","","","","","74","J","0","img/none_selected_demo.jpg","true","0","80_20_practice",""
"","bandit","29","250959","0.0-20.0-8.0","99047512","wem/bandit_either_3","A3IBAQLCOPU6BH","either","3","529","","","","","","","1","0","0","0.2","","0.5","0.5","","","","","","","0.8","0.2","","","","","","","","","","75","K","1","","true","0","80_20_practice",""
"","bandit","30","252817","0.0-20.0-9.0","99047512","wem/bandit_either_3","A3IBAQLCOPU6BH","either","3","342","","","","","","","0","0","1","","0.2","0.5","0.5","","","0.8","0.2","","","","","","","","","","","","","","75","K","1","","true","0","80_20_practice",""
"","bandit","31","254851","0.0-20.0-10.0","99047512","wem/bandit_either_3","A3IBAQLCOPU6BH","either","3","521","","","","","","","0","0","1","","0.2","0.5","0.5","","","0.8","0.2","","","","","","","","","","","","","","75","K","1","","true","0","80_20_practice",""
"","bandit","32","256644","0.0-20.0-11.0","99047512","wem/bandit_either_3","A3IBAQLCOPU6BH","either","3","283","","","","","","","1","0","0","0.2","","0.5","0.5","","","","","","","0.8","0.2","","","","","","","","","","75","K","1","","true","0","80_20_practice",""
"","bandit","33","259232","0.0-20.0-12.0","99047512","wem/bandit_either_3","A3IBAQLCOPU6BH","either","3","1066","","","","","","","0","0","1","","0.2","0.5","0.5","","","0.8","0.2","","","","","","","","","","","","","","75","K","1","","true","0","80_20_practice",""
"","bandit","34","261372","0.0-20.0-13.0","99047512","wem/bandit_either_3","A3IBAQLCOPU6BH","either","3","631","","","","","","","0","0","1","0.2","","0.5","0.5","","","","","","","0.8","0.2","","","","","","","","","","75","K","1","","true","0","80_20_practice",""
"","bandit","35","263964","0.0-20.0-14.0","99047512","wem/bandit_either_3","A3IBAQLCOPU6BH","either","3","1081","","","","","","","0","0","1","","0.2","0.5","0.5","","","0.8","0.2","","","","","","","","","","","","","","75","K","1","","true","0","80_20_practice",""
"","bandit","36","265915","0.0-20.0-15.0","99047512","wem/bandit_either_3","A3IBAQLCOPU6BH","either","3","438","","","","","","","0","1","0","","0.2","0.5","0.5","","","0.8","0.2","","","","","","","","","","","","","","75","K","1","","true","0","80_20_practice",""
"","bandit","37","268159","0.0-20.0-16.0","99047512","wem/bandit_either_3","A3IBAQLCOPU6BH","either","3","729","","","","","","","0","0","1","0.2","","0.5","0.5","","","","","","","0.8","0.2","","","","","","","","","","75","K","1","","true","0","80_20_practice",""
"","bandit","38","270072","0.0-20.0-17.0","99047512","wem/bandit_either_3","A3IBAQLCOPU6BH","either","3","381","","","","","","","0","0","1","","0.2","0.5","0.5","","","0.8","0.2","","","","","","","","","","","","","","75","K","1","","true","0","80_20_practice",""
"","bandit","39","272104","0.0-20.0-18.0","99047512","wem/bandit_either_3","A3IBAQLCOPU6BH","either","3","502","","","","","","","0","0","1","0.2","","0.5","0.5","","","","","","","0.8","0.2","","","","","","","","","","75","K","1","","true","0","80_20_practice",""
"","bandit","40","273635","0.0-20.0-19.0","99047512","wem/bandit_either_3","A3IBAQLCOPU6BH","either","3","23","","","","","","","0","0","1","","0.2","0.5","0.5","","","0.8","0.2","","","","","","","","","","","","","","75","K","1","","true","0","80_20_practice",""
"","text","41","276664","0.0-21.0","99047512","wem/bandit_either_3","A3IBAQLCOPU6BH","either","3","3025","","32","","","","","","","","","","","","","","","","","","","","","","","","","","","","","","","","","","","",""
"","bandit","42","280934","0.0-22.0-0.0","99047512","wem/bandit_either_3","A3IBAQLCOPU6BH","either","3","2758","","","","","","","1","0","0","1","0","","","","","0","1","","","1","0","","","","","","","","","","74","J","0","img/none_selected_demo.jpg","true","0","",""
"","text","43","287498","0.0-23.0","99047512","wem/bandit_either_3","A3IBAQLCOPU6BH","either","3","6559","","32","","","","","","","","","","","","","","","","","","","","","","","","","","","","","","","","","","","",""
"","text","44","290061","0.0-24.0","99047512","wem/bandit_either_3","A3IBAQLCOPU6BH","either","3","2557","","32","","","","","","","","","","","","","","","","","","","","","","","","","","","","","","","","","","","",""
"","text","45","293216","0.0-25.0","99047512","wem/bandit_either_3","A3IBAQLCOPU6BH","either","3","3151","","32","","","","","","","","","","","","","","","","","","","","","","","","","","","","","","","","","","","",""
"","text","46","298042","0.0-26.0","99047512","wem/bandit_either_3","A3IBAQLCOPU6BH","either","3","4818","","32","","","","","","","","","","","","","","","","","","","","","","","","","","","","","","","","","","","",""
"","text","47","311482","0.0-27.0","99047512","wem/bandit_either_3","A3IBAQLCOPU6BH","either","3","13434","","32","","","","","","","","","","","","","","","","","","","","","","","","","","","","","","","","","","","",""
"","text","48","314592","0.0-28.0","99047512","wem/bandit_either_3","A3IBAQLCOPU6BH","either","3","3105","","32","","","","","","","","","","","","","","","","","","","","","","","","","","","","","","","","","","","",""
"","text","49","318647","0.0-29.0","99047512","wem/bandit_either_3","A3IBAQLCOPU6BH","either","3","4051","","32","","","","","","","","","","","","","","","","","","","","","","","","","","","","","","","","","","","",""
"","text","50","322033","0.0-30.0","99047512","wem/bandit_either_3","A3IBAQLCOPU6BH","either","3","3381","","32","","","","","","","","","","","","","","","","","","","","","","","","","","","","","","","","","","","",""
"","text","51","329752","0.0-31.0","99047512","wem/bandit_either_3","A3IBAQLCOPU6BH","either","3","7715","","32","","","","","","","","","","","","","","","","","","","","","","","","","","","","","","","","","","","",""
"","text","52","332266","0.0-32.0","99047512","wem/bandit_either_3","A3IBAQLCOPU6BH","either","3","2509","","32","","","","","","","","","","","","","","","","","","","","","","","","","","","","","","","","","","","",""
"","text","53","334752","0.0-33.0","99047512","wem/bandit_either_3","A3IBAQLCOPU6BH","either","3","2480","","32","","","","","","","","","","","","","","","","","","","","","","","","","","","","","","","","","","","",""
"","bandit","54","336830","0.0-34.0-0.0","99047512","wem/bandit_either_3","A3IBAQLCOPU6BH","either","3","567","","","","","","","0","0","1","0.2","","0.5","0.5","0.5","0.5","","","","","0.8","0.2","0.6","0.2","","","","","","","","76","L","3","","true","0","full_practice",""
"","bandit","55","338662","0.0-34.0-1.0","99047512","wem/bandit_either_3","A3IBAQLCOPU6BH","either","3","322","","","","","","","0","0","1","0.2","","0.5","0.5","0.5","0.5","","","","","0.8","0.2","0.6","0.2","","","","","","","","76","L","3","","true","0","full_practice",""
"","bandit","56","340365","0.0-34.0-2.0","99047512","wem/bandit_either_3","A3IBAQLCOPU6BH","either","3","187","","","","","","","1","0","0","0.6","","0.5","0.5","0.5","0.5","","","","","0.8","0.2","0.6","0.2","","","","","","","","75","K","2","","true","0","full_practice",""
"","bandit","57","342149","0.0-34.0-3.0","99047512","wem/bandit_either_3","A3IBAQLCOPU6BH","either","3","274","","","","","","","0","0","1","0.6","","0.5","0.5","0.5","0.5","","","","","0.8","0.2","0.6","0.2","","","","","","","","75","K","2","","true","0","full_practice",""
"","bandit","58","344192","0.0-34.0-4.0","99047512","wem/bandit_either_3","A3IBAQLCOPU6BH","either","3","532","","","","","","","0","0","1","0.6","","0.5","0.5","0.5","0.5","","","","","0.8","0.2","0.6","0.2","","","","","","","","75","K","2","","true","0","full_practice",""
"","bandit","59","346116","0.0-34.0-5.0","99047512","wem/bandit_either_3","A3IBAQLCOPU6BH","either","3","414","","","","","","","0","0","1","","0.2","0.5","0.5","0.5","0.5","0.8","0.2","0.6","0.2","","","","","","","","","","","","74","J","1","","true","0","full_practice",""
"","bandit","60","347884","0.0-34.0-6.0","99047512","wem/bandit_either_3","A3IBAQLCOPU6BH","either","3","258","","","","","","","0","0","1","","0.2","0.5","0.5","0.5","0.5","0.8","0.2","0.6","0.2","","","","","","","","","","","","74","J","1","","true","0","full_practice",""
"","bandit","61","350005","0.0-34.0-7.0","99047512","wem/bandit_either_3","A3IBAQLCOPU6BH","either","3","611","","","","","","","0","0","1","0.2","","0.5","0.5","0.5","0.5","","","","","0.8","0.2","0.6","0.2","","","","","","","","74","J","1","","true","0","full_practice",""
"","bandit","62","351900","0.0-34.0-8.0","99047512","wem/bandit_either_3","A3IBAQLCOPU6BH","either","3","380","","","","","","","0","1","0","","0.8","0.5","0.5","0.5","0.5","0.8","0.2","0.6","0.2","","","","","","","","","","","","72","H","0","img/none_selected.jpg","true","0","full_practice",""
"","bandit","63","353643","0.0-34.0-9.0","99047512","wem/bandit_either_3","A3IBAQLCOPU6BH","either","3","234","","","","","","","0","1","0","","0.8","0.5","0.5","0.5","0.5","0.8","0.2","0.6","0.2","","","","","","","","","","","","72","H","0","img/none_selected.jpg","true","0","full_practice",""
"","bandit","64","355551","0.0-34.0-10.0","99047512","wem/bandit_either_3","A3IBAQLCOPU6BH","either","3","397","","","","","","","1","0","0","0.8","","0.5","0.5","0.5","0.5","","","","","0.8","0.2","0.6","0.2","","","","","","","","72","H","0","img/none_selected.jpg","true","0","full_practice",""
"","bandit","65","357111","0.0-34.0-11.0","99047512","wem/bandit_either_3","A3IBAQLCOPU6BH","either","3","47","","","","","","","0","1","0","","0.8","0.5","0.5","0.5","0.5","0.8","0.2","0.6","0.2","","","","","","","","","","","","72","H","0","img/none_selected.jpg","true","0","full_practice",""
"","bandit","66","359765","0.0-34.0-12.0","99047512","wem/bandit_either_3","A3IBAQLCOPU6BH","either","3","1139","","","","","","","1","0","0","0.8","","0.5","0.5","0.5","0.5","","","","","0.8","0.2","0.6","0.2","","","","","","","","72","H","0","img/none_selected.jpg","true","0","full_practice",""
"","bandit","67","361661","0.0-34.0-13.0","99047512","wem/bandit_either_3","A3IBAQLCOPU6BH","either","3","369","","","","","","","0","1","0","","0.8","0.5","0.5","0.5","0.5","0.8","0.2","0.6","0.2","","","","","","","","","","","","72","H","0","img/none_selected.jpg","true","0","full_practice",""
"","bandit","68","363580","0.0-34.0-14.0","99047512","wem/bandit_either_3","A3IBAQLCOPU6BH","either","3","405","","","","","","","0","0","1","0.8","","0.5","0.5","0.5","0.5","","","","","0.8","0.2","0.6","0.2","","","","","","","","72","H","0","img/none_selected.jpg","true","0","full_practice",""
"","bandit","69","365487","0.0-34.0-15.0","99047512","wem/bandit_either_3","A3IBAQLCOPU6BH","either","3","388","","","","","","","0","0","1","","0.8","0.5","0.5","0.5","0.5","0.8","0.2","0.6","0.2","","","","","","","","","","","","72","H","0","img/none_selected.jpg","true","0","full_practice",""
"","bandit","70","367568","0.0-34.0-16.0","99047512","wem/bandit_either_3","A3IBAQLCOPU6BH","either","3","521","","","","","","","0","1","0","","0.2","0.5","0.5","0.5","0.5","0.8","0.2","0.6","0.2","","","","","","","","","","","","76","L","3","","true","0","full_practice",""
"","bandit","71","369480","0.0-34.0-17.0","99047512","wem/bandit_either_3","A3IBAQLCOPU6BH","either","3","372","","","","","","","0","1","0","","0.2","0.5","0.5","0.5","0.5","0.8","0.2","0.6","0.2","","","","","","","","","","","","76","L","3","","true","0","full_practice",""
"","bandit","72","371428","0.0-34.0-18.0","99047512","wem/bandit_either_3","A3IBAQLCOPU6BH","either","3","424","","","","","","","0","0","1","","0.2","0.5","0.5","0.5","0.5","0.8","0.2","0.6","0.2","","","","","","","","","","","","76","L","3","","true","0","full_practice",""
"","bandit","73","373358","0.0-34.0-19.0","99047512","wem/bandit_either_3","A3IBAQLCOPU6BH","either","3","417","","","","","","","0","0","1","0.2","","0.5","0.5","0.5","0.5","","","","","0.8","0.2","0.6","0.2","","","","","","","","76","L","3","","true","0","full_practice",""
"","text","74","377088","0.0-35.0","99047512","wem/bandit_either_3","A3IBAQLCOPU6BH","either","3","3714","","32","","","","","","","","","","","","","","","","","","","","","","","","","","","","","","","","","","","",""
"","text","75","390791","0.0-36.0","99047512","wem/bandit_either_3","A3IBAQLCOPU6BH","either","3","12696","","32","","","","","","","","","","","","","","","","","","","","","","","","","","","","","","","","","","","",""
"","text","76","402689","0.0-37.0","99047512","wem/bandit_either_3","A3IBAQLCOPU6BH","either","3","11894","","32","","","","","","","","","","","","","","","","","","","","","","","","","","","","","","","","","","","",""
"","text","77","407761","0.0-38.0","99047512","wem/bandit_either_3","A3IBAQLCOPU6BH","either","3","5067","","32","","","","","","","","","","","","","","","","","","","","","","","","","","","","","","","","","","","",""
"","text","78","415993","0.0-39.0","99047512","wem/bandit_either_3","A3IBAQLCOPU6BH","either","3","8226","","32","","","","","","","","","","","","","","","","","","","","","","","","","","","","","","","","","","","",""
"","text","79","423343","0.0-40.0","99047512","wem/bandit_either_3","A3IBAQLCOPU6BH","either","3","7343","","32","","","","","","","","","","","","","","","","","","","","","","","","","","","","","","","","","","","",""
"","bandit","80","426990","0.0-41.0-0.0","99047512","wem/bandit_either_3","A3IBAQLCOPU6BH","either","3","2135","","","","","","","0","0","1","0.1387034319","","0.6","0.2","0.4","0.8","","","","","0.1387034319","0.6473934842","0.4261870849","0.6494041588","","","","","","","","72","H","0","img/none_selected.jpg","","1","main_expt",""
"","bandit","81","429361","0.0-42.0-0.0","99047512","wem/bandit_either_3","A3IBAQLCOPU6BH","either","3","857","","","","","","","0","0","1","","0.5221866694","0.6","0.2","0.4","0.8","0.2166337036","0.5221866694","0.3223101542","0.7608835745","","","","","","","","","","","","74","J","1","","","2","main_expt",""
"","bandit","82","431341","0.0-43.0-0.0","99047512","wem/bandit_either_3","A3IBAQLCOPU6BH","either","3","463","","","","","","","0","0","1","","0.2541217019","0.6","0.2","0.4","0.8","0.3253899216","0.5356292978","0.2541217019","0.7745567172","","","","","","","","","","","","75","K","2","","","3","main_expt",""
"","bandit","83","433294","0.0-44.0-0.0","99047512","wem/bandit_either_3","A3IBAQLCOPU6BH","either","3","441","","","","","","","1","0","0","0.8315703218","","0.6","0.2","0.4","0.8","","","","","0.3003293127","0.5154592071","0.2272043942","0.8315703218","","","","","","","","76","L","3","","","4","main_expt",""
"","bandit","84","435084","0.0-45.0-0.0","99047512","wem/bandit_either_3","A3IBAQLCOPU6BH","either","3","279","","","","","","","0","0","1","","0.8380789219","0.6","0.2","0.4","0.8","0.3839660868","0.4578896037","0.2967729676","0.8380789219","","","","","","","","","","","","76","L","3","","","5","main_expt",""
"","bandit","85","436997","0.0-46.0-0.0","99047512","wem/bandit_either_3","A3IBAQLCOPU6BH","either","3","404","","","","","","","0","0","1","0.8233568153","","0.6","0.2","0.4","0.8","","","","","0.3833463511","0.4825789634","0.3211998527","0.8233568153","","","","","","","","76","L","3","","","6","main_expt",""
"","bandit","86","439012","0.0-47.0-0.0","99047512","wem/bandit_either_3","A3IBAQLCOPU6BH","either","3","501","","","","","","","1","0","0","0.8672840292","","0.6","0.2","0.4","0.8","","","","","0.3173395401","0.4013658759","0.4190649117","0.8672840292","","","","","","","","76","L","3","","","7","main_expt",""
"","bandit","87","440975","0.0-48.0-0.0","99047512","wem/bandit_either_3","A3IBAQLCOPU6BH","either","3","449","","","","","","","0","1","0","","0.7921451217","0.6","0.2","0.4","0.8","0.3265190876","0.3721769634","0.5253498774","0.7921451217","","","","","","","","","","","","76","L","3","","","8","main_expt",""
"","bandit","88","442901","0.0-49.0-0.0","99047512","wem/bandit_either_3","A3IBAQLCOPU6BH","either","3","412","","","","","","","0","1","0","","0.7826569337","0.6","0.2","0.4","0.8","0.4229840653","0.3934089605","0.5552176016","0.7826569337","","","","","","","","","","","","76","L","3","","","9","main_expt",""
"","bandit","89","444734","0.0-50.0-0.0","99047512","wem/bandit_either_3","A3IBAQLCOPU6BH","either","3","316","","","","","","","0","1","0","","0.7150392401","0.6","0.2","0.4","0.8","0.5107168356","0.3360942297","0.654745146","0.7150392401","","","","","","","","","","","","76","L","3","","","10","main_expt",""
"","bandit","90","446524","0.0-51.0-0.0","99047512","wem/bandit_either_3","A3IBAQLCOPU6BH","either","3","276","","","","","","","1","0","0","0.6906605055","","0.6","0.2","0.4","0.8","","","","","0.4383577931","0.4969537907","0.6089063278","0.6906605055","","","","","","","","76","L","3","","","11","main_expt",""
"","bandit","91","448470","0.0-52.0-0.0","99047512","wem/bandit_either_3","A3IBAQLCOPU6BH","either","3","431","","","","","","","0","0","1","0.6725575113","","0.6","0.2","0.4","0.8","","","","","0.5487148549","0.4760264401","0.559155858","0.6725575113","","","","","","","","76","L","3","","","12","main_expt",""
"","bandit","92","450197","0.0-53.0-0.0","99047512","wem/bandit_either_3","A3IBAQLCOPU6BH","either","3","213","","","","","","","0","0","1","0.7404599176","","0.6","0.2","0.4","0.8","","","","","0.7407599438","0.4008761295","0.6464491645","0.7404599176","","","","","","","","76","L","3","","","13","main_expt",""
"","bandit","93","451930","0.0-54.0-0.0","99047512","wem/bandit_either_3","A3IBAQLCOPU6BH","either","3","207","","","","","","","0","0","1","","0.6751607758","0.6","0.2","0.4","0.8","0.8307131687","0.358486362","0.6936958995","0.6751607758","","","","","","","","","","","","76","L","3","","","14","main_expt",""
"","bandit","94","453573","0.0-55.0-0.0","99047512","wem/bandit_either_3","A3IBAQLCOPU6BH","either","3","133","","","","","","","1","0","0","0.6115440925","","0.6","0.2","0.4","0.8","","","","","0.8114394421","0.395258373","0.731471075","0.6115440925","","","","","","","","76","L","3","","","15","main_expt",""
"","bandit","95","455237","0.0-56.0-0.0","99047512","wem/bandit_either_3","A3IBAQLCOPU6BH","either","3","148","","","","","","","0","0","1","","0.7019001419","0.6","0.2","0.4","0.8","0.8242397169","0.4197334966","0.6487541525","0.7019001419","","","","","","","","","","","","76","L","3","","","16","main_expt",""
"","bandit","96","457152","0.0-57.0-0.0","99047512","wem/bandit_either_3","A3IBAQLCOPU6BH","either","3","397","","","","","","","0","1","0","","0.7654634758","0.6","0.2","0.4","0.8","0.8317633157","0.2160816064","0.7654634758","0.7017998","","","","","","","","","","","","75","K","2","","","17","main_expt",""
"","bandit","97","459149","0.0-58.0-0.0","99047512","wem/bandit_either_3","A3IBAQLCOPU6BH","either","3","485","","","","","","","0","0","1","","0.7160830043","0.6","0.2","0.4","0.8","0.8158638682","0.2058632209","0.7160830043","0.7672473748","","","","","","","","","","","","75","K","2","","","18","main_expt",""
"","bandit","98","461560","0.0-59.0-0.0","99047512","wem/bandit_either_3","A3IBAQLCOPU6BH","either","3","898","","","","","","","0","0","1","","0.6856656502","0.6","0.2","0.4","0.8","0.8291878069","0.2314559036","0.6856656502","0.7950219121","","","","","","","","","","","","75","K","2","","","19","main_expt",""
"","bandit","99","463525","0.0-60.0-0.0","99047512","wem/bandit_either_3","A3IBAQLCOPU6BH","either","3","441","","","","","","","0","1","0","","0.1762066147","0.6","0.2","0.4","0.8","0.8665153398","0.1762066147","0.6829400921","0.8460513568","","","","","","","","","","","","74","J","1","","","20","main_expt",""
"","bandit","100","465384","0.0-61.0-0.0","99047512","wem/bandit_either_3","A3IBAQLCOPU6BH","either","3","335","","","","","","","0","0","1","","0.150477598","0.6","0.2","0.4","0.8","0.8181415858","0.150477598","0.6849203215","0.8571228725","","","","","","","","","","","","74","J","1","","","21","main_expt",""
"","bandit","101","467353","0.0-62.0-0.0","99047512","wem/bandit_either_3","A3IBAQLCOPU6BH","either","3","456","","","","","","","0","0","1","","0.1957635407","0.6","0.2","0.4","0.8","0.7731960963","0.1957635407","0.6832197831","0.8498483749","","","","","","","","","","","","74","J","1","","","22","main_expt",""
"","bandit","102","469400","0.0-63.0-0.0","99047512","wem/bandit_either_3","A3IBAQLCOPU6BH","either","3","531","","","","","","","1","0","0","0.8004626553","","0.6","0.2","0.4","0.8","","","","","0.8004626553","0.2193187944","0.6103957523","0.887495535","","","","","","","","72","H","0","img/none_selected.jpg","","23","main_expt",""
"","bandit","103","471241","0.0-64.0-0.0","99047512","wem/bandit_either_3","A3IBAQLCOPU6BH","either","3","322","","","","","","","0","1","0","","0.7941911222","0.6","0.2","0.4","0.8","0.7941911222","0.1836328706","0.5485819736","0.918231735","","","","","","","","","","","","72","H","0","img/none_selected.jpg","","24","main_expt",""
"","bandit","104","473261","0.0-65.0-0.0","99047512","wem/bandit_either_3","A3IBAQLCOPU6BH","either","3","506","","","","","","","0","0","1","0.7100633829","","0.6","0.2","0.4","0.8","","","","","0.7100633829","0.1410441375","0.5852935809","0.9111146318","","","","","","","","72","H","0","img/none_selected.jpg","","25","main_expt",""
"","bandit","105","475119","0.0-66.0-0.0","99047512","wem/bandit_either_3","A3IBAQLCOPU6BH","either","3","315","","","","","","","0","1","0","","0.6872129375","0.6","0.2","0.4","0.8","0.6872129375","0.1082593399","0.6097892937","0.9190640316","","","","","","","","","","","","72","H","0","img/none_selected.jpg","","26","main_expt",""
"","bandit","106","476781","0.0-67.0-0.0","99047512","wem/bandit_either_3","A3IBAQLCOPU6BH","either","3","148","","","","","","","1","0","0","0.6798864795","","0.6","0.2","0.4","0.8","","","","","0.6798864795","0.1042047793","0.6653335402","0.9372614837","","","","","","","","72","H","0","img/none_selected.jpg","","27","main_expt",""
"","bandit","107","478694","0.0-68.0-0.0","99047512","wem/bandit_either_3","A3IBAQLCOPU6BH","either","3","384","","","","","","","0","1","0","","0.6812343762","0.6","0.2","0.4","0.8","0.6812343762","0.1153509117","0.6850825106","0.9269484959","","","","","","","","","","","","72","H","0","img/none_selected.jpg","","28","main_expt",""
"","bandit","108","480575","0.0-69.0-0.0","99047512","wem/bandit_either_3","A3IBAQLCOPU6BH","either","3","368","","","","","","","1","0","0","0.5305157647","","0.6","0.2","0.4","0.8","","","","","0.5305157647","0.1601566248","0.7309016742","0.9376772981","","","","","","","","72","H","0","img/none_selected.jpg","","29","main_expt",""
"","bandit","109","482247","0.0-70.0-0.0","99047512","wem/bandit_either_3","A3IBAQLCOPU6BH","either","3","150","","","","","","","0","0","1","0.4713174284","","0.6","0.2","0.4","0.8","","","","","0.4713174284","0.09548927903","0.8141980113","0.8795505253","","","","","","","","72","H","0","img/none_selected.jpg","","30","main_expt",""
"","bandit","110","484148","0.0-71.0-0.0","99047512","wem/bandit_either_3","A3IBAQLCOPU6BH","either","3","392","","","","","","","0","1","0","","0.2938490869","0.6","0.2","0.4","0.8","0.2938490869","0.09272353297","0.8926711601","0.8605863748","","","","","","","","","","","","72","H","0","img/none_selected.jpg","","31","main_expt",""
"","bandit","111","486326","0.0-72.0-0.0","99047512","wem/bandit_either_3","A3IBAQLCOPU6BH","either","3","661","","","","","","","1","0","0","0.3005160425","","0.6","0.2","0.4","0.8","","","","","0.3005160425","0.09547929832","0.8397563013","0.757600507","","","","","","","","72","H","0","img/none_selected.jpg","","32","main_expt",""
"","bandit","112","488196","0.0-73.0-0.0","99047512","wem/bandit_either_3","A3IBAQLCOPU6BH","either","3","356","","","","","","","0","0","1","0.3661211491","","0.6","0.2","0.4","0.8","","","","","0.3661211491","0.08683876107","0.8251988787","0.7257103923","","","","","","","","72","H","0","img/none_selected.jpg","","33","main_expt",""
"","bandit","113","490108","0.0-74.0-0.0","99047512","wem/bandit_either_3","A3IBAQLCOPU6BH","either","3","396","","","","","","","0","0","1","","0.4614725573","0.6","0.2","0.4","0.8","0.4614725573","0.08117088791","0.7303528712","0.5786815464","","","","","","","","","","","","72","H","0","img/none_selected.jpg","","34","main_expt",""
"","bandit","114","492023","0.0-75.0-0.0","99047512","wem/bandit_either_3","A3IBAQLCOPU6BH","either","3","392","","","","","","","0","1","0","","0.4597324626","0.6","0.2","0.4","0.8","0.4597324626","0.09593582107","0.8093673003","0.4812266686","","","","","","","","","","","","72","H","0","img/none_selected.jpg","","35","main_expt",""
"","bandit","115","493851","0.0-76.0-0.0","99047512","wem/bandit_either_3","A3IBAQLCOPU6BH","either","3","316","","","","","","","0","0","1","0.4294742096","","0.6","0.2","0.4","0.8","","","","","0.4294742096","0.1392988708","0.79718131","0.4459447539","","","","","","","","72","H","0","img/none_selected.jpg","","36","main_expt",""
"","bandit","116","495823","0.0-77.0-0.0","99047512","wem/bandit_either_3","A3IBAQLCOPU6BH","either","3","451","","","","","","","0","0","1","","0.5301274199","0.6","0.2","0.4","0.8","0.5301274199","0.07673209605","0.8157762275","0.5737218407","","","","","","","","","","","","72","H","0","img/none_selected.jpg","","37","main_expt",""
"","bandit","117","497790","0.0-78.0-0.0","99047512","wem/bandit_either_3","A3IBAQLCOPU6BH","either","3","452","","","","","","","0","0","1","0.6008421093","","0.6","0.2","0.4","0.8","","","","","0.5746889943","0.1078843958","0.7941499978","0.6008421093","","","","","","","","76","L","3","","","38","main_expt",""
"","bandit","118","499769","0.0-79.0-0.0","99047512","wem/bandit_either_3","A3IBAQLCOPU6BH","either","3","454","","","","","","","0","0","1","0.6076920036","","0.6","0.2","0.4","0.8","","","","","0.6621100331","0.09731722171","0.7352357368","0.6076920036","","","","","","","","76","L","3","","","39","main_expt",""
"","bandit","119","501987","0.0-80.0-0.0","99047512","wem/bandit_either_3","A3IBAQLCOPU6BH","either","3","701","","","","","","","0","0","1","","0.7920886563","0.6","0.2","0.4","0.8","0.6794361822","0.2123509389","0.7920886563","0.6616622706","","","","","","","","","","","","75","K","2","","","40","main_expt",""
"","bandit","120","503894","0.0-81.0-0.0","99047512","wem/bandit_either_3","A3IBAQLCOPU6BH","either","3","391","","","","","","","0","0","1","","0.8780543775","0.6","0.2","0.4","0.8","0.7140523024","0.1265365425","0.8780543775","0.6945341382","","","","","","","","","","","","75","K","2","","","41","main_expt",""
"","bandit","121","505460","0.0-82.0-0.0","99047512","wem/bandit_either_3","A3IBAQLCOPU6BH","either","3","54","","","","","","","0","0","1","","0.166138795","0.6","0.2","0.4","0.8","0.6669732994","0.166138795","0.9167256642","0.6833149102","","","","","","","","","","","","74","J","1","","","42","main_expt",""
"","bandit","122","507381","0.0-83.0-0.0","99047512","wem/bandit_either_3","A3IBAQLCOPU6BH","either","3","397","","","","","","","0","1","0","","0.1782339186","0.6","0.2","0.4","0.8","0.5435093165","0.1782339186","0.9407985187","0.7094953576","","","","","","","","","","","","74","J","1","","","43","main_expt",""
"","bandit","123","509320","0.0-84.0-0.0","99047512","wem/bandit_either_3","A3IBAQLCOPU6BH","either","3","412","","","","","","","0","1","0","","0.1342945815","0.6","0.2","0.4","0.8","0.6002661395","0.1342945815","0.9000978766","0.7519468023","","","","","","","","","","","","74","J","1","","","44","main_expt",""
"","bandit","124","511197","0.0-85.0-0.0","99047512","wem/bandit_either_3","A3IBAQLCOPU6BH","either","3","366","","","","","","","0","0","1","0.09086288848","","0.6","0.2","0.4","0.8","","","","","0.5948203474","0.09086288848","0.9190036262","0.7673203249","","","","","","","","74","J","1","","","45","main_expt",""
"","bandit","125","513470","0.0-86.0-0.0","99047512","wem/bandit_either_3","A3IBAQLCOPU6BH","either","3","718","","","","","","","0","0","1","0.06420934006","","0.6","0.2","0.4","0.8","","","","","0.6230250108","0.06420934006","0.8865788656","0.722836051","","","","","","","","74","J","1","","","46","main_expt",""
"","bandit","126","515133","0.0-87.0-0.0","99047512","wem/bandit_either_3","A3IBAQLCOPU6BH","either","3","152","","","","","","","0","0","1","","0.02332738683","0.6","0.2","0.4","0.8","0.7239235909","0.02332738683","0.8207935484","0.7392487755","","","","","","","","","","","","74","J","1","","","47","main_expt",""
"","bandit","127","517286","0.0-88.0-0.0","99047512","wem/bandit_either_3","A3IBAQLCOPU6BH","either","3","629","","","","","","","0","1","0","","0.8170742187","0.6","0.2","0.4","0.8","0.7715310514","0.03517565614","0.8170742187","0.7551111279","","","","","","","","","","","","75","K","2","","","48","main_expt",""
"","bandit","128","519244","0.0-89.0-0.0","99047512","wem/bandit_either_3","A3IBAQLCOPU6BH","either","3","444","","","","","","","1","0","0","0.7874830355","","0.6","0.2","0.4","0.8","","","","","0.822179592","0.04466115719","0.7874830355","0.6917772817","","","","","","","","75","K","2","","","49","main_expt",""
"","bandit","129","521174","0.0-90.0-0.0","99047512","wem/bandit_either_3","A3IBAQLCOPU6BH","either","3","412","","","","","","","0","1","0","","0.8279472521","0.6","0.2","0.4","0.8","0.8108951243","0.05053383529","0.8279472521","0.6689959301","","","","","","","","","","","","75","K","2","","","50","main_expt",""
"","bandit","130","523090","0.0-91.0-0.0","99047512","wem/bandit_either_3","A3IBAQLCOPU6BH","either","3","396","","","","","","","0","0","1","","0.8426817256","0.6","0.2","0.4","0.8","0.7649170446","0.04681033125","0.8426817256","0.6020608281","","","","","","","","","","","","75","K","2","","","51","main_expt",""
"","bandit","131","525140","0.0-92.0-0.0","99047512","wem/bandit_either_3","A3IBAQLCOPU6BH","either","3","539","","","","","","","0","0","1","0.8377647656","","0.6","0.2","0.4","0.8","","","","","0.8169848275","0.09308222201","0.8377647656","0.6583182673","","","","","","","","75","K","2","","","52","main_expt",""
"","bandit","132","527161","0.0-93.0-0.0","99047512","wem/bandit_either_3","A3IBAQLCOPU6BH","either","3","473","","","","","","","0","0","1","0.5419436754","","0.6","0.2","0.4","0.8","","","","","0.8843577791","0.1397702629","0.8241398149","0.5419436754","","","","","","","","76","L","3","","","53","main_expt",""
"","bandit","133","529185","0.0-94.0-0.0","99047512","wem/bandit_either_3","A3IBAQLCOPU6BH","either","3","504","","","","","","","1","0","0","0.5717614462","","0.6","0.2","0.4","0.8","","","","","0.8854515068","0.110287685","0.7289352116","0.5717614462","","","","","","","","76","L","3","","","54","main_expt",""
"","bandit","134","531484","0.0-95.0-0.0","99047512","wem/bandit_either_3","A3IBAQLCOPU6BH","either","3","786","","","","","","","1","0","0","0.5497935615","","0.6","0.2","0.4","0.8","","","","","0.8884574585","0.1843384007","0.5895019519","0.5497935615","","","","","","","","76","L","3","","","55","main_expt",""
"","bandit","135","533404","0.0-96.0-0.0","99047512","wem/bandit_either_3","A3IBAQLCOPU6BH","either","3","402","","","","","","","0","0","1","0.4902645195","","0.6","0.2","0.4","0.8","","","","","0.8840911236","0.2056752237","0.4622464331","0.4902645195","","","","","","","","76","L","3","","","56","main_expt",""
"","bandit","136","535291","0.0-97.0-0.0","99047512","wem/bandit_either_3","A3IBAQLCOPU6BH","either","3","373","","","","","","","1","0","0","0.5258365243","","0.6","0.2","0.4","0.8","","","","","0.864283103","0.3410726922","0.490024734","0.5258365243","","","","","","","","76","L","3","","","57","main_expt",""
"","bandit","137","537109","0.0-98.0-0.0","99047512","wem/bandit_either_3","A3IBAQLCOPU6BH","either","3","305","","","","","","","1","0","0","0.6097664349","","0.6","0.2","0.4","0.8","","","","","0.7377821737","0.3873695161","0.6182628796","0.6097664349","","","","","","","","76","L","3","","","58","main_expt",""
"","bandit","138","539054","0.0-99.0-0.0","99047512","wem/bandit_either_3","A3IBAQLCOPU6BH","either","3","419","","","","","","","0","0","1","0.6016711108","","0.6","0.2","0.4","0.8","","","","","0.7469541206","0.3281321534","0.6976829826","0.6016711108","","","","","","","","76","L","3","","","59","main_expt",""
"","bandit","139","541023","0.0-100.0-0.0","99047512","wem/bandit_either_3","A3IBAQLCOPU6BH","either","3","453","","","","","","","0","0","1","0.5544917648","","0.6","0.2","0.4","0.8","","","","","0.8019510571","0.2380439254","0.675433977","0.5544917648","","","","","","","","76","L","3","","","60","main_expt",""
"","bandit","140","544557","0.0-101.0-0.0","99047512","wem/bandit_either_3","A3IBAQLCOPU6BH","either","3","2017","","","","","","","1","0","0","0.8943887388","","0.6","0.2","0.4","0.8","","","","","0.8943887388","0.2228222105","0.7206550838","0.6842720067","","","","","","","","72","H","0","img/none_selected.jpg","","61","main_expt",""
"","bandit","141","546469","0.0-102.0-0.0","99047512","wem/bandit_either_3","A3IBAQLCOPU6BH","either","3","395","","","","","","","0","1","0","","0.8942973556","0.6","0.2","0.4","0.8","0.8942973556","0.2489253665","0.7184677658","0.6824345281","","","","","","","","","","","","72","H","0","img/none_selected.jpg","","62","main_expt",""
"","bandit","142","548342","0.0-103.0-0.0","99047512","wem/bandit_either_3","A3IBAQLCOPU6BH","either","3","361","","","","","","","1","0","0","0.8829609874","","0.6","0.2","0.4","0.8","","","","","0.8829609874","0.2298237489","0.6785259816","0.7321168219","","","","","","","","72","H","0","img/none_selected.jpg","","63","main_expt",""
"","bandit","143","550255","0.0-104.0-0.0","99047512","wem/bandit_either_3","A3IBAQLCOPU6BH","either","3","394","","","","","","","1","0","0","0.8175344892","","0.6","0.2","0.4","0.8","","","","","0.8175344892","0.1849055857","0.6349383059","0.8123013145","","","","","","","","72","H","0","img/none_selected.jpg","","64","main_expt",""
"","bandit","144","552152","0.0-105.0-0.0","99047512","wem/bandit_either_3","A3IBAQLCOPU6BH","either","3","373","","","","","","","0","0","1","0.7812905168","","0.6","0.2","0.4","0.8","","","","","0.7812905168","0.2285715909","0.629769122","0.8236121316","","","","","","","","72","H","0","img/none_selected.jpg","","65","main_expt",""
"","bandit","145","554054","0.0-106.0-0.0","99047512","wem/bandit_either_3","A3IBAQLCOPU6BH","either","3","387","","","","","","","0","0","1","0.7848445355","","0.6","0.2","0.4","0.8","","","","","0.7848445355","0.2477643906","0.7158950816","0.8270077233","","","","","","","","72","H","0","img/none_selected.jpg","","66","main_expt",""
"","bandit","146","556329","0.0-107.0-0.0","99047512","wem/bandit_either_3","A3IBAQLCOPU6BH","either","3","726","","","","","","","0","0","1","0.763143195","","0.6","0.2","0.4","0.8","","","","","0.763143195","0.1801078726","0.6309271871","0.7601471472","","","","","","","","72","H","0","img/none_selected.jpg","","67","main_expt",""
"","bandit","147","558367","0.0-108.0-0.0","99047512","wem/bandit_either_3","A3IBAQLCOPU6BH","either","3","512","","","","","","","0","0","1","","0.08479184886","0.6","0.2","0.4","0.8","0.7966751536","0.08479184886","0.617221228","0.7567750057","","","","","","","","","","","","74","J","1","","","68","main_expt",""
"","bandit","148","560301","0.0-109.0-0.0","99047512","wem/bandit_either_3","A3IBAQLCOPU6BH","either","3","422","","","","","","","0","0","1","","0.06982522498","0.6","0.2","0.4","0.8","0.8534335227","0.06982522498","0.6235929763","0.6871277649","","","","","","","","","","","","74","J","1","","","69","main_expt",""
"","bandit","149","561880","0.0-110.0-0.0","99047512","wem/bandit_either_3","A3IBAQLCOPU6BH","either","3","59","","","","","","","1","0","0","0.5543620559","","0.6","0.2","0.4","0.8","","","","","0.8915498471","0.05029268469","0.5543620559","0.773099018","","","","","","","","75","K","2","","","70","main_expt",""
"","bandit","150","563750","0.0-111.0-0.0","99047512","wem/bandit_either_3","A3IBAQLCOPU6BH","either","3","356","","","","","","","0","0","1","","0.5333999135","0.6","0.2","0.4","0.8","0.8736989015","0.06413839938","0.5333999135","0.7412476729","","","","","","","","","","","","75","K","2","","","71","main_expt",""
"","bandit","151","565946","0.0-112.0-0.0","99047512","wem/bandit_either_3","A3IBAQLCOPU6BH","either","3","657","","","","","","","0","0","1","0.5905126671","","0.6","0.2","0.4","0.8","","","","","0.8837551658","0.05155778705","0.5905126671","0.8080704968","","","","","","","","75","K","2","","","72","main_expt",""
"","bandit","152","568732","0.0-113.0-0.0","99047512","wem/bandit_either_3","A3IBAQLCOPU6BH","either","3","1276","","","","","","","1","0","0","0.8270016227","","0.6","0.2","0.4","0.8","","","","","0.8495494246","0.0232747386","0.6925119087","0.8270016227","","","","","","","","76","L","3","","","73","main_expt",""
"","bandit","153","570590","0.0-114.0-0.0","99047512","wem/bandit_either_3","A3IBAQLCOPU6BH","either","3","341","","","","","","","0","1","0","","0.7872017979","0.6","0.2","0.4","0.8","0.9127472651","0.04751547773","0.7134745341","0.7872017979","","","","","","","","","","","","76","L","3","","","74","main_expt",""
"","bandit","154","572501","0.0-115.0-0.0","99047512","wem/bandit_either_3","A3IBAQLCOPU6BH","either","3","393","","","","","","","1","0","0","0.6167225576","","0.6","0.2","0.4","0.8","","","","","0.9199060817","0.05282531612","0.8065440948","0.6167225576","","","","","","","","76","L","3","","","75","main_expt",""
"","bandit","155","574451","0.0-116.0-0.0","99047512","wem/bandit_either_3","A3IBAQLCOPU6BH","either","3","428","","","","","","","1","0","0","0.637182095","","0.6","0.2","0.4","0.8","","","","","0.8691294168","0.08738729654","0.7849172319","0.637182095","","","","","","","","76","L","3","","","76","main_expt",""
"","bandit","156","576066","0.0-117.0-0.0","99047512","wem/bandit_either_3","A3IBAQLCOPU6BH","either","3","95","","","","","","","1","0","0","0.7169911294","","0.6","0.2","0.4","0.8","","","","","0.9111329321","0.08851312664","0.7818962729","0.7169911294","","","","","","","","76","L","3","","","77","main_expt",""
"","bandit","157","577990","0.0-118.0-0.0","99047512","wem/bandit_either_3","A3IBAQLCOPU6BH","either","3","410","","","","","","","1","0","0","0.7446448061","","0.6","0.2","0.4","0.8","","","","","0.9286966754","0.145228539","0.7002933386","0.7446448061","","","","","","","","76","L","3","","","78","main_expt",""
"","bandit","158","579846","0.0-119.0-0.0","99047512","wem/bandit_either_3","A3IBAQLCOPU6BH","either","3","339","","","","","","","0","1","0","","0.8152221547","0.6","0.2","0.4","0.8","0.9616021792","0.1669860915","0.6510109529","0.8152221547","","","","","","","","","","","","76","L","3","","","79","main_expt",""
"","bandit","159","581749","0.0-120.0-0.0","99047512","wem/bandit_either_3","A3IBAQLCOPU6BH","either","3","385","","","","","","","0","1","0","","0.810351938","0.6","0.2","0.4","0.8","0.950571795","0.1922913003","0.6765614865","0.810351938","","","","","","","","","","","","76","L","3","","","80","main_expt",""
"","bandit","160","583633","0.0-121.0-0.0","99047512","wem/bandit_either_3","A3IBAQLCOPU6BH","either","3","360","","","","","","","1","0","0","0.8895110989","","0.6","0.2","0.4","0.8","","","","","0.9331160128","0.2407870914","0.5908869344","0.8895110989","","","","","","","","76","L","3","","","81","main_expt",""
"","bandit","161","585533","0.0-122.0-0.0","99047512","wem/bandit_either_3","A3IBAQLCOPU6BH","either","3","382","","","","","","","1","0","0","0.9046816681","","0.6","0.2","0.4","0.8","","","","","0.9465986336","0.3077898034","0.5267531711","0.9046816681","","","","","","","","76","L","3","","","82","main_expt",""
"","bandit","162","587446","0.0-123.0-0.0","99047512","wem/bandit_either_3","A3IBAQLCOPU6BH","either","3","395","","","","","","","1","0","0","0.8465278631","","0.6","0.2","0.4","0.8","","","","","0.9371159138","0.2337579628","0.6168373964","0.8465278631","","","","","","","","76","L","3","","","83","main_expt",""
"","bandit","163","589349","0.0-124.0-0.0","99047512","wem/bandit_either_3","A3IBAQLCOPU6BH","either","3","388","","","","","","","1","0","0","0.7584930438","","0.6","0.2","0.4","0.8","","","","","0.8998840018","0.2781329454","0.5733990252","0.7584930438","","","","","","","","76","L","3","","","84","main_expt",""
"","bandit","164","591265","0.0-125.0-0.0","99047512","wem/bandit_either_3","A3IBAQLCOPU6BH","either","3","393","","","","","","","0","1","0","","0.7727946294","0.6","0.2","0.4","0.8","0.9102188985","0.3013149798","0.4719695616","0.7727946294","","","","","","","","","","","","76","L","3","","","85","main_expt",""
"","bandit","165","593261","0.0-126.0-0.0","99047512","wem/bandit_either_3","A3IBAQLCOPU6BH","either","3","481","","","","","","","1","0","0","0.8216594778","","0.6","0.2","0.4","0.8","","","","","0.9000055418","0.3231836659","0.6941651786","0.8216594778","","","","","","","","76","L","3","","","86","main_expt",""
"","bandit","166","595197","0.0-127.0-0.0","99047512","wem/bandit_either_3","A3IBAQLCOPU6BH","either","3","423","","","","","","","1","0","0","0.7833884788","","0.6","0.2","0.4","0.8","","","","","0.8563468124","0.3986379136","0.5408952125","0.7833884788","","","","","","","","76","L","3","","","87","main_expt",""
"","bandit","167","597144","0.0-128.0-0.0","99047512","wem/bandit_either_3","A3IBAQLCOPU6BH","either","3","429","","","","","","","0","1","0","","0.7804426693","0.6","0.2","0.4","0.8","0.7349543302","0.4230151841","0.5438891422","0.7804426693","","","","","","","","","","","","76","L","3","","","88","main_expt",""
"","bandit","168","598839","0.0-129.0-0.0","99047512","wem/bandit_either_3","A3IBAQLCOPU6BH","either","3","166","","","","","","","1","0","0","0.7930928848","","0.6","0.2","0.4","0.8","","","","","0.7907967515","0.3761858397","0.4294971294","0.7930928848","","","","","","","","76","L","3","","","89","main_expt",""
"","bandit","169","600758","0.0-130.0-0.0","99047512","wem/bandit_either_3","A3IBAQLCOPU6BH","either","3","396","","","","","","","0","1","0","","0.7683039237","0.6","0.2","0.4","0.8","0.7883246469","0.4799086841","0.4928337868","0.7683039237","","","","","","","","","","","","76","L","3","","","90","main_expt",""
"","bandit","170","602708","0.0-131.0-0.0","99047512","wem/bandit_either_3","A3IBAQLCOPU6BH","either","3","431","","","","","","","1","0","0","0.8072091422","","0.6","0.2","0.4","0.8","","","","","0.8389096604","0.4558425901","0.5655090935","0.8072091422","","","","","","","","76","L","3","","","91","main_expt",""
"","bandit","171","604641","0.0-132.0-0.0","99047512","wem/bandit_either_3","A3IBAQLCOPU6BH","either","3","410","","","","","","","1","0","0","0.7791444337","","0.6","0.2","0.4","0.8","","","","","0.8064187158","0.3781515597","0.6154818033","0.7791444337","","","","","","","","76","L","3","","","92","main_expt",""
"","bandit","172","606620","0.0-133.0-0.0","99047512","wem/bandit_either_3","A3IBAQLCOPU6BH","either","3","463","","","","","","","1","0","0","0.8498372391","","0.6","0.2","0.4","0.8","","","","","0.7542368763","0.2858753042","0.7381217307","0.8498372391","","","","","","","","76","L","3","","","93","main_expt",""
"","bandit","173","608451","0.0-134.0-0.0","99047512","wem/bandit_either_3","A3IBAQLCOPU6BH","either","3","309","","","","","","","0","0","1","0.8440610374","","0.6","0.2","0.4","0.8","","","","","0.6932487021","0.3914428564","0.7776388333","0.8440610374","","","","","","","","76","L","3","","","94","main_expt",""
"","bandit","174","610288","0.0-135.0-0.0","99047512","wem/bandit_either_3","A3IBAQLCOPU6BH","either","3","322","","","","","","","1","0","0","0.8092418145","","0.6","0.2","0.4","0.8","","","","","0.6706070003","0.3800018616","0.8299152283","0.8092418145","","","","","","","","76","L","3","","","95","main_expt",""
"","bandit","175","612264","0.0-136.0-0.0","99047512","wem/bandit_either_3","A3IBAQLCOPU6BH","either","3","401","","","","","","","1","0","0","0.8655172998","","0.6","0.2","0.4","0.8","","","","","0.6670251336","0.3078584031","0.7697811485","0.8655172998","","","","","","","","76","L","3","","","96","main_expt",""
"","bandit","176","614001","0.0-137.0-0.0","99047512","wem/bandit_either_3","A3IBAQLCOPU6BH","either","3","209","","","","","","","1","0","0","0.8735151232","","0.6","0.2","0.4","0.8","","","","","0.7023758817","0.218486712","0.7487724405","0.8735151232","","","","","","","","76","L","3","","","97","main_expt",""
"","bandit","177","615900","0.0-138.0-0.0","99047512","wem/bandit_either_3","A3IBAQLCOPU6BH","either","3","381","","","","","","","1","0","0","0.84409386","","0.6","0.2","0.4","0.8","","","","","0.7036518389","0.2037628256","0.7450583294","0.84409386","","","","","","","","76","L","3","","","98","main_expt",""
"","bandit","178","617924","0.0-139.0-0.0","99047512","wem/bandit_either_3","A3IBAQLCOPU6BH","either","3","509","","","","","","","0","0","1","0.8089648913","","0.6","0.2","0.4","0.8","","","","","0.8401346726","0.2400196326","0.7227120129","0.8089648913","","","","","","","","76","L","3","","","99","main_expt",""
"","bandit","179","619852","0.0-140.0-0.0","99047512","wem/bandit_either_3","A3IBAQLCOPU6BH","either","3","410","","","","","","","0","0","1","0.7259557377","","0.6","0.2","0.4","0.8","","","","","0.8640782416","0.3298222115","0.5872141049","0.7259557377","","","","","","","","76","L","3","","","100","main_expt",""
"","bandit","180","621688","0.0-141.0-0.0","99047512","wem/bandit_either_3","A3IBAQLCOPU6BH","either","3","323","","","","","","","0","1","0","","0.6332869741","0.6","0.2","0.4","0.8","0.8232172207","0.3108047587","0.6432213136","0.6332869741","","","","","","","","","","","","76","L","3","","","101","main_expt",""
"","bandit","181","623751","0.0-142.0-0.0","99047512","wem/bandit_either_3","A3IBAQLCOPU6BH","either","3","527","","","","","","","1","0","0","0.659443461","","0.6","0.2","0.4","0.8","","","","","0.8451901448","0.2869381514","0.6009476408","0.659443461","","","","","","","","76","L","3","","","102","main_expt",""
"","bandit","182","625643","0.0-143.0-0.0","99047512","wem/bandit_either_3","A3IBAQLCOPU6BH","either","3","380","","","","","","","1","0","0","0.5959971703","","0.6","0.2","0.4","0.8","","","","","0.8792283932","0.246485708","0.6120105745","0.5959971703","","","","","","","","76","L","3","","","103","main_expt",""
"","bandit","183","628453","0.0-144.0-0.0","99047512","wem/bandit_either_3","A3IBAQLCOPU6BH","either","3","1292","","","","","","","0","1","0","","0.5643630141","0.6","0.2","0.4","0.8","0.8887181638","0.2175667678","0.6821098495","0.5643630141","","","","","","","","","","","","76","L","3","","","104","main_expt",""
"","bandit","184","630380","0.0-145.0-0.0","99047512","wem/bandit_either_3","A3IBAQLCOPU6BH","either","3","415","","","","","","","0","0","1","0.5489079514","","0.6","0.2","0.4","0.8","","","","","0.8013578166","0.2645808036","0.7228510016","0.5489079514","","","","","","","","76","L","3","","","105","main_expt",""
"","bandit","185","632358","0.0-146.0-0.0","99047512","wem/bandit_either_3","A3IBAQLCOPU6BH","either","3","462","","","","","","","0","0","1","0.4336033326","","0.6","0.2","0.4","0.8","","","","","0.7307006529","0.2652424516","0.6639212405","0.4336033326","","","","","","","","76","L","3","","","106","main_expt",""
"","bandit","186","635460","0.0-147.0-0.0","99047512","wem/bandit_either_3","A3IBAQLCOPU6BH","either","3","1591","","","","","","","1","0","0","0.4779201531","","0.6","0.2","0.4","0.8","","","","","0.7519500851","0.2481661544","0.6237034742","0.4779201531","","","","","","","","76","L","3","","","107","main_expt",""
"","bandit","187","637524","0.0-148.0-0.0","99047512","wem/bandit_either_3","A3IBAQLCOPU6BH","either","3","546","","","","","","","0","0","1","","0.5075294874","0.6","0.2","0.4","0.8","0.7457577851","0.2361720859","0.5847293191","0.5075294874","","","","","","","","","","","","76","L","3","","","108","main_expt",""
"","bandit","188","639465","0.0-149.0-0.0","99047512","wem/bandit_either_3","A3IBAQLCOPU6BH","either","3","417","","","","","","","0","0","1","0.522842385","","0.6","0.2","0.4","0.8","","","","","0.77583868","0.2799679389","0.6260859175","0.522842385","","","","","","","","76","L","3","","","109","main_expt",""
"","bandit","189","641340","0.0-150.0-0.0","99047512","wem/bandit_either_3","A3IBAQLCOPU6BH","either","3","356","","","","","","","0","0","1","0.419893696","","0.6","0.2","0.4","0.8","","","","","0.7520827962","0.3333098602","0.4788227383","0.419893696","","","","","","","","76","L","3","","","110","main_expt",""
"","bandit","190","642911","0.0-151.0-0.0","99047512","wem/bandit_either_3","A3IBAQLCOPU6BH","either","3","48","","","","","","","0","1","0","","0.6512809768","0.6","0.2","0.4","0.8","0.6512809768","0.3669732535","0.6019778282","0.431092028","","","","","","","","","","","","72","H","0","img/none_selected.jpg","","111","main_expt",""
"","bandit","191","644942","0.0-152.0-0.0","99047512","wem/bandit_either_3","A3IBAQLCOPU6BH","either","3","498","","","","","","","1","0","0","0.5891937939","","0.6","0.2","0.4","0.8","","","","","0.5891937939","0.389765336","0.546445977","0.3590071368","","","","","","","","72","H","0","img/none_selected.jpg","","112","main_expt",""
"","bandit","192","646910","0.0-153.0-0.0","99047512","wem/bandit_either_3","A3IBAQLCOPU6BH","either","3","433","","","","","","","1","0","0","0.6490525038","","0.6","0.2","0.4","0.8","","","","","0.6490525038","0.3191506652","0.6256092846","0.4498419114","","","","","","","","72","H","0","img/none_selected.jpg","","113","main_expt",""
"","bandit","193","648949","0.0-154.0-0.0","99047512","wem/bandit_either_3","A3IBAQLCOPU6BH","either","3","503","","","","","","","0","1","0","","0.6283680234","0.6","0.2","0.4","0.8","0.6283680234","0.2090321438","0.6577617598","0.4829831469","","","","","","","","","","","","72","H","0","img/none_selected.jpg","","114","main_expt",""
"","bandit","194","650844","0.0-155.0-0.0","99047512","wem/bandit_either_3","A3IBAQLCOPU6BH","either","3","382","","","","","","","0","1","0","","0.6064224059","0.6","0.2","0.4","0.8","0.6064224059","0.2094439124","0.7140476354","0.4846695964","","","","","","","","","","","","72","H","0","img/none_selected.jpg","","115","main_expt",""
"","bandit","195","652723","0.0-156.0-0.0","99047512","wem/bandit_either_3","A3IBAQLCOPU6BH","either","3","364","","","","","","","0","0","1","","0.545813367","0.6","0.2","0.4","0.8","0.545813367","0.2695181069","0.6589976567","0.5396909338","","","","","","","","","","","","72","H","0","img/none_selected.jpg","","116","main_expt",""
"","bandit","196","654823","0.0-157.0-0.0","99047512","wem/bandit_either_3","A3IBAQLCOPU6BH","either","3","588","","","","","","","1","0","0","0.5179373022","","0.6","0.2","0.4","0.8","","","","","0.5179373022","0.3402036285","0.6937703341","0.5378282835","","","","","","","","72","H","0","img/none_selected.jpg","","117","main_expt",""
"","bandit","197","656718","0.0-158.0-0.0","99047512","wem/bandit_either_3","A3IBAQLCOPU6BH","either","3","373","","","","","","","0","0","1","0.4014157923","","0.6","0.2","0.4","0.8","","","","","0.4014157923","0.3101634078","0.77114399","0.5729988564","","","","","","","","72","H","0","img/none_selected.jpg","","118","main_expt",""
"","bandit","198","658278","0.0-159.0-0.0","99047512","wem/bandit_either_3","A3IBAQLCOPU6BH","either","3","40","","","","","","","0","0","1","","0.4360264599","0.6","0.2","0.4","0.8","0.4360264599","0.3242193616","0.710000291","0.5630251564","","","","","","","","","","","","72","H","0","img/none_selected.jpg","","119","main_expt",""
"","bandit","199","661094","0.0-160.0-0.0","99047512","wem/bandit_either_3","A3IBAQLCOPU6BH","either","3","1297","","","","","","","0","0","1","","0.3297853269","0.6","0.2","0.4","0.8","0.3297853269","0.3334277272","0.6767982245","0.6482115929","","","","","","","","","","","","72","H","0","img/none_selected.jpg","","120","main_expt",""
"","bandit","200","663118","0.0-161.0-0.0","99047512","wem/bandit_either_3","A3IBAQLCOPU6BH","either","3","503","","","","","","","0","1","0","","0.3767442019","0.6","0.2","0.4","0.8","0.3767442019","0.4066521311","0.7360115258","0.5688505083","","","","","","","","","","","","72","H","0","img/none_selected.jpg","","121","main_expt",""
"","bandit","201","665047","0.0-162.0-0.0","99047512","wem/bandit_either_3","A3IBAQLCOPU6BH","either","3","407","","","","","","","0","0","1","0.3589515546","","0.6","0.2","0.4","0.8","","","","","0.3589515546","0.5193034213","0.7258716992","0.5349597204","","","","","","","","72","H","0","img/none_selected.jpg","","122","main_expt",""
"","bandit","202","668214","0.0-163.0-0.0","99047512","wem/bandit_either_3","A3IBAQLCOPU6BH","either","3","1646","","","","","","","1","0","0","0.3461890545","","0.6","0.2","0.4","0.8","","","","","0.3461890545","0.5594962391","0.7848203729","0.412887176","","","","","","","","72","H","0","img/none_selected.jpg","","123","main_expt",""
"","bandit","203","670167","0.0-164.0-0.0","99047512","wem/bandit_either_3","A3IBAQLCOPU6BH","either","3","432","","","","","","","0","0","1","0.2287340519","","0.6","0.2","0.4","0.8","","","","","0.2287340519","0.6876014299","0.7673004895","0.4137060999","","","","","","","","72","H","0","img/none_selected.jpg","","124","main_expt",""
"","bandit","204","672070","0.0-165.0-0.0","99047512","wem/bandit_either_3","A3IBAQLCOPU6BH","either","3","385","","","","","","","1","0","0","0.2900718705","","0.6","0.2","0.4","0.8","","","","","0.2900718705","0.7354493796","0.8020703208","0.3226696341","","","","","","","","72","H","0","img/none_selected.jpg","","125","main_expt",""
"","bandit","205","673971","0.0-166.0-0.0","99047512","wem/bandit_either_3","A3IBAQLCOPU6BH","either","3","376","","","","","","","0","0","1","","0.2880997441","0.6","0.2","0.4","0.8","0.2880997441","0.76840964","0.8196031782","0.3904211026","","","","","","","","","","","","72","H","0","img/none_selected.jpg","","126","main_expt",""
"","bandit","206","675567","0.0-167.0-0.0","99047512","wem/bandit_either_3","A3IBAQLCOPU6BH","either","3","61","","","","","","","0","1","0","","0.3451069126","0.6","0.2","0.4","0.8","0.3451069126","0.7310750685","0.7095492128","0.4227014292","","","","","","","","","","","","72","H","0","img/none_selected.jpg","","127","main_expt",""
"","bandit","207","677397","0.0-168.0-0.0","99047512","wem/bandit_either_3","A3IBAQLCOPU6BH","either","3","308","","","","","","","0","0","1","0.3129298861","","0.6","0.2","0.4","0.8","","","","","0.3129298861","0.6582635175","0.711577854","0.543317668","","","","","","","","72","H","0","img/none_selected.jpg","","128","main_expt",""
"","bandit","208","679319","0.0-169.0-0.0","99047512","wem/bandit_either_3","A3IBAQLCOPU6BH","either","3","402","","","","","","","0","0","1","0.3507055597","","0.6","0.2","0.4","0.8","","","","","0.3507055597","0.7529887683","0.7022761705","0.5906282681","","","","","","","","72","H","0","img/none_selected.jpg","","129","main_expt",""
"","bandit","209","680870","0.0-170.0-0.0","99047512","wem/bandit_either_3","A3IBAQLCOPU6BH","either","3","31","","","","","","","0","0","1","","0.7929301986","0.6","0.2","0.4","0.8","0.3753424236","0.7929301986","0.7309419319","0.6636268631","","","","","","","","","","","","74","J","1","","","130","main_expt",""
"","bandit","210","682847","0.0-171.0-0.0","99047512","wem/bandit_either_3","A3IBAQLCOPU6BH","either","3","460","","","","","","","0","1","0","","0.8149544693","0.6","0.2","0.4","0.8","0.3473486375","0.8149544693","0.6904825683","0.5686699027","","","","","","","","","","","","74","J","1","","","131","main_expt",""
"","bandit","211","684852","0.0-172.0-0.0","99047512","wem/bandit_either_3","A3IBAQLCOPU6BH","either","3","488","","","","","","","0","0","1","","0.7626544417","0.6","0.2","0.4","0.8","0.303679922","0.7626544417","0.7153166113","0.6564012045","","","","","","","","","","","","74","J","1","","","132","main_expt",""
"","bandit","212","686981","0.0-173.0-0.0","99047512","wem/bandit_either_3","A3IBAQLCOPU6BH","either","3","615","","","","","","","0","1","0","","0.8135501627","0.6","0.2","0.4","0.8","0.3385565331","0.7584501248","0.8135501627","0.5876654864","","","","","","","","","","","","75","K","2","","","133","main_expt",""
"","bandit","213","688869","0.0-174.0-0.0","99047512","wem/bandit_either_3","A3IBAQLCOPU6BH","either","3","368","","","","","","","0","1","0","","0.7707892239","0.6","0.2","0.4","0.8","0.3686406913","0.7905015291","0.7707892239","0.5299368298","","","","","","","","","","","","75","K","2","","","134","main_expt",""
"","bandit","214","690898","0.0-175.0-0.0","99047512","wem/bandit_either_3","A3IBAQLCOPU6BH","either","3","461","","","","","","","0","1","0","","0.7689088841","0.6","0.2","0.4","0.8","0.3672202126","0.7515189777","0.7689088841","0.4547966061","","","","","","","","","","","","75","K","2","","","135","main_expt",""
"","bandit","215","692792","0.0-176.0-0.0","99047512","wem/bandit_either_3","A3IBAQLCOPU6BH","either","3","355","","","","","","","0","0","1","","0.6641324257","0.6","0.2","0.4","0.8","0.4064769993","0.7293518859","0.6641324257","0.5290841583","","","","","","","","","","","","75","K","2","","","136","main_expt",""
"","bandit","216","694765","0.0-177.0-0.0","99047512","wem/bandit_either_3","A3IBAQLCOPU6BH","either","3","455","","","","","","","1","0","0","0.635388201","","0.6","0.2","0.4","0.8","","","","","0.3492503667","0.7286216209","0.635388201","0.419904672","","","","","","","","75","K","2","","","137","main_expt",""
"","bandit","217","696782","0.0-178.0-0.0","99047512","wem/bandit_either_3","A3IBAQLCOPU6BH","either","3","481","","","","","","","0","0","1","0.6889508363","","0.6","0.2","0.4","0.8","","","","","0.3315752647","0.7425921641","0.6889508363","0.4532768315","","","","","","","","75","K","2","","","138","main_expt",""
"","bandit","218","698709","0.0-179.0-0.0","99047512","wem/bandit_either_3","A3IBAQLCOPU6BH","either","3","405","","","","","","","1","0","0","0.6481427694","","0.6","0.2","0.4","0.8","","","","","0.3080831972","0.7356638012","0.6481427694","0.4194835996","","","","","","","","75","K","2","","","139","main_expt",""
"","bandit","219","700710","0.0-180.0-0.0","99047512","wem/bandit_either_3","A3IBAQLCOPU6BH","either","3","472","","","","","","","0","0","1","0.6497449761","","0.6","0.2","0.4","0.8","","","","","0.3254670704","0.7334346803","0.6497449761","0.420008375","","","","","","","","75","K","2","","","140","main_expt",""
"","bandit","220","702233","0.0-181.0-0.0","99047512","wem/bandit_either_3","A3IBAQLCOPU6BH","either","3","2","","","","","","","0","0","1","","0.3908595681","0.6","0.2","0.4","0.8","0.3452870884","0.7737071977","0.7328205829","0.3908595681","","","","","","","","","","","","76","L","3","","","141","main_expt",""
"","bandit","221","704198","0.0-182.0-0.0","99047512","wem/bandit_either_3","A3IBAQLCOPU6BH","either","3","441","","","","","","","0","1","0","","0.3994278682","0.6","0.2","0.4","0.8","0.2659846132","0.7912630164","0.6396752577","0.3994278682","","","","","","","","","","","","76","L","3","","","142","main_expt",""
"","bandit","222","706131","0.0-183.0-0.0","99047512","wem/bandit_either_3","A3IBAQLCOPU6BH","either","3","399","","","","","","","0","1","0","","0.3137486051","0.6","0.2","0.4","0.8","0.2549781044","0.7709923268","0.5974809775","0.3137486051","","","","","","","","","","","","76","L","3","","","143","main_expt",""
"","bandit","223","707984","0.0-184.0-0.0","99047512","wem/bandit_either_3","A3IBAQLCOPU6BH","either","3","337","","","","","","","0","0","1","0.3961992406","","0.6","0.2","0.4","0.8","","","","","0.3603981418","0.7492848764","0.5953980303","0.3961992406","","","","","","","","76","L","3","","","144","main_expt",""
"","bandit","224","710350","0.0-185.0-0.0","99047512","wem/bandit_either_3","A3IBAQLCOPU6BH","either","3","828","","","","","","","0","0","1","0.3186856111","","0.6","0.2","0.4","0.8","","","","","0.3682949958","0.7343485297","0.6215671736","0.3186856111","","","","","","","","76","L","3","","","145","main_expt",""
"","bandit","225","712325","0.0-186.0-0.0","99047512","wem/bandit_either_3","A3IBAQLCOPU6BH","either","3","460","","","","","","","1","0","0","0.5028772858","","0.6","0.2","0.4","0.8","","","","","0.5028772858","0.7701032705","0.5766937592","0.2724247948","","","","","","","","72","H","0","img/none_selected.jpg","","146","main_expt",""
"","bandit","226","714222","0.0-187.0-0.0","99047512","wem/bandit_either_3","A3IBAQLCOPU6BH","either","3","383","","","","","","","1","0","0","0.4186890645","","0.6","0.2","0.4","0.8","","","","","0.4186890645","0.7521601774","0.4600492943","0.2844288079","","","","","","","","72","H","0","img/none_selected.jpg","","147","main_expt",""
"","bandit","227","716146","0.0-188.0-0.0","99047512","wem/bandit_either_3","A3IBAQLCOPU6BH","either","3","400","","","","","","","0","0","1","0.3928328601","","0.6","0.2","0.4","0.8","","","","","0.3928328601","0.7762143641","0.4575448178","0.3095389551","","","","","","","","72","H","0","img/none_selected.jpg","","148","main_expt",""
"","bandit","228","718017","0.0-189.0-0.0","99047512","wem/bandit_either_3","A3IBAQLCOPU6BH","either","3","351","","","","","","","0","1","0","","0.4220063763","0.6","0.2","0.4","0.8","0.4220063763","0.716016993","0.3840278576","0.2464654743","","","","","","","","","","","","72","H","0","img/none_selected.jpg","","149","main_expt",""
"","bandit","229","720009","0.0-190.0-0.0","99047512","wem/bandit_either_3","A3IBAQLCOPU6BH","either","3","471","","","","","","","1","0","0","0.3206822378","","0.6","0.2","0.4","0.8","","","","","0.3206822378","0.7182774931","0.3004406684","0.2088091358","","","","","","","","72","H","0","img/none_selected.jpg","","150","main_expt",""
"","bandit","230","721944","0.0-191.0-0.0","99047512","wem/bandit_either_3","A3IBAQLCOPU6BH","either","3","412","","","","","","","0","0","1","0.3380172956","","0.6","0.2","0.4","0.8","","","","","0.3380172956","0.8028216805","0.2769981479","0.2670014618","","","","","","","","72","H","0","img/none_selected.jpg","","151","main_expt",""
"","bandit","231","724053","0.0-192.0-0.0","99047512","wem/bandit_either_3","A3IBAQLCOPU6BH","either","3","593","","","","","","","0","0","1","0.2461440624","","0.6","0.2","0.4","0.8","","","","","0.2461440624","0.8634692279","0.40565407","0.3100930243","","","","","","","","72","H","0","img/none_selected.jpg","","152","main_expt",""
"","bandit","232","726028","0.0-193.0-0.0","99047512","wem/bandit_either_3","A3IBAQLCOPU6BH","either","3","452","","","","","","","0","0","1","0.1852716423","","0.6","0.2","0.4","0.8","","","","","0.1852716423","0.7719190238","0.3829351634","0.3796096158","","","","","","","","72","H","0","img/none_selected.jpg","","153","main_expt",""
"","bandit","233","727605","0.0-194.0-0.0","99047512","wem/bandit_either_3","A3IBAQLCOPU6BH","either","3","55","","","","","","","0","1","0","","0.8343429945","0.6","0.2","0.4","0.8","0.1660439368","0.8343429945","0.4912137185","0.2265028128","","","","","","","","","","","","74","J","1","","","154","main_expt",""
"","bandit","234","729522","0.0-195.0-0.0","99047512","wem/bandit_either_3","A3IBAQLCOPU6BH","either","3","356","","","","","","","1","0","0","0.7908731232","","0.6","0.2","0.4","0.8","","","","","0.2241607793","0.7908731232","0.5312535156","0.2135741777","","","","","","","","74","J","1","","","155","main_expt",""
"","bandit","235","731843","0.0-196.0-0.0","99047512","wem/bandit_either_3","A3IBAQLCOPU6BH","either","3","796","","","","","","","0","1","0","","0.7848911391","0.6","0.2","0.4","0.8","0.1566338899","0.7848911391","0.5747898199","0.1338357519","","","","","","","","","","","","74","J","1","","","156","main_expt",""
"","bandit","236","733893","0.0-197.0-0.0","99047512","wem/bandit_either_3","A3IBAQLCOPU6BH","either","3","517","","","","","","","0","1","0","","0.7467155263","0.6","0.2","0.4","0.8","0.1839373886","0.7467155263","0.5948125822","0.1344370697","","","","","","","","","","","","74","J","1","","","157","main_expt",""
"","bandit","237","735837","0.0-198.0-0.0","99047512","wem/bandit_either_3","A3IBAQLCOPU6BH","either","3","419","","","","","","","0","1","0","","0.7413618202","0.6","0.2","0.4","0.8","0.155802242","0.7413618202","0.6533804049","0.1217930933","","","","","","","","","","","","74","J","1","","","158","main_expt",""
"","bandit","238","737804","0.0-199.0-0.0","99047512","wem/bandit_either_3","A3IBAQLCOPU6BH","either","3","421","","","","","","","0","1","0","","0.6882043704","0.6","0.2","0.4","0.8","0.2304237345","0.6882043704","0.5777198579","0.08524485746","","","","","","","","","","","","74","J","1","","","159","main_expt",""
"","bandit","239","739739","0.0-200.0-0.0","99047512","wem/bandit_either_3","A3IBAQLCOPU6BH","either","3","415","","","","","","","0","1","0","","0.7253096401","0.6","0.2","0.4","0.8","0.2242026456","0.7253096401","0.6777741118","0.07332219892","","","","","","","","","","","","74","J","1","","","160","main_expt",""
"","bandit","240","741629","0.0-201.0-0.0","99047512","wem/bandit_either_3","A3IBAQLCOPU6BH","either","3","362","","","","","","","0","1","0","","0.6989182833","0.6","0.2","0.4","0.8","0.2708915048","0.6989182833","0.6249074267","0.1063489691","","","","","","","","","","","","74","J","1","","","161","main_expt",""
"","bandit","241","743635","0.0-202.0-0.0","99047512","wem/bandit_either_3","A3IBAQLCOPU6BH","either","3","470","","","","","","","0","0","1","","0.7679575172","0.6","0.2","0.4","0.8","0.2921592604","0.7679575172","0.6755041601","0.09670310095","","","","","","","","","","","","74","J","1","","","162","main_expt",""
"","bandit","242","745600","0.0-203.0-0.0","99047512","wem/bandit_either_3","A3IBAQLCOPU6BH","either","3","436","","","","","","","0","1","0","","0.6877390752","0.6","0.2","0.4","0.8","0.2050535257","0.6877390752","0.6461818487","0.1266359811","","","","","","","","","","","","74","J","1","","","163","main_expt",""
"","bandit","243","747495","0.0-204.0-0.0","99047512","wem/bandit_either_3","A3IBAQLCOPU6BH","either","3","374","","","","","","","0","0","1","","0.6957575266","0.6","0.2","0.4","0.8","0.1998759094","0.6957575266","0.76368027","0.1212611996","","","","","","","","","","","","74","J","1","","","164","main_expt",""
"","bandit","244","750687","0.0-205.0-0.0","99047512","wem/bandit_either_3","A3IBAQLCOPU6BH","either","3","1672","","","","","","","0","1","0","","0.6760148625","0.6","0.2","0.4","0.8","0.1821974317","0.6760148625","0.8400099296","0.1917887173","","","","","","","","","","","","74","J","1","","","165","main_expt",""
"","bandit","245","752844","0.0-206.0-0.0","99047512","wem/bandit_either_3","A3IBAQLCOPU6BH","either","3","633","","","","","","","0","0","1","0.6463317238","","0.6","0.2","0.4","0.8","","","","","0.2916844583","0.6463317238","0.8573275969","0.1560613016","","","","","","","","74","J","1","","","166","main_expt",""
"","bandit","246","754480","0.0-207.0-0.0","99047512","wem/bandit_either_3","A3IBAQLCOPU6BH","either","3","116","","","","","","","0","1","0","","0.7735369509","0.6","0.2","0.4","0.8","0.3087465624","0.5613055562","0.7735369509","0.2214887095","","","","","","","","","","","","75","K","2","","","167","main_expt",""
"","bandit","247","756343","0.0-208.0-0.0","99047512","wem/bandit_either_3","A3IBAQLCOPU6BH","either","3","344","","","","","","","0","1","0","","0.8091314607","0.6","0.2","0.4","0.8","0.3896626528","0.5586162784","0.8091314607","0.3463453368","","","","","","","","","","","","75","K","2","","","168","main_expt",""
"","bandit","248","758302","0.0-209.0-0.0","99047512","wem/bandit_either_3","A3IBAQLCOPU6BH","either","3","437","","","","","","","0","1","0","","0.8364166478","0.6","0.2","0.4","0.8","0.4458805252","0.597448185","0.8364166478","0.3222551453","","","","","","","","","","","","75","K","2","","","169","main_expt",""
"","bandit","249","760311","0.0-210.0-0.0","99047512","wem/bandit_either_3","A3IBAQLCOPU6BH","either","3","456","","","","","","","0","1","0","","0.7867883415","0.6","0.2","0.4","0.8","0.4844269655","0.5351242352","0.7867883415","0.2556410415","","","","","","","","","","","","75","K","2","","","170","main_expt",""
"","bandit","250","762251","0.0-211.0-0.0","99047512","wem/bandit_either_3","A3IBAQLCOPU6BH","either","3","400","","","","","","","0","1","0","","0.8728822524","0.6","0.2","0.4","0.8","0.4858642724","0.4819966971","0.8728822524","0.2248109201","","","","","","","","","","","","75","K","2","","","171","main_expt",""
"","bandit","251","764246","0.0-212.0-0.0","99047512","wem/bandit_either_3","A3IBAQLCOPU6BH","either","3","475","","","","","","","0","0","1","","0.7804912391","0.6","0.2","0.4","0.8","0.5060245996","0.4038669266","0.7804912391","0.3468742366","","","","","","","","","","","","75","K","2","","","172","main_expt",""
"","bandit","252","766308","0.0-213.0-0.0","99047512","wem/bandit_either_3","A3IBAQLCOPU6BH","either","3","542","","","","","","","0","1","0","","0.7728490534","0.6","0.2","0.4","0.8","0.5413528159","0.3102533384","0.7728490534","0.234408543","","","","","","","","","","","","75","K","2","","","173","main_expt",""
"","bandit","253","768246","0.0-214.0-0.0","99047512","wem/bandit_either_3","A3IBAQLCOPU6BH","either","3","413","","","","","","","1","0","0","0.814185781","","0.6","0.2","0.4","0.8","","","","","0.6505326818","0.3818943333","0.814185781","0.1404050277","","","","","","","","75","K","2","","","174","main_expt",""
"","bandit","254","770141","0.0-215.0-0.0","99047512","wem/bandit_either_3","A3IBAQLCOPU6BH","either","3","376","","","","","","","1","0","0","0.8010682597","","0.6","0.2","0.4","0.8","","","","","0.6470977149","0.2893198216","0.8010682597","0.1081611795","","","","","","","","75","K","2","","","175","main_expt",""
"","bandit","255","772117","0.0-216.0-0.0","99047512","wem/bandit_either_3","A3IBAQLCOPU6BH","either","3","453","","","","","","","0","0","1","","0.7083228223","0.6","0.2","0.4","0.8","0.6844229635","0.226416223","0.7083228223","0.0730283124","","","","","","","","","","","","75","K","2","","","176","main_expt",""
"","bandit","256","774107","0.0-217.0-0.0","99047512","wem/bandit_either_3","A3IBAQLCOPU6BH","either","3","464","","","","","","","1","0","0","0.7408938443","","0.6","0.2","0.4","0.8","","","","","0.6883244284","0.2786676386","0.7408938443","0.07044941978","","","","","","","","75","K","2","","","177","main_expt",""
"","bandit","257","776076","0.0-218.0-0.0","99047512","wem/bandit_either_3","A3IBAQLCOPU6BH","either","3","443","","","","","","","0","1","0","","0.6621187214","0.6","0.2","0.4","0.8","0.6098590842","0.2279078815","0.6621187214","0.06886985111","","","","","","","","","","","","75","K","2","","","178","main_expt",""
"","bandit","258","778037","0.0-219.0-0.0","99047512","wem/bandit_either_3","A3IBAQLCOPU6BH","either","3","436","","","","","","","0","0","1","0.6765487854","","0.6","0.2","0.4","0.8","","","","","0.5924449164","0.1690126781","0.6765487854","0.07254371148","","","","","","","","75","K","2","","","179","main_expt",""
"","bandit","259","780180","0.0-220.0-0.0","99047512","wem/bandit_either_3","A3IBAQLCOPU6BH","either","3","618","","","","","","","0","1","0","","0.7276027883","0.6","0.2","0.4","0.8","0.4915111467","0.1356066944","0.7276027883","0.055057054","","","","","","","","","","","","75","K","2","","","180","main_expt",""
"","bandit","260","782125","0.0-221.0-0.0","99047512","wem/bandit_either_3","A3IBAQLCOPU6BH","either","3","406","","","","","","","1","0","0","0.7083410305","","0.6","0.2","0.4","0.8","","","","","0.4713933083","0.1889441784","0.7083410305","0.1187845962","","","","","","","","75","K","2","","","181","main_expt",""
"","bandit","261","784198","0.0-222.0-0.0","99047512","wem/bandit_either_3","A3IBAQLCOPU6BH","either","3","555","","","","","","","0","1","0","","0.6489729838","0.6","0.2","0.4","0.8","0.500114893","0.2163976064","0.6489729838","0.1304227184","","","","","","","","","","","","75","K","2","","","182","main_expt",""
"","bandit","262","786087","0.0-223.0-0.0","99047512","wem/bandit_either_3","A3IBAQLCOPU6BH","either","3","363","","","","","","","1","0","0","0.6956751073","","0.6","0.2","0.4","0.8","","","","","0.4949273894","0.1902524086","0.6956751073","0.1374638341","","","","","","","","75","K","2","","","183","main_expt",""
"","bandit","263","787978","0.0-224.0-0.0","99047512","wem/bandit_either_3","A3IBAQLCOPU6BH","either","3","355","","","","","","","0","1","0","","0.6066537109","0.6","0.2","0.4","0.8","0.4271361476","0.2265805791","0.6066537109","0.1914365344","","","","","","","","","","","","75","K","2","","","184","main_expt",""
"","bandit","264","789790","0.0-225.0-0.0","99047512","wem/bandit_either_3","A3IBAQLCOPU6BH","either","3","259","","","","","","","0","1","0","","0.6337362372","0.6","0.2","0.4","0.8","0.4558255176","0.1843452782","0.6337362372","0.1939872458","","","","","","","","","","","","75","K","2","","","185","main_expt",""
"","bandit","265","792513","0.0-226.0-0.0","99047512","wem/bandit_either_3","A3IBAQLCOPU6BH","either","3","1166","","","","","","","0","0","1","","0.5908962551","0.6","0.2","0.4","0.8","0.4031301461","0.1898387663","0.5908962551","0.2219937035","","","","","","","","","","","","75","K","2","","","186","main_expt",""
"","bandit","266","794433","0.0-227.0-0.0","99047512","wem/bandit_either_3","A3IBAQLCOPU6BH","either","3","401","","","","","","","0","1","0","","0.7651761031","0.6","0.2","0.4","0.8","0.3993697366","0.210498268","0.7651761031","0.2024523472","","","","","","","","","","","","75","K","2","","","187","main_expt",""
"","bandit","267","796510","0.0-228.0-0.0","99047512","wem/bandit_either_3","A3IBAQLCOPU6BH","either","3","552","","","","","","","0","1","0","","0.7928336054","0.6","0.2","0.4","0.8","0.4478687375","0.2368649008","0.7928336054","0.1930401344","","","","","","","","","","","","75","K","2","","","188","main_expt",""
"","bandit","268","799605","0.0-229.0-0.0","99047512","wem/bandit_either_3","A3IBAQLCOPU6BH","either","3","1562","","","","","","","0","1","0","","0.8917358491","0.6","0.2","0.4","0.8","0.3699601256","0.291591963","0.8917358491","0.3255404916","","","","","","","","","","","","75","K","2","","","189","main_expt",""
"","bandit","269","802123","0.0-230.0-0.0","99047512","wem/bandit_either_3","A3IBAQLCOPU6BH","either","3","994","","","","","","","0","0","1","0.898448025","","0.6","0.2","0.4","0.8","","","","","0.3723251068","0.4411779124","0.898448025","0.2364063212","","","","","","","","75","K","2","","","190","main_expt",""
"","bandit","270","804072","0.0-231.0-0.0","99047512","wem/bandit_either_3","A3IBAQLCOPU6BH","either","3","426","","","","","","","0","0","1","0.2662767285","","0.6","0.2","0.4","0.8","","","","","0.3309849287","0.3968704403","0.9186708851","0.2662767285","","","","","","","","76","L","3","","","191","main_expt",""
"","bandit","271","806198","0.0-232.0-0.0","99047512","wem/bandit_either_3","A3IBAQLCOPU6BH","either","3","600","","","","","","","1","0","0","0.2815174114","","0.6","0.2","0.4","0.8","","","","","0.2865625263","0.4512817608","0.9314477517","0.2815174114","","","","","","","","76","L","3","","","192","main_expt",""
"","bandit","272","808117","0.0-233.0-0.0","99047512","wem/bandit_either_3","A3IBAQLCOPU6BH","either","3","392","","","","","","","1","0","0","0.3461293965","","0.6","0.2","0.4","0.8","","","","","0.2862811746","0.4788006455","0.9090465067","0.3461293965","","","","","","","","76","L","3","","","193","main_expt",""
"","bandit","273","810104","0.0-234.0-0.0","99047512","wem/bandit_either_3","A3IBAQLCOPU6BH","either","3","459","","","","","","","0","0","1","0.3303735913","","0.6","0.2","0.4","0.8","","","","","0.2785288642","0.4651889587","0.8762249788","0.3303735913","","","","","","","","76","L","3","","","194","main_expt",""
"","bandit","274","813151","0.0-235.0-0.0","99047512","wem/bandit_either_3","A3IBAQLCOPU6BH","either","3","1521","","","","","","","0","0","1","","0.3194565039","0.6","0.2","0.4","0.8","0.2283941808","0.4718629942","0.8623185747","0.3194565039","","","","","","","","","","","","76","L","3","","","195","main_expt",""
"","bandit","275","815236","0.0-236.0-0.0","99047512","wem/bandit_either_3","A3IBAQLCOPU6BH","either","3","567","","","","","","","1","0","0","0.214282227","","0.6","0.2","0.4","0.8","","","","","0.214282227","0.3825708332","0.7745977574","0.4103944464","","","","","","","","72","H","0","img/none_selected.jpg","","196","main_expt",""
"","bandit","276","817810","0.0-237.0-0.0","99047512","wem/bandit_either_3","A3IBAQLCOPU6BH","either","3","1046","","","","","","","0","0","1","","0.1422959513","0.6","0.2","0.4","0.8","0.1422959513","0.4530864699","0.7723069829","0.4445726534","","","","","","","","","","","","72","H","0","img/none_selected.jpg","","197","main_expt",""
"","bandit","277","819663","0.0-238.0-0.0","99047512","wem/bandit_either_3","A3IBAQLCOPU6BH","either","3","324","","","","","","","0","0","1","","0.1126324943","0.6","0.2","0.4","0.8","0.1126324943","0.4337652667","0.7084082875","0.4351718099","","","","","","","","","","","","72","H","0","img/none_selected.jpg","","198","main_expt",""
"","bandit","278","821469","0.0-239.0-0.0","99047512","wem/bandit_either_3","A3IBAQLCOPU6BH","either","3","280","","","","","","","0","0","1","","0.4138332966","0.6","0.2","0.4","0.8","0.1144166609","0.4138332966","0.7016883558","0.4641294157","","","","","","","","","","","","74","J","1","","","199","main_expt",""
"","bandit","279","823244","0.0-240.0-0.0","99047512","wem/bandit_either_3","A3IBAQLCOPU6BH","either","3","247","","","","","","","0","1","0","","0.6504384346","0.6","0.2","0.4","0.8","0.1518003708","0.5005175686","0.6504384346","0.4468687069","","","","","","","","","","","","75","K","2","","","200","main_expt",""
"","bandit","280","825206","0.0-241.0-0.0","99047512","wem/bandit_either_3","A3IBAQLCOPU6BH","either","3","436","","","","","","","0","1","0","","0.7904945102","0.6","0.2","0.4","0.8","0.1974433607","0.5122642399","0.7904945102","0.5087435212","","","","","","","","","","","","75","K","2","","","201","main_expt",""
"","bandit","281","827261","0.0-242.0-0.0","99047512","wem/bandit_either_3","A3IBAQLCOPU6BH","either","3","536","","","","","","","0","1","0","","0.7039472437","0.6","0.2","0.4","0.8","0.2000842809","0.5414597976","0.7039472437","0.4992132835","","","","","","","","","","","","75","K","2","","","202","main_expt",""
"","bandit","282","829218","0.0-243.0-0.0","99047512","wem/bandit_either_3","A3IBAQLCOPU6BH","either","3","432","","","","","","","0","1","0","","0.7478807213","0.6","0.2","0.4","0.8","0.1715580826","0.4993649945","0.7478807213","0.4859842053","","","","","","","","","","","","75","K","2","","","203","main_expt",""
"","bandit","283","831358","0.0-244.0-0.0","99047512","wem/bandit_either_3","A3IBAQLCOPU6BH","either","3","622","","","","","","","0","1","0","","0.7346150791","0.6","0.2","0.4","0.8","0.3028604286","0.4056752737","0.7346150791","0.6162755314","","","","","","","","","","","","75","K","2","","","204","main_expt",""
"","bandit","284","833662","0.0-245.0-0.0","99047512","wem/bandit_either_3","A3IBAQLCOPU6BH","either","3","770","","","","","","","0","1","0","","0.7240623961","0.6","0.2","0.4","0.8","0.3714949669","0.4174768156","0.7240623961","0.6204906845","","","","","","","","","","","","75","K","2","","","205","main_expt",""
"","bandit","285","835525","0.0-246.0-0.0","99047512","wem/bandit_either_3","A3IBAQLCOPU6BH","either","3","338","","","","","","","0","0","1","0.733657826","","0.6","0.2","0.4","0.8","","","","","0.3034865557","0.4364097613","0.733657826","0.6390595606","","","","","","","","75","K","2","","","206","main_expt",""
"","bandit","286","838158","0.0-247.0-0.0","99047512","wem/bandit_either_3","A3IBAQLCOPU6BH","either","3","1115","","","","","","","0","0","1","","0.6022157482","0.6","0.2","0.4","0.8","0.2688105372","0.4666062126","0.6797091947","0.6022157482","","","","","","","","","","","","76","L","3","","","207","main_expt",""
"","bandit","287","839780","0.0-248.0-0.0","99047512","wem/bandit_either_3","A3IBAQLCOPU6BH","either","3","103","","","","","","","0","0","1","","0.2240001326","0.6","0.2","0.4","0.8","0.2240001326","0.4594719295","0.472157919","0.6598502583","","","","","","","","","","","","72","H","0","img/none_selected.jpg","","208","main_expt",""
"","bandit","288","841628","0.0-249.0-0.0","99047512","wem/bandit_either_3","A3IBAQLCOPU6BH","either","3","320","","","","","","","0","0","1","","0.5415101973","0.6","0.2","0.4","0.8","0.3284172364","0.5415101973","0.4993955773","0.6329069529","","","","","","","","","","","","74","J","1","","","209","main_expt",""
"","bandit","289","843332","0.0-250.0-0.0","99047512","wem/bandit_either_3","A3IBAQLCOPU6BH","either","3","170","","","","","","","0","0","1","","0.3923888982","0.6","0.2","0.4","0.8","0.3178667136","0.5627952802","0.3923888982","0.5418549626","","","","","","","","","","","","75","K","2","","","210","main_expt",""
"","bandit","290","845117","0.0-251.0-0.0","99047512","wem/bandit_either_3","A3IBAQLCOPU6BH","either","3","203","","","","","","","1","0","0","0.7265410197","","0.6","0.2","0.4","0.8","","","","","0.278360526","0.5779033475","0.4183885941","0.7265410197","","","","","","","","76","L","3","","","211","main_expt",""
"","bandit","291","847137","0.0-252.0-0.0","99047512","wem/bandit_either_3","A3IBAQLCOPU6BH","either","3","439","","","","","","","1","0","0","0.6550819281","","0.6","0.2","0.4","0.8","","","","","0.2720231684","0.6169713091","0.5367383083","0.6550819281","","","","","","","","76","L","3","","","212","main_expt",""
"","bandit","292","849158","0.0-253.0-0.0","99047512","wem/bandit_either_3","A3IBAQLCOPU6BH","either","3","495","","","","","","","0","0","1","0.5812500281","","0.6","0.2","0.4","0.8","","","","","0.3445332441","0.5688165975","0.5779451767","0.5812500281","","","","","","","","76","L","3","","","213","main_expt",""
"","bandit","293","851562","0.0-254.0-0.0","99047512","wem/bandit_either_3","A3IBAQLCOPU6BH","either","3","824","","","","","","","0","0","1","","0.5615700258","0.6","0.2","0.4","0.8","0.331154659","0.5354690829","0.5615700258","0.6912727382","","","","","","","","","","","","75","K","2","","","214","main_expt",""
"","bandit","294","853630","0.0-255.0-0.0","99047512","wem/bandit_either_3","A3IBAQLCOPU6BH","either","3","548","","","","","","","1","0","0","0.695573978","","0.6","0.2","0.4","0.8","","","","","0.3168016653","0.4395706401","0.5361399643","0.695573978","","","","","","","","76","L","3","","","215","main_expt",""
"","bandit","295","855515","0.0-256.0-0.0","99047512","wem/bandit_either_3","A3IBAQLCOPU6BH","either","3","364","","","","","","","1","0","0","0.6531454011","","0.6","0.2","0.4","0.8","","","","","0.2870858596","0.4522294324","0.620750855","0.6531454011","","","","","","","","76","L","3","","","216","main_expt",""
"","bandit","296","857643","0.0-257.0-0.0","99047512","wem/bandit_either_3","A3IBAQLCOPU6BH","either","3","537","","","","","","","1","0","0","0.6459690495","","0.6","0.2","0.4","0.8","","","","","0.2877345098","0.4141575353","0.4812239037","0.6459690495","","","","","","","","76","L","3","","","217","main_expt",""
"","bandit","297","859334","0.0-258.0-0.0","99047512","wem/bandit_either_3","A3IBAQLCOPU6BH","either","3","172","","","","","","","0","0","1","0.6679944541","","0.6","0.2","0.4","0.8","","","","","0.3608492067","0.3009722504","0.4028497994","0.6679944541","","","","","","","","76","L","3","","","218","main_expt",""
"","bandit","298","861629","0.0-259.0-0.0","99047512","wem/bandit_either_3","A3IBAQLCOPU6BH","either","3","777","","","","","","","0","1","0","","0.4441021312","0.6","0.2","0.4","0.8","0.4380407461","0.2706893249","0.4441021312","0.7159195147","","","","","","","","","","","","75","K","2","","","219","main_expt",""
"","bandit","299","863540","0.0-260.0-0.0","99047512","wem/bandit_either_3","A3IBAQLCOPU6BH","either","3","383","","","","","","","0","0","1","0.4867825248","","0.6","0.2","0.4","0.8","","","","","0.4769938592","0.3821277721","0.4867825248","0.6874484601","","","","","","","","75","K","2","","","220","main_expt",""
"","bandit","300","865500","0.0-261.0-0.0","99047512","wem/bandit_either_3","A3IBAQLCOPU6BH","either","3","437","","","","","","","0","1","0","","0.4534214389","0.6","0.2","0.4","0.8","0.4612627877","0.4534214389","0.5428062785","0.6528128226","","","","","","","","","","","","74","J","1","","","221","main_expt",""
"","bandit","301","867420","0.0-262.0-0.0","99047512","wem/bandit_either_3","A3IBAQLCOPU6BH","either","3","385","","","","","","","0","1","0","","0.6049712458","0.6","0.2","0.4","0.8","0.4192901336","0.6049712458","0.5993321864","0.6836467719","","","","","","","","","","","","74","J","1","","","222","main_expt",""
"","bandit","302","869291","0.0-263.0-0.0","99047512","wem/bandit_either_3","A3IBAQLCOPU6BH","either","3","353","","","","","","","0","1","0","","0.6389506418","0.6","0.2","0.4","0.8","0.5559965486","0.6389506418","0.4920604154","0.7820879334","","","","","","","","","","","","74","J","1","","","223","main_expt",""
"","bandit","303","871203","0.0-264.0-0.0","99047512","wem/bandit_either_3","A3IBAQLCOPU6BH","either","3","389","","","","","","","0","1","0","","0.6677375732","0.6","0.2","0.4","0.8","0.6687933923","0.6677375732","0.5344282052","0.763226653","","","","","","","","","","","","74","J","1","","","224","main_expt",""
"","bandit","304","873124","0.0-265.0-0.0","99047512","wem/bandit_either_3","A3IBAQLCOPU6BH","either","3","391","","","","","","","0","1","0","","0.7706853934","0.6","0.2","0.4","0.8","0.5954484576","0.7706853934","0.5583452501","0.6931961842","","","","","","","","","","","","74","J","1","","","225","main_expt",""
"","bandit","305","874966","0.0-266.0-0.0","99047512","wem/bandit_either_3","A3IBAQLCOPU6BH","either","3","302","","","","","","","0","0","1","","0.7624197083","0.6","0.2","0.4","0.8","0.6152447968","0.7624197083","0.5126042404","0.6633974694","","","","","","","","","","","","74","J","1","","","226","main_expt",""
"","bandit","306","876848","0.0-267.0-0.0","99047512","wem/bandit_either_3","A3IBAQLCOPU6BH","either","3","353","","","","","","","0","0","1","0.7287840805","","0.6","0.2","0.4","0.8","","","","","0.6597553912","0.7287840805","0.5720595628","0.6567175756","","","","","","","","74","J","1","","","227","main_expt",""
"","bandit","307","878788","0.0-268.0-0.0","99047512","wem/bandit_either_3","A3IBAQLCOPU6BH","either","3","422","","","","","","","0","1","0","","0.7993891034","0.6","0.2","0.4","0.8","0.594895186","0.7993891034","0.6134710885","0.6052730858","","","","","","","","","","","","74","J","1","","","228","main_expt",""
"","bandit","308","880454","0.0-269.0-0.0","99047512","wem/bandit_either_3","A3IBAQLCOPU6BH","either","3","146","","","","","","","0","1","0","","0.8374027748","0.6","0.2","0.4","0.8","0.5722559027","0.8374027748","0.5669106804","0.5548990383","","","","","","","","","","","","74","J","1","","","229","main_expt",""
"","bandit","309","882637","0.0-270.0-0.0","99047512","wem/bandit_either_3","A3IBAQLCOPU6BH","either","3","660","","","","","","","0","0","1","0.8414873787","","0.6","0.2","0.4","0.8","","","","","0.5409090622","0.8414873787","0.6286782819","0.6017114108","","","","","","","","74","J","1","","","230","main_expt",""
"","bandit","310","884298","0.0-271.0-0.0","99047512","wem/bandit_either_3","A3IBAQLCOPU6BH","either","3","129","","","","","","","0","1","0","","0.8531648874","0.6","0.2","0.4","0.8","0.518727512","0.8531648874","0.5594948871","0.5525336349","","","","","","","","","","","","74","J","1","","","231","main_expt",""
"","bandit","311","886163","0.0-272.0-0.0","99047512","wem/bandit_either_3","A3IBAQLCOPU6BH","either","3","343","","","","","","","0","1","0","","0.8813812612","0.6","0.2","0.4","0.8","0.5200298571","0.8813812612","0.5817998964","0.4493361955","","","","","","","","","","","","74","J","1","","","232","main_expt",""
"","bandit","312","888548","0.0-273.0-0.0","99047512","wem/bandit_either_3","A3IBAQLCOPU6BH","either","3","867","","","","","","","1","0","0","0.8916766345","","0.6","0.2","0.4","0.8","","","","","0.4564343731","0.8916766345","0.5971875981","0.5280832246","","","","","","","","74","J","1","","","233","main_expt",""
"","bandit","313","890445","0.0-274.0-0.0","99047512","wem/bandit_either_3","A3IBAQLCOPU6BH","either","3","370","","","","","","","0","1","0","","0.842820862","0.6","0.2","0.4","0.8","0.4168065644","0.842820862","0.5227237997","0.6814540918","","","","","","","","","","","","74","J","1","","","234","main_expt",""
"","bandit","314","892612","0.0-275.0-0.0","99047512","wem/bandit_either_3","A3IBAQLCOPU6BH","either","3","643","","","","","","","1","0","0","0.7856269381","","0.6","0.2","0.4","0.8","","","","","0.4340770274","0.7856269381","0.6231997156","0.5518959403","","","","","","","","74","J","1","","","235","main_expt",""
"","bandit","315","894456","0.0-276.0-0.0","99047512","wem/bandit_either_3","A3IBAQLCOPU6BH","either","3","290","","","","","","","0","0","1","","0.8092971262","0.6","0.2","0.4","0.8","0.4489205242","0.8092971262","0.558272317","0.4965619817","","","","","","","","","","","","74","J","1","","","236","main_expt",""
"","bandit","316","896040","0.0-277.0-0.0","99047512","wem/bandit_either_3","A3IBAQLCOPU6BH","either","3","52","","","","","","","0","1","0","","0.8125536838","0.6","0.2","0.4","0.8","0.4838648791","0.8125536838","0.6118965497","0.4762879104","","","","","","","","","","","","74","J","1","","","237","main_expt",""
"","bandit","317","897732","0.0-278.0-0.0","99047512","wem/bandit_either_3","A3IBAQLCOPU6BH","either","3","150","","","","","","","0","1","0","","0.8684257659","0.6","0.2","0.4","0.8","0.4615645545","0.8684257659","0.7415542647","0.4991976808","","","","","","","","","","","","74","J","1","","","238","main_expt",""
"","bandit","318","899268","0.0-279.0-0.0","99047512","wem/bandit_either_3","A3IBAQLCOPU6BH","either","3","11","","","","","","","0","1","0","","0.8891050988","0.6","0.2","0.4","0.8","0.4263497721","0.8891050988","0.794517608","0.4627972202","","","","","","","","","","","","74","J","1","","","239","main_expt",""
"","bandit","319","901175","0.0-280.0-0.0","99047512","wem/bandit_either_3","A3IBAQLCOPU6BH","either","3","385","","","","","","","0","1","0","","0.8983693474","0.6","0.2","0.4","0.8","0.4372282776","0.8983693474","0.7966429163","0.484486763","","","","","","","","","","","","74","J","1","","","240","main_expt",""
"","bandit","320","903037","0.0-281.0-0.0","99047512","wem/bandit_either_3","A3IBAQLCOPU6BH","either","3","336","","","","","","","0","1","0","","0.8608109038","0.6","0.2","0.4","0.8","0.5558093781","0.8608109038","0.7827696357","0.3450886106","","","","","","","","","","","","74","J","1","","","241","main_expt",""
"","bandit","321","904763","0.0-282.0-0.0","99047512","wem/bandit_either_3","A3IBAQLCOPU6BH","either","3","200","","","","","","","0","1","0","","0.8807376199","0.6","0.2","0.4","0.8","0.654661817","0.8807376199","0.8077769827","0.4066884652","","","","","","","","","","","","74","J","1","","","242","main_expt",""
"","bandit","322","906633","0.0-283.0-0.0","99047512","wem/bandit_either_3","A3IBAQLCOPU6BH","either","3","341","","","","","","","0","1","0","","0.8782163565","0.6","0.2","0.4","0.8","0.5869565726","0.8782163565","0.7680675523","0.3574054959","","","","","","","","","","","","74","J","1","","","243","main_expt",""
"","bandit","323","908572","0.0-284.0-0.0","99047512","wem/bandit_either_3","A3IBAQLCOPU6BH","either","3","412","","","","","","","0","1","0","","0.8691088863","0.6","0.2","0.4","0.8","0.6282978891","0.8691088863","0.6802465609","0.4200458239","","","","","","","","","","","","74","J","1","","","244","main_expt",""
"","bandit","324","910572","0.0-285.0-0.0","99047512","wem/bandit_either_3","A3IBAQLCOPU6BH","either","3","474","","","","","","","0","0","1","","0.8516976639","0.6","0.2","0.4","0.8","0.5918678021","0.8516976639","0.6110509309","0.3587254574","","","","","","","","","","","","74","J","1","","","245","main_expt",""
