"rt","responses","trial_type","trial_index","time_elapsed","internal_node_id","subjID","study","MID","cond","drift","key_press","respCharCode","respKey","respChoiceNum","respChoice","gems","bombs","no_reward","GemPrChosen","BombPrChosen","practice","trial_counter","WinPr_0","LosePr_0","trial_label","WinPr_1","LosePr_1","WinPr_2","LosePr_2","WinPr_3","LosePr_3","Q0","Q1","Q2","gender","age","ethnicity"
"10379","{""Q0"":""A24Z8V5IV2VJ8F""}","survey-text","0","10388","0.0-0.0","00071968","wem/bandit_single","A24Z8V5IV2VJ8F","pain","3","","","","","","","","","","","","","","","","","","","","","","","","","","",""
"1707","","text","1","13100","0.0-1.0","00071968","wem/bandit_single","A24Z8V5IV2VJ8F","pain","3","32","","","","","","","","","","","","","","","","","","","","","","","","","",""
"4548","","text","2","17650","0.0-2.0","00071968","wem/bandit_single","A24Z8V5IV2VJ8F","pain","3","32","","","","","","","","","","","","","","","","","","","","","","","","","",""
"10678","","text","3","28330","0.0-3.0","00071968","wem/bandit_single","A24Z8V5IV2VJ8F","pain","3","32","","","","","","","","","","","","","","","","","","","","","","","","","",""
"9900","","text","4","38233","0.0-4.0","00071968","wem/bandit_single","A24Z8V5IV2VJ8F","pain","3","32","","","","","","","","","","","","","","","","","","","","","","","","","",""
"7057","","text","5","45292","0.0-5.0","00071968","wem/bandit_single","A24Z8V5IV2VJ8F","pain","3","32","","","","","","","","","","","","","","","","","","","","","","","","","",""
"8521","","text","6","53815","0.0-6.0","00071968","wem/bandit_single","A24Z8V5IV2VJ8F","pain","3","32","","","","","","","","","","","","","","","","","","","","","","","","","",""
"3698","","text","7","57515","0.0-7.0","00071968","wem/bandit_single","A24Z8V5IV2VJ8F","pain","3","32","","","","","","","","","","","","","","","","","","","","","","","","","",""
"1293","","text","8","58810","0.0-8.0","00071968","wem/bandit_single","A24Z8V5IV2VJ8F","pain","3","32","","","","","","","","","","","","","","","","","","","","","","","","","",""
"1856","","text","9","60668","0.0-9.0","00071968","wem/bandit_single","A24Z8V5IV2VJ8F","pain","3","32","","","","","","","","","","","","","","","","","","","","","","","","","",""
"5338","","text","10","66008","0.0-10.0","00071968","wem/bandit_single","A24Z8V5IV2VJ8F","pain","3","32","","","","","","","","","","","","","","","","","","","","","","","","","",""
"8329","","text","11","74339","0.0-11.0","00071968","wem/bandit_single","A24Z8V5IV2VJ8F","pain","3","32","","","","","","","","","","","","","","","","","","","","","","","","","",""
"686","","bandit","12","76535","0.0-12.0-0.0","00071968","wem/bandit_single","A24Z8V5IV2VJ8F","pain","3","","74","J","0","img/none_selected_demo.jpg","0","0","1","0","0","true","0","0","0","","","","","","","","","","","","",""
"283","","bandit","13","78578","0.0-13.0-0.0","00071968","wem/bandit_single","A24Z8V5IV2VJ8F","pain","3","","75","K","0","img/none_selected_demo.jpg","0","0","1","0","0","true","0","0","0","","","","","","","","","","","","",""
"1961","","text","14","80792","0.0-14.0","00071968","wem/bandit_single","A24Z8V5IV2VJ8F","pain","3","32","","","","","","","","","","","","","","","","","","","","","","","","","",""
"932","","text","15","81726","0.0-15.0","00071968","wem/bandit_single","A24Z8V5IV2VJ8F","pain","3","32","","","","","","","","","","","","","","","","","","","","","","","","","",""
"5219","","text","16","86947","0.0-16.0","00071968","wem/bandit_single","A24Z8V5IV2VJ8F","pain","3","32","","","","","","","","","","","","","","","","","","","","","","","","","",""
"1601","","text","17","88550","0.0-17.0","00071968","wem/bandit_single","A24Z8V5IV2VJ8F","pain","3","32","","","","","","","","","","","","","","","","","","","","","","","","","",""
"1774","","bandit","18","91831","0.0-18.0-0.0","00071968","wem/bandit_single","A24Z8V5IV2VJ8F","pain","3","","74","J","0","img/none_selected_demo.jpg","0","0","1","0","0.8","true","0","0","0.8","80_20_practice","0","0.2","","","","","","","","","",""
"65","","bandit","19","93653","0.0-18.0-1.0","00071968","wem/bandit_single","A24Z8V5IV2VJ8F","pain","3","","75","K","1","","0","0","1","0","0.2","true","0","0","0.8","80_20_practice","0","0.2","","","","","","","","","",""
"243","","bandit","20","95657","0.0-18.0-2.0","00071968","wem/bandit_single","A24Z8V5IV2VJ8F","pain","3","","74","J","0","img/none_selected_demo.jpg","0","1","0","0","0.8","true","0","0","0.8","80_20_practice","0","0.2","","","","","","","","","",""
"76","","bandit","21","97498","0.0-18.0-3.0","00071968","wem/bandit_single","A24Z8V5IV2VJ8F","pain","3","","74","J","0","img/none_selected_demo.jpg","0","1","0","0","0.8","true","0","0","0.8","80_20_practice","0","0.2","","","","","","","","","",""
"212","","bandit","22","99468","0.0-18.0-4.0","00071968","wem/bandit_single","A24Z8V5IV2VJ8F","pain","3","","74","J","0","img/none_selected_demo.jpg","0","1","0","0","0.8","true","0","0","0.8","80_20_practice","0","0.2","","","","","","","","","",""
"541","","bandit","23","101767","0.0-18.0-5.0","00071968","wem/bandit_single","A24Z8V5IV2VJ8F","pain","3","","74","J","0","img/none_selected_demo.jpg","0","1","0","0","0.8","true","0","0","0.8","80_20_practice","0","0.2","","","","","","","","","",""
"11","","bandit","24","103537","0.0-18.0-6.0","00071968","wem/bandit_single","A24Z8V5IV2VJ8F","pain","3","","74","J","0","img/none_selected_demo.jpg","0","1","0","0","0.8","true","0","0","0.8","80_20_practice","0","0.2","","","","","","","","","",""
"57","","bandit","25","105354","0.0-18.0-7.0","00071968","wem/bandit_single","A24Z8V5IV2VJ8F","pain","3","","74","J","0","img/none_selected_demo.jpg","0","1","0","0","0.8","true","0","0","0.8","80_20_practice","0","0.2","","","","","","","","","",""
"328","","bandit","26","107439","0.0-18.0-8.0","00071968","wem/bandit_single","A24Z8V5IV2VJ8F","pain","3","","74","J","0","img/none_selected_demo.jpg","0","1","0","0","0.8","true","0","0","0.8","80_20_practice","0","0.2","","","","","","","","","",""
"2081","","bandit","27","111277","0.0-18.0-9.0","00071968","wem/bandit_single","A24Z8V5IV2VJ8F","pain","3","","74","J","0","img/none_selected_demo.jpg","0","0","1","0","0.8","true","0","0","0.8","80_20_practice","0","0.2","","","","","","","","","",""
"82","","bandit","28","113117","0.0-18.0-10.0","00071968","wem/bandit_single","A24Z8V5IV2VJ8F","pain","3","","75","K","1","","0","0","1","0","0.2","true","0","0","0.8","80_20_practice","0","0.2","","","","","","","","","",""
"276","","bandit","29","115152","0.0-18.0-11.0","00071968","wem/bandit_single","A24Z8V5IV2VJ8F","pain","3","","74","J","0","img/none_selected_demo.jpg","0","1","0","0","0.8","true","0","0","0.8","80_20_practice","0","0.2","","","","","","","","","",""
"116","","bandit","30","117027","0.0-18.0-12.0","00071968","wem/bandit_single","A24Z8V5IV2VJ8F","pain","3","","74","J","0","img/none_selected_demo.jpg","0","1","0","0","0.8","true","0","0","0.8","80_20_practice","0","0.2","","","","","","","","","",""
"1281","","bandit","31","120072","0.0-18.0-13.0","00071968","wem/bandit_single","A24Z8V5IV2VJ8F","pain","3","","74","J","0","img/none_selected_demo.jpg","0","1","0","0","0.8","true","0","0","0.8","80_20_practice","0","0.2","","","","","","","","","",""
"52","","bandit","32","121885","0.0-18.0-14.0","00071968","wem/bandit_single","A24Z8V5IV2VJ8F","pain","3","","74","J","0","img/none_selected_demo.jpg","0","1","0","0","0.8","true","0","0","0.8","80_20_practice","0","0.2","","","","","","","","","",""
"1249","","bandit","33","124892","0.0-18.0-15.0","00071968","wem/bandit_single","A24Z8V5IV2VJ8F","pain","3","","74","J","0","img/none_selected_demo.jpg","0","1","0","0","0.8","true","0","0","0.8","80_20_practice","0","0.2","","","","","","","","","",""
"1003","","bandit","34","127654","0.0-18.0-16.0","00071968","wem/bandit_single","A24Z8V5IV2VJ8F","pain","3","","75","K","1","","0","0","1","0","0.2","true","0","0","0.8","80_20_practice","0","0.2","","","","","","","","","",""
"329","","bandit","35","129742","0.0-18.0-17.0","00071968","wem/bandit_single","A24Z8V5IV2VJ8F","pain","3","","75","K","1","","0","0","1","0","0.2","true","0","0","0.8","80_20_practice","0","0.2","","","","","","","","","",""
"759","","bandit","36","132259","0.0-18.0-18.0","00071968","wem/bandit_single","A24Z8V5IV2VJ8F","pain","3","","75","K","1","","0","1","0","0","0.2","true","0","0","0.8","80_20_practice","0","0.2","","","","","","","","","",""
"390","","bandit","37","134407","0.0-18.0-19.0","00071968","wem/bandit_single","A24Z8V5IV2VJ8F","pain","3","","75","K","1","","0","1","0","0","0.2","true","0","0","0.8","80_20_practice","0","0.2","","","","","","","","","",""
"4402","","text","38","139063","0.0-19.0","00071968","wem/bandit_single","A24Z8V5IV2VJ8F","pain","3","32","","","","","","","","","","","","","","","","","","","","","","","","","",""
"2393","","bandit","39","142964","0.0-20.0-0.0","00071968","wem/bandit_single","A24Z8V5IV2VJ8F","pain","3","","74","J","0","img/none_selected_demo.jpg","0","0","1","0","0","true","0","0","0","","0","0","","","","","","","","","",""
"2788","","text","40","146006","0.0-21.0","00071968","wem/bandit_single","A24Z8V5IV2VJ8F","pain","3","32","","","","","","","","","","","","","","","","","","","","","","","","","",""
"983","","text","41","146993","0.0-22.0","00071968","wem/bandit_single","A24Z8V5IV2VJ8F","pain","3","32","","","","","","","","","","","","","","","","","","","","","","","","","",""
"970","","text","42","147966","0.0-23.0","00071968","wem/bandit_single","A24Z8V5IV2VJ8F","pain","3","32","","","","","","","","","","","","","","","","","","","","","","","","","",""
"1642","","text","43","149612","0.0-24.0","00071968","wem/bandit_single","A24Z8V5IV2VJ8F","pain","3","32","","","","","","","","","","","","","","","","","","","","","","","","","",""
"7262","","text","44","156876","0.0-25.0","00071968","wem/bandit_single","A24Z8V5IV2VJ8F","pain","3","32","","","","","","","","","","","","","","","","","","","","","","","","","",""
"1469","","text","45","158348","0.0-26.0","00071968","wem/bandit_single","A24Z8V5IV2VJ8F","pain","3","32","","","","","","","","","","","","","","","","","","","","","","","","","",""
"1060","","text","46","159410","0.0-27.0","00071968","wem/bandit_single","A24Z8V5IV2VJ8F","pain","3","32","","","","","","","","","","","","","","","","","","","","","","","","","",""
"971","","text","47","160384","0.0-28.0","00071968","wem/bandit_single","A24Z8V5IV2VJ8F","pain","3","32","","","","","","","","","","","","","","","","","","","","","","","","","",""
"839","","text","48","161227","0.0-29.0","00071968","wem/bandit_single","A24Z8V5IV2VJ8F","pain","3","32","","","","","","","","","","","","","","","","","","","","","","","","","",""
"1103","","text","49","162334","0.0-30.0","00071968","wem/bandit_single","A24Z8V5IV2VJ8F","pain","3","32","","","","","","","","","","","","","","","","","","","","","","","","","",""
"3837","","text","50","166173","0.0-31.0","00071968","wem/bandit_single","A24Z8V5IV2VJ8F","pain","3","32","","","","","","","","","","","","","","","","","","","","","","","","","",""
"611","","bandit","51","168291","0.0-32.0-0.0","00071968","wem/bandit_single","A24Z8V5IV2VJ8F","pain","3","","72","H","0","img/none_selected.jpg","0","1","0","0","0.8","true","0","0","0.8","full_practice","0","0.2","0","0.6","0","0.2","","","","","",""
"50","","bandit","52","170100","0.0-32.0-1.0","00071968","wem/bandit_single","A24Z8V5IV2VJ8F","pain","3","","72","H","0","img/none_selected.jpg","0","1","0","0","0.8","true","0","0","0.8","full_practice","0","0.2","0","0.6","0","0.2","","","","","",""
"323","","bandit","53","172184","0.0-32.0-2.0","00071968","wem/bandit_single","A24Z8V5IV2VJ8F","pain","3","","72","H","0","img/none_selected.jpg","0","1","0","0","0.8","true","0","0","0.8","full_practice","0","0.2","0","0.6","0","0.2","","","","","",""
"282","","bandit","54","174223","0.0-32.0-3.0","00071968","wem/bandit_single","A24Z8V5IV2VJ8F","pain","3","","72","H","0","img/none_selected.jpg","0","1","0","0","0.8","true","0","0","0.8","full_practice","0","0.2","0","0.6","0","0.2","","","","","",""
"473","","bandit","55","176457","0.0-32.0-4.0","00071968","wem/bandit_single","A24Z8V5IV2VJ8F","pain","3","","74","J","1","","0","0","1","0","0.2","true","0","0","0.8","full_practice","0","0.2","0","0.6","0","0.2","","","","","",""
"576","","bandit","56","178792","0.0-32.0-5.0","00071968","wem/bandit_single","A24Z8V5IV2VJ8F","pain","3","","75","K","2","","0","1","0","0","0.6","true","0","0","0.8","full_practice","0","0.2","0","0.6","0","0.2","","","","","",""
"16","","bandit","57","180568","0.0-32.0-6.0","00071968","wem/bandit_single","A24Z8V5IV2VJ8F","pain","3","","75","K","2","","0","0","1","0","0.6","true","0","0","0.8","full_practice","0","0.2","0","0.6","0","0.2","","","","","",""
"210","","bandit","58","182537","0.0-32.0-7.0","00071968","wem/bandit_single","A24Z8V5IV2VJ8F","pain","3","","75","K","2","","0","1","0","0","0.6","true","0","0","0.8","full_practice","0","0.2","0","0.6","0","0.2","","","","","",""
"136","","bandit","59","184432","0.0-32.0-8.0","00071968","wem/bandit_single","A24Z8V5IV2VJ8F","pain","3","","76","L","3","","0","0","1","0","0.2","true","0","0","0.8","full_practice","0","0.2","0","0.6","0","0.2","","","","","",""
"452","","bandit","60","186643","0.0-32.0-9.0","00071968","wem/bandit_single","A24Z8V5IV2VJ8F","pain","3","","75","K","2","","0","1","0","0","0.6","true","0","0","0.8","full_practice","0","0.2","0","0.6","0","0.2","","","","","",""
"101","","bandit","61","188502","0.0-32.0-10.0","00071968","wem/bandit_single","A24Z8V5IV2VJ8F","pain","3","","72","H","0","img/none_selected.jpg","0","1","0","0","0.8","true","0","0","0.8","full_practice","0","0.2","0","0.6","0","0.2","","","","","",""
"470","","bandit","62","190730","0.0-32.0-11.0","00071968","wem/bandit_single","A24Z8V5IV2VJ8F","pain","3","","72","H","0","img/none_selected.jpg","0","1","0","0","0.8","true","0","0","0.8","full_practice","0","0.2","0","0.6","0","0.2","","","","","",""
"165","","bandit","63","192655","0.0-32.0-12.0","00071968","wem/bandit_single","A24Z8V5IV2VJ8F","pain","3","","75","K","2","","0","1","0","0","0.6","true","0","0","0.8","full_practice","0","0.2","0","0.6","0","0.2","","","","","",""
"73607","","bandit","64","268023","0.0-32.0-13.0","00071968","wem/bandit_single","A24Z8V5IV2VJ8F","pain","3","","72","H","0","img/none_selected.jpg","0","0","1","0","0.8","true","0","0","0.8","full_practice","0","0.2","0","0.6","0","0.2","","","","","",""
"45","","bandit","65","269829","0.0-32.0-14.0","00071968","wem/bandit_single","A24Z8V5IV2VJ8F","pain","3","","72","H","0","img/none_selected.jpg","0","1","0","0","0.8","true","0","0","0.8","full_practice","0","0.2","0","0.6","0","0.2","","","","","",""
"13","","bandit","66","271603","0.0-32.0-15.0","00071968","wem/bandit_single","A24Z8V5IV2VJ8F","pain","3","","72","H","0","img/none_selected.jpg","0","1","0","0","0.8","true","0","0","0.8","full_practice","0","0.2","0","0.6","0","0.2","","","","","",""
"310","","bandit","67","273672","0.0-32.0-16.0","00071968","wem/bandit_single","A24Z8V5IV2VJ8F","pain","3","","72","H","0","img/none_selected.jpg","0","1","0","0","0.8","true","0","0","0.8","full_practice","0","0.2","0","0.6","0","0.2","","","","","",""
"126","","bandit","68","275557","0.0-32.0-17.0","00071968","wem/bandit_single","A24Z8V5IV2VJ8F","pain","3","","72","H","0","img/none_selected.jpg","0","1","0","0","0.8","true","0","0","0.8","full_practice","0","0.2","0","0.6","0","0.2","","","","","",""
"154","","bandit","69","277472","0.0-32.0-18.0","00071968","wem/bandit_single","A24Z8V5IV2VJ8F","pain","3","","72","H","0","img/none_selected.jpg","0","1","0","0","0.8","true","0","0","0.8","full_practice","0","0.2","0","0.6","0","0.2","","","","","",""
"333","","bandit","70","279565","0.0-32.0-19.0","00071968","wem/bandit_single","A24Z8V5IV2VJ8F","pain","3","","72","H","0","img/none_selected.jpg","0","1","0","0","0.8","true","0","0","0.8","full_practice","0","0.2","0","0.6","0","0.2","","","","","",""
"14911","","text","71","294740","0.0-33.0","00071968","wem/bandit_single","A24Z8V5IV2VJ8F","pain","3","32","","","","","","","","","","","","","","","","","","","","","","","","","",""
"3095","","text","72","298841","0.0-34.0","00071968","wem/bandit_single","A24Z8V5IV2VJ8F","pain","3","32","","","","","","","","","","","","","","","","","","","","","","","","","",""
"1123","","text","73","299969","0.0-35.0","00071968","wem/bandit_single","A24Z8V5IV2VJ8F","pain","3","32","","","","","","","","","","","","","","","","","","","","","","","","","",""
"1004","","text","74","300978","0.0-36.0","00071968","wem/bandit_single","A24Z8V5IV2VJ8F","pain","3","32","","","","","","","","","","","","","","","","","","","","","","","","","",""
"573","","text","75","301557","0.0-37.0","00071968","wem/bandit_single","A24Z8V5IV2VJ8F","pain","3","32","","","","","","","","","","","","","","","","","","","","","","","","","",""
"1006","","bandit","76","304068","0.0-38.0-0.0","00071968","wem/bandit_single","A24Z8V5IV2VJ8F","pain","3","","72","H","0","img/none_selected.jpg","0","1","0","","0.3417032333","false","1","","0.3417032333","main_expt","","0.2211287853","","0.2015711498","","0.06813583588","","","","","",""
"162","","bandit","77","305991","0.0-39.0-0.0","00071968","wem/bandit_single","A24Z8V5IV2VJ8F","pain","3","","72","H","0","img/none_selected.jpg","0","1","0","","0.3935143322","false","2","","0.3935143322","main_expt","","0.2921894834","","0.1868286341","","0.08840771113","","","","","",""
"396","","bandit","78","308149","0.0-40.0-0.0","00071968","wem/bandit_single","A24Z8V5IV2VJ8F","pain","3","","72","H","0","img/none_selected.jpg","0","0","1","","0.3247841161","false","3","","0.3247841161","main_expt","","0.2712314767","","0.2285659085","","0.14311428","","","","","",""
"391","","bandit","79","310300","0.0-41.0-0.0","00071968","wem/bandit_single","A24Z8V5IV2VJ8F","pain","3","","72","H","0","img/none_selected.jpg","0","0","1","","0.3524809632","false","4","","0.3524809632","main_expt","","0.3501044345","","0.2587006496","","0.1389033164","","","","","",""
"243","","bandit","80","312303","0.0-42.0-0.0","00071968","wem/bandit_single","A24Z8V5IV2VJ8F","pain","3","","75","K","2","","0","0","1","","0.2238216231","false","5","","0.3243282494","main_expt","","0.3826883046","","0.2238216231","","0.1064755534","","","","","",""
"260","","bandit","81","314324","0.0-43.0-0.0","00071968","wem/bandit_single","A24Z8V5IV2VJ8F","pain","3","","72","H","0","img/none_selected.jpg","0","0","1","","0.3856520047","false","6","","0.3856520047","main_expt","","0.3538977559","","0.2114086621","","0.07607549968","","","","","",""
"1685","","bandit","82","317773","0.0-44.0-0.0","00071968","wem/bandit_single","A24Z8V5IV2VJ8F","pain","3","","72","H","0","img/none_selected.jpg","0","0","1","","0.3595299576","false","7","","0.3595299576","main_expt","","0.3911179113","","0.225256176","","0.0490522351","","","","","",""
"7257","","bandit","83","326794","0.0-45.0-0.0","00071968","wem/bandit_single","A24Z8V5IV2VJ8F","pain","3","","74","J","1","","0","1","0","","0.3378010318","false","8","","0.2908809246","main_expt","","0.3378010318","","0.1920600422","","0.04564729275","","","","","",""
"453","","bandit","84","329007","0.0-46.0-0.0","00071968","wem/bandit_single","A24Z8V5IV2VJ8F","pain","3","","72","H","0","img/none_selected.jpg","0","0","1","","0.3401169694","false","9","","0.3401169694","main_expt","","0.3584091786","","0.222474992","","0.05361883364","","","","","",""
"546","","bandit","85","331319","0.0-47.0-0.0","00071968","wem/bandit_single","A24Z8V5IV2VJ8F","pain","3","","75","K","2","","0","0","1","","0.1720297318","false","10","","0.370347707","main_expt","","0.3822252457","","0.1720297318","","0.05689605437","","","","","",""
"596","","bandit","86","333676","0.0-48.0-0.0","00071968","wem/bandit_single","A24Z8V5IV2VJ8F","pain","3","","72","H","0","img/none_selected.jpg","0","0","1","","0.3385652673","false","11","","0.3385652673","main_expt","","0.4003480189","","0.1672236423","","0.05596529361","","","","","",""
"56","","bandit","87","335493","0.0-49.0-0.0","00071968","wem/bandit_single","A24Z8V5IV2VJ8F","pain","3","","72","H","0","img/none_selected.jpg","0","0","1","","0.3433253296","false","12","","0.3433253296","main_expt","","0.4035898181","","0.1908353862","","0.07455145674","","","","","",""
"263","","bandit","88","337516","0.0-50.0-0.0","00071968","wem/bandit_single","A24Z8V5IV2VJ8F","pain","3","","72","H","0","img/none_selected.jpg","0","0","1","","0.3306460316","false","13","","0.3306460316","main_expt","","0.3939267589","","0.1373256951","","0.1061797552","","","","","",""
"144","","bandit","89","339420","0.0-51.0-0.0","00071968","wem/bandit_single","A24Z8V5IV2VJ8F","pain","3","","74","J","1","","0","1","0","","0.4058751809","false","14","","0.3423394156","main_expt","","0.4058751809","","0.1605467602","","0.09003395111","","","","","",""
"56","","bandit","90","341239","0.0-52.0-0.0","00071968","wem/bandit_single","A24Z8V5IV2VJ8F","pain","3","","74","J","1","","0","1","0","","0.3784768297","false","15","","0.3514631564","main_expt","","0.3784768297","","0.1270826231","","0.09190110762","","","","","",""
"98","","bandit","91","343101","0.0-53.0-0.0","00071968","wem/bandit_single","A24Z8V5IV2VJ8F","pain","3","","74","J","1","","0","1","0","","0.3742197382","false","16","","0.3763865137","main_expt","","0.3742197382","","0.1659789958","","0.1119147711","","","","","",""
"90","","bandit","92","344954","0.0-54.0-0.0","00071968","wem/bandit_single","A24Z8V5IV2VJ8F","pain","3","","74","J","1","","0","0","1","","0.3738750299","false","17","","0.3613216018","main_expt","","0.3738750299","","0.1810296119","","0.1268228496","","","","","",""
"182","","bandit","93","346894","0.0-55.0-0.0","00071968","wem/bandit_single","A24Z8V5IV2VJ8F","pain","3","","74","J","1","","0","0","1","","0.30878177","false","18","","0.3354311471","main_expt","","0.30878177","","0.2209588372","","0.160542793","","","","","",""
"166","","bandit","94","348818","0.0-56.0-0.0","00071968","wem/bandit_single","A24Z8V5IV2VJ8F","pain","3","","76","L","3","","0","0","1","","0.1913020378","false","19","","0.3151580681","main_expt","","0.3257740717","","0.1577150754","","0.1913020378","","","","","",""
"53","","bandit","95","350635","0.0-57.0-0.0","00071968","wem/bandit_single","A24Z8V5IV2VJ8F","pain","3","","74","J","1","","0","1","0","","0.2780557495","false","20","","0.2633525784","main_expt","","0.2780557495","","0.2368366468","","0.2201213849","","","","","",""
"103","","bandit","96","352499","0.0-58.0-0.0","00071968","wem/bandit_single","A24Z8V5IV2VJ8F","pain","3","","74","J","1","","0","0","1","","0.2552615423","false","21","","0.2730255539","main_expt","","0.2552615423","","0.1692925459","","0.1747441944","","","","","",""
"135","","bandit","97","354396","0.0-59.0-0.0","00071968","wem/bandit_single","A24Z8V5IV2VJ8F","pain","3","","74","J","1","","0","0","1","","0.2862558775","false","22","","0.2366183143","main_expt","","0.2862558775","","0.144462955","","0.1407764438","","","","","",""
"5","","bandit","98","356164","0.0-60.0-0.0","00071968","wem/bandit_single","A24Z8V5IV2VJ8F","pain","3","","74","J","1","","0","0","1","","0.290674517","false","23","","0.2193011186","main_expt","","0.290674517","","0.1928882479","","0.1444197889","","","","","",""
"34","","bandit","99","357962","0.0-61.0-0.0","00071968","wem/bandit_single","A24Z8V5IV2VJ8F","pain","3","","74","J","1","","0","0","1","","0.2669553567","false","24","","0.2058852999","main_expt","","0.2669553567","","0.2077361259","","0.1898422889","","","","","",""
"79","","bandit","100","359804","0.0-62.0-0.0","00071968","wem/bandit_single","A24Z8V5IV2VJ8F","pain","3","","74","J","1","","0","0","1","","0.2134469473","false","25","","0.2377147794","main_expt","","0.2134469473","","0.2580980749","","0.2319991336","","","","","",""
"48","","bandit","101","361613","0.0-63.0-0.0","00071968","wem/bandit_single","A24Z8V5IV2VJ8F","pain","3","","74","J","1","","0","0","1","","0.2027981442","false","26","","0.3017638279","main_expt","","0.2027981442","","0.2593960467","","0.2140617454","","","","","",""
"395","","bandit","102","363769","0.0-64.0-0.0","00071968","wem/bandit_single","A24Z8V5IV2VJ8F","pain","3","","72","H","0","img/none_selected.jpg","0","0","1","","0.2647551657","false","27","","0.2647551657","main_expt","","0.1669761534","","0.2913294918","","0.2186733942","","","","","",""
"327","","bandit","103","365855","0.0-65.0-0.0","00071968","wem/bandit_single","A24Z8V5IV2VJ8F","pain","3","","72","H","0","img/none_selected.jpg","0","1","0","","0.2864353885","false","28","","0.2864353885","main_expt","","0.1301617017","","0.2838721205","","0.2573772923","","","","","",""
"148","","bandit","104","367767","0.0-66.0-0.0","00071968","wem/bandit_single","A24Z8V5IV2VJ8F","pain","3","","72","H","0","img/none_selected.jpg","0","0","1","","0.2669447337","false","29","","0.2669447337","main_expt","","0.1540227795","","0.2225595658","","0.2563684882","","","","","",""
"173","","bandit","105","369705","0.0-67.0-0.0","00071968","wem/bandit_single","A24Z8V5IV2VJ8F","pain","3","","72","H","0","img/none_selected.jpg","0","0","1","","0.242519946","false","30","","0.242519946","main_expt","","0.1290956128","","0.2450998207","","0.3180657859","","","","","",""
"157","","bandit","106","371623","0.0-68.0-0.0","00071968","wem/bandit_single","A24Z8V5IV2VJ8F","pain","3","","72","H","0","img/none_selected.jpg","0","1","0","","0.1808952067","false","31","","0.1808952067","main_expt","","0.157476084","","0.2358374841","","0.3391977199","","","","","",""
"63","","bandit","107","373447","0.0-69.0-0.0","00071968","wem/bandit_single","A24Z8V5IV2VJ8F","pain","3","","72","H","0","img/none_selected.jpg","0","0","1","","0.1490402933","false","32","","0.1490402933","main_expt","","0.1667461438","","0.2465538883","","0.3655242212","","","","","",""
"328","","bandit","108","375535","0.0-70.0-0.0","00071968","wem/bandit_single","A24Z8V5IV2VJ8F","pain","3","","72","H","0","img/none_selected.jpg","0","0","1","","0.1607825008","false","33","","0.1607825008","main_expt","","0.1698659255","","0.2479029149","","0.3476833293","","","","","",""
"94","","bandit","109","377392","0.0-71.0-0.0","00071968","wem/bandit_single","A24Z8V5IV2VJ8F","pain","3","","75","K","2","","0","0","1","","0.1813792252","false","34","","0.2019438485","main_expt","","0.1830702822","","0.1813792252","","0.3287357547","","","","","",""
"48","","bandit","110","379200","0.0-72.0-0.0","00071968","wem/bandit_single","A24Z8V5IV2VJ8F","pain","3","","75","K","2","","0","0","1","","0.1507873856","false","35","","0.1187506792","main_expt","","0.1648441896","","0.1507873856","","0.3568635533","","","","","",""
"35","","bandit","111","380997","0.0-73.0-0.0","00071968","wem/bandit_single","A24Z8V5IV2VJ8F","pain","3","","72","H","0","img/none_selected.jpg","0","0","1","","0.107122158","false","36","","0.107122158","main_expt","","0.1702375356","","0.185146395","","0.2559818432","","","","","",""
"292","","bandit","112","383051","0.0-74.0-0.0","00071968","wem/bandit_single","A24Z8V5IV2VJ8F","pain","3","","72","H","0","img/none_selected.jpg","0","0","1","","0.1462043769","false","37","","0.1462043769","main_expt","","0.1248493821","","0.1995500277","","0.2095103509","","","","","",""
"133","","bandit","113","384945","0.0-75.0-0.0","00071968","wem/bandit_single","A24Z8V5IV2VJ8F","pain","3","","72","H","0","img/none_selected.jpg","0","0","1","","0.1562864446","false","38","","0.1562864446","main_expt","","0.1806095344","","0.2324476024","","0.1824107212","","","","","",""
"20","","bandit","114","386726","0.0-76.0-0.0","00071968","wem/bandit_single","A24Z8V5IV2VJ8F","pain","3","","72","H","0","img/none_selected.jpg","0","0","1","","0.1425148763","false","39","","0.1425148763","main_expt","","0.1636381498","","0.2374336796","","0.180532013","","","","","",""
"126","","bandit","115","388613","0.0-77.0-0.0","00071968","wem/bandit_single","A24Z8V5IV2VJ8F","pain","3","","74","J","1","","0","0","1","","0.128328165","false","40","","0.1332413707","main_expt","","0.128328165","","0.1871034738","","0.209403608","","","","","",""
"164","","bandit","116","390538","0.0-78.0-0.0","00071968","wem/bandit_single","A24Z8V5IV2VJ8F","pain","3","","74","J","1","","0","0","1","","0.1128848486","false","41","","0.170838957","main_expt","","0.1128848486","","0.1923798107","","0.1790729352","","","","","",""
"105","","bandit","117","392405","0.0-79.0-0.0","00071968","wem/bandit_single","A24Z8V5IV2VJ8F","pain","3","","74","J","1","","0","0","1","","0.1024028154","false","42","","0.221577246","main_expt","","0.1024028154","","0.2175202152","","0.1586268334","","","","","",""
"31","","bandit","118","394197","0.0-80.0-0.0","00071968","wem/bandit_single","A24Z8V5IV2VJ8F","pain","3","","76","L","3","","0","0","1","","0.1953085145","false","43","","0.2937465132","main_expt","","0.1842117743","","0.199004634","","0.1953085145","","","","","",""
"100","","bandit","119","396059","0.0-81.0-0.0","00071968","wem/bandit_single","A24Z8V5IV2VJ8F","pain","3","","76","L","3","","0","0","1","","0.229373846","false","44","","0.2473378206","main_expt","","0.2398699605","","0.1979694218","","0.229373846","","","","","",""
"497","","bandit","120","398319","0.0-82.0-0.0","00071968","wem/bandit_single","A24Z8V5IV2VJ8F","pain","3","","75","K","2","","0","1","0","","0.1992427108","false","45","","0.2911711657","main_expt","","0.2666943954","","0.1992427108","","0.2387173179","","","","","",""
"15","","bandit","121","400096","0.0-83.0-0.0","00071968","wem/bandit_single","A24Z8V5IV2VJ8F","pain","3","","75","K","2","","0","1","0","","0.2240306516","false","46","","0.2520057509","main_expt","","0.3187479261","","0.2240306516","","0.2142046797","","","","","",""
"106","","bandit","122","401966","0.0-84.0-0.0","00071968","wem/bandit_single","A24Z8V5IV2VJ8F","pain","3","","74","J","1","","0","1","0","","0.3190608455","false","47","","0.2527148282","main_expt","","0.3190608455","","0.2065012218","","0.2454335886","","","","","",""
"40","","bandit","123","403768","0.0-85.0-0.0","00071968","wem/bandit_single","A24Z8V5IV2VJ8F","pain","3","","74","J","1","","0","0","1","","0.3135096665","false","48","","0.273334487","main_expt","","0.3135096665","","0.1926440163","","0.2810950816","","","","","",""
"101","","bandit","124","405633","0.0-86.0-0.0","00071968","wem/bandit_single","A24Z8V5IV2VJ8F","pain","3","","74","J","1","","0","1","0","","0.3341811191","false","49","","0.3181736471","main_expt","","0.3341811191","","0.1670810943","","0.2547597437","","","","","",""
"58","","bandit","125","407450","0.0-87.0-0.0","00071968","wem/bandit_single","A24Z8V5IV2VJ8F","pain","3","","74","J","1","","0","1","0","","0.3459923598","false","50","","0.3806153608","main_expt","","0.3459923598","","0.1198069869","","0.224323175","","","","","",""
"136","","bandit","126","409347","0.0-88.0-0.0","00071968","wem/bandit_single","A24Z8V5IV2VJ8F","pain","3","","74","J","1","","0","1","0","","0.3331953563","false","51","","0.3949296296","main_expt","","0.3331953563","","0.103394302","","0.2755477452","","","","","",""
"95","","bandit","127","411203","0.0-89.0-0.0","00071968","wem/bandit_single","A24Z8V5IV2VJ8F","pain","3","","74","J","1","","0","1","0","","0.3915962888","false","52","","0.3544293331","main_expt","","0.3915962888","","0.1018912343","","0.3022170302","","","","","",""
"26","","bandit","128","412990","0.0-90.0-0.0","00071968","wem/bandit_single","A24Z8V5IV2VJ8F","pain","3","","74","J","1","","0","0","1","","0.3984086051","false","53","","0.3007967805","main_expt","","0.3984086051","","0.07233269407","","0.2886203433","","","","","",""
"11","","bandit","129","414761","0.0-91.0-0.0","00071968","wem/bandit_single","A24Z8V5IV2VJ8F","pain","3","","74","J","1","","0","0","1","","0.4181407331","false","54","","0.3376398899","main_expt","","0.4181407331","","0.09210147888","","0.3072524501","","","","","",""
"25","","bandit","130","416550","0.0-92.0-0.0","00071968","wem/bandit_single","A24Z8V5IV2VJ8F","pain","3","","74","J","1","","0","1","0","","0.3964386999","false","55","","0.3625264345","main_expt","","0.3964386999","","0.08866102842","","0.3847595325","","","","","",""
"40","","bandit","131","418353","0.0-93.0-0.0","00071968","wem/bandit_single","A24Z8V5IV2VJ8F","pain","3","","74","J","1","","0","0","1","","0.4043277199","false","56","","0.313137485","main_expt","","0.4043277199","","0.1208391037","","0.4008313728","","","","","",""
"160","","bandit","132","420285","0.0-94.0-0.0","00071968","wem/bandit_single","A24Z8V5IV2VJ8F","pain","3","","74","J","1","","0","0","1","","0.3232173094","false","57","","0.3287581384","main_expt","","0.3232173094","","0.1429525169","","0.3763680666","","","","","",""
"17","","bandit","133","422066","0.0-95.0-0.0","00071968","wem/bandit_single","A24Z8V5IV2VJ8F","pain","3","","75","K","2","","0","1","0","","0.1800007821","false","58","","0.2891608333","main_expt","","0.3352595409","","0.1800007821","","0.3630839511","","","","","",""
"11","","bandit","134","423838","0.0-96.0-0.0","00071968","wem/bandit_single","A24Z8V5IV2VJ8F","pain","3","","75","K","2","","0","0","1","","0.1168587732","false","59","","0.2228703537","main_expt","","0.3423270404","","0.1168587732","","0.3166885591","","","","","",""
"145","","bandit","135","425744","0.0-97.0-0.0","00071968","wem/bandit_single","A24Z8V5IV2VJ8F","pain","3","","72","H","0","img/none_selected.jpg","0","0","1","","0.2694349638","false","60","","0.2694349638","main_expt","","0.3326485747","","0.08966050757","","0.3339947878","","","","","",""
"33","","bandit","136","427541","0.0-98.0-0.0","00071968","wem/bandit_single","A24Z8V5IV2VJ8F","pain","3","","72","H","0","img/none_selected.jpg","0","0","1","","0.3291501217","false","61","","0.3291501217","main_expt","","0.3239501662","","0.06827284498","","0.3559621948","","","","","",""
"58","","bandit","137","429362","0.0-99.0-0.0","00071968","wem/bandit_single","A24Z8V5IV2VJ8F","pain","3","","72","H","0","img/none_selected.jpg","0","0","1","","0.3516688484","false","62","","0.3516688484","main_expt","","0.3140158541","","0.0870528816","","0.3565904981","","","","","",""
"111","","bandit","138","431236","0.0-100.0-0.0","00071968","wem/bandit_single","A24Z8V5IV2VJ8F","pain","3","","74","J","1","","0","0","1","","0.2896297009","false","63","","0.3662001291","main_expt","","0.2896297009","","0.07384780705","","0.3766945074","","","","","",""
"28","","bandit","139","433027","0.0-101.0-0.0","00071968","wem/bandit_single","A24Z8V5IV2VJ8F","pain","3","","74","J","1","","0","0","1","","0.2848001348","false","64","","0.3986377969","main_expt","","0.2848001348","","0.09386223648","","0.4038560084","","","","","",""
"214","","bandit","140","435010","0.0-102.0-0.0","00071968","wem/bandit_single","A24Z8V5IV2VJ8F","pain","3","","75","K","2","","0","0","1","","0.08656227431","false","65","","0.4284050928","main_expt","","0.2621939157","","0.08656227431","","0.4081833366","","","","","",""
"366","","bandit","141","437138","0.0-103.0-0.0","00071968","wem/bandit_single","A24Z8V5IV2VJ8F","pain","3","","75","K","2","","0","1","0","","0.1254260964","false","66","","0.4295130084","main_expt","","0.2218985249","","0.1254260964","","0.4111507483","","","","","",""
"332","","bandit","142","439236","0.0-104.0-0.0","00071968","wem/bandit_single","A24Z8V5IV2VJ8F","pain","3","","75","K","2","","0","0","1","","0.0848557225","false","67","","0.4192215244","main_expt","","0.2203007364","","0.0848557225","","0.3731562577","","","","","",""
"211","","bandit","143","441209","0.0-105.0-0.0","00071968","wem/bandit_single","A24Z8V5IV2VJ8F","pain","3","","76","L","3","","0","0","1","","0.3471707475","false","68","","0.4617344849","main_expt","","0.2163243509","","0.1277621339","","0.3471707475","","","","","",""
"1595","","bandit","144","444566","0.0-106.0-0.0","00071968","wem/bandit_single","A24Z8V5IV2VJ8F","pain","3","","76","L","3","","0","0","1","","0.3163780081","false","69","","0.4496684627","main_expt","","0.1552451017","","0.1425885083","","0.3163780081","","","","","",""
"30","","bandit","145","446358","0.0-107.0-0.0","00071968","wem/bandit_single","A24Z8V5IV2VJ8F","pain","3","","75","K","2","","0","1","0","","0.1765985622","false","70","","0.4572021165","main_expt","","0.144295094","","0.1765985622","","0.2872849644","","","","","",""
"103","","bandit","146","448233","0.0-108.0-0.0","00071968","wem/bandit_single","A24Z8V5IV2VJ8F","pain","3","","75","K","2","","0","0","1","","0.1520060204","false","71","","0.457930868","main_expt","","0.1823242822","","0.1520060204","","0.300298776","","","","","",""
"2","","bandit","147","449999","0.0-109.0-0.0","00071968","wem/bandit_single","A24Z8V5IV2VJ8F","pain","3","","74","J","1","","0","0","1","","0.144478384","false","72","","0.4687468973","main_expt","","0.144478384","","0.09933583891","","0.3280152389","","","","","",""
"15","","bandit","148","451776","0.0-110.0-0.0","00071968","wem/bandit_single","A24Z8V5IV2VJ8F","pain","3","","74","J","1","","0","0","1","","0.1420634247","false","73","","0.4707862587","main_expt","","0.1420634247","","0.1087995109","","0.2758062481","","","","","",""
"189","","bandit","149","453729","0.0-111.0-0.0","00071968","wem/bandit_single","A24Z8V5IV2VJ8F","pain","3","","72","H","0","img/none_selected.jpg","0","1","0","","0.4602293826","false","74","","0.4602293826","main_expt","","0.1358649702","","0.150223613","","0.3370537031","","","","","",""
"64","","bandit","150","455558","0.0-112.0-0.0","00071968","wem/bandit_single","A24Z8V5IV2VJ8F","pain","3","","72","H","0","img/none_selected.jpg","0","0","1","","0.439891953","false","75","","0.439891953","main_expt","","0.09700523291","","0.1945690608","","0.3323795279","","","","","",""
"14","","bandit","151","457334","0.0-113.0-0.0","00071968","wem/bandit_single","A24Z8V5IV2VJ8F","pain","3","","74","J","1","","0","0","1","","0.07829726083","false","76","","0.4424180744","main_expt","","0.07829726083","","0.2454913388","","0.3822428931","","","","","",""
"71","","bandit","152","459169","0.0-114.0-0.0","00071968","wem/bandit_single","A24Z8V5IV2VJ8F","pain","3","","74","J","1","","0","0","1","","0.08460916486","false","77","","0.4066280348","main_expt","","0.08460916486","","0.2181262922","","0.4136836411","","","","","",""
"316","","bandit","153","461250","0.0-115.0-0.0","00071968","wem/bandit_single","A24Z8V5IV2VJ8F","pain","3","","72","H","0","img/none_selected.jpg","0","0","1","","0.3969262671","false","78","","0.3969262671","main_expt","","0.0875988483","","0.2500794828","","0.4505469687","","","","","",""
"44","","bandit","154","463057","0.0-116.0-0.0","00071968","wem/bandit_single","A24Z8V5IV2VJ8F","pain","3","","72","H","0","img/none_selected.jpg","0","0","1","","0.4119020232","false","79","","0.4119020232","main_expt","","0.06491107755","","0.2021405589","","0.4251749511","","","","","",""
"221","","bandit","155","465042","0.0-117.0-0.0","00071968","wem/bandit_single","A24Z8V5IV2VJ8F","pain","3","","72","H","0","img/none_selected.jpg","0","1","0","","0.3797331509","false","80","","0.3797331509","main_expt","","0.1021818806","","0.1654874554","","0.3976376265","","","","","",""
"144","","bandit","156","466949","0.0-118.0-0.0","00071968","wem/bandit_single","A24Z8V5IV2VJ8F","pain","3","","72","H","0","img/none_selected.jpg","0","1","0","","0.4024270851","false","81","","0.4024270851","main_expt","","0.07175209231","","0.1281487551","","0.409462467","","","","","",""
"26","","bandit","157","468740","0.0-119.0-0.0","00071968","wem/bandit_single","A24Z8V5IV2VJ8F","pain","3","","72","H","0","img/none_selected.jpg","0","0","1","","0.3976574516","false","82","","0.3976574516","main_expt","","0.04651379375","","0.1167166884","","0.4541942335","","","","","",""
"267","","bandit","158","470770","0.0-120.0-0.0","00071968","wem/bandit_single","A24Z8V5IV2VJ8F","pain","3","","72","H","0","img/none_selected.jpg","0","0","1","","0.3749492802","false","83","","0.3749492802","main_expt","","0.03148502893","","0.1426109787","","0.4452160763","","","","","",""
"3622","","bandit","159","476156","0.0-121.0-0.0","00071968","wem/bandit_single","A24Z8V5IV2VJ8F","pain","3","","72","H","0","img/none_selected.jpg","0","0","1","","0.4021863709","false","84","","0.4021863709","main_expt","","0.05186863446","","0.121887906","","0.438985114","","","","","",""
"864","","bandit","160","478785","0.0-122.0-0.0","00071968","wem/bandit_single","A24Z8V5IV2VJ8F","pain","3","","74","J","1","","0","0","1","","0.04986731509","false","85","","0.3624574422","main_expt","","0.04986731509","","0.1361926199","","0.4331173667","","","","","",""
"1454","","bandit","161","482006","0.0-123.0-0.0","00071968","wem/bandit_single","A24Z8V5IV2VJ8F","pain","3","","75","K","2","","0","0","1","","0.1287871674","false","86","","0.387939101","main_expt","","0.05891938772","","0.1287871674","","0.447547065","","","","","",""
"120","","bandit","162","483890","0.0-124.0-0.0","00071968","wem/bandit_single","A24Z8V5IV2VJ8F","pain","3","","75","K","2","","0","0","1","","0.13112728","false","87","","0.3949621072","main_expt","","0.06619539979","","0.13112728","","0.4451560311","","","","","",""
"160","","bandit","163","485816","0.0-125.0-0.0","00071968","wem/bandit_single","A24Z8V5IV2VJ8F","pain","3","","74","J","1","","0","0","1","","0.03553047297","false","88","","0.3789082299","main_expt","","0.03553047297","","0.1385028762","","0.4010299359","","","","","",""
"57","","bandit","164","487814","0.0-126.0-0.0","00071968","wem/bandit_single","A24Z8V5IV2VJ8F","pain","3","","72","H","0","img/none_selected.jpg","0","0","1","","0.3718344374","false","89","","0.3718344374","main_expt","","0.03983007571","","0.1377901848","","0.430672582","","","","","",""
"1105","","bandit","165","490681","0.0-127.0-0.0","00071968","wem/bandit_single","A24Z8V5IV2VJ8F","pain","3","","72","H","0","img/none_selected.jpg","0","0","1","","0.4341719303","false","90","","0.4341719303","main_expt","","0.02618566652","","0.1642812903","","0.4063924327","","","","","",""
"2966","","bandit","166","495412","0.0-128.0-0.0","00071968","wem/bandit_single","A24Z8V5IV2VJ8F","pain","3","","72","H","0","img/none_selected.jpg","0","1","0","","0.4538289377","false","91","","0.4538289377","main_expt","","0.03325063158","","0.2115922749","","0.4115689239","","","","","",""
"64","","bandit","167","497235","0.0-129.0-0.0","00071968","wem/bandit_single","A24Z8V5IV2VJ8F","pain","3","","72","H","0","img/none_selected.jpg","0","0","1","","0.4508501544","false","92","","0.4508501544","main_expt","","0.02042352937","","0.1819790886","","0.4195244723","","","","","",""
"315","","bandit","168","499313","0.0-130.0-0.0","00071968","wem/bandit_single","A24Z8V5IV2VJ8F","pain","3","","74","J","1","","0","0","1","","0.01887694535","false","93","","0.4548943395","main_expt","","0.01887694535","","0.2039146085","","0.3976010387","","","","","",""
"233","","bandit","169","501308","0.0-131.0-0.0","00071968","wem/bandit_single","A24Z8V5IV2VJ8F","pain","3","","72","H","0","img/none_selected.jpg","0","1","0","","0.4646086811","false","94","","0.4646086811","main_expt","","0.02367451168","","0.2307813202","","0.3668479885","","","","","",""
"154","","bandit","170","503225","0.0-132.0-0.0","00071968","wem/bandit_single","A24Z8V5IV2VJ8F","pain","3","","72","H","0","img/none_selected.jpg","0","0","1","","0.467541367","false","95","","0.467541367","main_expt","","0.02723032617","","0.2213313998","","0.3332342888","","","","","",""
"15","","bandit","171","505004","0.0-133.0-0.0","00071968","wem/bandit_single","A24Z8V5IV2VJ8F","pain","3","","72","H","0","img/none_selected.jpg","0","1","0","","0.4642351642","false","96","","0.4642351642","main_expt","","0.02648196594","","0.2568515079","","0.2884910782","","","","","",""
"188","","bandit","172","506957","0.0-134.0-0.0","00071968","wem/bandit_single","A24Z8V5IV2VJ8F","pain","3","","72","H","0","img/none_selected.jpg","0","0","1","","0.4467755515","false","97","","0.4467755515","main_expt","","0.01585024216","","0.2699845376","","0.2656891479","","","","","",""
"357","","bandit","173","509081","0.0-135.0-0.0","00071968","wem/bandit_single","A24Z8V5IV2VJ8F","pain","3","","72","H","0","img/none_selected.jpg","0","0","1","","0.4056350907","false","98","","0.4056350907","main_expt","","0.01169409205","","0.2797451528","","0.2595300749","","","","","",""
"12","","bandit","174","510860","0.0-136.0-0.0","00071968","wem/bandit_single","A24Z8V5IV2VJ8F","pain","3","","74","J","1","","0","0","1","","0.01197913588","false","99","","0.339742379","main_expt","","0.01197913588","","0.3187705275","","0.2519900202","","","","","",""
"228","","bandit","175","512854","0.0-137.0-0.0","00071968","wem/bandit_single","A24Z8V5IV2VJ8F","pain","3","","72","H","0","img/none_selected.jpg","0","0","1","","0.3381167522","false","100","","0.3381167522","main_expt","","0.01759776774","","0.3570824245","","0.2523409295","","","","","",""
"283","","bandit","176","514902","0.0-138.0-0.0","00071968","wem/bandit_single","A24Z8V5IV2VJ8F","pain","3","","74","J","1","","0","0","1","","0.04295615511","false","101","","0.2803213009","main_expt","","0.04295615511","","0.3489468272","","0.2146893193","","","","","",""
"177","","bandit","177","516851","0.0-139.0-0.0","00071968","wem/bandit_single","A24Z8V5IV2VJ8F","pain","3","","75","K","2","","0","1","0","","0.3015799625","false","102","","0.317644571","main_expt","","0.06572998715","","0.3015799625","","0.1843767259","","","","","",""
"181","","bandit","178","518798","0.0-140.0-0.0","00071968","wem/bandit_single","A24Z8V5IV2VJ8F","pain","3","","75","K","2","","0","0","1","","0.2656450655","false","103","","0.3024927185","main_expt","","0.1043212589","","0.2656450655","","0.2108432206","","","","","",""
"126","","bandit","179","520688","0.0-141.0-0.0","00071968","wem/bandit_single","A24Z8V5IV2VJ8F","pain","3","","74","J","1","","0","0","1","","0.07063930719","false","104","","0.3339077782","main_expt","","0.07063930719","","0.261155182","","0.26792014","","","","","",""
"108","","bandit","180","522561","0.0-142.0-0.0","00071968","wem/bandit_single","A24Z8V5IV2VJ8F","pain","3","","74","J","1","","0","0","1","","0.09992353171","false","105","","0.2966783269","main_expt","","0.09992353171","","0.2794756432","","0.3302583292","","","","","",""
"277","","bandit","181","524602","0.0-143.0-0.0","00071968","wem/bandit_single","A24Z8V5IV2VJ8F","pain","3","","74","J","1","","0","0","1","","0.1074399807","false","106","","0.3722996478","main_expt","","0.1074399807","","0.2719827923","","0.3099187861","","","","","",""
"583","","bandit","182","526951","0.0-144.0-0.0","00071968","wem/bandit_single","A24Z8V5IV2VJ8F","pain","3","","72","H","0","img/none_selected.jpg","0","0","1","","0.3764369168","false","107","","0.3764369168","main_expt","","0.1398361659","","0.2614179637","","0.3526315454","","","","","",""
"158","","bandit","183","528872","0.0-145.0-0.0","00071968","wem/bandit_single","A24Z8V5IV2VJ8F","pain","3","","75","K","2","","0","1","0","","0.3154283329","false","108","","0.3221289315","main_expt","","0.1503356919","","0.3154283329","","0.3741147492","","","","","",""
"134","","bandit","184","530771","0.0-146.0-0.0","00071968","wem/bandit_single","A24Z8V5IV2VJ8F","pain","3","","74","J","1","","0","0","1","","0.1554773292","false","109","","0.3394272446","main_expt","","0.1554773292","","0.3965133924","","0.3775387023","","","","","",""
"68","","bandit","185","532603","0.0-147.0-0.0","00071968","wem/bandit_single","A24Z8V5IV2VJ8F","pain","3","","72","H","0","img/none_selected.jpg","0","0","1","","0.3108194313","false","110","","0.3108194313","main_expt","","0.1862379276","","0.4096679205","","0.3603169275","","","","","",""
"333","","bandit","186","534703","0.0-148.0-0.0","00071968","wem/bandit_single","A24Z8V5IV2VJ8F","pain","3","","72","H","0","img/none_selected.jpg","0","0","1","","0.2754643313","false","111","","0.2754643313","main_expt","","0.2096222548","","0.4107972434","","0.3492898999","","","","","",""
"1150","","bandit","187","537621","0.0-149.0-0.0","00071968","wem/bandit_single","A24Z8V5IV2VJ8F","pain","3","","72","H","0","img/none_selected.jpg","0","0","1","","0.2906444469","false","112","","0.2906444469","main_expt","","0.2432579143","","0.4229867006","","0.3332089306","","","","","",""
"130","","bandit","188","539517","0.0-150.0-0.0","00071968","wem/bandit_single","A24Z8V5IV2VJ8F","pain","3","","74","J","1","","0","0","1","","0.1721880852","false","113","","0.3006146448","main_expt","","0.1721880852","","0.4045712819","","0.3450976056","","","","","",""
"109","","bandit","189","541401","0.0-151.0-0.0","00071968","wem/bandit_single","A24Z8V5IV2VJ8F","pain","3","","74","J","1","","0","0","1","","0.2081909003","false","114","","0.2668468313","main_expt","","0.2081909003","","0.3821667802","","0.3725565121","","","","","",""
"150","","bandit","190","543316","0.0-152.0-0.0","00071968","wem/bandit_single","A24Z8V5IV2VJ8F","pain","3","","74","J","1","","0","0","1","","0.272711811","false","115","","0.3032344037","main_expt","","0.272711811","","0.3342096713","","0.3789561431","","","","","",""
"90","","bandit","191","545171","0.0-153.0-0.0","00071968","wem/bandit_single","A24Z8V5IV2VJ8F","pain","3","","75","K","2","","0","0","1","","0.3475890958","false","116","","0.279678247","main_expt","","0.2801201945","","0.3475890958","","0.3829881954","","","","","",""
"186","","bandit","192","547123","0.0-154.0-0.0","00071968","wem/bandit_single","A24Z8V5IV2VJ8F","pain","3","","72","H","0","img/none_selected.jpg","0","0","1","","0.2762620489","false","117","","0.2762620489","main_expt","","0.3615324036","","0.3545652452","","0.3872477479","","","","","",""
"61","","bandit","193","548949","0.0-155.0-0.0","00071968","wem/bandit_single","A24Z8V5IV2VJ8F","pain","3","","72","H","0","img/none_selected.jpg","0","1","0","","0.2880572365","false","118","","0.2880572365","main_expt","","0.3615177178","","0.3542043025","","0.3952603005","","","","","",""
"127","","bandit","194","550840","0.0-156.0-0.0","00071968","wem/bandit_single","A24Z8V5IV2VJ8F","pain","3","","72","H","0","img/none_selected.jpg","0","0","1","","0.2807620685","false","119","","0.2807620685","main_expt","","0.3875935955","","0.3471352845","","0.3838673248","","","","","",""
"25","","bandit","195","552630","0.0-157.0-0.0","00071968","wem/bandit_single","A24Z8V5IV2VJ8F","pain","3","","74","J","1","","0","1","0","","0.4052723714","false","120","","0.2811576832","main_expt","","0.4052723714","","0.3343169965","","0.4148997213","","","","","",""
"50","","bandit","196","554447","0.0-158.0-0.0","00071968","wem/bandit_single","A24Z8V5IV2VJ8F","pain","3","","74","J","1","","0","0","1","","0.44462971","false","121","","0.3016455194","main_expt","","0.44462971","","0.3595120763","","0.4184259471","","","","","",""
"128","","bandit","197","556340","0.0-159.0-0.0","00071968","wem/bandit_single","A24Z8V5IV2VJ8F","pain","3","","74","J","1","","0","0","1","","0.4338931322","false","122","","0.3161331551","main_expt","","0.4338931322","","0.3296914373","","0.4271141924","","","","","",""
"196","","bandit","198","558299","0.0-160.0-0.0","00071968","wem/bandit_single","A24Z8V5IV2VJ8F","pain","3","","75","K","2","","0","0","1","","0.3369167856","false","123","","0.2882518765","main_expt","","0.4248885798","","0.3369167856","","0.3994299035","","","","","",""
"71","","bandit","199","560135","0.0-161.0-0.0","00071968","wem/bandit_single","A24Z8V5IV2VJ8F","pain","3","","72","H","0","img/none_selected.jpg","0","1","0","","0.3426101702","false","124","","0.3426101702","main_expt","","0.3773411534","","0.3181772373","","0.4319292606","","","","","",""
"184","","bandit","200","562084","0.0-162.0-0.0","00071968","wem/bandit_single","A24Z8V5IV2VJ8F","pain","3","","72","H","0","img/none_selected.jpg","0","1","0","","0.3623178769","false","125","","0.3623178769","main_expt","","0.3322500489","","0.3285823626","","0.4228137624","","","","","",""
"203","","bandit","201","564051","0.0-163.0-0.0","00071968","wem/bandit_single","A24Z8V5IV2VJ8F","pain","3","","72","H","0","img/none_selected.jpg","0","0","1","","0.3487147863","false","126","","0.3487147863","main_expt","","0.3742157909","","0.3203566048","","0.4445824992","","","","","",""
"65","","bandit","202","565881","0.0-164.0-0.0","00071968","wem/bandit_single","A24Z8V5IV2VJ8F","pain","3","","74","J","1","","0","0","1","","0.3851047317","false","127","","0.4137567253","main_expt","","0.3851047317","","0.3852478983","","0.4525048151","","","","","",""
"208","","bandit","203","567854","0.0-165.0-0.0","00071968","wem/bandit_single","A24Z8V5IV2VJ8F","pain","3","","75","K","2","","0","1","0","","0.3389365807","false","128","","0.3814482247","main_expt","","0.4043255462","","0.3389365807","","0.4692783601","","","","","",""
"196","","bandit","204","569813","0.0-166.0-0.0","00071968","wem/bandit_single","A24Z8V5IV2VJ8F","pain","3","","75","K","2","","0","0","1","","0.3137404055","false","129","","0.4168244781","main_expt","","0.4123407707","","0.3137404055","","0.4168961411","","","","","",""
"37","","bandit","205","571615","0.0-167.0-0.0","00071968","wem/bandit_single","A24Z8V5IV2VJ8F","pain","3","","74","J","1","","0","1","0","","0.4046971735","false","130","","0.4365918222","main_expt","","0.4046971735","","0.3258581953","","0.3790243023","","","","","",""
"271","","bandit","206","573653","0.0-168.0-0.0","00071968","wem/bandit_single","A24Z8V5IV2VJ8F","pain","3","","74","J","1","","0","0","1","","0.4461276952","false","131","","0.4389841863","main_expt","","0.4461276952","","0.2883577813","","0.4049885765","","","","","",""
"10","","bandit","207","575427","0.0-169.0-0.0","00071968","wem/bandit_single","A24Z8V5IV2VJ8F","pain","3","","72","H","0","img/none_selected.jpg","0","0","1","","0.4152650591","false","132","","0.4152650591","main_expt","","0.4611465992","","0.3560589507","","0.4146365962","","","","","",""
"1028","","bandit","208","578221","0.0-170.0-0.0","00071968","wem/bandit_single","A24Z8V5IV2VJ8F","pain","3","","72","H","0","img/none_selected.jpg","0","0","1","","0.4542457407","false","133","","0.4542457407","main_expt","","0.4798080461","","0.358394082","","0.3895917514","","","","","",""
"99","","bandit","209","580081","0.0-171.0-0.0","00071968","wem/bandit_single","A24Z8V5IV2VJ8F","pain","3","","74","J","1","","0","1","0","","0.4536835414","false","134","","0.4598844585","main_expt","","0.4536835414","","0.3605573227","","0.4031985028","","","","","",""
"88","","bandit","210","581936","0.0-172.0-0.0","00071968","wem/bandit_single","A24Z8V5IV2VJ8F","pain","3","","74","J","1","","0","1","0","","0.4297718384","false","135","","0.4690925783","main_expt","","0.4297718384","","0.3695471057","","0.3950250086","","","","","",""
"548","","bandit","211","584251","0.0-173.0-0.0","00071968","wem/bandit_single","A24Z8V5IV2VJ8F","pain","3","","74","J","1","","0","0","1","","0.4047290025","false","136","","0.4382452635","main_expt","","0.4047290025","","0.4060603524","","0.3958408827","","","","","",""
"90","","bandit","212","586106","0.0-174.0-0.0","00071968","wem/bandit_single","A24Z8V5IV2VJ8F","pain","3","","75","K","2","","0","1","0","","0.3977168634","false","137","","0.4469583278","main_expt","","0.4062789173","","0.3977168634","","0.4025558346","","","","","",""
"51","","bandit","213","587925","0.0-175.0-0.0","00071968","wem/bandit_single","A24Z8V5IV2VJ8F","pain","3","","72","H","0","img/none_selected.jpg","0","0","1","","0.44739429","false","138","","0.44739429","main_expt","","0.3893267926","","0.3884520433","","0.3901350715","","","","","",""
"6","","bandit","214","589698","0.0-176.0-0.0","00071968","wem/bandit_single","A24Z8V5IV2VJ8F","pain","3","","74","J","1","","0","1","0","","0.3355070849","false","139","","0.4329330235","main_expt","","0.3355070849","","0.3517782966","","0.4069565875","","","","","",""
"139","","bandit","215","591604","0.0-177.0-0.0","00071968","wem/bandit_single","A24Z8V5IV2VJ8F","pain","3","","74","J","1","","0","1","0","","0.3033729388","false","140","","0.4427321083","main_expt","","0.3033729388","","0.3147433726","","0.4384632306","","","","","",""
"48","","bandit","216","593421","0.0-178.0-0.0","00071968","wem/bandit_single","A24Z8V5IV2VJ8F","pain","3","","74","J","1","","0","1","0","","0.3495942718","false","141","","0.4630674526","main_expt","","0.3495942718","","0.315874603","","0.4513823692","","","","","",""
"52","","bandit","217","595238","0.0-179.0-0.0","00071968","wem/bandit_single","A24Z8V5IV2VJ8F","pain","3","","74","J","1","","0","1","0","","0.373744609","false","142","","0.4678156034","main_expt","","0.373744609","","0.2660579121","","0.4477105457","","","","","",""
"795","","bandit","218","597804","0.0-180.0-0.0","00071968","wem/bandit_single","A24Z8V5IV2VJ8F","pain","3","","74","J","1","","0","0","1","","0.3983109068","false","143","","0.4556942345","main_expt","","0.3983109068","","0.2791435274","","0.4399018081","","","","","",""
"45","","bandit","219","599615","0.0-181.0-0.0","00071968","wem/bandit_single","A24Z8V5IV2VJ8F","pain","3","","74","J","1","","0","1","0","","0.4290647624","false","144","","0.4606745253","main_expt","","0.4290647624","","0.3232226047","","0.3929519584","","","","","",""
"13","","bandit","220","601395","0.0-182.0-0.0","00071968","wem/bandit_single","A24Z8V5IV2VJ8F","pain","3","","74","J","1","","0","1","0","","0.4360055891","false","145","","0.4493721712","main_expt","","0.4360055891","","0.2863527335","","0.3638959839","","","","","",""
"82","","bandit","221","603239","0.0-183.0-0.0","00071968","wem/bandit_single","A24Z8V5IV2VJ8F","pain","3","","74","J","1","","0","0","1","","0.4408793748","false","146","","0.411205332","main_expt","","0.4408793748","","0.2399582054","","0.3109408856","","","","","",""
"3","","bandit","222","605008","0.0-184.0-0.0","00071968","wem/bandit_single","A24Z8V5IV2VJ8F","pain","3","","74","J","1","","0","1","0","","0.4152856751","false","147","","0.4091009254","main_expt","","0.4152856751","","0.2186627863","","0.303790043","","","","","",""
"64","","bandit","223","606835","0.0-185.0-0.0","00071968","wem/bandit_single","A24Z8V5IV2VJ8F","pain","3","","74","J","1","","0","0","1","","0.400149315","false","148","","0.3878952866","main_expt","","0.400149315","","0.233860686","","0.2836070719","","","","","",""
"65","","bandit","224","608667","0.0-186.0-0.0","00071968","wem/bandit_single","A24Z8V5IV2VJ8F","pain","3","","74","J","1","","0","1","0","","0.4081055764","false","149","","0.39239053","main_expt","","0.4081055764","","0.2752018233","","0.2132997302","","","","","",""
"131","","bandit","225","610565","0.0-187.0-0.0","00071968","wem/bandit_single","A24Z8V5IV2VJ8F","pain","3","","74","J","1","","0","1","0","","0.3946041437","false","150","","0.3869122725","main_expt","","0.3946041437","","0.2306982087","","0.1906505553","","","","","",""
"112","","bandit","226","612445","0.0-188.0-0.0","00071968","wem/bandit_single","A24Z8V5IV2VJ8F","pain","3","","74","J","1","","0","1","0","","0.3517385329","false","151","","0.3562084687","main_expt","","0.3517385329","","0.272940168","","0.1887938372","","","","","",""
"29","","bandit","227","614241","0.0-189.0-0.0","00071968","wem/bandit_single","A24Z8V5IV2VJ8F","pain","3","","74","J","1","","0","1","0","","0.33807167","false","152","","0.3975166132","main_expt","","0.33807167","","0.246833375","","0.1452925277","","","","","",""
"136","","bandit","228","616148","0.0-190.0-0.0","00071968","wem/bandit_single","A24Z8V5IV2VJ8F","pain","3","","74","J","1","","0","1","0","","0.3507556502","false","153","","0.4221253747","main_expt","","0.3507556502","","0.2555278221","","0.1236287895","","","","","",""
"15","","bandit","229","617930","0.0-191.0-0.0","00071968","wem/bandit_single","A24Z8V5IV2VJ8F","pain","3","","74","J","1","","0","0","1","","0.3484399371","false","154","","0.3887365422","main_expt","","0.3484399371","","0.1964980564","","0.119712108","","","","","",""
"79","","bandit","230","619777","0.0-192.0-0.0","00071968","wem/bandit_single","A24Z8V5IV2VJ8F","pain","3","","74","J","1","","0","0","1","","0.4023996329","false","155","","0.3935049101","main_expt","","0.4023996329","","0.2158986014","","0.1638630184","","","","","",""
"97","","bandit","231","621641","0.0-193.0-0.0","00071968","wem/bandit_single","A24Z8V5IV2VJ8F","pain","3","","74","J","1","","0","1","0","","0.3489947109","false","156","","0.4185769797","main_expt","","0.3489947109","","0.2269609611","","0.138562935","","","","","",""
"12","","bandit","232","623423","0.0-194.0-0.0","00071968","wem/bandit_single","A24Z8V5IV2VJ8F","pain","3","","74","J","1","","0","1","0","","0.3223479281","false","157","","0.412821327","main_expt","","0.3223479281","","0.2997599927","","0.1424057266","","","","","",""
"101","","bandit","233","625290","0.0-195.0-0.0","00071968","wem/bandit_single","A24Z8V5IV2VJ8F","pain","3","","74","J","1","","0","0","1","","0.3334556671","false","158","","0.4433072999","main_expt","","0.3334556671","","0.2608946303","","0.1068688432","","","","","",""
"268","","bandit","234","627324","0.0-196.0-0.0","00071968","wem/bandit_single","A24Z8V5IV2VJ8F","pain","3","","74","J","1","","0","0","1","","0.3686402331","false","159","","0.4600675837","main_expt","","0.3686402331","","0.2927903113","","0.08394897778","","","","","",""
"185","","bandit","235","629277","0.0-197.0-0.0","00071968","wem/bandit_single","A24Z8V5IV2VJ8F","pain","3","","74","J","1","","0","0","1","","0.3711838842","false","160","","0.449399373","main_expt","","0.3711838842","","0.3165869591","","0.09909711901","","","","","",""
"75","","bandit","236","631119","0.0-198.0-0.0","00071968","wem/bandit_single","A24Z8V5IV2VJ8F","pain","3","","74","J","1","","0","1","0","","0.385982022","false","161","","0.4303005813","main_expt","","0.385982022","","0.3355773311","","0.09256485174","","","","","",""
"114","","bandit","237","633000","0.0-199.0-0.0","00071968","wem/bandit_single","A24Z8V5IV2VJ8F","pain","3","","74","J","1","","0","0","1","","0.3435676447","false","162","","0.4319487415","main_expt","","0.3435676447","","0.3801839585","","0.07550585721","","","","","",""
"443","","bandit","238","635216","0.0-200.0-0.0","00071968","wem/bandit_single","A24Z8V5IV2VJ8F","pain","3","","74","J","1","","0","0","1","","0.3840292687","false","163","","0.4459750046","main_expt","","0.3840292687","","0.3796909961","","0.08055395315","","","","","",""
"34","","bandit","239","637017","0.0-201.0-0.0","00071968","wem/bandit_single","A24Z8V5IV2VJ8F","pain","3","","72","H","0","img/none_selected.jpg","0","0","1","","0.4529977304","false","164","","0.4529977304","main_expt","","0.3427058888","","0.3657353238","","0.07824920034","","","","","",""
"304","","bandit","240","639083","0.0-202.0-0.0","00071968","wem/bandit_single","A24Z8V5IV2VJ8F","pain","3","","72","H","0","img/none_selected.jpg","0","0","1","","0.4472909282","false","165","","0.4472909282","main_expt","","0.3258967388","","0.3937598932","","0.08439791844","","","","","",""
"1250","","bandit","241","642099","0.0-203.0-0.0","00071968","wem/bandit_single","A24Z8V5IV2VJ8F","pain","3","","72","H","0","img/none_selected.jpg","0","0","1","","0.4399772256","false","166","","0.4399772256","main_expt","","0.2704303424","","0.3914196171","","0.05039915739","","","","","",""
"93","","bandit","242","643959","0.0-204.0-0.0","00071968","wem/bandit_single","A24Z8V5IV2VJ8F","pain","3","","74","J","1","","0","0","1","","0.3205555932","false","167","","0.4636729032","main_expt","","0.3205555932","","0.3919877423","","0.05759530337","","","","","",""
"98","","bandit","243","645825","0.0-205.0-0.0","00071968","wem/bandit_single","A24Z8V5IV2VJ8F","pain","3","","74","J","1","","0","1","0","","0.3639109947","false","168","","0.4437796743","main_expt","","0.3639109947","","0.3647459683","","0.04992464654","","","","","",""
"68","","bandit","244","647663","0.0-206.0-0.0","00071968","wem/bandit_single","A24Z8V5IV2VJ8F","pain","3","","74","J","1","","0","0","1","","0.3733582142","false","169","","0.456101387","main_expt","","0.3733582142","","0.4058418149","","0.03416660819","","","","","",""
"34","","bandit","245","649461","0.0-207.0-0.0","00071968","wem/bandit_single","A24Z8V5IV2VJ8F","pain","3","","74","J","1","","0","0","1","","0.3832331311","false","170","","0.4571218852","main_expt","","0.3832331311","","0.3998590153","","0.01917125828","","","","","",""
"237","","bandit","246","651466","0.0-208.0-0.0","00071968","wem/bandit_single","A24Z8V5IV2VJ8F","pain","3","","75","K","2","","0","0","1","","0.3887500458","false","171","","0.445510323","main_expt","","0.3815339887","","0.3887500458","","0.02244253376","","","","","",""
"120","","bandit","247","653348","0.0-209.0-0.0","00071968","wem/bandit_single","A24Z8V5IV2VJ8F","pain","3","","74","J","1","","0","1","0","","0.3471775219","false","172","","0.4280794999","main_expt","","0.3471775219","","0.4102182378","","0.02619280326","","","","","",""
"133","","bandit","248","655251","0.0-210.0-0.0","00071968","wem/bandit_single","A24Z8V5IV2VJ8F","pain","3","","74","J","1","","0","0","1","","0.340289466","false","173","","0.4379780546","main_expt","","0.340289466","","0.3895773165","","0.0218428458","","","","","",""
"294","","bandit","249","657313","0.0-211.0-0.0","00071968","wem/bandit_single","A24Z8V5IV2VJ8F","pain","3","","74","J","1","","0","0","1","","0.3280863639","false","174","","0.4160926905","main_expt","","0.3280863639","","0.3826402373","","0.02840617367","","","","","",""
"259","","bandit","250","659340","0.0-212.0-0.0","00071968","wem/bandit_single","A24Z8V5IV2VJ8F","pain","3","","74","J","1","","0","1","0","","0.3782643392","false","175","","0.44195178","main_expt","","0.3782643392","","0.38572844","","0.0268928826","","","","","",""
"128","","bandit","251","661235","0.0-213.0-0.0","00071968","wem/bandit_single","A24Z8V5IV2VJ8F","pain","3","","74","J","1","","0","0","1","","0.3714875018","false","176","","0.4469840309","main_expt","","0.3714875018","","0.3566605828","","0.04471375276","","","","","",""
"154","","bandit","252","663159","0.0-214.0-0.0","00071968","wem/bandit_single","A24Z8V5IV2VJ8F","pain","3","","74","J","1","","0","1","0","","0.3110573775","false","177","","0.4732589693","main_expt","","0.3110573775","","0.3736379944","","0.04508647299","","","","","",""
"197","","bandit","253","665124","0.0-215.0-0.0","00071968","wem/bandit_single","A24Z8V5IV2VJ8F","pain","3","","72","H","0","img/none_selected.jpg","0","0","1","","0.4716065645","false","178","","0.4716065645","main_expt","","0.3725785744","","0.3835263095","","0.07342594821","","","","","",""
"152","","bandit","254","667045","0.0-216.0-0.0","00071968","wem/bandit_single","A24Z8V5IV2VJ8F","pain","3","","75","K","2","","0","0","1","","0.3531759074","false","179","","0.4724187392","main_expt","","0.4143512522","","0.3531759074","","0.08189943715","","","","","",""
"95","","bandit","255","668908","0.0-217.0-0.0","00071968","wem/bandit_single","A24Z8V5IV2VJ8F","pain","3","","74","J","1","","0","1","0","","0.4240428135","false","180","","0.4551908631","main_expt","","0.4240428135","","0.3185705061","","0.07894611151","","","","","",""
"344","","bandit","256","671022","0.0-218.0-0.0","00071968","wem/bandit_single","A24Z8V5IV2VJ8F","pain","3","","74","J","1","","0","0","1","","0.4394908049","false","181","","0.456416976","main_expt","","0.4394908049","","0.2823592255","","0.06982230443","","","","","",""
"62","","bandit","257","672847","0.0-219.0-0.0","00071968","wem/bandit_single","A24Z8V5IV2VJ8F","pain","3","","74","J","1","","0","1","0","","0.4180692962","false","182","","0.4525945541","main_expt","","0.4180692962","","0.2741397005","","0.06674639092","","","","","",""
"58","","bandit","258","674675","0.0-220.0-0.0","00071968","wem/bandit_single","A24Z8V5IV2VJ8F","pain","3","","74","J","1","","0","0","1","","0.4468782907","false","183","","0.4439654651","main_expt","","0.4468782907","","0.2936799338","","0.04008595334","","","","","",""
"460","","bandit","259","676899","0.0-221.0-0.0","00071968","wem/bandit_single","A24Z8V5IV2VJ8F","pain","3","","72","H","0","img/none_selected.jpg","0","1","0","","0.4366406792","false","184","","0.4366406792","main_expt","","0.4489540851","","0.3027831177","","0.04652727321","","","","","",""
"167","","bandit","260","678835","0.0-222.0-0.0","00071968","wem/bandit_single","A24Z8V5IV2VJ8F","pain","3","","72","H","0","img/none_selected.jpg","0","1","0","","0.4282468188","false","185","","0.4282468188","main_expt","","0.4669005471","","0.3180510168","","0.05033673313","","","","","",""
"117","","bandit","261","680720","0.0-223.0-0.0","00071968","wem/bandit_single","A24Z8V5IV2VJ8F","pain","3","","72","H","0","img/none_selected.jpg","0","1","0","","0.4249990568","false","186","","0.4249990568","main_expt","","0.419417397","","0.3285352945","","0.03009771755","","","","","",""
"135","","bandit","262","682626","0.0-224.0-0.0","00071968","wem/bandit_single","A24Z8V5IV2VJ8F","pain","3","","72","H","0","img/none_selected.jpg","0","0","1","","0.4159118542","false","187","","0.4159118542","main_expt","","0.3735271503","","0.3278715557","","0.02601150791","","","","","",""
"578","","bandit","263","684973","0.0-225.0-0.0","00071968","wem/bandit_single","A24Z8V5IV2VJ8F","pain","3","","72","H","0","img/none_selected.jpg","0","0","1","","0.4294829221","false","188","","0.4294829221","main_expt","","0.3339942922","","0.3408065186","","0.02389042297","","","","","",""
"62","","bandit","264","686807","0.0-226.0-0.0","00071968","wem/bandit_single","A24Z8V5IV2VJ8F","pain","3","","74","J","1","","0","0","1","","0.3200911101","false","189","","0.4183094629","main_expt","","0.3200911101","","0.3335894225","","0.02303770395","","","","","",""
"2","","bandit","265","688572","0.0-227.0-0.0","00071968","wem/bandit_single","A24Z8V5IV2VJ8F","pain","3","","74","J","1","","0","0","1","","0.379511296","false","190","","0.3769048436","main_expt","","0.379511296","","0.2560009578","","0.0156858998","","","","","",""
"360","","bandit","266","690702","0.0-228.0-0.0","00071968","wem/bandit_single","A24Z8V5IV2VJ8F","pain","3","","74","J","1","","0","0","1","","0.3475909393","false","191","","0.3654839124","main_expt","","0.3475909393","","0.2422543603","","0.02184200568","","","","","",""
"21","","bandit","267","692491","0.0-229.0-0.0","00071968","wem/bandit_single","A24Z8V5IV2VJ8F","pain","3","","74","J","1","","0","1","0","","0.3248483226","false","192","","0.4158526776","main_expt","","0.3248483226","","0.2479432207","","0.04159540118","","","","","",""
"361","","bandit","268","694625","0.0-230.0-0.0","00071968","wem/bandit_single","A24Z8V5IV2VJ8F","pain","3","","74","J","1","","0","1","0","","0.3530355579","false","193","","0.4294001388","main_expt","","0.3530355579","","0.2198669916","","0.02418359434","","","","","",""
"508","","bandit","269","696900","0.0-231.0-0.0","00071968","wem/bandit_single","A24Z8V5IV2VJ8F","pain","3","","75","K","2","","0","0","1","","0.1832858475","false","194","","0.421006879","main_expt","","0.3613612536","","0.1832858475","","0.03036789999","","","","","",""
"3344","","bandit","270","702013","0.0-232.0-0.0","00071968","wem/bandit_single","A24Z8V5IV2VJ8F","pain","3","","74","J","1","","0","0","1","","0.3712676973","false","195","","0.3993762185","main_expt","","0.3712676973","","0.1758973168","","0.0328032794","","","","","",""
"334","","bandit","271","704115","0.0-233.0-0.0","00071968","wem/bandit_single","A24Z8V5IV2VJ8F","pain","3","","72","H","0","img/none_selected.jpg","0","0","1","","0.3953591144","false","196","","0.3953591144","main_expt","","0.3797177139","","0.1472052011","","0.03367124179","","","","","",""
"137","","bandit","272","706022","0.0-234.0-0.0","00071968","wem/bandit_single","A24Z8V5IV2VJ8F","pain","3","","74","J","1","","0","1","0","","0.3703437648","false","197","","0.4186523265","main_expt","","0.3703437648","","0.09357285733","","0.03515804352","","","","","",""
"120","","bandit","273","707909","0.0-235.0-0.0","00071968","wem/bandit_single","A24Z8V5IV2VJ8F","pain","3","","74","J","1","","0","0","1","","0.3269028648","false","198","","0.4334783576","main_expt","","0.3269028648","","0.1466532231","","0.0474911349","","","","","",""
"548","","bandit","274","710228","0.0-236.0-0.0","00071968","wem/bandit_single","A24Z8V5IV2VJ8F","pain","3","","74","J","1","","0","1","0","","0.2972028605","false","199","","0.452916177","main_expt","","0.2972028605","","0.1745555733","","0.04758635843","","","","","",""
"806","","bandit","275","712801","0.0-237.0-0.0","00071968","wem/bandit_single","A24Z8V5IV2VJ8F","pain","3","","75","K","2","","0","0","1","","0.1496088854","false","200","","0.4652130485","main_expt","","0.2548635421","","0.1496088854","","0.06637193447","","","","","",""
"233","","bandit","276","714807","0.0-238.0-0.0","00071968","wem/bandit_single","A24Z8V5IV2VJ8F","pain","3","","74","J","1","","0","0","1","","0.2360204523","false","201","","0.4544628945","main_expt","","0.2360204523","","0.1144678821","","0.03961336895","","","","","",""
"83","","bandit","277","716651","0.0-239.0-0.0","00071968","wem/bandit_single","A24Z8V5IV2VJ8F","pain","3","","74","J","1","","0","0","1","","0.1847208139","false","202","","0.4346785174","main_expt","","0.1847208139","","0.08314182588","","0.04217273593","","","","","",""
"206","","bandit","278","718627","0.0-240.0-0.0","00071968","wem/bandit_single","A24Z8V5IV2VJ8F","pain","3","","72","H","0","img/none_selected.jpg","0","1","0","","0.4340895374","false","203","","0.4340895374","main_expt","","0.1740418795","","0.1008304514","","0.03601881868","","","","","",""
"176","","bandit","279","720575","0.0-241.0-0.0","00071968","wem/bandit_single","A24Z8V5IV2VJ8F","pain","3","","72","H","0","img/none_selected.jpg","0","1","0","","0.4398780919","false","204","","0.4398780919","main_expt","","0.1469060572","","0.1170364225","","0.04663301139","","","","","",""
"187","","bandit","280","722535","0.0-242.0-0.0","00071968","wem/bandit_single","A24Z8V5IV2VJ8F","pain","3","","72","H","0","img/none_selected.jpg","0","0","1","","0.4001316318","false","205","","0.4001316318","main_expt","","0.1162446513","","0.1228414706","","0.04643109282","","","","","",""
"9","","bandit","281","724314","0.0-243.0-0.0","00071968","wem/bandit_single","A24Z8V5IV2VJ8F","pain","3","","74","J","1","","0","0","1","","0.1289033918","false","206","","0.4347617828","main_expt","","0.1289033918","","0.1574749647","","0.06886832812","","","","","",""
"42","","bandit","282","726124","0.0-244.0-0.0","00071968","wem/bandit_single","A24Z8V5IV2VJ8F","pain","3","","74","J","1","","0","0","1","","0.1261822501","false","207","","0.4383015813","main_expt","","0.1261822501","","0.1922173773","","0.0600143171","","","","","",""
"69","","bandit","283","727956","0.0-245.0-0.0","00071968","wem/bandit_single","A24Z8V5IV2VJ8F","pain","3","","75","K","2","","0","0","1","","0.1673160211","false","208","","0.4038237536","main_expt","","0.1024795668","","0.1673160211","","0.04637571639","","","","","",""
"143","","bandit","284","729869","0.0-246.0-0.0","00071968","wem/bandit_single","A24Z8V5IV2VJ8F","pain","3","","74","J","1","","0","0","1","","0.1129838087","false","209","","0.3890753365","main_expt","","0.1129838087","","0.1269527993","","0.04040360689","","","","","",""
"115","","bandit","285","731745","0.0-247.0-0.0","00071968","wem/bandit_single","A24Z8V5IV2VJ8F","pain","3","","74","J","1","","0","0","1","","0.1562804612","false","210","","0.3792373644","main_expt","","0.1562804612","","0.1114377498","","0.02069644656","","","","","",""
"259","","bandit","286","733774","0.0-248.0-0.0","00071968","wem/bandit_single","A24Z8V5IV2VJ8F","pain","3","","74","J","1","","0","0","1","","0.1363837251","false","211","","0.3780611868","main_expt","","0.1363837251","","0.1155820846","","0.03173395488","","","","","",""
"379","","bandit","287","735924","0.0-249.0-0.0","00071968","wem/bandit_single","A24Z8V5IV2VJ8F","pain","3","","72","H","0","img/none_selected.jpg","0","0","1","","0.3483689532","false","212","","0.3483689532","main_expt","","0.09358237554","","0.1553323518","","0.02469601981","","","","","",""
"128","","bandit","288","737821","0.0-250.0-0.0","00071968","wem/bandit_single","A24Z8V5IV2VJ8F","pain","3","","74","J","1","","0","0","1","","0.05743859841","false","213","","0.2874103991","main_expt","","0.05743859841","","0.2062901667","","0.04258417901","","","","","",""
"152","","bandit","289","739742","0.0-251.0-0.0","00071968","wem/bandit_single","A24Z8V5IV2VJ8F","pain","3","","74","J","1","","0","0","1","","0.05800100084","false","214","","0.2620706088","main_expt","","0.05800100084","","0.2076956631","","0.05493755721","","","","","",""
"11","","bandit","290","741524","0.0-252.0-0.0","00071968","wem/bandit_single","A24Z8V5IV2VJ8F","pain","3","","74","J","1","","0","0","1","","0.05413405856","false","215","","0.2855520155","main_expt","","0.05413405856","","0.2609492508","","0.08978059799","","","","","",""
"52","","bandit","291","743340","0.0-253.0-0.0","00071968","wem/bandit_single","A24Z8V5IV2VJ8F","pain","3","","75","K","2","","0","0","1","","0.2500101786","false","216","","0.2916786734","main_expt","","0.03942357166","","0.2500101786","","0.09809121306","","","","","",""
"235","","bandit","292","745358","0.0-254.0-0.0","00071968","wem/bandit_single","A24Z8V5IV2VJ8F","pain","3","","72","H","0","img/none_selected.jpg","0","0","1","","0.2823685681","false","217","","0.2823685681","main_expt","","0.03801572204","","0.2748248586","","0.1427848958","","","","","",""
"69","","bandit","293","747196","0.0-255.0-0.0","00071968","wem/bandit_single","A24Z8V5IV2VJ8F","pain","3","","74","J","1","","0","0","1","","0.03890441123","false","218","","0.2423520158","main_expt","","0.03890441123","","0.311954441","","0.1570322525","","","","","",""
"130","","bandit","294","749097","0.0-256.0-0.0","00071968","wem/bandit_single","A24Z8V5IV2VJ8F","pain","3","","74","J","1","","0","0","1","","0.01887456362","false","219","","0.2949403562","main_expt","","0.01887456362","","0.3632760336","","0.1805036953","","","","","",""
"59","","bandit","295","750917","0.0-257.0-0.0","00071968","wem/bandit_single","A24Z8V5IV2VJ8F","pain","3","","74","J","1","","0","0","1","","0.02149820142","false","220","","0.3123592507","main_expt","","0.02149820142","","0.3369908474","","0.1305519061","","","","","",""
"313","","bandit","296","752999","0.0-258.0-0.0","00071968","wem/bandit_single","A24Z8V5IV2VJ8F","pain","3","","75","K","2","","0","0","1","","0.3047504054","false","221","","0.3184432139","main_expt","","0.03528878979","","0.3047504054","","0.09039333473","","","","","",""
"228","","bandit","297","754997","0.0-259.0-0.0","00071968","wem/bandit_single","A24Z8V5IV2VJ8F","pain","3","","75","K","2","","0","0","1","","0.3107799438","false","222","","0.3596246423","main_expt","","0.03906528797","","0.3107799438","","0.0801847008","","","","","",""
"303","","bandit","298","757069","0.0-260.0-0.0","00071968","wem/bandit_single","A24Z8V5IV2VJ8F","pain","3","","72","H","0","img/none_selected.jpg","0","1","0","","0.3048299186","false","223","","0.3048299186","main_expt","","0.04285152396","","0.3359374044","","0.08930296305","","","","","",""
"6296","","bandit","299","765137","0.0-261.0-0.0","00071968","wem/bandit_single","A24Z8V5IV2VJ8F","pain","3","","74","J","1","","0","0","1","","0.03308098724","false","224","","0.3097637171","main_expt","","0.03308098724","","0.354776332","","0.0783544472","","","","","",""
"154","","bandit","300","767060","0.0-262.0-0.0","00071968","wem/bandit_single","A24Z8V5IV2VJ8F","pain","3","","72","H","0","img/none_selected.jpg","0","1","0","","0.3313621339","false","225","","0.3313621339","main_expt","","0.03318257961","","0.3747964846","","0.05733223117","","","","","",""
"167","","bandit","301","768995","0.0-263.0-0.0","00071968","wem/bandit_single","A24Z8V5IV2VJ8F","pain","3","","72","H","0","img/none_selected.jpg","0","0","1","","0.2611013425","false","226","","0.2611013425","main_expt","","0.02568716964","","0.3530330239","","0.09472546141","","","","","",""
"64","","bandit","302","770829","0.0-264.0-0.0","00071968","wem/bandit_single","A24Z8V5IV2VJ8F","pain","3","","74","J","1","","0","1","0","","0.03534330031","false","227","","0.2761398934","main_expt","","0.03534330031","","0.3299445106","","0.08353253247","","","","","",""
"41","","bandit","303","772640","0.0-265.0-0.0","00071968","wem/bandit_single","A24Z8V5IV2VJ8F","pain","3","","74","J","1","","0","0","1","","0.03702628412","false","228","","0.2358148364","main_expt","","0.03702628412","","0.3286020352","","0.06220105415","","","","","",""
"20","","bandit","304","774432","0.0-266.0-0.0","00071968","wem/bandit_single","A24Z8V5IV2VJ8F","pain","3","","74","J","1","","0","0","1","","0.03077125553","false","229","","0.2091128555","main_expt","","0.03077125553","","0.3178943429","","0.06639782905","","","","","",""
"203","","bandit","305","776408","0.0-267.0-0.0","00071968","wem/bandit_single","A24Z8V5IV2VJ8F","pain","3","","72","H","0","img/none_selected.jpg","0","0","1","","0.181986641","false","230","","0.181986641","main_expt","","0.03752036101","","0.3254915512","","0.07029464087","","","","","",""
"421","","bandit","306","778600","0.0-268.0-0.0","00071968","wem/bandit_single","A24Z8V5IV2VJ8F","pain","3","","72","H","0","img/none_selected.jpg","0","0","1","","0.1599443191","false","231","","0.1599443191","main_expt","","0.02736090244","","0.3298497064","","0.07612781315","","","","","",""
"309","","bandit","307","780681","0.0-269.0-0.0","00071968","wem/bandit_single","A24Z8V5IV2VJ8F","pain","3","","74","J","1","","0","0","1","","0.02154887034","false","232","","0.125214013","main_expt","","0.02154887034","","0.300331178","","0.04325191911","","","","","",""
"208","","bandit","308","782661","0.0-270.0-0.0","00071968","wem/bandit_single","A24Z8V5IV2VJ8F","pain","3","","74","J","1","","0","0","1","","0.0228348974","false","233","","0.134118517","main_expt","","0.0228348974","","0.3357562734","","0.04039924652","","","","","",""
"197","","bandit","309","784631","0.0-271.0-0.0","00071968","wem/bandit_single","A24Z8V5IV2VJ8F","pain","3","","72","H","0","img/none_selected.jpg","0","0","1","","0.1238594142","false","234","","0.1238594142","main_expt","","0.01030782054","","0.3257461803","","0.0435796211","","","","","",""
"14","","bandit","310","786419","0.0-272.0-0.0","00071968","wem/bandit_single","A24Z8V5IV2VJ8F","pain","3","","74","J","1","","0","0","1","","0.02615737471","false","235","","0.1141846942","main_expt","","0.02615737471","","0.3534766227","","0.02315237623","","","","","",""
"125","","bandit","311","788316","0.0-273.0-0.0","00071968","wem/bandit_single","A24Z8V5IV2VJ8F","pain","3","","74","J","1","","0","0","1","","0.0224272094","false","236","","0.1101280349","main_expt","","0.0224272094","","0.3733068719","","0.02010779399","","","","","",""
"348","","bandit","312","790436","0.0-274.0-0.0","00071968","wem/bandit_single","A24Z8V5IV2VJ8F","pain","3","","74","J","1","","0","0","1","","0.02679999918","false","237","","0.09079266978","main_expt","","0.02679999918","","0.4105295152","","0.01796146932","","","","","",""
"27","","bandit","313","792233","0.0-275.0-0.0","00071968","wem/bandit_single","A24Z8V5IV2VJ8F","pain","3","","75","K","2","","0","1","0","","0.4225156592","false","238","","0.1365862295","main_expt","","0.07542988795","","0.4225156592","","0.0167141813","","","","","",""
"60","","bandit","314","794062","0.0-276.0-0.0","00071968","wem/bandit_single","A24Z8V5IV2VJ8F","pain","3","","75","K","2","","0","1","0","","0.4360895212","false","239","","0.1846819155","main_expt","","0.09772903","","0.4360895212","","0.03283355296","","","","","",""
"19","","bandit","315","795846","0.0-277.0-0.0","00071968","wem/bandit_single","A24Z8V5IV2VJ8F","pain","3","","75","K","2","","0","1","0","","0.423514393","false","240","","0.1795044078","main_expt","","0.1044145256","","0.423514393","","0.05325110434","","","","","",""
"219","","bandit","316","797836","0.0-278.0-0.0","00071968","wem/bandit_single","A24Z8V5IV2VJ8F","pain","3","","75","K","2","","0","0","1","","0.3824942702","false","241","","0.1522343712","main_expt","","0.109937241","","0.3824942702","","0.04551940083","","","","","",""
"3","","bandit","317","799609","0.0-279.0-0.0","00071968","wem/bandit_single","A24Z8V5IV2VJ8F","pain","3","","74","J","1","","0","0","1","","0.09239004846","false","242","","0.1433696576","main_expt","","0.09239004846","","0.3758562762","","0.05503183359","","","","","",""
"50","","bandit","318","801428","0.0-280.0-0.0","00071968","wem/bandit_single","A24Z8V5IV2VJ8F","pain","3","","74","J","1","","0","0","1","","0.1014218366","false","243","","0.1427577162","main_expt","","0.1014218366","","0.2984655584","","0.04467871076","","","","","",""
"18","","bandit","319","803217","0.0-281.0-0.0","00071968","wem/bandit_single","A24Z8V5IV2VJ8F","pain","3","","74","J","1","","0","0","1","","0.192841162","false","244","","0.1340795621","main_expt","","0.192841162","","0.2901672904","","0.06552455376","","","","","",""
"163","","bandit","320","805150","0.0-282.0-0.0","00071968","wem/bandit_single","A24Z8V5IV2VJ8F","pain","3","","74","J","1","","0","0","1","","0.1953250812","false","245","","0.1469719784","main_expt","","0.1953250812","","0.2495050599","","0.1005127954","","","","","",""
"232","","bandit","321","807154","0.0-283.0-0.0","00071968","wem/bandit_single","A24Z8V5IV2VJ8F","pain","3","","72","H","0","img/none_selected.jpg","0","0","1","","0.140914489","false","246","","0.140914489","main_expt","","0.1865380945","","0.2406773486","","0.11534406","","","","","",""
"73","","bandit","322","808999","0.0-284.0-0.0","00071968","wem/bandit_single","A24Z8V5IV2VJ8F","pain","3","","72","H","0","img/none_selected.jpg","0","0","1","","0.1592666071","false","247","","0.1592666071","main_expt","","0.221100819","","0.2265306157","","0.08579934652","","","","","",""
"86","","bandit","323","810855","0.0-285.0-0.0","00071968","wem/bandit_single","A24Z8V5IV2VJ8F","pain","3","","74","J","1","","0","0","1","","0.2106100544","false","248","","0.2210893918","main_expt","","0.2106100544","","0.2000380921","","0.08554071629","","","","","",""
"32","","bandit","324","812658","0.0-286.0-0.0","00071968","wem/bandit_single","A24Z8V5IV2VJ8F","pain","3","","75","K","2","","0","0","1","","0.1920984986","false","249","","0.2306666851","main_expt","","0.2172535859","","0.1920984986","","0.07137080198","","","","","",""
"123","","bandit","325","814553","0.0-287.0-0.0","00071968","wem/bandit_single","A24Z8V5IV2VJ8F","pain","3","","75","K","2","","0","0","1","","0.1624135027","false","250","","0.2422322172","main_expt","","0.1953648199","","0.1624135027","","0.06874505311","","","","","",""
"68","","bandit","326","816392","0.0-288.0-0.0","00071968","wem/bandit_single","A24Z8V5IV2VJ8F","pain","3","","74","J","1","","0","0","1","","0.2129795833","false","251","","0.2425189851","main_expt","","0.2129795833","","0.2057369507","","0.04927492375","","","","","",""
"260","","bandit","327","818425","0.0-289.0-0.0","00071968","wem/bandit_single","A24Z8V5IV2VJ8F","pain","3","","76","L","3","","0","0","1","","0.0504542679","false","252","","0.1980379423","main_expt","","0.2271134102","","0.26034901","","0.0504542679","","","","","",""
"75","","bandit","328","820270","0.0-290.0-0.0","00071968","wem/bandit_single","A24Z8V5IV2VJ8F","pain","3","","74","J","1","","0","0","1","","0.2152809257","false","253","","0.2040952335","main_expt","","0.2152809257","","0.1886300366","","0.0313618618","","","","","",""
"81","","bandit","329","822117","0.0-291.0-0.0","00071968","wem/bandit_single","A24Z8V5IV2VJ8F","pain","3","","74","J","1","","0","0","1","","0.2065685424","false","254","","0.1621407843","main_expt","","0.2065685424","","0.1978078828","","0.0191685034","","","","","",""
"28","","bandit","330","823916","0.0-292.0-0.0","00071968","wem/bandit_single","A24Z8V5IV2VJ8F","pain","3","","72","H","0","img/none_selected.jpg","0","1","0","","0.1817956319","false","255","","0.1817956319","main_expt","","0.2000715388","","0.1544468143","","0.01882474885","","","","","",""
"71","","bandit","331","825766","0.0-293.0-0.0","00071968","wem/bandit_single","A24Z8V5IV2VJ8F","pain","3","","72","H","0","img/none_selected.jpg","0","0","1","","0.1796151025","false","256","","0.1796151025","main_expt","","0.1997851389","","0.1552120094","","0.01765542058","","","","","",""
"25","","bandit","332","827562","0.0-294.0-0.0","00071968","wem/bandit_single","A24Z8V5IV2VJ8F","pain","3","","72","H","0","img/none_selected.jpg","0","1","0","","0.1874922979","false","257","","0.1874922979","main_expt","","0.1965173465","","0.1337291471","","0.0162265086","","","","","",""
"12","","bandit","333","829350","0.0-295.0-0.0","00071968","wem/bandit_single","A24Z8V5IV2VJ8F","pain","3","","72","H","0","img/none_selected.jpg","0","1","0","","0.2152410464","false","258","","0.2152410464","main_expt","","0.1816932188","","0.1279332347","","0.01630278654","","","","","",""
"72","","bandit","334","831193","0.0-296.0-0.0","00071968","wem/bandit_single","A24Z8V5IV2VJ8F","pain","3","","72","H","0","img/none_selected.jpg","0","0","1","","0.2311433436","false","259","","0.2311433436","main_expt","","0.2275026539","","0.152418206","","0.0149919991","","","","","",""
"104","","bandit","335","833068","0.0-297.0-0.0","00071968","wem/bandit_single","A24Z8V5IV2VJ8F","pain","3","","72","H","0","img/none_selected.jpg","0","0","1","","0.1621257941","false","260","","0.1621257941","main_expt","","0.1798156178","","0.1100328583","","0.02225913397","","","","","",""
"124","","bandit","336","834967","0.0-298.0-0.0","00071968","wem/bandit_single","A24Z8V5IV2VJ8F","pain","3","","72","H","0","img/none_selected.jpg","0","1","0","","0.1219102136","false","261","","0.1219102136","main_expt","","0.187122726","","0.1537012171","","0.02865634389","","","","","",""
"89","","bandit","337","836827","0.0-299.0-0.0","00071968","wem/bandit_single","A24Z8V5IV2VJ8F","pain","3","","72","H","0","img/none_selected.jpg","0","0","1","","0.1667536199","false","262","","0.1667536199","main_expt","","0.1507521212","","0.1302597035","","0.03173788073","","","","","",""
"86","","bandit","338","838685","0.0-300.0-0.0","00071968","wem/bandit_single","A24Z8V5IV2VJ8F","pain","3","","72","H","0","img/none_selected.jpg","0","0","1","","0.1361259709","false","263","","0.1361259709","main_expt","","0.1374951011","","0.1297736826","","0.04250990858","","","","","",""
"62","","bandit","339","840518","0.0-301.0-0.0","00071968","wem/bandit_single","A24Z8V5IV2VJ8F","pain","3","","72","H","0","img/none_selected.jpg","0","1","0","","0.1217381733","false","264","","0.1217381733","main_expt","","0.1158818852","","0.1326654045","","0.056503948","","","","","",""
"42","","bandit","340","842322","0.0-302.0-0.0","00071968","wem/bandit_single","A24Z8V5IV2VJ8F","pain","3","","72","H","0","img/none_selected.jpg","0","0","1","","0.1258265959","false","265","","0.1258265959","main_expt","","0.1147359408","","0.1586413096","","0.07592662832","","","","","",""
"72","","bandit","341","844167","0.0-303.0-0.0","00071968","wem/bandit_single","A24Z8V5IV2VJ8F","pain","3","","72","H","0","img/none_selected.jpg","0","0","1","","0.1445769791","false","266","","0.1445769791","main_expt","","0.09491002089","","0.1496521415","","0.1002340293","","","","","",""
"16","","bandit","342","845956","0.0-304.0-0.0","00071968","wem/bandit_single","A24Z8V5IV2VJ8F","pain","3","","72","H","0","img/none_selected.jpg","0","0","1","","0.1014120844","false","267","","0.1014120844","main_expt","","0.1181284109","","0.1410052581","","0.1526998269","","","","","",""
"144","","bandit","343","847873","0.0-305.0-0.0","00071968","wem/bandit_single","A24Z8V5IV2VJ8F","pain","3","","72","H","0","img/none_selected.jpg","0","0","1","","0.06386630904","false","268","","0.06386630904","main_expt","","0.1054434992","","0.145208313","","0.1340815566","","","","","",""
"3","","bandit","344","849650","0.0-306.0-0.0","00071968","wem/bandit_single","A24Z8V5IV2VJ8F","pain","3","","72","H","0","img/none_selected.jpg","0","0","1","","0.03725778621","false","269","","0.03725778621","main_expt","","0.1307900039","","0.1387339362","","0.1350059692","","","","","",""
"8","","bandit","345","851430","0.0-307.0-0.0","00071968","wem/bandit_single","A24Z8V5IV2VJ8F","pain","3","","74","J","1","","0","0","1","","0.1444746669","false","270","","0.02825676517","main_expt","","0.1444746669","","0.1822325734","","0.1008257698","","","","","",""
"35","","bandit","346","853237","0.0-308.0-0.0","00071968","wem/bandit_single","A24Z8V5IV2VJ8F","pain","3","","74","J","1","","0","0","1","","0.1622504114","false","271","","0.02967844624","main_expt","","0.1622504114","","0.1752825828","","0.1257425884","","","","","",""
"51","","bandit","347","855060","0.0-309.0-0.0","00071968","wem/bandit_single","A24Z8V5IV2VJ8F","pain","3","","75","K","2","","0","0","1","","0.1572277832","false","272","","0.03051557875","main_expt","","0.1814673171","","0.1572277832","","0.1363444874","","","","","",""
"129","","bandit","348","856954","0.0-310.0-0.0","00071968","wem/bandit_single","A24Z8V5IV2VJ8F","pain","3","","75","K","2","","0","0","1","","0.1609880977","false","273","","0.0408401102","main_expt","","0.1930303076","","0.1609880977","","0.1090842693","","","","","",""
"25","","bandit","349","858752","0.0-311.0-0.0","00071968","wem/bandit_single","A24Z8V5IV2VJ8F","pain","3","","75","K","2","","0","0","1","","0.2228580822","false","274","","0.03240614182","main_expt","","0.1704680895","","0.2228580822","","0.1397265487","","","","","",""
"3","","bandit","350","860529","0.0-312.0-0.0","00071968","wem/bandit_single","A24Z8V5IV2VJ8F","pain","3","","75","K","2","","0","0","1","","0.2126640298","false","275","","0.04120982645","main_expt","","0.1785534293","","0.2126640298","","0.210641606","","","","","",""
"14","","bandit","351","862316","0.0-313.0-0.0","00071968","wem/bandit_single","A24Z8V5IV2VJ8F","pain","3","","74","J","1","","0","0","1","","0.1843971019","false","276","","0.04353307789","main_expt","","0.1843971019","","0.2006548762","","0.1523626192","","","","","",""
"97","","bandit","352","864180","0.0-314.0-0.0","00071968","wem/bandit_single","A24Z8V5IV2VJ8F","pain","3","","74","J","1","","0","0","1","","0.2042268453","false","277","","0.0172565486","main_expt","","0.2042268453","","0.1986275587","","0.16102954","","","","","",""
"40","","bandit","353","865986","0.0-315.0-0.0","00071968","wem/bandit_single","A24Z8V5IV2VJ8F","pain","3","","76","L","3","","0","0","1","","0.1166001048","false","278","","0.02582715814","main_expt","","0.1609113936","","0.1321506531","","0.1166001048","","","","","",""
"127","","bandit","354","867885","0.0-316.0-0.0","00071968","wem/bandit_single","A24Z8V5IV2VJ8F","pain","3","","76","L","3","","0","0","1","","0.1427402012","false","279","","0.03609925784","main_expt","","0.1604878733","","0.2112193978","","0.1427402012","","","","","",""
"213","","bandit","355","869869","0.0-317.0-0.0","00071968","wem/bandit_single","A24Z8V5IV2VJ8F","pain","3","","76","L","3","","0","0","1","","0.1524149458","false","280","","0.02629944548","main_expt","","0.1678567182","","0.1872216356","","0.1524149458","","","","","",""
"73","","bandit","356","871714","0.0-318.0-0.0","00071968","wem/bandit_single","A24Z8V5IV2VJ8F","pain","3","","72","H","0","img/none_selected.jpg","0","0","1","","0.01890368782","false","281","","0.01890368782","main_expt","","0.1338700362","","0.1635487084","","0.1638207856","","","","","",""
"12","","bandit","357","873498","0.0-319.0-0.0","00071968","wem/bandit_single","A24Z8V5IV2VJ8F","pain","3","","72","H","0","img/none_selected.jpg","0","0","1","","0.01508823693","false","282","","0.01508823693","main_expt","","0.2010661714","","0.1576359327","","0.1055747009","","","","","",""
"42","","bandit","358","875319","0.0-320.0-0.0","00071968","wem/bandit_single","A24Z8V5IV2VJ8F","pain","3","","72","H","0","img/none_selected.jpg","0","0","1","","0.01359220223","false","283","","0.01359220223","main_expt","","0.1763159594","","0.21861051","","0.1121395768","","","","","",""
"7","","bandit","359","877101","0.0-321.0-0.0","00071968","wem/bandit_single","A24Z8V5IV2VJ8F","pain","3","","72","H","0","img/none_selected.jpg","0","0","1","","0.01691173417","false","284","","0.01691173417","main_expt","","0.2379754842","","0.180487154","","0.1110051372","","","","","",""
"118","","bandit","360","878991","0.0-322.0-0.0","00071968","wem/bandit_single","A24Z8V5IV2VJ8F","pain","3","","72","H","0","img/none_selected.jpg","0","0","1","","0.01734240677","false","285","","0.01734240677","main_expt","","0.2769670592","","0.1641106304","","0.1746572204","","","","","",""
"198","","bandit","361","880960","0.0-323.0-0.0","00071968","wem/bandit_single","A24Z8V5IV2VJ8F","pain","3","","74","J","1","","0","1","0","","0.3002963297","false","286","","0.01574531315","main_expt","","0.3002963297","","0.1866508097","","0.2038956484","","","","","",""
"2","","bandit","362","882736","0.0-324.0-0.0","00071968","wem/bandit_single","A24Z8V5IV2VJ8F","pain","3","","74","J","1","","0","1","0","","0.2804215723","false","287","","0.011703364","main_expt","","0.2804215723","","0.1339791425","","0.2396876396","","","","","",""
"76","","bandit","363","884587","0.0-325.0-0.0","00071968","wem/bandit_single","A24Z8V5IV2VJ8F","pain","3","","74","J","1","","0","1","0","","0.2873948651","false","288","","0.01499165326","main_expt","","0.2873948651","","0.1910191906","","0.2300823482","","","","","",""
"114","","bandit","364","886474","0.0-326.0-0.0","00071968","wem/bandit_single","A24Z8V5IV2VJ8F","pain","3","","74","J","1","","0","0","1","","0.3383825142","false","289","","0.01307353483","main_expt","","0.3383825142","","0.1987886011","","0.2697946193","","","","","",""
"165","","bandit","365","888414","0.0-327.0-0.0","00071968","wem/bandit_single","A24Z8V5IV2VJ8F","pain","3","","74","J","1","","0","0","1","","0.3597664772","false","290","","0.005839555229","main_expt","","0.3597664772","","0.2163493667","","0.3030113395","","","","","",""
"19","","bandit","366","890204","0.0-328.0-0.0","00071968","wem/bandit_single","A24Z8V5IV2VJ8F","pain","3","","74","J","1","","0","0","1","","0.3684517111","false","291","","0.00760433752","main_expt","","0.3684517111","","0.1987756658","","0.2903670118","","","","","",""
"25","","bandit","367","892004","0.0-329.0-0.0","00071968","wem/bandit_single","A24Z8V5IV2VJ8F","pain","3","","74","J","1","","0","0","1","","0.3471931258","false","292","","0.01807310376","main_expt","","0.3471931258","","0.1996771378","","0.3219279298","","","","","",""
"72","","bandit","368","893850","0.0-330.0-0.0","00071968","wem/bandit_single","A24Z8V5IV2VJ8F","pain","3","","74","J","1","","0","0","1","","0.3742872252","false","293","","0.02882206876","main_expt","","0.3742872252","","0.2067525645","","0.2585416619","","","","","",""
"113","","bandit","369","895727","0.0-331.0-0.0","00071968","wem/bandit_single","A24Z8V5IV2VJ8F","pain","3","","74","J","1","","0","1","0","","0.3937541296","false","294","","0.02728804169","main_expt","","0.3937541296","","0.230585761","","0.3093607287","","","","","",""
"9","","bandit","370","897509","0.0-332.0-0.0","00071968","wem/bandit_single","A24Z8V5IV2VJ8F","pain","3","","74","J","1","","0","1","0","","0.3331550888","false","295","","0.01545304162","main_expt","","0.3331550888","","0.1936278336","","0.315069057","","","","","",""
"175","","bandit","371","899459","0.0-333.0-0.0","00071968","wem/bandit_single","A24Z8V5IV2VJ8F","pain","3","","74","J","1","","0","1","0","","0.3564327955","false","296","","0.01463146341","main_expt","","0.3564327955","","0.1733248866","","0.3556215031","","","","","",""
