"rt","responses","trial_type","trial_index","time_elapsed","internal_node_id","subjID","study","MID","cond","drift","key_press","respCharCode","respKey","respChoiceNum","respChoice","gems","bombs","no_reward","GemPrChosen","BombPrChosen","practice","trial_counter","WinPr_0","LosePr_0","trial_label","WinPr_1","LosePr_1","WinPr_2","LosePr_2","WinPr_3","LosePr_3","Q0","Q1","Q2","gender","age","ethnicity"
"11892","{""Q0"":""A1A8POS0IW7KLY""}","survey-text","0","11897","0.0-0.0","01041719","wem/bandit_single","A1A8POS0IW7KLY","pain","4","","","","","","","","","","","","","","","","","","","","","","","","","","",""
"2520","","text","1","15421","0.0-1.0","01041719","wem/bandit_single","A1A8POS0IW7KLY","pain","4","32","","","","","","","","","","","","","","","","","","","","","","","","","",""
"4764","","text","2","20186","0.0-2.0","01041719","wem/bandit_single","A1A8POS0IW7KLY","pain","4","32","","","","","","","","","","","","","","","","","","","","","","","","","",""
"13791","","text","3","33978","0.0-3.0","01041719","wem/bandit_single","A1A8POS0IW7KLY","pain","4","32","","","","","","","","","","","","","","","","","","","","","","","","","",""
"10969","","text","4","44948","0.0-4.0","01041719","wem/bandit_single","A1A8POS0IW7KLY","pain","4","32","","","","","","","","","","","","","","","","","","","","","","","","","",""
"5367","","text","5","50316","0.0-5.0","01041719","wem/bandit_single","A1A8POS0IW7KLY","pain","4","32","","","","","","","","","","","","","","","","","","","","","","","","","",""
"5039","","text","6","55356","0.0-6.0","01041719","wem/bandit_single","A1A8POS0IW7KLY","pain","4","32","","","","","","","","","","","","","","","","","","","","","","","","","",""
"4824","","text","7","60181","0.0-7.0","01041719","wem/bandit_single","A1A8POS0IW7KLY","pain","4","32","","","","","","","","","","","","","","","","","","","","","","","","","",""
"4384","","text","8","64567","0.0-8.0","01041719","wem/bandit_single","A1A8POS0IW7KLY","pain","4","32","","","","","","","","","","","","","","","","","","","","","","","","","",""
"3766","","text","9","68338","0.0-9.0","01041719","wem/bandit_single","A1A8POS0IW7KLY","pain","4","32","","","","","","","","","","","","","","","","","","","","","","","","","",""
"4792","","text","10","73132","0.0-10.0","01041719","wem/bandit_single","A1A8POS0IW7KLY","pain","4","32","","","","","","","","","","","","","","","","","","","","","","","","","",""
"3928","","text","11","77061","0.0-11.0","01041719","wem/bandit_single","A1A8POS0IW7KLY","pain","4","32","","","","","","","","","","","","","","","","","","","","","","","","","",""
"871","","bandit","12","79439","0.0-12.0-0.0","01041719","wem/bandit_single","A1A8POS0IW7KLY","pain","4","","74","J","0","img/none_selected_demo.jpg","0","0","1","0","0","true","0","0","0","","","","","","","","","","","","",""
"365","","bandit","13","81563","0.0-13.0-0.0","01041719","wem/bandit_single","A1A8POS0IW7KLY","pain","4","","75","K","0","img/none_selected_demo.jpg","0","0","1","0","0","true","0","0","0","","","","","","","","","","","","",""
"2021","","text","14","83838","0.0-14.0","01041719","wem/bandit_single","A1A8POS0IW7KLY","pain","4","32","","","","","","","","","","","","","","","","","","","","","","","","","",""
"1882","","text","15","85724","0.0-15.0","01041719","wem/bandit_single","A1A8POS0IW7KLY","pain","4","32","","","","","","","","","","","","","","","","","","","","","","","","","",""
"1953","","text","16","87678","0.0-16.0","01041719","wem/bandit_single","A1A8POS0IW7KLY","pain","4","32","","","","","","","","","","","","","","","","","","","","","","","","","",""
"3019","","text","17","90699","0.0-17.0","01041719","wem/bandit_single","A1A8POS0IW7KLY","pain","4","32","","","","","","","","","","","","","","","","","","","","","","","","","",""
"687","","bandit","18","92894","0.0-18.0-0.0","01041719","wem/bandit_single","A1A8POS0IW7KLY","pain","4","","74","J","0","img/none_selected_demo.jpg","0","0","1","0","0.8","true","0","0","0.8","80_20_practice","0","0.2","","","","","","","","","",""
"13","","bandit","19","94662","0.0-18.0-1.0","01041719","wem/bandit_single","A1A8POS0IW7KLY","pain","4","","74","J","0","img/none_selected_demo.jpg","0","1","0","0","0.8","true","0","0","0.8","80_20_practice","0","0.2","","","","","","","","","",""
"175","","bandit","20","96593","0.0-18.0-2.0","01041719","wem/bandit_single","A1A8POS0IW7KLY","pain","4","","74","J","0","img/none_selected_demo.jpg","0","0","1","0","0.8","true","0","0","0.8","80_20_practice","0","0.2","","","","","","","","","",""
"9","","bandit","21","98358","0.0-18.0-3.0","01041719","wem/bandit_single","A1A8POS0IW7KLY","pain","4","","75","K","1","","0","0","1","0","0.2","true","0","0","0.8","80_20_practice","0","0.2","","","","","","","","","",""
"331","","bandit","22","100448","0.0-18.0-4.0","01041719","wem/bandit_single","A1A8POS0IW7KLY","pain","4","","75","K","1","","0","0","1","0","0.2","true","0","0","0.8","80_20_practice","0","0.2","","","","","","","","","",""
"390","","bandit","23","102596","0.0-18.0-5.0","01041719","wem/bandit_single","A1A8POS0IW7KLY","pain","4","","75","K","1","","0","0","1","0","0.2","true","0","0","0.8","80_20_practice","0","0.2","","","","","","","","","",""
"284","","bandit","24","104635","0.0-18.0-6.0","01041719","wem/bandit_single","A1A8POS0IW7KLY","pain","4","","74","J","0","img/none_selected_demo.jpg","0","0","1","0","0.8","true","0","0","0.8","80_20_practice","0","0.2","","","","","","","","","",""
"16","","bandit","25","106411","0.0-18.0-7.0","01041719","wem/bandit_single","A1A8POS0IW7KLY","pain","4","","74","J","0","img/none_selected_demo.jpg","0","1","0","0","0.8","true","0","0","0.8","80_20_practice","0","0.2","","","","","","","","","",""
"36","","bandit","26","108203","0.0-18.0-8.0","01041719","wem/bandit_single","A1A8POS0IW7KLY","pain","4","","74","J","0","img/none_selected_demo.jpg","0","1","0","0","0.8","true","0","0","0.8","80_20_practice","0","0.2","","","","","","","","","",""
"62","","bandit","27","110021","0.0-18.0-9.0","01041719","wem/bandit_single","A1A8POS0IW7KLY","pain","4","","74","J","0","img/none_selected_demo.jpg","0","0","1","0","0.8","true","0","0","0.8","80_20_practice","0","0.2","","","","","","","","","",""
"416","","bandit","28","112195","0.0-18.0-10.0","01041719","wem/bandit_single","A1A8POS0IW7KLY","pain","4","","74","J","0","img/none_selected_demo.jpg","0","1","0","0","0.8","true","0","0","0.8","80_20_practice","0","0.2","","","","","","","","","",""
"1564","","bandit","29","115516","0.0-18.0-11.0","01041719","wem/bandit_single","A1A8POS0IW7KLY","pain","4","","74","J","0","img/none_selected_demo.jpg","0","1","0","0","0.8","true","0","0","0.8","80_20_practice","0","0.2","","","","","","","","","",""
"576","","bandit","30","117848","0.0-18.0-12.0","01041719","wem/bandit_single","A1A8POS0IW7KLY","pain","4","","75","K","1","","0","0","1","0","0.2","true","0","0","0.8","80_20_practice","0","0.2","","","","","","","","","",""
"27","","bandit","31","119638","0.0-18.0-13.0","01041719","wem/bandit_single","A1A8POS0IW7KLY","pain","4","","75","K","1","","0","0","1","0","0.2","true","0","0","0.8","80_20_practice","0","0.2","","","","","","","","","",""
"324","","bandit","32","121720","0.0-18.0-14.0","01041719","wem/bandit_single","A1A8POS0IW7KLY","pain","4","","75","K","1","","0","0","1","0","0.2","true","0","0","0.8","80_20_practice","0","0.2","","","","","","","","","",""
"42","","bandit","33","123517","0.0-18.0-15.0","01041719","wem/bandit_single","A1A8POS0IW7KLY","pain","4","","75","K","1","","0","0","1","0","0.2","true","0","0","0.8","80_20_practice","0","0.2","","","","","","","","","",""
"441","","bandit","34","125713","0.0-18.0-16.0","01041719","wem/bandit_single","A1A8POS0IW7KLY","pain","4","","75","K","1","","0","0","1","0","0.2","true","0","0","0.8","80_20_practice","0","0.2","","","","","","","","","",""
"143","","bandit","35","127613","0.0-18.0-17.0","01041719","wem/bandit_single","A1A8POS0IW7KLY","pain","4","","75","K","1","","0","0","1","0","0.2","true","0","0","0.8","80_20_practice","0","0.2","","","","","","","","","",""
"88","","bandit","36","129458","0.0-18.0-18.0","01041719","wem/bandit_single","A1A8POS0IW7KLY","pain","4","","74","J","0","img/none_selected_demo.jpg","0","1","0","0","0.8","true","0","0","0.8","80_20_practice","0","0.2","","","","","","","","","",""
"1677","","bandit","37","132890","0.0-18.0-19.0","01041719","wem/bandit_single","A1A8POS0IW7KLY","pain","4","","74","J","0","img/none_selected_demo.jpg","0","1","0","0","0.8","true","0","0","0.8","80_20_practice","0","0.2","","","","","","","","","",""
"3064","","text","38","136210","0.0-19.0","01041719","wem/bandit_single","A1A8POS0IW7KLY","pain","4","32","","","","","","","","","","","","","","","","","","","","","","","","","",""
"714","","bandit","39","138428","0.0-20.0-0.0","01041719","wem/bandit_single","A1A8POS0IW7KLY","pain","4","","74","J","0","img/none_selected_demo.jpg","0","0","1","0","0","true","0","0","0","","0","0","","","","","","","","","",""
"13388","","text","40","152068","0.0-21.0","01041719","wem/bandit_single","A1A8POS0IW7KLY","pain","4","32","","","","","","","","","","","","","","","","","","","","","","","","","",""
"2368","","text","41","154438","0.0-22.0","01041719","wem/bandit_single","A1A8POS0IW7KLY","pain","4","32","","","","","","","","","","","","","","","","","","","","","","","","","",""
"1924","","text","42","156363","0.0-23.0","01041719","wem/bandit_single","A1A8POS0IW7KLY","pain","4","32","","","","","","","","","","","","","","","","","","","","","","","","","",""
"2859","","text","43","159223","0.0-24.0","01041719","wem/bandit_single","A1A8POS0IW7KLY","pain","4","32","","","","","","","","","","","","","","","","","","","","","","","","","",""
"11301","","text","44","170526","0.0-25.0","01041719","wem/bandit_single","A1A8POS0IW7KLY","pain","4","32","","","","","","","","","","","","","","","","","","","","","","","","","",""
"1806","","text","45","172333","0.0-26.0","01041719","wem/bandit_single","A1A8POS0IW7KLY","pain","4","32","","","","","","","","","","","","","","","","","","","","","","","","","",""
"3659","","text","46","175994","0.0-27.0","01041719","wem/bandit_single","A1A8POS0IW7KLY","pain","4","32","","","","","","","","","","","","","","","","","","","","","","","","","",""
"4075","","text","47","180071","0.0-28.0","01041719","wem/bandit_single","A1A8POS0IW7KLY","pain","4","32","","","","","","","","","","","","","","","","","","","","","","","","","",""
"3294","","text","48","183367","0.0-29.0","01041719","wem/bandit_single","A1A8POS0IW7KLY","pain","4","32","","","","","","","","","","","","","","","","","","","","","","","","","",""
"2001","","text","49","185370","0.0-30.0","01041719","wem/bandit_single","A1A8POS0IW7KLY","pain","4","32","","","","","","","","","","","","","","","","","","","","","","","","","",""
"2043","","text","50","187414","0.0-31.0","01041719","wem/bandit_single","A1A8POS0IW7KLY","pain","4","32","","","","","","","","","","","","","","","","","","","","","","","","","",""
"421","","bandit","51","189342","0.0-32.0-0.0","01041719","wem/bandit_single","A1A8POS0IW7KLY","pain","4","","72","H","0","img/none_selected.jpg","0","1","0","0","0.8","true","0","0","0.8","full_practice","0","0.2","0","0.6","0","0.2","","","","","",""
"67","","bandit","52","191167","0.0-32.0-1.0","01041719","wem/bandit_single","A1A8POS0IW7KLY","pain","4","","74","J","1","","0","0","1","0","0.2","true","0","0","0.8","full_practice","0","0.2","0","0.6","0","0.2","","","","","",""
"295","","bandit","53","193222","0.0-32.0-2.0","01041719","wem/bandit_single","A1A8POS0IW7KLY","pain","4","","75","K","2","","0","1","0","0","0.6","true","0","0","0.8","full_practice","0","0.2","0","0.6","0","0.2","","","","","",""
"265","","bandit","54","195245","0.0-32.0-3.0","01041719","wem/bandit_single","A1A8POS0IW7KLY","pain","4","","76","L","3","","0","0","1","0","0.2","true","0","0","0.8","full_practice","0","0.2","0","0.6","0","0.2","","","","","",""
"16","","bandit","55","197017","0.0-32.0-4.0","01041719","wem/bandit_single","A1A8POS0IW7KLY","pain","4","","72","H","0","img/none_selected.jpg","0","1","0","0","0.8","true","0","0","0.8","full_practice","0","0.2","0","0.6","0","0.2","","","","","",""
"162","","bandit","56","198937","0.0-32.0-5.0","01041719","wem/bandit_single","A1A8POS0IW7KLY","pain","4","","74","J","1","","0","0","1","0","0.2","true","0","0","0.8","full_practice","0","0.2","0","0.6","0","0.2","","","","","",""
"107","","bandit","57","200804","0.0-32.0-6.0","01041719","wem/bandit_single","A1A8POS0IW7KLY","pain","4","","75","K","2","","0","1","0","0","0.6","true","0","0","0.8","full_practice","0","0.2","0","0.6","0","0.2","","","","","",""
"112","","bandit","58","202673","0.0-32.0-7.0","01041719","wem/bandit_single","A1A8POS0IW7KLY","pain","4","","72","H","0","img/none_selected.jpg","0","1","0","0","0.8","true","0","0","0.8","full_practice","0","0.2","0","0.6","0","0.2","","","","","",""
"32","","bandit","59","204465","0.0-32.0-8.0","01041719","wem/bandit_single","A1A8POS0IW7KLY","pain","4","","75","K","2","","0","1","0","0","0.6","true","0","0","0.8","full_practice","0","0.2","0","0.6","0","0.2","","","","","",""
"87","","bandit","60","206312","0.0-32.0-9.0","01041719","wem/bandit_single","A1A8POS0IW7KLY","pain","4","","72","H","0","img/none_selected.jpg","0","1","0","0","0.8","true","0","0","0.8","full_practice","0","0.2","0","0.6","0","0.2","","","","","",""
"87","","bandit","61","208161","0.0-32.0-10.0","01041719","wem/bandit_single","A1A8POS0IW7KLY","pain","4","","75","K","2","","0","0","1","0","0.6","true","0","0","0.8","full_practice","0","0.2","0","0.6","0","0.2","","","","","",""
"102","","bandit","62","210022","0.0-32.0-11.0","01041719","wem/bandit_single","A1A8POS0IW7KLY","pain","4","","72","H","0","img/none_selected.jpg","0","0","1","0","0.8","true","0","0","0.8","full_practice","0","0.2","0","0.6","0","0.2","","","","","",""
"47","","bandit","63","211825","0.0-32.0-12.0","01041719","wem/bandit_single","A1A8POS0IW7KLY","pain","4","","75","K","2","","0","0","1","0","0.6","true","0","0","0.8","full_practice","0","0.2","0","0.6","0","0.2","","","","","",""
"42","","bandit","64","213621","0.0-32.0-13.0","01041719","wem/bandit_single","A1A8POS0IW7KLY","pain","4","","72","H","0","img/none_selected.jpg","0","1","0","0","0.8","true","0","0","0.8","full_practice","0","0.2","0","0.6","0","0.2","","","","","",""
"88","","bandit","65","215467","0.0-32.0-14.0","01041719","wem/bandit_single","A1A8POS0IW7KLY","pain","4","","74","J","1","","0","0","1","0","0.2","true","0","0","0.8","full_practice","0","0.2","0","0.6","0","0.2","","","","","",""
"4","","bandit","66","217228","0.0-32.0-15.0","01041719","wem/bandit_single","A1A8POS0IW7KLY","pain","4","","72","H","0","img/none_selected.jpg","0","1","0","0","0.8","true","0","0","0.8","full_practice","0","0.2","0","0.6","0","0.2","","","","","",""
"90","","bandit","67","219077","0.0-32.0-16.0","01041719","wem/bandit_single","A1A8POS0IW7KLY","pain","4","","75","K","2","","0","1","0","0","0.6","true","0","0","0.8","full_practice","0","0.2","0","0.6","0","0.2","","","","","",""
"237","","bandit","68","221072","0.0-32.0-17.0","01041719","wem/bandit_single","A1A8POS0IW7KLY","pain","4","","72","H","0","img/none_selected.jpg","0","1","0","0","0.8","true","0","0","0.8","full_practice","0","0.2","0","0.6","0","0.2","","","","","",""
"40","","bandit","69","222868","0.0-32.0-18.0","01041719","wem/bandit_single","A1A8POS0IW7KLY","pain","4","","75","K","2","","0","0","1","0","0.6","true","0","0","0.8","full_practice","0","0.2","0","0.6","0","0.2","","","","","",""
"600","","bandit","70","225225","0.0-32.0-19.0","01041719","wem/bandit_single","A1A8POS0IW7KLY","pain","4","","72","H","0","img/none_selected.jpg","0","1","0","0","0.8","true","0","0","0.8","full_practice","0","0.2","0","0.6","0","0.2","","","","","",""
"2001","","text","71","227483","0.0-33.0","01041719","wem/bandit_single","A1A8POS0IW7KLY","pain","4","32","","","","","","","","","","","","","","","","","","","","","","","","","",""
"9483","","text","72","237969","0.0-34.0","01041719","wem/bandit_single","A1A8POS0IW7KLY","pain","4","32","","","","","","","","","","","","","","","","","","","","","","","","","",""
"3690","","text","73","241661","0.0-35.0","01041719","wem/bandit_single","A1A8POS0IW7KLY","pain","4","32","","","","","","","","","","","","","","","","","","","","","","","","","",""
"4314","","text","74","245980","0.0-36.0","01041719","wem/bandit_single","A1A8POS0IW7KLY","pain","4","32","","","","","","","","","","","","","","","","","","","","","","","","","",""
"3827","","text","75","249810","0.0-37.0","01041719","wem/bandit_single","A1A8POS0IW7KLY","pain","4","32","","","","","","","","","","","","","","","","","","","","","","","","","",""
"1220","","bandit","76","252537","0.0-38.0-0.0","01041719","wem/bandit_single","A1A8POS0IW7KLY","pain","4","","72","H","0","img/none_selected.jpg","0","0","1","","0.1530555908","false","1","","0.1530555908","main_expt","","0.1534711312","","0.2633340886","","0.04789219489","","","","","",""
"20","","bandit","77","254317","0.0-39.0-0.0","01041719","wem/bandit_single","A1A8POS0IW7KLY","pain","4","","74","J","1","","0","0","1","","0.1140054314","false","2","","0.103598712","main_expt","","0.1140054314","","0.288049036","","0.06526788736","","","","","",""
"134","","bandit","78","256207","0.0-40.0-0.0","01041719","wem/bandit_single","A1A8POS0IW7KLY","pain","4","","75","K","2","","0","0","1","","0.2979487298","false","3","","0.08136741005","main_expt","","0.1012650834","","0.2979487298","","0.04764418461","","","","","",""
"50","","bandit","79","258017","0.0-41.0-0.0","01041719","wem/bandit_single","A1A8POS0IW7KLY","pain","4","","76","L","3","","0","0","1","","0.05056035824","false","4","","0.08723083084","main_expt","","0.09541256236","","0.3306303211","","0.05056035824","","","","","",""
"69","","bandit","80","259844","0.0-42.0-0.0","01041719","wem/bandit_single","A1A8POS0IW7KLY","pain","4","","72","H","0","img/none_selected.jpg","0","0","1","","0.1255982651","false","5","","0.1255982651","main_expt","","0.07842998328","","0.2438199519","","0.05944929255","","","","","",""
"138","","bandit","81","261739","0.0-43.0-0.0","01041719","wem/bandit_single","A1A8POS0IW7KLY","pain","4","","74","J","1","","0","0","1","","0.09158282766","false","6","","0.09044777998","main_expt","","0.09158282766","","0.2362074668","","0.09562353852","","","","","",""
"50","","bandit","82","263545","0.0-44.0-0.0","01041719","wem/bandit_single","A1A8POS0IW7KLY","pain","4","","75","K","2","","0","0","1","","0.2591683673","false","7","","0.1067491613","main_expt","","0.09712353232","","0.2591683673","","0.08069121891","","","","","",""
"52","","bandit","83","265354","0.0-45.0-0.0","01041719","wem/bandit_single","A1A8POS0IW7KLY","pain","4","","76","L","3","","0","0","1","","0.07203927837","false","8","","0.15597148","main_expt","","0.08440361392","","0.2299415188","","0.07203927837","","","","","",""
"149","","bandit","84","267264","0.0-46.0-0.0","01041719","wem/bandit_single","A1A8POS0IW7KLY","pain","4","","72","H","0","img/none_selected.jpg","0","0","1","","0.2250404859","false","9","","0.2250404859","main_expt","","0.102519384","","0.2057198223","","0.08219025907","","","","","",""
"39","","bandit","85","269060","0.0-47.0-0.0","01041719","wem/bandit_single","A1A8POS0IW7KLY","pain","4","","74","J","1","","0","0","1","","0.06157476224","false","10","","0.2205918947","main_expt","","0.06157476224","","0.2002554128","","0.06517742799","","","","","",""
"49","","bandit","86","270865","0.0-48.0-0.0","01041719","wem/bandit_single","A1A8POS0IW7KLY","pain","4","","75","K","2","","0","0","1","","0.2390702858","false","11","","0.1999173076","main_expt","","0.05516119966","","0.2390702858","","0.0549201251","","","","","",""
"72","","bandit","87","272693","0.0-49.0-0.0","01041719","wem/bandit_single","A1A8POS0IW7KLY","pain","4","","76","L","3","","0","0","1","","0.0630283727","false","12","","0.2006159367","main_expt","","0.04311537102","","0.2309669968","","0.0630283727","","","","","",""
"64","","bandit","88","274512","0.0-50.0-0.0","01041719","wem/bandit_single","A1A8POS0IW7KLY","pain","4","","72","H","0","img/none_selected.jpg","0","1","0","","0.202674457","false","13","","0.202674457","main_expt","","0.03895599675","","0.2667386483","","0.07136250487","","","","","",""
"738","","bandit","89","277009","0.0-51.0-0.0","01041719","wem/bandit_single","A1A8POS0IW7KLY","pain","4","","74","J","1","","0","0","1","","0.03256744162","false","14","","0.152812741","main_expt","","0.03256744162","","0.2057326914","","0.07333211558","","","","","",""
"15","","bandit","90","278783","0.0-52.0-0.0","01041719","wem/bandit_single","A1A8POS0IW7KLY","pain","4","","75","K","2","","0","0","1","","0.2081585857","false","15","","0.1648564856","main_expt","","0.01982065674","","0.2081585857","","0.1154740655","","","","","",""
"306","","bandit","91","280846","0.0-53.0-0.0","01041719","wem/bandit_single","A1A8POS0IW7KLY","pain","4","","76","L","3","","0","0","1","","0.1011313391","false","16","","0.1619055423","main_expt","","0.04082574049","","0.1909184248","","0.1011313391","","","","","",""
"25","","bandit","92","282628","0.0-54.0-0.0","01041719","wem/bandit_single","A1A8POS0IW7KLY","pain","4","","72","H","0","img/none_selected.jpg","0","1","0","","0.1651197045","false","17","","0.1651197045","main_expt","","0.0363298649","","0.2198432556","","0.1447019112","","","","","",""
"48","","bandit","93","284436","0.0-55.0-0.0","01041719","wem/bandit_single","A1A8POS0IW7KLY","pain","4","","72","H","0","img/none_selected.jpg","0","0","1","","0.1079041081","false","18","","0.1079041081","main_expt","","0.07917382237","","0.2347766335","","0.1039364862","","","","","",""
"163","","bandit","94","286355","0.0-56.0-0.0","01041719","wem/bandit_single","A1A8POS0IW7KLY","pain","4","","72","H","0","img/none_selected.jpg","0","0","1","","0.1059999363","false","19","","0.1059999363","main_expt","","0.08476555987","","0.24668571","","0.08759831402","","","","","",""
"157","","bandit","95","288268","0.0-57.0-0.0","01041719","wem/bandit_single","A1A8POS0IW7KLY","pain","4","","72","H","0","img/none_selected.jpg","0","0","1","","0.1197169881","false","20","","0.1197169881","main_expt","","0.04047152317","","0.2355281317","","0.08010338479","","","","","",""
"105","","bandit","96","290130","0.0-58.0-0.0","01041719","wem/bandit_single","A1A8POS0IW7KLY","pain","4","","72","H","0","img/none_selected.jpg","0","0","1","","0.1338215077","false","21","","0.1338215077","main_expt","","0.07021106672","","0.2290721377","","0.07820488182","","","","","",""
"101","","bandit","97","291990","0.0-59.0-0.0","01041719","wem/bandit_single","A1A8POS0IW7KLY","pain","4","","74","J","1","","0","0","1","","0.08794503477","false","22","","0.1691749215","main_expt","","0.08794503477","","0.1982968879","","0.06301774499","","","","","",""
"47","","bandit","98","293794","0.0-60.0-0.0","01041719","wem/bandit_single","A1A8POS0IW7KLY","pain","4","","75","K","2","","0","0","1","","0.1991555028","false","23","","0.2100599157","main_expt","","0.07274518233","","0.1991555028","","0.04380944514","","","","","",""
"34","","bandit","99","295585","0.0-61.0-0.0","01041719","wem/bandit_single","A1A8POS0IW7KLY","pain","4","","76","L","3","","0","0","1","","0.04485861341","false","24","","0.1763606332","main_expt","","0.09602528561","","0.1700743611","","0.04485861341","","","","","",""
"37","","bandit","100","297382","0.0-62.0-0.0","01041719","wem/bandit_single","A1A8POS0IW7KLY","pain","4","","72","H","0","img/none_selected.jpg","0","0","1","","0.1155065599","false","25","","0.1155065599","main_expt","","0.07148754983","","0.2303117276","","0.08350983839","","","","","",""
"147","","bandit","101","299286","0.0-63.0-0.0","01041719","wem/bandit_single","A1A8POS0IW7KLY","pain","4","","72","H","0","img/none_selected.jpg","0","0","1","","0.08411514459","false","26","","0.08411514459","main_expt","","0.05591681381","","0.2615068669","","0.04946014148","","","","","",""
"7","","bandit","102","301049","0.0-64.0-0.0","01041719","wem/bandit_single","A1A8POS0IW7KLY","pain","4","","74","J","1","","0","0","1","","0.06488914964","false","27","","0.1192049255","main_expt","","0.06488914964","","0.2108316327","","0.07008172503","","","","","",""
"66","","bandit","103","302874","0.0-65.0-0.0","01041719","wem/bandit_single","A1A8POS0IW7KLY","pain","4","","75","K","2","","0","0","1","","0.2616222854","false","28","","0.1530516972","main_expt","","0.07067710387","","0.2616222854","","0.09766989806","","","","","",""
"121","","bandit","104","304753","0.0-66.0-0.0","01041719","wem/bandit_single","A1A8POS0IW7KLY","pain","4","","76","L","3","","0","0","1","","0.1020433103","false","29","","0.1243035263","main_expt","","0.06184318105","","0.2754145478","","0.1020433103","","","","","",""
"134","","bandit","105","306644","0.0-67.0-0.0","01041719","wem/bandit_single","A1A8POS0IW7KLY","pain","4","","72","H","0","img/none_selected.jpg","0","1","0","","0.2106934108","false","30","","0.2106934108","main_expt","","0.06562203124","","0.3091083038","","0.1128186897","","","","","",""
"103","","bandit","106","308507","0.0-68.0-0.0","01041719","wem/bandit_single","A1A8POS0IW7KLY","pain","4","","72","H","0","img/none_selected.jpg","0","1","0","","0.269819176","false","31","","0.269819176","main_expt","","0.06340423818","","0.3032558385","","0.1021038766","","","","","",""
"193","","bandit","107","310462","0.0-69.0-0.0","01041719","wem/bandit_single","A1A8POS0IW7KLY","pain","4","","72","H","0","img/none_selected.jpg","0","0","1","","0.2415851803","false","32","","0.2415851803","main_expt","","0.08582013972","","0.3160124579","","0.1010238501","","","","","",""
"151","","bandit","108","312374","0.0-70.0-0.0","01041719","wem/bandit_single","A1A8POS0IW7KLY","pain","4","","72","H","0","img/none_selected.jpg","0","0","1","","0.2754451294","false","33","","0.2754451294","main_expt","","0.1020351259","","0.355825184","","0.0674926465","","","","","",""
"100","","bandit","109","314231","0.0-71.0-0.0","01041719","wem/bandit_single","A1A8POS0IW7KLY","pain","4","","72","H","0","img/none_selected.jpg","0","1","0","","0.3566428969","false","34","","0.3566428969","main_expt","","0.07925884201","","0.3380280112","","0.1007783216","","","","","",""
"150","","bandit","110","316141","0.0-72.0-0.0","01041719","wem/bandit_single","A1A8POS0IW7KLY","pain","4","","72","H","0","img/none_selected.jpg","0","0","1","","0.2652811253","false","35","","0.2652811253","main_expt","","0.06071167626","","0.3772093912","","0.09542819821","","","","","",""
"38","","bandit","111","317936","0.0-73.0-0.0","01041719","wem/bandit_single","A1A8POS0IW7KLY","pain","4","","72","H","0","img/none_selected.jpg","0","0","1","","0.2472166127","false","36","","0.2472166127","main_expt","","0.05331310492","","0.3916459715","","0.07425724813","","","","","",""
"101","","bandit","112","319796","0.0-74.0-0.0","01041719","wem/bandit_single","A1A8POS0IW7KLY","pain","4","","72","H","0","img/none_selected.jpg","0","1","0","","0.2941536534","false","37","","0.2941536534","main_expt","","0.08395737389","","0.3724196513","","0.07325651263","","","","","",""
"70","","bandit","113","321626","0.0-75.0-0.0","01041719","wem/bandit_single","A1A8POS0IW7KLY","pain","4","","72","H","0","img/none_selected.jpg","0","1","0","","0.2850199379","false","38","","0.2850199379","main_expt","","0.07562804978","","0.3885064771","","0.06058557764","","","","","",""
"97","","bandit","114","323480","0.0-76.0-0.0","01041719","wem/bandit_single","A1A8POS0IW7KLY","pain","4","","72","H","0","img/none_selected.jpg","0","0","1","","0.2308750992","false","39","","0.2308750992","main_expt","","0.06339693541","","0.4332305888","","0.05480529152","","","","","",""
"43","","bandit","115","325278","0.0-77.0-0.0","01041719","wem/bandit_single","A1A8POS0IW7KLY","pain","4","","72","H","0","img/none_selected.jpg","0","1","0","","0.2166928419","false","40","","0.2166928419","main_expt","","0.07741261751","","0.4320021358","","0.08480448704","","","","","",""
"42","","bandit","116","327076","0.0-78.0-0.0","01041719","wem/bandit_single","A1A8POS0IW7KLY","pain","4","","72","H","0","img/none_selected.jpg","0","1","0","","0.222341992","false","41","","0.222341992","main_expt","","0.08199889575","","0.4378374231","","0.07863220129","","","","","",""
"35","","bandit","117","328872","0.0-79.0-0.0","01041719","wem/bandit_single","A1A8POS0IW7KLY","pain","4","","72","H","0","img/none_selected.jpg","0","1","0","","0.2420609394","false","42","","0.2420609394","main_expt","","0.1252939417","","0.4138470733","","0.07947159818","","","","","",""
"80","","bandit","118","330712","0.0-80.0-0.0","01041719","wem/bandit_single","A1A8POS0IW7KLY","pain","4","","72","H","0","img/none_selected.jpg","0","0","1","","0.2683234569","false","43","","0.2683234569","main_expt","","0.1464491551","","0.3618848001","","0.0747194724","","","","","",""
"15","","bandit","119","332483","0.0-81.0-0.0","01041719","wem/bandit_single","A1A8POS0IW7KLY","pain","4","","72","H","0","img/none_selected.jpg","0","1","0","","0.2592073096","false","44","","0.2592073096","main_expt","","0.1846315016","","0.3902132048","","0.06873866496","","","","","",""
"1","","bandit","120","334244","0.0-82.0-0.0","01041719","wem/bandit_single","A1A8POS0IW7KLY","pain","4","","72","H","0","img/none_selected.jpg","0","1","0","","0.258850709","false","45","","0.258850709","main_expt","","0.1454302639","","0.370584769","","0.05624711086","","","","","",""
"44","","bandit","121","336043","0.0-83.0-0.0","01041719","wem/bandit_single","A1A8POS0IW7KLY","pain","4","","72","H","0","img/none_selected.jpg","0","0","1","","0.2162528617","false","46","","0.2162528617","main_expt","","0.1420401956","","0.3416192418","","0.06710767933","","","","","",""
"44","","bandit","122","337844","0.0-84.0-0.0","01041719","wem/bandit_single","A1A8POS0IW7KLY","pain","4","","72","H","0","img/none_selected.jpg","0","0","1","","0.1380472806","false","47","","0.1380472806","main_expt","","0.2049545467","","0.3254497978","","0.05828218186","","","","","",""
"1","","bandit","123","339605","0.0-85.0-0.0","01041719","wem/bandit_single","A1A8POS0IW7KLY","pain","4","","72","H","0","img/none_selected.jpg","0","0","1","","0.1673270425","false","48","","0.1673270425","main_expt","","0.1608881285","","0.3438960799","","0.1161016377","","","","","",""
"80","","bandit","124","341444","0.0-86.0-0.0","01041719","wem/bandit_single","A1A8POS0IW7KLY","pain","4","","72","H","0","img/none_selected.jpg","0","0","1","","0.1637821127","false","49","","0.1637821127","main_expt","","0.2001806823","","0.3405395495","","0.1135844416","","","","","",""
"479","","bandit","125","343681","0.0-87.0-0.0","01041719","wem/bandit_single","A1A8POS0IW7KLY","pain","4","","74","J","1","","0","0","1","","0.2061381611","false","50","","0.1826101584","main_expt","","0.2061381611","","0.3305224856","","0.1646239324","","","","","",""
"23","","bandit","126","345460","0.0-88.0-0.0","01041719","wem/bandit_single","A1A8POS0IW7KLY","pain","4","","75","K","2","","0","0","1","","0.2304924019","false","51","","0.2270371056","main_expt","","0.2369791141","","0.2304924019","","0.1699716213","","","","","",""
"29","","bandit","127","347249","0.0-89.0-0.0","01041719","wem/bandit_single","A1A8POS0IW7KLY","pain","4","","76","L","3","","0","0","1","","0.1762937123","false","52","","0.2203225001","main_expt","","0.2378663067","","0.2832256505","","0.1762937123","","","","","",""
"32","","bandit","128","349039","0.0-90.0-0.0","01041719","wem/bandit_single","A1A8POS0IW7KLY","pain","4","","72","H","0","img/none_selected.jpg","0","0","1","","0.2776849753","false","53","","0.2776849753","main_expt","","0.2063519028","","0.2391441838","","0.2287193473","","","","","",""
"32","","bandit","129","350830","0.0-91.0-0.0","01041719","wem/bandit_single","A1A8POS0IW7KLY","pain","4","","74","J","1","","0","1","0","","0.2439582882","false","54","","0.2454572706","main_expt","","0.2439582882","","0.2697071588","","0.2356834932","","","","","",""
"99","","bandit","130","352682","0.0-92.0-0.0","01041719","wem/bandit_single","A1A8POS0IW7KLY","pain","4","","75","K","2","","0","1","0","","0.2875326611","false","55","","0.2382153161","main_expt","","0.2381950618","","0.2875326611","","0.306547883","","","","","",""
"41","","bandit","131","354479","0.0-93.0-0.0","01041719","wem/bandit_single","A1A8POS0IW7KLY","pain","4","","76","L","3","","0","0","1","","0.2853582168","false","56","","0.1960908288","main_expt","","0.1800346575","","0.2854258916","","0.2853582168","","","","","",""
"28","","bandit","132","356269","0.0-94.0-0.0","01041719","wem/bandit_single","A1A8POS0IW7KLY","pain","4","","74","J","1","","0","0","1","","0.2336203315","false","57","","0.2042340564","main_expt","","0.2336203315","","0.3445045135","","0.2834250679","","","","","",""
"246","","bandit","133","358272","0.0-95.0-0.0","01041719","wem/bandit_single","A1A8POS0IW7KLY","pain","4","","75","K","2","","0","1","0","","0.3390226593","false","58","","0.1490893454","main_expt","","0.189887459","","0.3390226593","","0.2690284398","","","","","",""
"57","","bandit","134","360087","0.0-96.0-0.0","01041719","wem/bandit_single","A1A8POS0IW7KLY","pain","4","","74","J","1","","0","0","1","","0.1548607402","false","59","","0.1581154669","main_expt","","0.1548607402","","0.2666291788","","0.2616697142","","","","","",""
"141","","bandit","135","361985","0.0-97.0-0.0","01041719","wem/bandit_single","A1A8POS0IW7KLY","pain","4","","75","K","2","","0","0","1","","0.246985882","false","60","","0.1715954381","main_expt","","0.1233285174","","0.246985882","","0.2704186185","","","","","",""
"407","","bandit","136","364148","0.0-98.0-0.0","01041719","wem/bandit_single","A1A8POS0IW7KLY","pain","4","","75","K","2","","0","0","1","","0.2171589204","false","61","","0.1999420892","main_expt","","0.186549837","","0.2171589204","","0.3376037184","","","","","",""
"98","","bandit","137","366006","0.0-99.0-0.0","01041719","wem/bandit_single","A1A8POS0IW7KLY","pain","4","","75","K","2","","0","0","1","","0.2677831299","false","62","","0.1539309088","main_expt","","0.1420872584","","0.2677831299","","0.3098521258","","","","","",""
"99","","bandit","138","367861","0.0-100.0-0.0","01041719","wem/bandit_single","A1A8POS0IW7KLY","pain","4","","75","K","2","","0","1","0","","0.2303454974","false","63","","0.1085632924","main_expt","","0.151707711","","0.2303454974","","0.3137631198","","","","","",""
"139","","bandit","139","369762","0.0-101.0-0.0","01041719","wem/bandit_single","A1A8POS0IW7KLY","pain","4","","75","K","2","","0","0","1","","0.196947777","false","64","","0.1370187426","main_expt","","0.1474827626","","0.196947777","","0.3179430645","","","","","",""
"82","","bandit","140","371605","0.0-102.0-0.0","01041719","wem/bandit_single","A1A8POS0IW7KLY","pain","4","","75","K","2","","0","0","1","","0.1645630622","false","65","","0.1322062037","main_expt","","0.1746529425","","0.1645630622","","0.2980330155","","","","","",""
"239","","bandit","141","373609","0.0-103.0-0.0","01041719","wem/bandit_single","A1A8POS0IW7KLY","pain","4","","75","K","2","","0","0","1","","0.1533283495","false","66","","0.1496501041","main_expt","","0.1310865155","","0.1533283495","","0.2537140377","","","","","",""
"12","","bandit","142","375379","0.0-104.0-0.0","01041719","wem/bandit_single","A1A8POS0IW7KLY","pain","4","","75","K","2","","0","0","1","","0.1708403009","false","67","","0.1626820295","main_expt","","0.1370872981","","0.1708403009","","0.2153704701","","","","","",""
"96","","bandit","143","377237","0.0-105.0-0.0","01041719","wem/bandit_single","A1A8POS0IW7KLY","pain","4","","75","K","2","","0","0","1","","0.1887917493","false","68","","0.1989514297","main_expt","","0.09914494933","","0.1887917493","","0.2417705853","","","","","",""
"203","","bandit","144","379201","0.0-106.0-0.0","01041719","wem/bandit_single","A1A8POS0IW7KLY","pain","4","","74","J","1","","0","0","1","","0.1092411584","false","69","","0.1888867792","main_expt","","0.1092411584","","0.2160515082","","0.3235463827","","","","","",""
"91","","bandit","145","381051","0.0-107.0-0.0","01041719","wem/bandit_single","A1A8POS0IW7KLY","pain","4","","74","J","1","","0","0","1","","0.1213917008","false","70","","0.1767550628","main_expt","","0.1213917008","","0.2778565133","","0.3647615206","","","","","",""
"122","","bandit","146","382931","0.0-108.0-0.0","01041719","wem/bandit_single","A1A8POS0IW7KLY","pain","4","","74","J","1","","0","0","1","","0.1479005197","false","71","","0.1253641033","main_expt","","0.1479005197","","0.2623699359","","0.3472934012","","","","","",""
"97","","bandit","147","384788","0.0-109.0-0.0","01041719","wem/bandit_single","A1A8POS0IW7KLY","pain","4","","72","H","0","img/none_selected.jpg","0","0","1","","0.1319365506","false","72","","0.1319365506","main_expt","","0.1931369739","","0.2574081817","","0.2965124106","","","","","",""
"172","","bandit","148","386722","0.0-110.0-0.0","01041719","wem/bandit_single","A1A8POS0IW7KLY","pain","4","","72","H","0","img/none_selected.jpg","0","0","1","","0.1061905376","false","73","","0.1061905376","main_expt","","0.1900103681","","0.2503470883","","0.2823595977","","","","","",""
"128","","bandit","149","388607","0.0-111.0-0.0","01041719","wem/bandit_single","A1A8POS0IW7KLY","pain","4","","72","H","0","img/none_selected.jpg","0","0","1","","0.1303083533","false","74","","0.1303083533","main_expt","","0.1344428369","","0.2710758316","","0.2835749375","","","","","",""
"274","","bandit","150","390637","0.0-112.0-0.0","01041719","wem/bandit_single","A1A8POS0IW7KLY","pain","4","","76","L","3","","0","0","1","","0.3526847528","false","75","","0.1359111238","main_expt","","0.1528357022","","0.260759121","","0.3526847528","","","","","",""
"114","","bandit","151","392509","0.0-113.0-0.0","01041719","wem/bandit_single","A1A8POS0IW7KLY","pain","4","","76","L","3","","0","0","1","","0.3434196486","false","76","","0.1128391495","main_expt","","0.1898592508","","0.2610050464","","0.3434196486","","","","","",""
"129","","bandit","152","394398","0.0-114.0-0.0","01041719","wem/bandit_single","A1A8POS0IW7KLY","pain","4","","76","L","3","","0","1","0","","0.3073782559","false","77","","0.1118044987","main_expt","","0.191464519","","0.1920601856","","0.3073782559","","","","","",""
"57","","bandit","153","396213","0.0-115.0-0.0","01041719","wem/bandit_single","A1A8POS0IW7KLY","pain","4","","76","L","3","","0","0","1","","0.3200097729","false","78","","0.1315400358","main_expt","","0.2665821314","","0.1726035312","","0.3200097729","","","","","",""
"46","","bandit","154","398014","0.0-116.0-0.0","01041719","wem/bandit_single","A1A8POS0IW7KLY","pain","4","","76","L","3","","0","0","1","","0.3406321397","false","79","","0.1421279646","main_expt","","0.2510402579","","0.1974193715","","0.3406321397","","","","","",""
"116","","bandit","155","399889","0.0-117.0-0.0","01041719","wem/bandit_single","A1A8POS0IW7KLY","pain","4","","76","L","3","","0","0","1","","0.2934749235","false","80","","0.1666910293","main_expt","","0.2803090616","","0.1771423485","","0.2934749235","","","","","",""
"81","","bandit","156","401731","0.0-118.0-0.0","01041719","wem/bandit_single","A1A8POS0IW7KLY","pain","4","","76","L","3","","0","0","1","","0.3080678564","false","81","","0.1514130178","main_expt","","0.3053401272","","0.1689426189","","0.3080678564","","","","","",""
"113","","bandit","157","403600","0.0-119.0-0.0","01041719","wem/bandit_single","A1A8POS0IW7KLY","pain","4","","75","K","2","","0","1","0","","0.2008945118","false","82","","0.1667518413","main_expt","","0.3079009489","","0.2008945118","","0.3118316764","","","","","",""
"134","","bandit","158","405493","0.0-120.0-0.0","01041719","wem/bandit_single","A1A8POS0IW7KLY","pain","4","","75","K","2","","0","0","1","","0.2679993971","false","83","","0.1620161121","main_expt","","0.3294465445","","0.2679993971","","0.2539803618","","","","","",""
"27","","bandit","159","407277","0.0-121.0-0.0","01041719","wem/bandit_single","A1A8POS0IW7KLY","pain","4","","75","K","2","","0","0","1","","0.2187304288","false","84","","0.1920696542","main_expt","","0.3567704092","","0.2187304288","","0.2665148507","","","","","",""
"41","","bandit","160","409075","0.0-122.0-0.0","01041719","wem/bandit_single","A1A8POS0IW7KLY","pain","4","","75","K","2","","0","0","1","","0.2668074714","false","85","","0.1790321084","main_expt","","0.3637986046","","0.2668074714","","0.2638978108","","","","","",""
"24","","bandit","161","410856","0.0-123.0-0.0","01041719","wem/bandit_single","A1A8POS0IW7KLY","pain","4","","74","J","1","","0","1","0","","0.3661817966","false","86","","0.1644507099","main_expt","","0.3661817966","","0.3011617684","","0.2430370424","","","","","",""
"9","","bandit","162","412621","0.0-124.0-0.0","01041719","wem/bandit_single","A1A8POS0IW7KLY","pain","4","","74","J","1","","0","0","1","","0.349996741","false","87","","0.1731377232","main_expt","","0.349996741","","0.2866912597","","0.2369050713","","","","","",""
"175","","bandit","163","414559","0.0-125.0-0.0","01041719","wem/bandit_single","A1A8POS0IW7KLY","pain","4","","74","J","1","","0","0","1","","0.3021468993","false","88","","0.1562940882","main_expt","","0.3021468993","","0.2921806028","","0.2322244834","","","","","",""
"115","","bandit","164","416431","0.0-126.0-0.0","01041719","wem/bandit_single","A1A8POS0IW7KLY","pain","4","","74","J","1","","0","0","1","","0.2752269066","false","89","","0.1344734597","main_expt","","0.2752269066","","0.2877077994","","0.214722025","","","","","",""
"147","","bandit","165","418341","0.0-127.0-0.0","01041719","wem/bandit_single","A1A8POS0IW7KLY","pain","4","","74","J","1","","0","0","1","","0.3172240337","false","90","","0.1192135027","main_expt","","0.3172240337","","0.2390413286","","0.1767670318","","","","","",""
"343","","bandit","166","420441","0.0-128.0-0.0","01041719","wem/bandit_single","A1A8POS0IW7KLY","pain","4","","72","H","0","img/none_selected.jpg","0","0","1","","0.1639104845","false","91","","0.1639104845","main_expt","","0.3049723864","","0.2582098676","","0.1391375388","","","","","",""
"418","","bandit","167","422619","0.0-129.0-0.0","01041719","wem/bandit_single","A1A8POS0IW7KLY","pain","4","","75","K","2","","0","1","0","","0.3066747335","false","92","","0.1960431165","main_expt","","0.3261529518","","0.3066747335","","0.1283323985","","","","","",""
"123","","bandit","168","424498","0.0-130.0-0.0","01041719","wem/bandit_single","A1A8POS0IW7KLY","pain","4","","75","K","2","","0","0","1","","0.3051362106","false","93","","0.2137056669","main_expt","","0.3550538726","","0.3051362106","","0.07538544447","","","","","",""
"144","","bandit","169","426400","0.0-131.0-0.0","01041719","wem/bandit_single","A1A8POS0IW7KLY","pain","4","","75","K","2","","0","1","0","","0.3433649514","false","94","","0.2188004936","main_expt","","0.3335231974","","0.3433649514","","0.07407963518","","","","","",""
"159","","bandit","170","428322","0.0-132.0-0.0","01041719","wem/bandit_single","A1A8POS0IW7KLY","pain","4","","75","K","2","","0","0","1","","0.3638642947","false","95","","0.2442185641","main_expt","","0.3060397856","","0.3638642947","","0.06265185683","","","","","",""
"79","","bandit","171","430157","0.0-133.0-0.0","01041719","wem/bandit_single","A1A8POS0IW7KLY","pain","4","","75","K","2","","0","0","1","","0.3433071503","false","96","","0.2062156096","main_expt","","0.3420618169","","0.3433071503","","0.0626930361","","","","","",""
"116","","bandit","172","432033","0.0-134.0-0.0","01041719","wem/bandit_single","A1A8POS0IW7KLY","pain","4","","75","K","2","","0","0","1","","0.3287523936","false","97","","0.1824441478","main_expt","","0.3451805041","","0.3287523936","","0.03702031205","","","","","",""
"103","","bandit","173","433896","0.0-135.0-0.0","01041719","wem/bandit_single","A1A8POS0IW7KLY","pain","4","","75","K","2","","0","0","1","","0.3384657171","false","98","","0.1741419228","main_expt","","0.3067376926","","0.3384657171","","0.02896114516","","","","","",""
"94","","bandit","174","435748","0.0-136.0-0.0","01041719","wem/bandit_single","A1A8POS0IW7KLY","pain","4","","76","L","3","","0","0","1","","0.04301278827","false","99","","0.1402348549","main_expt","","0.2980645096","","0.3929596429","","0.04301278827","","","","","",""
"81","","bandit","175","437590","0.0-137.0-0.0","01041719","wem/bandit_single","A1A8POS0IW7KLY","pain","4","","76","L","3","","0","0","1","","0.03198738169","false","100","","0.1856728267","main_expt","","0.2862788702","","0.3972918561","","0.03198738169","","","","","",""
"144","","bandit","176","439492","0.0-138.0-0.0","01041719","wem/bandit_single","A1A8POS0IW7KLY","pain","4","","76","L","3","","0","0","1","","0.03387094668","false","101","","0.1731032509","main_expt","","0.2622165861","","0.4064604032","","0.03387094668","","","","","",""
"97","","bandit","177","441349","0.0-139.0-0.0","01041719","wem/bandit_single","A1A8POS0IW7KLY","pain","4","","72","H","0","img/none_selected.jpg","0","1","0","","0.1387116465","false","102","","0.1387116465","main_expt","","0.3261799811","","0.4273413635","","0.0235124197","","","","","",""
"147","","bandit","178","443255","0.0-140.0-0.0","01041719","wem/bandit_single","A1A8POS0IW7KLY","pain","4","","72","H","0","img/none_selected.jpg","0","0","1","","0.1880660303","false","103","","0.1880660303","main_expt","","0.334814711","","0.4566487837","","0.02482610326","","","","","",""
"171","","bandit","179","445182","0.0-141.0-0.0","01041719","wem/bandit_single","A1A8POS0IW7KLY","pain","4","","72","H","0","img/none_selected.jpg","0","0","1","","0.142060421","false","104","","0.142060421","main_expt","","0.3486298313","","0.459539636","","0.03330094042","","","","","",""
"5","","bandit","180","446945","0.0-142.0-0.0","01041719","wem/bandit_single","A1A8POS0IW7KLY","pain","4","","72","H","0","img/none_selected.jpg","0","1","0","","0.1839839798","false","105","","0.1839839798","main_expt","","0.3538911629","","0.4462881264","","0.06543537915","","","","","",""
"0","","bandit","181","448705","0.0-143.0-0.0","01041719","wem/bandit_single","A1A8POS0IW7KLY","pain","4","","72","H","0","img/none_selected.jpg","0","0","1","","0.1691947451","false","106","","0.1691947451","main_expt","","0.3886974852","","0.4417011126","","0.07051160025","","","","","",""
"131","","bandit","182","450595","0.0-144.0-0.0","01041719","wem/bandit_single","A1A8POS0IW7KLY","pain","4","","72","H","0","img/none_selected.jpg","0","1","0","","0.180010917","false","107","","0.180010917","main_expt","","0.3489433712","","0.4419194373","","0.08830456602","","","","","",""
"215","","bandit","183","452570","0.0-145.0-0.0","01041719","wem/bandit_single","A1A8POS0IW7KLY","pain","4","","72","H","0","img/none_selected.jpg","0","0","1","","0.1338722415","false","108","","0.1338722415","main_expt","","0.3901728218","","0.4061848383","","0.05921849724","","","","","",""
"172","","bandit","184","454500","0.0-146.0-0.0","01041719","wem/bandit_single","A1A8POS0IW7KLY","pain","4","","72","H","0","img/none_selected.jpg","0","0","1","","0.1350853679","false","109","","0.1350853679","main_expt","","0.4006799949","","0.3906669636","","0.04581125366","","","","","",""
"143","","bandit","185","456401","0.0-147.0-0.0","01041719","wem/bandit_single","A1A8POS0IW7KLY","pain","4","","72","H","0","img/none_selected.jpg","0","0","1","","0.184551263","false","110","","0.184551263","main_expt","","0.3867714499","","0.3969614195","","0.08345510588","","","","","",""
"106","","bandit","186","458265","0.0-148.0-0.0","01041719","wem/bandit_single","A1A8POS0IW7KLY","pain","4","","74","J","1","","0","0","1","","0.4252141842","false","111","","0.2635344293","main_expt","","0.4252141842","","0.370186674","","0.07355878572","","","","","",""
"105","","bandit","187","460134","0.0-149.0-0.0","01041719","wem/bandit_single","A1A8POS0IW7KLY","pain","4","","75","K","2","","0","0","1","","0.3488043283","false","112","","0.2972025743","main_expt","","0.4197282726","","0.3488043283","","0.09226575929","","","","","",""
"97","","bandit","188","461990","0.0-150.0-0.0","01041719","wem/bandit_single","A1A8POS0IW7KLY","pain","4","","76","L","3","","0","0","1","","0.07711661396","false","113","","0.2853398636","main_expt","","0.4371411526","","0.2886117592","","0.07711661396","","","","","",""
"257","","bandit","189","464004","0.0-151.0-0.0","01041719","wem/bandit_single","A1A8POS0IW7KLY","pain","4","","72","H","0","img/none_selected.jpg","0","0","1","","0.2354235092","false","114","","0.2354235092","main_expt","","0.4523407119","","0.3507025671","","0.09366406151","","","","","",""
"105","","bandit","190","465867","0.0-152.0-0.0","01041719","wem/bandit_single","A1A8POS0IW7KLY","pain","4","","74","J","1","","0","0","1","","0.4544977282","false","115","","0.2228923984","main_expt","","0.4544977282","","0.3308051733","","0.09297781317","","","","","",""
"32","","bandit","191","467658","0.0-153.0-0.0","01041719","wem/bandit_single","A1A8POS0IW7KLY","pain","4","","75","K","2","","0","0","1","","0.2696902145","false","116","","0.182615248","main_expt","","0.4458191396","","0.2696902145","","0.09292735615","","","","","",""
"43","","bandit","192","469459","0.0-154.0-0.0","01041719","wem/bandit_single","A1A8POS0IW7KLY","pain","4","","76","L","3","","0","0","1","","0.1277349031","false","117","","0.1702457594","main_expt","","0.4384124693","","0.3048340551","","0.1277349031","","","","","",""
"116","","bandit","193","471336","0.0-155.0-0.0","01041719","wem/bandit_single","A1A8POS0IW7KLY","pain","4","","72","H","0","img/none_selected.jpg","0","0","1","","0.2075823826","false","118","","0.2075823826","main_expt","","0.4590850855","","0.2682044258","","0.1057820856","","","","","",""
"55","","bandit","194","473150","0.0-156.0-0.0","01041719","wem/bandit_single","A1A8POS0IW7KLY","pain","4","","74","J","1","","0","0","1","","0.4718937063","false","119","","0.2281388084","main_expt","","0.4718937063","","0.2314514612","","0.08453932314","","","","","",""
"70","","bandit","195","474980","0.0-157.0-0.0","01041719","wem/bandit_single","A1A8POS0IW7KLY","pain","4","","75","K","2","","0","0","1","","0.197474053","false","120","","0.2620651535","main_expt","","0.4645470247","","0.197474053","","0.1106897037","","","","","",""
"68","","bandit","196","476805","0.0-158.0-0.0","01041719","wem/bandit_single","A1A8POS0IW7KLY","pain","4","","76","L","3","","0","0","1","","0.1200625234","false","121","","0.2953433235","main_expt","","0.4422277234","","0.1819521248","","0.1200625234","","","","","",""
"157","","bandit","197","478725","0.0-159.0-0.0","01041719","wem/bandit_single","A1A8POS0IW7KLY","pain","4","","72","H","0","img/none_selected.jpg","0","0","1","","0.2702367277","false","122","","0.2702367277","main_expt","","0.4150525319","","0.171732915","","0.1570760405","","","","","",""
"130","","bandit","198","480615","0.0-160.0-0.0","01041719","wem/bandit_single","A1A8POS0IW7KLY","pain","4","","74","J","1","","0","1","0","","0.4356762379","false","123","","0.3190818872","main_expt","","0.4356762379","","0.1577660673","","0.1616024906","","","","","",""
"150","","bandit","199","482526","0.0-161.0-0.0","01041719","wem/bandit_single","A1A8POS0IW7KLY","pain","4","","74","J","1","","0","0","1","","0.4475351861","false","124","","0.3415455108","main_expt","","0.4475351861","","0.1384195938","","0.1371750093","","","","","",""
"107","","bandit","200","484398","0.0-162.0-0.0","01041719","wem/bandit_single","A1A8POS0IW7KLY","pain","4","","74","J","1","","0","0","1","","0.4310995666","false","125","","0.3955313072","main_expt","","0.4310995666","","0.1367208018","","0.1293707667","","","","","",""
"97","","bandit","201","486252","0.0-163.0-0.0","01041719","wem/bandit_single","A1A8POS0IW7KLY","pain","4","","74","J","1","","0","0","1","","0.4246911586","false","126","","0.4150522509","main_expt","","0.4246911586","","0.14570125","","0.1231453761","","","","","",""
"10","","bandit","202","488025","0.0-164.0-0.0","01041719","wem/bandit_single","A1A8POS0IW7KLY","pain","4","","75","K","2","","0","0","1","","0.116128816","false","127","","0.3803228979","main_expt","","0.3855858577","","0.116128816","","0.1044431599","","","","","",""
"156","","bandit","203","489940","0.0-165.0-0.0","01041719","wem/bandit_single","A1A8POS0IW7KLY","pain","4","","75","K","2","","0","0","1","","0.1118736017","false","128","","0.4028097642","main_expt","","0.3886900275","","0.1118736017","","0.07509994275","","","","","",""
"61","","bandit","204","491758","0.0-166.0-0.0","01041719","wem/bandit_single","A1A8POS0IW7KLY","pain","4","","76","L","3","","0","0","1","","0.07499531951","false","129","","0.3759087187","main_expt","","0.3712880315","","0.1153634536","","0.07499531951","","","","","",""
"74","","bandit","205","493589","0.0-167.0-0.0","01041719","wem/bandit_single","A1A8POS0IW7KLY","pain","4","","72","H","0","img/none_selected.jpg","0","1","0","","0.3578404683","false","130","","0.3578404683","main_expt","","0.3163545042","","0.09323577747","","0.06898381409","","","","","",""
"79","","bandit","206","495429","0.0-168.0-0.0","01041719","wem/bandit_single","A1A8POS0IW7KLY","pain","4","","72","H","0","img/none_selected.jpg","0","1","0","","0.3874222675","false","131","","0.3874222675","main_expt","","0.3203759455","","0.1064947735","","0.08255272978","","","","","",""
"47","","bandit","207","497234","0.0-169.0-0.0","01041719","wem/bandit_single","A1A8POS0IW7KLY","pain","4","","72","H","0","img/none_selected.jpg","0","1","0","","0.3773694481","false","132","","0.3773694481","main_expt","","0.3128419263","","0.1574274544","","0.06266196304","","","","","",""
"162","","bandit","208","499154","0.0-170.0-0.0","01041719","wem/bandit_single","A1A8POS0IW7KLY","pain","4","","72","H","0","img/none_selected.jpg","0","0","1","","0.3961249281","false","133","","0.3961249281","main_expt","","0.3057041938","","0.1613106331","","0.06584579886","","","","","",""
"103","","bandit","209","501021","0.0-171.0-0.0","01041719","wem/bandit_single","A1A8POS0IW7KLY","pain","4","","72","H","0","img/none_selected.jpg","0","1","0","","0.4152923946","false","134","","0.4152923946","main_expt","","0.2816585421","","0.1660744508","","0.05935363428","","","","","",""
"102","","bandit","210","502885","0.0-172.0-0.0","01041719","wem/bandit_single","A1A8POS0IW7KLY","pain","4","","72","H","0","img/none_selected.jpg","0","1","0","","0.4424865849","false","135","","0.4424865849","main_expt","","0.2955422992","","0.1973964499","","0.05732645975","","","","","",""
"105","","bandit","211","504750","0.0-173.0-0.0","01041719","wem/bandit_single","A1A8POS0IW7KLY","pain","4","","72","H","0","img/none_selected.jpg","0","0","1","","0.4465543098","false","136","","0.4465543098","main_expt","","0.3509846551","","0.1813196928","","0.07342087183","","","","","",""
"151","","bandit","212","506663","0.0-174.0-0.0","01041719","wem/bandit_single","A1A8POS0IW7KLY","pain","4","","72","H","0","img/none_selected.jpg","0","1","0","","0.4520996047","false","137","","0.4520996047","main_expt","","0.3344410146","","0.1859539446","","0.07676045657","","","","","",""
"98","","bandit","213","508519","0.0-175.0-0.0","01041719","wem/bandit_single","A1A8POS0IW7KLY","pain","4","","72","H","0","img/none_selected.jpg","0","1","0","","0.428300575","false","138","","0.428300575","main_expt","","0.2657268636","","0.1014888705","","0.09127868582","","","","","",""
"314","","bandit","214","510594","0.0-176.0-0.0","01041719","wem/bandit_single","A1A8POS0IW7KLY","pain","4","","72","H","0","img/none_selected.jpg","0","0","1","","0.419833238","false","139","","0.419833238","main_expt","","0.2267955479","","0.09034098631","","0.1057771966","","","","","",""
"131","","bandit","215","512486","0.0-177.0-0.0","01041719","wem/bandit_single","A1A8POS0IW7KLY","pain","4","","72","H","0","img/none_selected.jpg","0","0","1","","0.423721229","false","140","","0.423721229","main_expt","","0.2278141127","","0.09102227313","","0.1134354218","","","","","",""
"145","","bandit","216","514390","0.0-178.0-0.0","01041719","wem/bandit_single","A1A8POS0IW7KLY","pain","4","","72","H","0","img/none_selected.jpg","0","0","1","","0.4382479885","false","141","","0.4382479885","main_expt","","0.23653477","","0.1095349378","","0.1205694848","","","","","",""
"151","","bandit","217","516304","0.0-179.0-0.0","01041719","wem/bandit_single","A1A8POS0IW7KLY","pain","4","","72","H","0","img/none_selected.jpg","0","1","0","","0.4247465964","false","142","","0.4247465964","main_expt","","0.2155890047","","0.1184068784","","0.1423721259","","","","","",""
"146","","bandit","218","518211","0.0-180.0-0.0","01041719","wem/bandit_single","A1A8POS0IW7KLY","pain","4","","72","H","0","img/none_selected.jpg","0","0","1","","0.3978340057","false","143","","0.3978340057","main_expt","","0.2203428631","","0.1056920569","","0.1199770031","","","","","",""
"125","","bandit","219","520094","0.0-181.0-0.0","01041719","wem/bandit_single","A1A8POS0IW7KLY","pain","4","","72","H","0","img/none_selected.jpg","0","0","1","","0.4094639435","false","144","","0.4094639435","main_expt","","0.1834171178","","0.1563123998","","0.1431068991","","","","","",""
"79","","bandit","220","521932","0.0-182.0-0.0","01041719","wem/bandit_single","A1A8POS0IW7KLY","pain","4","","72","H","0","img/none_selected.jpg","0","1","0","","0.4198905501","false","145","","0.4198905501","main_expt","","0.2064693802","","0.09088636348","","0.1630017245","","","","","",""
"100","","bandit","221","523792","0.0-183.0-0.0","01041719","wem/bandit_single","A1A8POS0IW7KLY","pain","4","","72","H","0","img/none_selected.jpg","0","0","1","","0.4050886303","false","146","","0.4050886303","main_expt","","0.1342941172","","0.0827806059","","0.145034553","","","","","",""
"83","","bandit","222","525637","0.0-184.0-0.0","01041719","wem/bandit_single","A1A8POS0IW7KLY","pain","4","","72","H","0","img/none_selected.jpg","0","0","1","","0.3785891444","false","147","","0.3785891444","main_expt","","0.1515740161","","0.1149215639","","0.1488017726","","","","","",""
"13","","bandit","223","527408","0.0-185.0-0.0","01041719","wem/bandit_single","A1A8POS0IW7KLY","pain","4","","72","H","0","img/none_selected.jpg","0","0","1","","0.3854511928","false","148","","0.3854511928","main_expt","","0.1212747878","","0.1099148444","","0.1582677895","","","","","",""
"93","","bandit","224","529263","0.0-186.0-0.0","01041719","wem/bandit_single","A1A8POS0IW7KLY","pain","4","","72","H","0","img/none_selected.jpg","0","0","1","","0.3928641012","false","149","","0.3928641012","main_expt","","0.08453377975","","0.1127327795","","0.1647072654","","","","","",""
"98","","bandit","225","531124","0.0-187.0-0.0","01041719","wem/bandit_single","A1A8POS0IW7KLY","pain","4","","72","H","0","img/none_selected.jpg","0","0","1","","0.3981420368","false","150","","0.3981420368","main_expt","","0.1060211344","","0.1477728786","","0.1333243968","","","","","",""
"78","","bandit","226","532962","0.0-188.0-0.0","01041719","wem/bandit_single","A1A8POS0IW7KLY","pain","4","","74","J","1","","0","0","1","","0.06473992137","false","151","","0.3954234158","main_expt","","0.06473992137","","0.1634569086","","0.1232516149","","","","","",""
"91","","bandit","227","534817","0.0-189.0-0.0","01041719","wem/bandit_single","A1A8POS0IW7KLY","pain","4","","74","J","1","","0","0","1","","0.07847139908","false","152","","0.3684376671","main_expt","","0.07847139908","","0.2119786212","","0.1218764731","","","","","",""
"83","","bandit","228","536658","0.0-190.0-0.0","01041719","wem/bandit_single","A1A8POS0IW7KLY","pain","4","","75","K","2","","0","1","0","","0.190815194","false","153","","0.3586265296","main_expt","","0.06170083269","","0.190815194","","0.1181944444","","","","","",""
"54","","bandit","229","538478","0.0-191.0-0.0","01041719","wem/bandit_single","A1A8POS0IW7KLY","pain","4","","75","K","2","","0","0","1","","0.2539230859","false","154","","0.3711835277","main_expt","","0.07752027139","","0.2539230859","","0.1524072167","","","","","",""
"131","","bandit","230","540367","0.0-192.0-0.0","01041719","wem/bandit_single","A1A8POS0IW7KLY","pain","4","","75","K","2","","0","0","1","","0.2214647723","false","155","","0.3296220366","main_expt","","0.07430376846","","0.2214647723","","0.2181316645","","","","","",""
"110","","bandit","231","542239","0.0-193.0-0.0","01041719","wem/bandit_single","A1A8POS0IW7KLY","pain","4","","75","K","2","","0","0","1","","0.1812397975","false","156","","0.287903252","main_expt","","0.05925504694","","0.1812397975","","0.213475765","","","","","",""
"36","","bandit","232","544036","0.0-194.0-0.0","01041719","wem/bandit_single","A1A8POS0IW7KLY","pain","4","","75","K","2","","0","0","1","","0.1447548225","false","157","","0.296290929","main_expt","","0.0737155059","","0.1447548225","","0.2264995707","","","","","",""
"144","","bandit","233","545939","0.0-195.0-0.0","01041719","wem/bandit_single","A1A8POS0IW7KLY","pain","4","","76","L","3","","0","0","1","","0.2991482761","false","158","","0.2721348168","main_expt","","0.05755321342","","0.1458137519","","0.2991482761","","","","","",""
"9","","bandit","234","547706","0.0-196.0-0.0","01041719","wem/bandit_single","A1A8POS0IW7KLY","pain","4","","76","L","3","","0","0","1","","0.3365391658","false","159","","0.2765185667","main_expt","","0.1007830752","","0.1035755389","","0.3365391658","","","","","",""
"50","","bandit","235","549518","0.0-197.0-0.0","01041719","wem/bandit_single","A1A8POS0IW7KLY","pain","4","","76","L","3","","0","0","1","","0.313402929","false","160","","0.3162688162","main_expt","","0.06149362121","","0.1142027444","","0.313402929","","","","","",""
"55","","bandit","236","551335","0.0-198.0-0.0","01041719","wem/bandit_single","A1A8POS0IW7KLY","pain","4","","76","L","3","","0","0","1","","0.3529908654","false","161","","0.3302336848","main_expt","","0.09516109007","","0.1510988582","","0.3529908654","","","","","",""
"77","","bandit","237","553175","0.0-199.0-0.0","01041719","wem/bandit_single","A1A8POS0IW7KLY","pain","4","","72","H","0","img/none_selected.jpg","0","0","1","","0.3622896815","false","162","","0.3622896815","main_expt","","0.08429007215","","0.1720124831","","0.3608295961","","","","","",""
"73","","bandit","238","555006","0.0-200.0-0.0","01041719","wem/bandit_single","A1A8POS0IW7KLY","pain","4","","72","H","0","img/none_selected.jpg","0","1","0","","0.3696580379","false","163","","0.3696580379","main_expt","","0.1199893575","","0.2119433459","","0.4197284319","","","","","",""
"24","","bandit","239","556788","0.0-201.0-0.0","01041719","wem/bandit_single","A1A8POS0IW7KLY","pain","4","","72","H","0","img/none_selected.jpg","0","1","0","","0.3217553384","false","164","","0.3217553384","main_expt","","0.1353867718","","0.2413639604","","0.4162507976","","","","","",""
"86","","bandit","240","558633","0.0-202.0-0.0","01041719","wem/bandit_single","A1A8POS0IW7KLY","pain","4","","72","H","0","img/none_selected.jpg","0","0","1","","0.2370356752","false","165","","0.2370356752","main_expt","","0.08700720397","","0.3231443763","","0.424344073","","","","","",""
"27","","bandit","241","560420","0.0-203.0-0.0","01041719","wem/bandit_single","A1A8POS0IW7KLY","pain","4","","72","H","0","img/none_selected.jpg","0","0","1","","0.1952619304","false","166","","0.1952619304","main_expt","","0.09613155095","","0.2907209657","","0.4385436022","","","","","",""
"119","","bandit","242","562299","0.0-204.0-0.0","01041719","wem/bandit_single","A1A8POS0IW7KLY","pain","4","","72","H","0","img/none_selected.jpg","0","0","1","","0.2008635704","false","167","","0.2008635704","main_expt","","0.08740230362","","0.2386263765","","0.4428370211","","","","","",""
"86","","bandit","243","564145","0.0-205.0-0.0","01041719","wem/bandit_single","A1A8POS0IW7KLY","pain","4","","72","H","0","img/none_selected.jpg","0","1","0","","0.2872582577","false","168","","0.2872582577","main_expt","","0.1033010443","","0.2802872421","","0.4475632301","","","","","",""
"66","","bandit","244","565973","0.0-206.0-0.0","01041719","wem/bandit_single","A1A8POS0IW7KLY","pain","4","","72","H","0","img/none_selected.jpg","0","0","1","","0.2478638945","false","169","","0.2478638945","main_expt","","0.1288835215","","0.2858578204","","0.4358894507","","","","","",""
"19","","bandit","245","567754","0.0-207.0-0.0","01041719","wem/bandit_single","A1A8POS0IW7KLY","pain","4","","72","H","0","img/none_selected.jpg","0","0","1","","0.2335785199","false","170","","0.2335785199","main_expt","","0.0821831217","","0.3542119366","","0.4401344765","","","","","",""
"95","","bandit","246","569614","0.0-208.0-0.0","01041719","wem/bandit_single","A1A8POS0IW7KLY","pain","4","","72","H","0","img/none_selected.jpg","0","0","1","","0.263029084","false","171","","0.263029084","main_expt","","0.08448133796","","0.363516632","","0.4182824287","","","","","",""
"76","","bandit","247","571448","0.0-209.0-0.0","01041719","wem/bandit_single","A1A8POS0IW7KLY","pain","4","","72","H","0","img/none_selected.jpg","0","1","0","","0.282237019","false","172","","0.282237019","main_expt","","0.1142172702","","0.3285232471","","0.4206293302","","","","","",""
"7","","bandit","248","573212","0.0-210.0-0.0","01041719","wem/bandit_single","A1A8POS0IW7KLY","pain","4","","72","H","0","img/none_selected.jpg","0","0","1","","0.2798091978","false","173","","0.2798091978","main_expt","","0.1585219493","","0.3379934215","","0.4424673434","","","","","",""
"126","","bandit","249","575103","0.0-211.0-0.0","01041719","wem/bandit_single","A1A8POS0IW7KLY","pain","4","","72","H","0","img/none_selected.jpg","0","1","0","","0.2782342077","false","174","","0.2782342077","main_expt","","0.2167008269","","0.2937018888","","0.4470793942","","","","","",""
"75","","bandit","250","576938","0.0-212.0-0.0","01041719","wem/bandit_single","A1A8POS0IW7KLY","pain","4","","72","H","0","img/none_selected.jpg","0","0","1","","0.3095951925","false","175","","0.3095951925","main_expt","","0.2564405216","","0.2691073907","","0.4466152725","","","","","",""
"55","","bandit","251","578752","0.0-213.0-0.0","01041719","wem/bandit_single","A1A8POS0IW7KLY","pain","4","","72","H","0","img/none_selected.jpg","0","0","1","","0.3149167583","false","176","","0.3149167583","main_expt","","0.2740916264","","0.2797966768","","0.4622816701","","","","","",""
"89","","bandit","252","580599","0.0-214.0-0.0","01041719","wem/bandit_single","A1A8POS0IW7KLY","pain","4","","72","H","0","img/none_selected.jpg","0","0","1","","0.3057016371","false","177","","0.3057016371","main_expt","","0.2701885048","","0.2956207272","","0.4791174255","","","","","",""
"144","","bandit","253","582500","0.0-215.0-0.0","01041719","wem/bandit_single","A1A8POS0IW7KLY","pain","4","","72","H","0","img/none_selected.jpg","0","0","1","","0.2973749651","false","178","","0.2973749651","main_expt","","0.2525299603","","0.2903749226","","0.4878404122","","","","","",""
"15","","bandit","254","584277","0.0-216.0-0.0","01041719","wem/bandit_single","A1A8POS0IW7KLY","pain","4","","72","H","0","img/none_selected.jpg","0","0","1","","0.3205080684","false","179","","0.3205080684","main_expt","","0.2923151224","","0.2324022499","","0.4871204803","","","","","",""
"12","","bandit","255","586052","0.0-217.0-0.0","01041719","wem/bandit_single","A1A8POS0IW7KLY","pain","4","","74","J","1","","0","0","1","","0.2712435876","false","180","","0.3668921479","main_expt","","0.2712435876","","0.157369965","","0.4783768728","","","","","",""
"111","","bandit","256","587921","0.0-218.0-0.0","01041719","wem/bandit_single","A1A8POS0IW7KLY","pain","4","","75","K","2","","0","0","1","","0.1928111427","false","181","","0.36743573","main_expt","","0.2911825171","","0.1928111427","","0.4791844977","","","","","",""
"73","","bandit","257","589752","0.0-219.0-0.0","01041719","wem/bandit_single","A1A8POS0IW7KLY","pain","4","","76","L","3","","0","0","1","","0.4796326775","false","182","","0.3444330154","main_expt","","0.2812290194","","0.1831473083","","0.4796326775","","","","","",""
"31","","bandit","258","591548","0.0-220.0-0.0","01041719","wem/bandit_single","A1A8POS0IW7KLY","pain","4","","74","J","1","","0","0","1","","0.2998653002","false","183","","0.376594699","main_expt","","0.2998653002","","0.1367876881","","0.4610412729","","","","","",""
"424","","bandit","259","593728","0.0-221.0-0.0","01041719","wem/bandit_single","A1A8POS0IW7KLY","pain","4","","75","K","2","","0","1","0","","0.1225312115","false","184","","0.3576767422","main_expt","","0.3019566185","","0.1225312115","","0.4654872089","","","","","",""
"24","","bandit","260","595510","0.0-222.0-0.0","01041719","wem/bandit_single","A1A8POS0IW7KLY","pain","4","","75","K","2","","0","0","1","","0.1342014861","false","185","","0.3420219295","main_expt","","0.3297019868","","0.1342014861","","0.4579605539","","","","","",""
"9","","bandit","261","597284","0.0-223.0-0.0","01041719","wem/bandit_single","A1A8POS0IW7KLY","pain","4","","75","K","2","","0","0","1","","0.1302900424","false","186","","0.3398722127","main_expt","","0.3522504082","","0.1302900424","","0.4285966985","","","","","",""
"111","","bandit","262","599153","0.0-224.0-0.0","01041719","wem/bandit_single","A1A8POS0IW7KLY","pain","4","","75","K","2","","0","0","1","","0.1721475048","false","187","","0.3329123812","main_expt","","0.3716798598","","0.1721475048","","0.4348535533","","","","","",""
"156","","bandit","263","601066","0.0-225.0-0.0","01041719","wem/bandit_single","A1A8POS0IW7KLY","pain","4","","75","K","2","","0","0","1","","0.194848396","false","188","","0.3185375489","main_expt","","0.3516931858","","0.194848396","","0.4485299143","","","","","",""
"80","","bandit","264","602908","0.0-226.0-0.0","01041719","wem/bandit_single","A1A8POS0IW7KLY","pain","4","","76","L","3","","0","0","1","","0.4108460603","false","189","","0.2819885058","main_expt","","0.311825216","","0.2010474049","","0.4108460603","","","","","",""
"65","","bandit","265","604732","0.0-227.0-0.0","01041719","wem/bandit_single","A1A8POS0IW7KLY","pain","4","","74","J","1","","0","1","0","","0.3228194114","false","190","","0.2938453289","main_expt","","0.3228194114","","0.2388592571","","0.4276881046","","","","","",""
"55","","bandit","266","606552","0.0-228.0-0.0","01041719","wem/bandit_single","A1A8POS0IW7KLY","pain","4","","74","J","1","","0","0","1","","0.3070679034","false","191","","0.3252392313","main_expt","","0.3070679034","","0.2125939305","","0.4252680513","","","","","",""
"28","","bandit","267","608338","0.0-229.0-0.0","01041719","wem/bandit_single","A1A8POS0IW7KLY","pain","4","","74","J","1","","0","0","1","","0.3224985291","false","192","","0.2886148476","main_expt","","0.3224985291","","0.2494953747","","0.4128843357","","","","","",""
"91","","bandit","268","610188","0.0-230.0-0.0","01041719","wem/bandit_single","A1A8POS0IW7KLY","pain","4","","74","J","1","","0","1","0","","0.3869795439","false","193","","0.2985788169","main_expt","","0.3869795439","","0.2831479201","","0.3935422506","","","","","",""
"126","","bandit","269","612077","0.0-231.0-0.0","01041719","wem/bandit_single","A1A8POS0IW7KLY","pain","4","","74","J","1","","0","0","1","","0.4012627402","false","194","","0.2480640489","main_expt","","0.4012627402","","0.3119862296","","0.3844836544","","","","","",""
"127","","bandit","270","613962","0.0-232.0-0.0","01041719","wem/bandit_single","A1A8POS0IW7KLY","pain","4","","74","J","1","","0","0","1","","0.3984750166","false","195","","0.2512767584","main_expt","","0.3984750166","","0.3216729489","","0.3676726872","","","","","",""
"454","","bandit","271","616175","0.0-233.0-0.0","01041719","wem/bandit_single","A1A8POS0IW7KLY","pain","4","","74","J","1","","0","0","1","","0.354698241","false","196","","0.2465093633","main_expt","","0.354698241","","0.3321806914","","0.3789354293","","","","","",""
"127","","bandit","272","618060","0.0-234.0-0.0","01041719","wem/bandit_single","A1A8POS0IW7KLY","pain","4","","74","J","1","","0","0","1","","0.388220233","false","197","","0.2064088789","main_expt","","0.388220233","","0.3046277309","","0.3163718389","","","","","",""
"165","","bandit","273","619986","0.0-235.0-0.0","01041719","wem/bandit_single","A1A8POS0IW7KLY","pain","4","","74","J","1","","0","0","1","","0.3702696144","false","198","","0.1991167995","main_expt","","0.3702696144","","0.2780350238","","0.3791854339","","","","","",""
"162","","bandit","274","621912","0.0-236.0-0.0","01041719","wem/bandit_single","A1A8POS0IW7KLY","pain","4","","74","J","1","","0","0","1","","0.3901406761","false","199","","0.217931059","main_expt","","0.3901406761","","0.2933352516","","0.3677616307","","","","","",""
"107","","bandit","275","623778","0.0-237.0-0.0","01041719","wem/bandit_single","A1A8POS0IW7KLY","pain","4","","72","H","0","img/none_selected.jpg","0","0","1","","0.1684289921","false","200","","0.1684289921","main_expt","","0.3606677237","","0.2826656477","","0.3696360463","","","","","",""
"60","","bandit","276","625597","0.0-238.0-0.0","01041719","wem/bandit_single","A1A8POS0IW7KLY","pain","4","","72","H","0","img/none_selected.jpg","0","0","1","","0.1526494416","false","201","","0.1526494416","main_expt","","0.3608273241","","0.2337361703","","0.3685313937","","","","","",""
"83","","bandit","277","627441","0.0-239.0-0.0","01041719","wem/bandit_single","A1A8POS0IW7KLY","pain","4","","72","H","0","img/none_selected.jpg","0","0","1","","0.1474087426","false","202","","0.1474087426","main_expt","","0.3495453025","","0.1697000529","","0.354480527","","","","","",""
"99","","bandit","278","629300","0.0-240.0-0.0","01041719","wem/bandit_single","A1A8POS0IW7KLY","pain","4","","72","H","0","img/none_selected.jpg","0","0","1","","0.1499100939","false","203","","0.1499100939","main_expt","","0.3660628182","","0.1941246875","","0.3420940801","","","","","",""
"153","","bandit","279","631213","0.0-241.0-0.0","01041719","wem/bandit_single","A1A8POS0IW7KLY","pain","4","","75","K","2","","0","0","1","","0.2006574904","false","204","","0.173155318","main_expt","","0.337040125","","0.2006574904","","0.3365711719","","","","","",""
"36","","bandit","280","633010","0.0-242.0-0.0","01041719","wem/bandit_single","A1A8POS0IW7KLY","pain","4","","76","L","3","","0","0","1","","0.3517226909","false","205","","0.1813441082","main_expt","","0.303371863","","0.1905393187","","0.3517226909","","","","","",""
"45","","bandit","281","634812","0.0-243.0-0.0","01041719","wem/bandit_single","A1A8POS0IW7KLY","pain","4","","76","L","3","","0","0","1","","0.3476038752","false","206","","0.1491413167","main_expt","","0.256221391","","0.1715448013","","0.3476038752","","","","","",""
"38","","bandit","282","636611","0.0-244.0-0.0","01041719","wem/bandit_single","A1A8POS0IW7KLY","pain","4","","75","K","2","","0","1","0","","0.1857981004","false","207","","0.08847738283","main_expt","","0.2368802791","","0.1857981004","","0.3349551135","","","","","",""
"15","","bandit","283","638388","0.0-245.0-0.0","01041719","wem/bandit_single","A1A8POS0IW7KLY","pain","4","","75","K","2","","0","0","1","","0.2102455122","false","208","","0.1283817583","main_expt","","0.1949321076","","0.2102455122","","0.342580335","","","","","",""
"122","","bandit","284","640270","0.0-246.0-0.0","01041719","wem/bandit_single","A1A8POS0IW7KLY","pain","4","","75","K","2","","0","0","1","","0.2400108979","false","209","","0.116273769","main_expt","","0.1838736563","","0.2400108979","","0.3043768385","","","","","",""
"7","","bandit","285","642036","0.0-247.0-0.0","01041719","wem/bandit_single","A1A8POS0IW7KLY","pain","4","","75","K","2","","0","0","1","","0.2756077388","false","210","","0.1255054793","main_expt","","0.2021797606","","0.2756077388","","0.2578785415","","","","","",""
"7","","bandit","286","643810","0.0-248.0-0.0","01041719","wem/bandit_single","A1A8POS0IW7KLY","pain","4","","76","L","3","","0","0","1","","0.2684152162","false","211","","0.1183517879","main_expt","","0.1724183734","","0.2509099491","","0.2684152162","","","","","",""
"314","","bandit","287","645881","0.0-249.0-0.0","01041719","wem/bandit_single","A1A8POS0IW7KLY","pain","4","","72","H","0","img/none_selected.jpg","0","0","1","","0.05794836862","false","212","","0.05794836862","main_expt","","0.1730984207","","0.1980821896","","0.2734791169","","","","","",""
"109","","bandit","288","647753","0.0-250.0-0.0","01041719","wem/bandit_single","A1A8POS0IW7KLY","pain","4","","72","H","0","img/none_selected.jpg","0","0","1","","0.05975327623","false","213","","0.05975327623","main_expt","","0.1324166562","","0.1925164192","","0.2278558496","","","","","",""
"142","","bandit","289","649655","0.0-251.0-0.0","01041719","wem/bandit_single","A1A8POS0IW7KLY","pain","4","","72","H","0","img/none_selected.jpg","0","0","1","","0.08438277685","false","214","","0.08438277685","main_expt","","0.1503769339","","0.2265747235","","0.3028606466","","","","","",""
"57","","bandit","290","651469","0.0-252.0-0.0","01041719","wem/bandit_single","A1A8POS0IW7KLY","pain","4","","74","J","1","","0","0","1","","0.1957560139","false","215","","0.06249742642","main_expt","","0.1957560139","","0.2019374621","","0.2931323275","","","","","",""
"82","","bandit","291","653311","0.0-253.0-0.0","01041719","wem/bandit_single","A1A8POS0IW7KLY","pain","4","","74","J","1","","0","0","1","","0.2405167914","false","216","","0.03962767808","main_expt","","0.2405167914","","0.1789305456","","0.3496422565","","","","","",""
"209","","bandit","292","655278","0.0-254.0-0.0","01041719","wem/bandit_single","A1A8POS0IW7KLY","pain","4","","74","J","1","","0","1","0","","0.1730494568","false","217","","0.04234009702","main_expt","","0.1730494568","","0.1749198907","","0.3773047798","","","","","",""
"184","","bandit","293","657221","0.0-255.0-0.0","01041719","wem/bandit_single","A1A8POS0IW7KLY","pain","4","","74","J","1","","0","0","1","","0.194438436","false","218","","0.03503126556","main_expt","","0.194438436","","0.1735363699","","0.3416605923","","","","","",""
"20","","bandit","294","659002","0.0-256.0-0.0","01041719","wem/bandit_single","A1A8POS0IW7KLY","pain","4","","74","J","1","","0","0","1","","0.1883779435","false","219","","0.04555228435","main_expt","","0.1883779435","","0.2007391453","","0.3559276739","","","","","",""
"130","","bandit","295","660890","0.0-257.0-0.0","01041719","wem/bandit_single","A1A8POS0IW7KLY","pain","4","","74","J","1","","0","0","1","","0.146052069","false","220","","0.03183460319","main_expt","","0.146052069","","0.2082644318","","0.3535435837","","","","","",""
"124","","bandit","296","662779","0.0-258.0-0.0","01041719","wem/bandit_single","A1A8POS0IW7KLY","pain","4","","75","K","2","","0","1","0","","0.1821586712","false","221","","0.05071015327","main_expt","","0.1494285134","","0.1821586712","","0.3418709783","","","","","",""
"109","","bandit","297","664648","0.0-259.0-0.0","01041719","wem/bandit_single","A1A8POS0IW7KLY","pain","4","","75","K","2","","0","1","0","","0.2158533928","false","222","","0.04027023507","main_expt","","0.182387278","","0.2158533928","","0.3004905908","","","","","",""
"79","","bandit","298","666486","0.0-260.0-0.0","01041719","wem/bandit_single","A1A8POS0IW7KLY","pain","4","","75","K","2","","0","0","1","","0.1832968935","false","223","","0.05247893246","main_expt","","0.198140534","","0.1832968935","","0.3691689592","","","","","",""
"156","","bandit","299","668405","0.0-261.0-0.0","01041719","wem/bandit_single","A1A8POS0IW7KLY","pain","4","","75","K","2","","0","1","0","","0.1701073256","false","224","","0.06352932029","main_expt","","0.1957066115","","0.1701073256","","0.2915556832","","","","","",""
"166","","bandit","300","670333","0.0-262.0-0.0","01041719","wem/bandit_single","A1A8POS0IW7KLY","pain","4","","75","K","2","","0","0","1","","0.1599508429","false","225","","0.04388745626","main_expt","","0.2132826896","","0.1599508429","","0.3175642321","","","","","",""
"49","","bandit","301","672147","0.0-263.0-0.0","01041719","wem/bandit_single","A1A8POS0IW7KLY","pain","4","","75","K","2","","0","0","1","","0.1801289829","false","226","","0.0536624769","main_expt","","0.2679811769","","0.1801289829","","0.2803716623","","","","","",""
"58","","bandit","302","673964","0.0-264.0-0.0","01041719","wem/bandit_single","A1A8POS0IW7KLY","pain","4","","75","K","2","","0","1","0","","0.1920788888","false","227","","0.07211167966","main_expt","","0.2101601544","","0.1920788888","","0.2506224893","","","","","",""
"91","","bandit","303","675815","0.0-265.0-0.0","01041719","wem/bandit_single","A1A8POS0IW7KLY","pain","4","","75","K","2","","0","0","1","","0.1540575712","false","228","","0.04486621846","main_expt","","0.1808571688","","0.1540575712","","0.2890404278","","","","","",""
"19","","bandit","304","677593","0.0-266.0-0.0","01041719","wem/bandit_single","A1A8POS0IW7KLY","pain","4","","75","K","2","","0","0","1","","0.161449161","false","229","","0.05387953984","main_expt","","0.1132309001","","0.161449161","","0.2746035793","","","","","",""
"46","","bandit","305","679402","0.0-267.0-0.0","01041719","wem/bandit_single","A1A8POS0IW7KLY","pain","4","","75","K","2","","0","0","1","","0.1413021421","false","230","","0.03848872117","main_expt","","0.1450818377","","0.1413021421","","0.282726532","","","","","",""
"95","","bandit","306","681254","0.0-268.0-0.0","01041719","wem/bandit_single","A1A8POS0IW7KLY","pain","4","","75","K","2","","0","0","1","","0.1745796094","false","231","","0.04669383004","main_expt","","0.1077137685","","0.1745796094","","0.3472256411","","","","","",""
"36","","bandit","307","683049","0.0-269.0-0.0","01041719","wem/bandit_single","A1A8POS0IW7KLY","pain","4","","75","K","2","","0","0","1","","0.1680880834","false","232","","0.03395804074","main_expt","","0.06427161289","","0.1680880834","","0.3994934702","","","","","",""
"16","","bandit","308","684827","0.0-270.0-0.0","01041719","wem/bandit_single","A1A8POS0IW7KLY","pain","4","","76","L","3","","0","1","0","","0.4029083043","false","233","","0.05150109453","main_expt","","0.1060089469","","0.213250795","","0.4029083043","","","","","",""
"276","","bandit","309","686862","0.0-271.0-0.0","01041719","wem/bandit_single","A1A8POS0IW7KLY","pain","4","","76","L","3","","0","0","1","","0.4486287737","false","234","","0.06099663442","main_expt","","0.1117154146","","0.221091899","","0.4486287737","","","","","",""
"21","","bandit","310","688644","0.0-272.0-0.0","01041719","wem/bandit_single","A1A8POS0IW7KLY","pain","4","","76","L","3","","0","1","0","","0.4561120354","false","235","","0.05202127711","main_expt","","0.1276115887","","0.2688923835","","0.4561120354","","","","","",""
"133","","bandit","311","690539","0.0-273.0-0.0","01041719","wem/bandit_single","A1A8POS0IW7KLY","pain","4","","76","L","3","","0","0","1","","0.4375102443","false","236","","0.07001303924","main_expt","","0.1786916187","","0.2323123402","","0.4375102443","","","","","",""
"155","","bandit","312","692454","0.0-274.0-0.0","01041719","wem/bandit_single","A1A8POS0IW7KLY","pain","4","","76","L","3","","0","1","0","","0.4582573195","false","237","","0.07602679398","main_expt","","0.1896980961","","0.174764536","","0.4582573195","","","","","",""
"2","","bandit","313","694219","0.0-275.0-0.0","01041719","wem/bandit_single","A1A8POS0IW7KLY","pain","4","","76","L","3","","0","0","1","","0.4463811869","false","238","","0.08775462142","main_expt","","0.2205101014","","0.1654919337","","0.4463811869","","","","","",""
"49","","bandit","314","696031","0.0-276.0-0.0","01041719","wem/bandit_single","A1A8POS0IW7KLY","pain","4","","76","L","3","","0","1","0","","0.4507479662","false","239","","0.06721086637","main_expt","","0.2661717939","","0.2402574844","","0.4507479662","","","","","",""
"421","","bandit","315","698211","0.0-277.0-0.0","01041719","wem/bandit_single","A1A8POS0IW7KLY","pain","4","","76","L","3","","0","0","1","","0.4504038859","false","240","","0.07433064979","main_expt","","0.1972661282","","0.2445968751","","0.4504038859","","","","","",""
"10","","bandit","316","699986","0.0-278.0-0.0","01041719","wem/bandit_single","A1A8POS0IW7KLY","pain","4","","76","L","3","","0","1","0","","0.4346931185","false","241","","0.08919714094","main_expt","","0.1868253343","","0.2708632627","","0.4346931185","","","","","",""
"100","","bandit","317","701850","0.0-279.0-0.0","01041719","wem/bandit_single","A1A8POS0IW7KLY","pain","4","","76","L","3","","0","1","0","","0.3898892773","false","242","","0.06159770715","main_expt","","0.1649449253","","0.2047807489","","0.3898892773","","","","","",""
"27","","bandit","318","703636","0.0-280.0-0.0","01041719","wem/bandit_single","A1A8POS0IW7KLY","pain","4","","76","L","3","","0","0","1","","0.4033463229","false","243","","0.05299296545","main_expt","","0.184368772","","0.222122474","","0.4033463229","","","","","",""
"100","","bandit","319","705500","0.0-281.0-0.0","01041719","wem/bandit_single","A1A8POS0IW7KLY","pain","4","","76","L","3","","0","1","0","","0.4096532456","false","244","","0.06275569833","main_expt","","0.2121467569","","0.2425992204","","0.4096532456","","","","","",""
"1","","bandit","320","707264","0.0-282.0-0.0","01041719","wem/bandit_single","A1A8POS0IW7KLY","pain","4","","76","L","3","","0","0","1","","0.3779527256","false","245","","0.06673215917","main_expt","","0.1894702338","","0.2173978931","","0.3779527256","","","","","",""
"166","","bandit","321","709194","0.0-283.0-0.0","01041719","wem/bandit_single","A1A8POS0IW7KLY","pain","4","","76","L","3","","0","0","1","","0.3953318503","false","246","","0.06500670021","main_expt","","0.2018459735","","0.2218069129","","0.3953318503","","","","","",""
"84","","bandit","322","711040","0.0-284.0-0.0","01041719","wem/bandit_single","A1A8POS0IW7KLY","pain","4","","76","L","3","","0","0","1","","0.4287890539","false","247","","0.07271559664","main_expt","","0.1986179994","","0.1888628326","","0.4287890539","","","","","",""
"113","","bandit","323","712915","0.0-285.0-0.0","01041719","wem/bandit_single","A1A8POS0IW7KLY","pain","4","","76","L","3","","0","1","0","","0.4104310255","false","248","","0.09654775784","main_expt","","0.1299779064","","0.1722509531","","0.4104310255","","","","","",""
"2","","bandit","324","714678","0.0-286.0-0.0","01041719","wem/bandit_single","A1A8POS0IW7KLY","pain","4","","76","L","3","","0","1","0","","0.4116337798","false","249","","0.1179039307","main_expt","","0.1590650881","","0.2541205998","","0.4116337798","","","","","",""
"87","","bandit","325","716527","0.0-287.0-0.0","01041719","wem/bandit_single","A1A8POS0IW7KLY","pain","4","","76","L","3","","0","1","0","","0.426505214","false","250","","0.1265890049","main_expt","","0.1213614167","","0.2664885101","","0.426505214","","","","","",""
"125","","bandit","326","718412","0.0-288.0-0.0","01041719","wem/bandit_single","A1A8POS0IW7KLY","pain","4","","76","L","3","","0","1","0","","0.3949293487","false","251","","0.1039398773","main_expt","","0.1099334476","","0.2519669898","","0.3949293487","","","","","",""
"58","","bandit","327","720236","0.0-289.0-0.0","01041719","wem/bandit_single","A1A8POS0IW7KLY","pain","4","","76","L","3","","0","0","1","","0.3913077142","false","252","","0.107940897","main_expt","","0.1087011898","","0.2932098873","","0.3913077142","","","","","",""
"124","","bandit","328","722120","0.0-290.0-0.0","01041719","wem/bandit_single","A1A8POS0IW7KLY","pain","4","","76","L","3","","0","0","1","","0.3648650894","false","253","","0.1136461566","main_expt","","0.09397011719","","0.3179249839","","0.3648650894","","","","","",""
"70","","bandit","329","723951","0.0-291.0-0.0","01041719","wem/bandit_single","A1A8POS0IW7KLY","pain","4","","76","L","3","","0","1","0","","0.3452883024","false","254","","0.1374631792","main_expt","","0.08474648857","","0.2908620441","","0.3452883024","","","","","",""
"148","","bandit","330","725861","0.0-292.0-0.0","01041719","wem/bandit_single","A1A8POS0IW7KLY","pain","4","","76","L","3","","0","1","0","","0.2943306686","false","255","","0.1453945637","main_expt","","0.1025854271","","0.3067265453","","0.2943306686","","","","","",""
"110","","bandit","331","727731","0.0-293.0-0.0","01041719","wem/bandit_single","A1A8POS0IW7KLY","pain","4","","76","L","3","","0","1","0","","0.3225000795","false","256","","0.1543600678","main_expt","","0.08686152536","","0.3133222149","","0.3225000795","","","","","",""
"0","","bandit","332","729495","0.0-294.0-0.0","01041719","wem/bandit_single","A1A8POS0IW7KLY","pain","4","","76","L","3","","0","0","1","","0.3199750271","false","257","","0.107160473","main_expt","","0.08667022303","","0.3194106209","","0.3199750271","","","","","",""
"0","","bandit","333","731257","0.0-295.0-0.0","01041719","wem/bandit_single","A1A8POS0IW7KLY","pain","4","","76","L","3","","0","0","1","","0.355105101","false","258","","0.0567043194","main_expt","","0.1158580788","","0.35032938","","0.355105101","","","","","",""
"54","","bandit","334","733073","0.0-296.0-0.0","01041719","wem/bandit_single","A1A8POS0IW7KLY","pain","4","","76","L","3","","0","0","1","","0.3566572827","false","259","","0.05418204449","main_expt","","0.08241329339","","0.3856615787","","0.3566572827","","","","","",""
"33","","bandit","335","734870","0.0-297.0-0.0","01041719","wem/bandit_single","A1A8POS0IW7KLY","pain","4","","72","H","0","img/none_selected.jpg","0","0","1","","0.0423658587","false","260","","0.0423658587","main_expt","","0.09346186364","","0.3977147975","","0.3492833521","","","","","",""
"148","","bandit","336","736782","0.0-298.0-0.0","01041719","wem/bandit_single","A1A8POS0IW7KLY","pain","4","","74","J","1","","0","0","1","","0.07434745577","false","261","","0.08097208102","main_expt","","0.07434745577","","0.4011116255","","0.3406934897","","","","","",""
"128","","bandit","337","738674","0.0-299.0-0.0","01041719","wem/bandit_single","A1A8POS0IW7KLY","pain","4","","75","K","2","","0","1","0","","0.4149706566","false","262","","0.05731993864","main_expt","","0.1177047137","","0.4149706566","","0.3604065233","","","","","",""
"125","","bandit","338","740558","0.0-300.0-0.0","01041719","wem/bandit_single","A1A8POS0IW7KLY","pain","4","","75","K","2","","0","1","0","","0.4476629791","false","263","","0.07314079116","main_expt","","0.09530987449","","0.4476629791","","0.3584147688","","","","","",""
"118","","bandit","339","742438","0.0-301.0-0.0","01041719","wem/bandit_single","A1A8POS0IW7KLY","pain","4","","75","K","2","","0","1","0","","0.4640453953","false","264","","0.08382102311","main_expt","","0.07595610255","","0.4640453953","","0.3723043834","","","","","",""
"140","","bandit","340","744336","0.0-302.0-0.0","01041719","wem/bandit_single","A1A8POS0IW7KLY","pain","4","","75","K","2","","0","1","0","","0.4465377191","false","265","","0.1065624759","main_expt","","0.08850347459","","0.4465377191","","0.316280577","","","","","",""
"35","","bandit","341","746133","0.0-303.0-0.0","01041719","wem/bandit_single","A1A8POS0IW7KLY","pain","4","","75","K","2","","0","0","1","","0.4183068553","false","266","","0.1253885588","main_expt","","0.1215706641","","0.4183068553","","0.269287162","","","","","",""
"92","","bandit","342","747983","0.0-304.0-0.0","01041719","wem/bandit_single","A1A8POS0IW7KLY","pain","4","","75","K","2","","0","0","1","","0.4268145795","false","267","","0.09016252172","main_expt","","0.1841144129","","0.4268145795","","0.2280314931","","","","","",""
"167","","bandit","343","749912","0.0-305.0-0.0","01041719","wem/bandit_single","A1A8POS0IW7KLY","pain","4","","75","K","2","","0","0","1","","0.4319202891","false","268","","0.08700052181","main_expt","","0.1409141681","","0.4319202891","","0.2243604643","","","","","",""
"100","","bandit","344","751774","0.0-306.0-0.0","01041719","wem/bandit_single","A1A8POS0IW7KLY","pain","4","","75","K","2","","0","0","1","","0.4493038861","false","269","","0.09500676271","main_expt","","0.1011197226","","0.4493038861","","0.2334807581","","","","","",""
"86","","bandit","345","753622","0.0-307.0-0.0","01041719","wem/bandit_single","A1A8POS0IW7KLY","pain","4","","75","K","2","","0","1","0","","0.443059266","false","270","","0.07607499825","main_expt","","0.118556502","","0.443059266","","0.2376518603","","","","","",""
"52","","bandit","346","755435","0.0-308.0-0.0","01041719","wem/bandit_single","A1A8POS0IW7KLY","pain","4","","75","K","2","","0","1","0","","0.4362671961","false","271","","0.08946946819","main_expt","","0.131750931","","0.4362671961","","0.2139372972","","","","","",""
"50","","bandit","347","757250","0.0-309.0-0.0","01041719","wem/bandit_single","A1A8POS0IW7KLY","pain","4","","75","K","2","","0","1","0","","0.4452199348","false","272","","0.108288805","main_expt","","0.174678733","","0.4452199348","","0.157688628","","","","","",""
"3","","bandit","348","759015","0.0-310.0-0.0","01041719","wem/bandit_single","A1A8POS0IW7KLY","pain","4","","75","K","2","","0","1","0","","0.454652927","false","273","","0.105491008","main_expt","","0.1730415972","","0.454652927","","0.271098703","","","","","",""
"74","","bandit","349","760855","0.0-311.0-0.0","01041719","wem/bandit_single","A1A8POS0IW7KLY","pain","4","","75","K","2","","0","0","1","","0.4646374989","false","274","","0.1059149547","main_expt","","0.1520576313","","0.4646374989","","0.2778056479","","","","","",""
"35","","bandit","350","762653","0.0-312.0-0.0","01041719","wem/bandit_single","A1A8POS0IW7KLY","pain","4","","75","K","2","","0","0","1","","0.4535579815","false","275","","0.09894283875","main_expt","","0.1007060326","","0.4535579815","","0.2698457611","","","","","",""
"86","","bandit","351","764499","0.0-313.0-0.0","01041719","wem/bandit_single","A1A8POS0IW7KLY","pain","4","","75","K","2","","0","0","1","","0.4319407295","false","276","","0.07695295732","main_expt","","0.08844777519","","0.4319407295","","0.2774836338","","","","","",""
"546","","bandit","352","766804","0.0-314.0-0.0","01041719","wem/bandit_single","A1A8POS0IW7KLY","pain","4","","75","K","2","","0","0","1","","0.4475260374","false","277","","0.0896712608","main_expt","","0.1315613084","","0.4475260374","","0.3222794015","","","","","",""
"163","","bandit","353","768730","0.0-315.0-0.0","01041719","wem/bandit_single","A1A8POS0IW7KLY","pain","4","","72","H","0","img/none_selected.jpg","0","0","1","","0.1343695578","false","278","","0.1343695578","main_expt","","0.1508492864","","0.4553849104","","0.3122447371","","","","","",""
"43","","bandit","354","770540","0.0-316.0-0.0","01041719","wem/bandit_single","A1A8POS0IW7KLY","pain","4","","72","H","0","img/none_selected.jpg","0","0","1","","0.1106050404","false","279","","0.1106050404","main_expt","","0.1181182825","","0.4621871954","","0.2934764685","","","","","",""
"45","","bandit","355","772344","0.0-317.0-0.0","01041719","wem/bandit_single","A1A8POS0IW7KLY","pain","4","","72","H","0","img/none_selected.jpg","0","0","1","","0.114105974","false","280","","0.114105974","main_expt","","0.1244803533","","0.4482597109","","0.290984208","","","","","",""
"14","","bandit","356","774123","0.0-318.0-0.0","01041719","wem/bandit_single","A1A8POS0IW7KLY","pain","4","","74","J","1","","0","0","1","","0.105821284","false","281","","0.1246337516","main_expt","","0.105821284","","0.4347423019","","0.2974260948","","","","","",""
"50","","bandit","357","775935","0.0-319.0-0.0","01041719","wem/bandit_single","A1A8POS0IW7KLY","pain","4","","74","J","1","","0","0","1","","0.1562468179","false","282","","0.079988156","main_expt","","0.1562468179","","0.4583393623","","0.2972171025","","","","","",""
"12","","bandit","358","777711","0.0-320.0-0.0","01041719","wem/bandit_single","A1A8POS0IW7KLY","pain","4","","74","J","1","","0","0","1","","0.1478322318","false","283","","0.06901380195","main_expt","","0.1478322318","","0.4497532375","","0.2821487798","","","","","",""
"129","","bandit","359","779599","0.0-321.0-0.0","01041719","wem/bandit_single","A1A8POS0IW7KLY","pain","4","","76","L","3","","0","1","0","","0.2739939459","false","284","","0.05901051183","main_expt","","0.1371678423","","0.4312811421","","0.2739939459","","","","","",""
"24","","bandit","360","781390","0.0-322.0-0.0","01041719","wem/bandit_single","A1A8POS0IW7KLY","pain","4","","76","L","3","","0","1","0","","0.2251097973","false","285","","0.1126944794","main_expt","","0.12762277","","0.4599346403","","0.2251097973","","","","","",""
"17","","bandit","361","783169","0.0-323.0-0.0","01041719","wem/bandit_single","A1A8POS0IW7KLY","pain","4","","76","L","3","","0","0","1","","0.2124690726","false","286","","0.09646131279","main_expt","","0.1587978561","","0.4588450488","","0.2124690726","","","","","",""
"26","","bandit","362","784955","0.0-324.0-0.0","01041719","wem/bandit_single","A1A8POS0IW7KLY","pain","4","","76","L","3","","0","0","1","","0.2311163105","false","287","","0.0795853072","main_expt","","0.1262084743","","0.4684539465","","0.2311163105","","","","","",""
"15","","bandit","363","786734","0.0-325.0-0.0","01041719","wem/bandit_single","A1A8POS0IW7KLY","pain","4","","76","L","3","","0","0","1","","0.2178761709","false","288","","0.07210460151","main_expt","","0.08849331384","","0.4555823871","","0.2178761709","","","","","",""
"162","","bandit","364","788661","0.0-326.0-0.0","01041719","wem/bandit_single","A1A8POS0IW7KLY","pain","4","","76","L","3","","0","0","1","","0.2656120211","false","289","","0.08807043944","main_expt","","0.1082793638","","0.4779982095","","0.2656120211","","","","","",""
"100","","bandit","365","790523","0.0-327.0-0.0","01041719","wem/bandit_single","A1A8POS0IW7KLY","pain","4","","75","K","2","","0","0","1","","0.4806691972","false","290","","0.09097769709","main_expt","","0.1591187351","","0.4806691972","","0.2756957417","","","","","",""
"19","","bandit","366","792304","0.0-328.0-0.0","01041719","wem/bandit_single","A1A8POS0IW7KLY","pain","4","","75","K","2","","0","0","1","","0.4856322508","false","291","","0.1486720085","main_expt","","0.1766493085","","0.4856322508","","0.3111580235","","","","","",""
"123","","bandit","367","794188","0.0-329.0-0.0","01041719","wem/bandit_single","A1A8POS0IW7KLY","pain","4","","75","K","2","","0","0","1","","0.4905538215","false","292","","0.166368556","main_expt","","0.1303677554","","0.4905538215","","0.3019137931","","","","","",""
"34","","bandit","368","795982","0.0-330.0-0.0","01041719","wem/bandit_single","A1A8POS0IW7KLY","pain","4","","76","L","3","","0","0","1","","0.2930542664","false","293","","0.1516979355","main_expt","","0.1553518032","","0.4915741327","","0.2930542664","","","","","",""
"78","","bandit","369","797820","0.0-331.0-0.0","01041719","wem/bandit_single","A1A8POS0IW7KLY","pain","4","","76","L","3","","0","1","0","","0.294566814","false","294","","0.142642289","main_expt","","0.1586445557","","0.4854109815","","0.294566814","","","","","",""
"22","","bandit","370","799610","0.0-332.0-0.0","01041719","wem/bandit_single","A1A8POS0IW7KLY","pain","4","","76","L","3","","0","0","1","","0.2590601899","false","295","","0.1038045902","main_expt","","0.1474370852","","0.4737464351","","0.2590601899","","","","","",""
"175","","bandit","371","801545","0.0-333.0-0.0","01041719","wem/bandit_single","A1A8POS0IW7KLY","pain","4","","76","L","3","","0","0","1","","0.260130188","false","296","","0.1055366566","main_expt","","0.1281429101","","0.4752126994","","0.260130188","","","","","",""
"108","","bandit","372","803419","0.0-334.0-0.0","01041719","wem/bandit_single","A1A8POS0IW7KLY","pain","4","","76","L","3","","0","0","1","","0.243487995","false","297","","0.07292146603","main_expt","","0.1486346553","","0.47087989","","0.243487995","","","","","",""
