"rt","responses","trial_type","trial_index","time_elapsed","internal_node_id","subjID","study","MID","cond","drift","key_press","respCharCode","respKey","respChoiceNum","respChoice","gems","bombs","no_reward","GemPrChosen","BombPrChosen","practice","trial_counter","WinPr_0","LosePr_0","trial_label","WinPr_1","LosePr_1","WinPr_2","LosePr_2","WinPr_3","LosePr_3","Q0","Q1","Q2","gender","age","ethnicity"
"28748","{""Q0"":""A2F9V69F6TZIAB""}","survey-text","0","28767","0.0-0.0","01435725","wem/bandit_single","A2F9V69F6TZIAB","pain","5","","","","","","","","","","","","","","","","","","","","","","","","","","",""
"2474","","text","1","32249","0.0-1.0","01435725","wem/bandit_single","A2F9V69F6TZIAB","pain","5","32","","","","","","","","","","","","","","","","","","","","","","","","","",""
"11841","","text","2","44095","0.0-2.0","01435725","wem/bandit_single","A2F9V69F6TZIAB","pain","5","32","","","","","","","","","","","","","","","","","","","","","","","","","",""
"33067","","text","3","77165","0.0-3.0","01435725","wem/bandit_single","A2F9V69F6TZIAB","pain","5","32","","","","","","","","","","","","","","","","","","","","","","","","","",""
"20269","","text","4","97437","0.0-4.0","01435725","wem/bandit_single","A2F9V69F6TZIAB","pain","5","32","","","","","","","","","","","","","","","","","","","","","","","","","",""
"9734","","text","5","107174","0.0-5.0","01435725","wem/bandit_single","A2F9V69F6TZIAB","pain","5","32","","","","","","","","","","","","","","","","","","","","","","","","","",""
"9101","","text","6","116277","0.0-6.0","01435725","wem/bandit_single","A2F9V69F6TZIAB","pain","5","32","","","","","","","","","","","","","","","","","","","","","","","","","",""
"6532","","text","7","122812","0.0-7.0","01435725","wem/bandit_single","A2F9V69F6TZIAB","pain","5","32","","","","","","","","","","","","","","","","","","","","","","","","","",""
"5038","","text","8","127853","0.0-8.0","01435725","wem/bandit_single","A2F9V69F6TZIAB","pain","5","32","","","","","","","","","","","","","","","","","","","","","","","","","",""
"3972","","text","9","131828","0.0-9.0","01435725","wem/bandit_single","A2F9V69F6TZIAB","pain","5","32","","","","","","","","","","","","","","","","","","","","","","","","","",""
"8150","","text","10","139980","0.0-10.0","01435725","wem/bandit_single","A2F9V69F6TZIAB","pain","5","32","","","","","","","","","","","","","","","","","","","","","","","","","",""
"4214","","text","11","144196","0.0-11.0","01435725","wem/bandit_single","A2F9V69F6TZIAB","pain","5","32","","","","","","","","","","","","","","","","","","","","","","","","","",""
"872","","bandit","12","146578","0.0-12.0-0.0","01435725","wem/bandit_single","A2F9V69F6TZIAB","pain","5","","74","J","0","img/none_selected_demo.jpg","0","0","1","0","0","true","0","0","0","","","","","","","","","","","","",""
"360","","bandit","13","148700","0.0-13.0-0.0","01435725","wem/bandit_single","A2F9V69F6TZIAB","pain","5","","75","K","0","img/none_selected_demo.jpg","0","0","1","0","0","true","0","0","0","","","","","","","","","","","","",""
"2009","","text","14","150963","0.0-14.0","01435725","wem/bandit_single","A2F9V69F6TZIAB","pain","5","32","","","","","","","","","","","","","","","","","","","","","","","","","",""
"1884","","text","15","152851","0.0-15.0","01435725","wem/bandit_single","A2F9V69F6TZIAB","pain","5","32","","","","","","","","","","","","","","","","","","","","","","","","","",""
"4326","","text","16","157179","0.0-16.0","01435725","wem/bandit_single","A2F9V69F6TZIAB","pain","5","32","","","","","","","","","","","","","","","","","","","","","","","","","",""
"2999","","text","17","160180","0.0-17.0","01435725","wem/bandit_single","A2F9V69F6TZIAB","pain","5","32","","","","","","","","","","","","","","","","","","","","","","","","","",""
"1585","","bandit","18","163272","0.0-18.0-0.0","01435725","wem/bandit_single","A2F9V69F6TZIAB","pain","5","","74","J","0","img/none_selected_demo.jpg","0","1","0","0","0.8","true","0","0","0.8","80_20_practice","0","0.2","","","","","","","","","",""
"235","","bandit","19","165266","0.0-18.0-1.0","01435725","wem/bandit_single","A2F9V69F6TZIAB","pain","5","","74","J","0","img/none_selected_demo.jpg","0","1","0","0","0.8","true","0","0","0.8","80_20_practice","0","0.2","","","","","","","","","",""
"374","","bandit","20","167401","0.0-18.0-2.0","01435725","wem/bandit_single","A2F9V69F6TZIAB","pain","5","","74","J","0","img/none_selected_demo.jpg","0","0","1","0","0.8","true","0","0","0.8","80_20_practice","0","0.2","","","","","","","","","",""
"66","","bandit","21","169225","0.0-18.0-3.0","01435725","wem/bandit_single","A2F9V69F6TZIAB","pain","5","","74","J","0","img/none_selected_demo.jpg","0","1","0","0","0.8","true","0","0","0.8","80_20_practice","0","0.2","","","","","","","","","",""
"146","","bandit","22","171145","0.0-18.0-4.0","01435725","wem/bandit_single","A2F9V69F6TZIAB","pain","5","","74","J","0","img/none_selected_demo.jpg","0","1","0","0","0.8","true","0","0","0.8","80_20_practice","0","0.2","","","","","","","","","",""
"63","","bandit","23","172970","0.0-18.0-5.0","01435725","wem/bandit_single","A2F9V69F6TZIAB","pain","5","","74","J","0","img/none_selected_demo.jpg","0","1","0","0","0.8","true","0","0","0.8","80_20_practice","0","0.2","","","","","","","","","",""
"105","","bandit","24","174833","0.0-18.0-6.0","01435725","wem/bandit_single","A2F9V69F6TZIAB","pain","5","","74","J","0","img/none_selected_demo.jpg","0","1","0","0","0.8","true","0","0","0.8","80_20_practice","0","0.2","","","","","","","","","",""
"72","","bandit","25","176663","0.0-18.0-7.0","01435725","wem/bandit_single","A2F9V69F6TZIAB","pain","5","","74","J","0","img/none_selected_demo.jpg","0","1","0","0","0.8","true","0","0","0.8","80_20_practice","0","0.2","","","","","","","","","",""
"64","","bandit","26","178487","0.0-18.0-8.0","01435725","wem/bandit_single","A2F9V69F6TZIAB","pain","5","","74","J","0","img/none_selected_demo.jpg","0","1","0","0","0.8","true","0","0","0.8","80_20_practice","0","0.2","","","","","","","","","",""
"153","","bandit","27","180399","0.0-18.0-9.0","01435725","wem/bandit_single","A2F9V69F6TZIAB","pain","5","","74","J","0","img/none_selected_demo.jpg","0","1","0","0","0.8","true","0","0","0.8","80_20_practice","0","0.2","","","","","","","","","",""
"1513","","bandit","28","183676","0.0-18.0-10.0","01435725","wem/bandit_single","A2F9V69F6TZIAB","pain","5","","74","J","0","img/none_selected_demo.jpg","0","0","1","0","0.8","true","0","0","0.8","80_20_practice","0","0.2","","","","","","","","","",""
"1469","","bandit","29","186906","0.0-18.0-11.0","01435725","wem/bandit_single","A2F9V69F6TZIAB","pain","5","","75","K","1","","0","1","0","0","0.2","true","0","0","0.8","80_20_practice","0","0.2","","","","","","","","","",""
"39","","bandit","30","188704","0.0-18.0-12.0","01435725","wem/bandit_single","A2F9V69F6TZIAB","pain","5","","75","K","1","","0","0","1","0","0.2","true","0","0","0.8","80_20_practice","0","0.2","","","","","","","","","",""
"3","","bandit","31","190467","0.0-18.0-13.0","01435725","wem/bandit_single","A2F9V69F6TZIAB","pain","5","","75","K","1","","0","0","1","0","0.2","true","0","0","0.8","80_20_practice","0","0.2","","","","","","","","","",""
"55","","bandit","32","192281","0.0-18.0-14.0","01435725","wem/bandit_single","A2F9V69F6TZIAB","pain","5","","75","K","1","","0","0","1","0","0.2","true","0","0","0.8","80_20_practice","0","0.2","","","","","","","","","",""
"391","","bandit","33","194475","0.0-18.0-15.0","01435725","wem/bandit_single","A2F9V69F6TZIAB","pain","5","","74","J","0","img/none_selected_demo.jpg","0","1","0","0","0.8","true","0","0","0.8","80_20_practice","0","0.2","","","","","","","","","",""
"75","","bandit","34","196310","0.0-18.0-16.0","01435725","wem/bandit_single","A2F9V69F6TZIAB","pain","5","","74","J","0","img/none_selected_demo.jpg","0","1","0","0","0.8","true","0","0","0.8","80_20_practice","0","0.2","","","","","","","","","",""
"20","","bandit","35","198089","0.0-18.0-17.0","01435725","wem/bandit_single","A2F9V69F6TZIAB","pain","5","","74","J","0","img/none_selected_demo.jpg","0","0","1","0","0.8","true","0","0","0.8","80_20_practice","0","0.2","","","","","","","","","",""
"48","","bandit","36","199897","0.0-18.0-18.0","01435725","wem/bandit_single","A2F9V69F6TZIAB","pain","5","","74","J","0","img/none_selected_demo.jpg","0","1","0","0","0.8","true","0","0","0.8","80_20_practice","0","0.2","","","","","","","","","",""
"54","","bandit","37","201715","0.0-18.0-19.0","01435725","wem/bandit_single","A2F9V69F6TZIAB","pain","5","","74","J","0","img/none_selected_demo.jpg","0","0","1","0","0.8","true","0","0","0.8","80_20_practice","0","0.2","","","","","","","","","",""
"3181","","text","38","205154","0.0-19.0","01435725","wem/bandit_single","A2F9V69F6TZIAB","pain","5","32","","","","","","","","","","","","","","","","","","","","","","","","","",""
"2571","","bandit","39","209236","0.0-20.0-0.0","01435725","wem/bandit_single","A2F9V69F6TZIAB","pain","5","","74","J","0","img/none_selected_demo.jpg","0","0","1","0","0","true","0","0","0","","0","0","","","","","","","","","",""
"12146","","text","40","221639","0.0-21.0","01435725","wem/bandit_single","A2F9V69F6TZIAB","pain","5","32","","","","","","","","","","","","","","","","","","","","","","","","","",""
"2363","","text","41","224008","0.0-22.0","01435725","wem/bandit_single","A2F9V69F6TZIAB","pain","5","32","","","","","","","","","","","","","","","","","","","","","","","","","",""
"3075","","text","42","227089","0.0-23.0","01435725","wem/bandit_single","A2F9V69F6TZIAB","pain","5","32","","","","","","","","","","","","","","","","","","","","","","","","","",""
"5694","","text","43","232791","0.0-24.0","01435725","wem/bandit_single","A2F9V69F6TZIAB","pain","5","32","","","","","","","","","","","","","","","","","","","","","","","","","",""
"10759","","text","44","243559","0.0-25.0","01435725","wem/bandit_single","A2F9V69F6TZIAB","pain","5","32","","","","","","","","","","","","","","","","","","","","","","","","","",""
"4139","","text","45","247704","0.0-26.0","01435725","wem/bandit_single","A2F9V69F6TZIAB","pain","5","32","","","","","","","","","","","","","","","","","","","","","","","","","",""
"4799","","text","46","252511","0.0-27.0","01435725","wem/bandit_single","A2F9V69F6TZIAB","pain","5","32","","","","","","","","","","","","","","","","","","","","","","","","","",""
"2452","","text","47","254967","0.0-28.0","01435725","wem/bandit_single","A2F9V69F6TZIAB","pain","5","32","","","","","","","","","","","","","","","","","","","","","","","","","",""
"3780","","text","48","258751","0.0-29.0","01435725","wem/bandit_single","A2F9V69F6TZIAB","pain","5","32","","","","","","","","","","","","","","","","","","","","","","","","","",""
"3984","","text","49","262744","0.0-30.0","01435725","wem/bandit_single","A2F9V69F6TZIAB","pain","5","32","","","","","","","","","","","","","","","","","","","","","","","","","",""
"6570","","text","50","269322","0.0-31.0","01435725","wem/bandit_single","A2F9V69F6TZIAB","pain","5","32","","","","","","","","","","","","","","","","","","","","","","","","","",""
"1025","","bandit","51","271858","0.0-32.0-0.0","01435725","wem/bandit_single","A2F9V69F6TZIAB","pain","5","","72","H","0","img/none_selected.jpg","0","1","0","0","0.8","true","0","0","0.8","full_practice","0","0.2","0","0.6","0","0.2","","","","","",""
"102","","bandit","52","273721","0.0-32.0-1.0","01435725","wem/bandit_single","A2F9V69F6TZIAB","pain","5","","72","H","0","img/none_selected.jpg","0","1","0","0","0.8","true","0","0","0.8","full_practice","0","0.2","0","0.6","0","0.2","","","","","",""
"117","","bandit","53","275599","0.0-32.0-2.0","01435725","wem/bandit_single","A2F9V69F6TZIAB","pain","5","","72","H","0","img/none_selected.jpg","0","1","0","0","0.8","true","0","0","0.8","full_practice","0","0.2","0","0.6","0","0.2","","","","","",""
"72","","bandit","54","277432","0.0-32.0-3.0","01435725","wem/bandit_single","A2F9V69F6TZIAB","pain","5","","72","H","0","img/none_selected.jpg","0","1","0","0","0.8","true","0","0","0.8","full_practice","0","0.2","0","0.6","0","0.2","","","","","",""
"179","","bandit","55","279376","0.0-32.0-4.0","01435725","wem/bandit_single","A2F9V69F6TZIAB","pain","5","","72","H","0","img/none_selected.jpg","0","1","0","0","0.8","true","0","0","0.8","full_practice","0","0.2","0","0.6","0","0.2","","","","","",""
"15","","bandit","56","281153","0.0-32.0-5.0","01435725","wem/bandit_single","A2F9V69F6TZIAB","pain","5","","72","H","0","img/none_selected.jpg","0","1","0","0","0.8","true","0","0","0.8","full_practice","0","0.2","0","0.6","0","0.2","","","","","",""
"134","","bandit","57","283048","0.0-32.0-6.0","01435725","wem/bandit_single","A2F9V69F6TZIAB","pain","5","","72","H","0","img/none_selected.jpg","0","1","0","0","0.8","true","0","0","0.8","full_practice","0","0.2","0","0.6","0","0.2","","","","","",""
"728","","bandit","58","285537","0.0-32.0-7.0","01435725","wem/bandit_single","A2F9V69F6TZIAB","pain","5","","72","H","0","img/none_selected.jpg","0","0","1","0","0.8","true","0","0","0.8","full_practice","0","0.2","0","0.6","0","0.2","","","","","",""
"102","","bandit","59","287398","0.0-32.0-8.0","01435725","wem/bandit_single","A2F9V69F6TZIAB","pain","5","","72","H","0","img/none_selected.jpg","0","1","0","0","0.8","true","0","0","0.8","full_practice","0","0.2","0","0.6","0","0.2","","","","","",""
"39","","bandit","60","289199","0.0-32.0-9.0","01435725","wem/bandit_single","A2F9V69F6TZIAB","pain","5","","72","H","0","img/none_selected.jpg","0","1","0","0","0.8","true","0","0","0.8","full_practice","0","0.2","0","0.6","0","0.2","","","","","",""
"79","","bandit","61","291040","0.0-32.0-10.0","01435725","wem/bandit_single","A2F9V69F6TZIAB","pain","5","","72","H","0","img/none_selected.jpg","0","1","0","0","0.8","true","0","0","0.8","full_practice","0","0.2","0","0.6","0","0.2","","","","","",""
"438","","bandit","62","293241","0.0-32.0-11.0","01435725","wem/bandit_single","A2F9V69F6TZIAB","pain","5","","72","H","0","img/none_selected.jpg","0","1","0","0","0.8","true","0","0","0.8","full_practice","0","0.2","0","0.6","0","0.2","","","","","",""
"113","","bandit","63","295119","0.0-32.0-12.0","01435725","wem/bandit_single","A2F9V69F6TZIAB","pain","5","","72","H","0","img/none_selected.jpg","0","1","0","0","0.8","true","0","0","0.8","full_practice","0","0.2","0","0.6","0","0.2","","","","","",""
"266","","bandit","64","297152","0.0-32.0-13.0","01435725","wem/bandit_single","A2F9V69F6TZIAB","pain","5","","72","H","0","img/none_selected.jpg","0","1","0","0","0.8","true","0","0","0.8","full_practice","0","0.2","0","0.6","0","0.2","","","","","",""
"447","","bandit","65","299359","0.0-32.0-14.0","01435725","wem/bandit_single","A2F9V69F6TZIAB","pain","5","","72","H","0","img/none_selected.jpg","0","1","0","0","0.8","true","0","0","0.8","full_practice","0","0.2","0","0.6","0","0.2","","","","","",""
"238","","bandit","66","301358","0.0-32.0-15.0","01435725","wem/bandit_single","A2F9V69F6TZIAB","pain","5","","72","H","0","img/none_selected.jpg","0","1","0","0","0.8","true","0","0","0.8","full_practice","0","0.2","0","0.6","0","0.2","","","","","",""
"496","","bandit","67","303614","0.0-32.0-16.0","01435725","wem/bandit_single","A2F9V69F6TZIAB","pain","5","","72","H","0","img/none_selected.jpg","0","1","0","0","0.8","true","0","0","0.8","full_practice","0","0.2","0","0.6","0","0.2","","","","","",""
"566","","bandit","68","305944","0.0-32.0-17.0","01435725","wem/bandit_single","A2F9V69F6TZIAB","pain","5","","72","H","0","img/none_selected.jpg","0","1","0","0","0.8","true","0","0","0.8","full_practice","0","0.2","0","0.6","0","0.2","","","","","",""
"297","","bandit","69","308009","0.0-32.0-18.0","01435725","wem/bandit_single","A2F9V69F6TZIAB","pain","5","","72","H","0","img/none_selected.jpg","0","1","0","0","0.8","true","0","0","0.8","full_practice","0","0.2","0","0.6","0","0.2","","","","","",""
"229","","bandit","70","310001","0.0-32.0-19.0","01435725","wem/bandit_single","A2F9V69F6TZIAB","pain","5","","72","H","0","img/none_selected.jpg","0","1","0","0","0.8","true","0","0","0.8","full_practice","0","0.2","0","0.6","0","0.2","","","","","",""
"2722","","text","71","312994","0.0-33.0","01435725","wem/bandit_single","A2F9V69F6TZIAB","pain","5","32","","","","","","","","","","","","","","","","","","","","","","","","","",""
"9389","","text","72","323393","0.0-34.0","01435725","wem/bandit_single","A2F9V69F6TZIAB","pain","5","32","","","","","","","","","","","","","","","","","","","","","","","","","",""
"5428","","text","73","328829","0.0-35.0","01435725","wem/bandit_single","A2F9V69F6TZIAB","pain","5","32","","","","","","","","","","","","","","","","","","","","","","","","","",""
"6508","","text","74","335349","0.0-36.0","01435725","wem/bandit_single","A2F9V69F6TZIAB","pain","5","32","","","","","","","","","","","","","","","","","","","","","","","","","",""
"3920","","text","75","339277","0.0-37.0","01435725","wem/bandit_single","A2F9V69F6TZIAB","pain","5","32","","","","","","","","","","","","","","","","","","","","","","","","","",""
"1204","","bandit","76","341996","0.0-38.0-0.0","01435725","wem/bandit_single","A2F9V69F6TZIAB","pain","5","","72","H","0","img/none_selected.jpg","0","0","1","","0.4657241486","false","1","","0.4657241486","main_expt","","0.3811303016","","0.04962883862","","0.1478184891","","","","","",""
"73","","bandit","77","343836","0.0-39.0-0.0","01435725","wem/bandit_single","A2F9V69F6TZIAB","pain","5","","74","J","1","","0","0","1","","0.350111504","false","2","","0.4660849779","main_expt","","0.350111504","","0.03569255153","","0.2081060842","","","","","",""
"74","","bandit","78","345673","0.0-40.0-0.0","01435725","wem/bandit_single","A2F9V69F6TZIAB","pain","5","","75","K","2","","0","0","1","","0.02901958263","false","3","","0.4687539887","main_expt","","0.3436486883","","0.02901958263","","0.1722167697","","","","","",""
"253","","bandit","79","347688","0.0-41.0-0.0","01435725","wem/bandit_single","A2F9V69F6TZIAB","pain","5","","76","L","3","","0","0","1","","0.1424145416","false","4","","0.48401473","main_expt","","0.3419997506","","0.04894390993","","0.1424145416","","","","","",""
"64","","bandit","80","349516","0.0-42.0-0.0","01435725","wem/bandit_single","A2F9V69F6TZIAB","pain","5","","76","L","3","","0","0","1","","0.1446667298","false","5","","0.4755123677","main_expt","","0.3692180445","","0.04206610475","","0.1446667298","","","","","",""
"13","","bandit","81","351299","0.0-43.0-0.0","01435725","wem/bandit_single","A2F9V69F6TZIAB","pain","5","","75","K","2","","0","0","1","","0.04292771587","false","6","","0.4802482158","main_expt","","0.3602257359","","0.04292771587","","0.1447199692","","","","","",""
"52","","bandit","82","353114","0.0-44.0-0.0","01435725","wem/bandit_single","A2F9V69F6TZIAB","pain","5","","75","K","2","","0","0","1","","0.06035830385","false","7","","0.4780438684","main_expt","","0.3568498895","","0.06035830385","","0.1001258446","","","","","",""
"132","","bandit","83","355010","0.0-45.0-0.0","01435725","wem/bandit_single","A2F9V69F6TZIAB","pain","5","","74","J","1","","0","0","1","","0.294604339","false","8","","0.4575173044","main_expt","","0.294604339","","0.09727842944","","0.1244671667","","","","","",""
"660","","bandit","84","357434","0.0-46.0-0.0","01435725","wem/bandit_single","A2F9V69F6TZIAB","pain","5","","74","J","1","","0","0","1","","0.3802768622","false","9","","0.4525933246","main_expt","","0.3802768622","","0.07952196982","","0.1293804987","","","","","",""
"125","","bandit","85","359320","0.0-47.0-0.0","01435725","wem/bandit_single","A2F9V69F6TZIAB","pain","5","","72","H","0","img/none_selected.jpg","0","0","1","","0.4476408152","false","10","","0.4476408152","main_expt","","0.3530595227","","0.1049852556","","0.1606810952","","","","","",""
"21","","bandit","86","361104","0.0-48.0-0.0","01435725","wem/bandit_single","A2F9V69F6TZIAB","pain","5","","72","H","0","img/none_selected.jpg","0","1","0","","0.4484644352","false","11","","0.4484644352","main_expt","","0.358648576","","0.1118692116","","0.1585385462","","","","","",""
"71","","bandit","87","362945","0.0-49.0-0.0","01435725","wem/bandit_single","A2F9V69F6TZIAB","pain","5","","72","H","0","img/none_selected.jpg","0","0","1","","0.4466341879","false","12","","0.4466341879","main_expt","","0.3382469396","","0.1270372311","","0.1492634201","","","","","",""
"138","","bandit","88","364852","0.0-50.0-0.0","01435725","wem/bandit_single","A2F9V69F6TZIAB","pain","5","","72","H","0","img/none_selected.jpg","0","1","0","","0.4642511008","false","13","","0.4642511008","main_expt","","0.3092021245","","0.1278892577","","0.1106465011","","","","","",""
"107","","bandit","89","366723","0.0-51.0-0.0","01435725","wem/bandit_single","A2F9V69F6TZIAB","pain","5","","72","H","0","img/none_selected.jpg","0","0","1","","0.4615970843","false","14","","0.4615970843","main_expt","","0.3532484784","","0.1024725346","","0.1232346967","","","","","",""
"458","","bandit","90","368945","0.0-52.0-0.0","01435725","wem/bandit_single","A2F9V69F6TZIAB","pain","5","","72","H","0","img/none_selected.jpg","0","1","0","","0.4692442536","false","15","","0.4692442536","main_expt","","0.3371384495","","0.1234109619","","0.1323340596","","","","","",""
"18","","bandit","91","370729","0.0-53.0-0.0","01435725","wem/bandit_single","A2F9V69F6TZIAB","pain","5","","72","H","0","img/none_selected.jpg","0","1","0","","0.4755425263","false","16","","0.4755425263","main_expt","","0.3282622062","","0.1360550169","","0.1410223318","","","","","",""
"339","","bandit","92","372834","0.0-54.0-0.0","01435725","wem/bandit_single","A2F9V69F6TZIAB","pain","5","","72","H","0","img/none_selected.jpg","0","1","0","","0.4828633911","false","17","","0.4828633911","main_expt","","0.3032164303","","0.1070219664","","0.1498636582","","","","","",""
"107","","bandit","93","374718","0.0-55.0-0.0","01435725","wem/bandit_single","A2F9V69F6TZIAB","pain","5","","72","H","0","img/none_selected.jpg","0","1","0","","0.4784959143","false","18","","0.4784959143","main_expt","","0.2834034058","","0.09318331203","","0.1132842199","","","","","",""
"455","","bandit","94","376946","0.0-56.0-0.0","01435725","wem/bandit_single","A2F9V69F6TZIAB","pain","5","","72","H","0","img/none_selected.jpg","0","1","0","","0.4645747316","false","19","","0.4645747316","main_expt","","0.376157017","","0.08644374764","","0.08554013857","","","","","",""
"433","","bandit","95","379146","0.0-57.0-0.0","01435725","wem/bandit_single","A2F9V69F6TZIAB","pain","5","","72","H","0","img/none_selected.jpg","0","0","1","","0.4441513352","false","20","","0.4441513352","main_expt","","0.3718288413","","0.1066513301","","0.1176407844","","","","","",""
"450","","bandit","96","381362","0.0-58.0-0.0","01435725","wem/bandit_single","A2F9V69F6TZIAB","pain","5","","72","H","0","img/none_selected.jpg","0","0","1","","0.4281495132","false","21","","0.4281495132","main_expt","","0.3755251961","","0.1143532382","","0.09701455477","","","","","",""
"67","","bandit","97","383193","0.0-59.0-0.0","01435725","wem/bandit_single","A2F9V69F6TZIAB","pain","5","","72","H","0","img/none_selected.jpg","0","0","1","","0.4374563715","false","22","","0.4374563715","main_expt","","0.3536603278","","0.111858438","","0.08683592795","","","","","",""
"220","","bandit","98","385179","0.0-60.0-0.0","01435725","wem/bandit_single","A2F9V69F6TZIAB","pain","5","","74","J","1","","0","1","0","","0.3908816919","false","23","","0.4408316507","main_expt","","0.3908816919","","0.09088087914","","0.1062952262","","","","","",""
"27","","bandit","99","386970","0.0-61.0-0.0","01435725","wem/bandit_single","A2F9V69F6TZIAB","pain","5","","74","J","1","","0","0","1","","0.3639752867","false","24","","0.4249736282","main_expt","","0.3639752867","","0.1045917755","","0.1320295984","","","","","",""
"371","","bandit","100","389110","0.0-62.0-0.0","01435725","wem/bandit_single","A2F9V69F6TZIAB","pain","5","","74","J","1","","0","1","0","","0.3569796848","false","25","","0.4542404639","main_expt","","0.3569796848","","0.107118439","","0.18562956","","","","","",""
"181","","bandit","101","391057","0.0-63.0-0.0","01435725","wem/bandit_single","A2F9V69F6TZIAB","pain","5","","74","J","1","","0","0","1","","0.3466804264","false","26","","0.4707756245","main_expt","","0.3466804264","","0.08847958778","","0.1589772959","","","","","",""
"180","","bandit","102","393001","0.0-64.0-0.0","01435725","wem/bandit_single","A2F9V69F6TZIAB","pain","5","","74","J","1","","0","1","0","","0.3487144915","false","27","","0.4492807888","main_expt","","0.3487144915","","0.105958259","","0.1361305173","","","","","",""
"289","","bandit","103","395056","0.0-65.0-0.0","01435725","wem/bandit_single","A2F9V69F6TZIAB","pain","5","","74","J","1","","0","0","1","","0.31872733","false","28","","0.4630254912","main_expt","","0.31872733","","0.09976229861","","0.1517112547","","","","","",""
"80","","bandit","104","396906","0.0-66.0-0.0","01435725","wem/bandit_single","A2F9V69F6TZIAB","pain","5","","74","J","1","","0","0","1","","0.3351256986","false","29","","0.4582460064","main_expt","","0.3351256986","","0.1117783291","","0.1207272987","","","","","",""
"81","","bandit","105","398750","0.0-67.0-0.0","01435725","wem/bandit_single","A2F9V69F6TZIAB","pain","5","","74","J","1","","0","1","0","","0.3165147827","false","30","","0.44398484","main_expt","","0.3165147827","","0.104708879","","0.06619286558","","","","","",""
"114","","bandit","106","400640","0.0-68.0-0.0","01435725","wem/bandit_single","A2F9V69F6TZIAB","pain","5","","74","J","1","","0","0","1","","0.3587164307","false","31","","0.4662875842","main_expt","","0.3587164307","","0.1168740313","","0.08172424971","","","","","",""
"27","","bandit","107","402440","0.0-69.0-0.0","01435725","wem/bandit_single","A2F9V69F6TZIAB","pain","5","","74","J","1","","0","0","1","","0.384091524","false","32","","0.4823207571","main_expt","","0.384091524","","0.1193100679","","0.1118972321","","","","","",""
"539","","bandit","108","404744","0.0-70.0-0.0","01435725","wem/bandit_single","A2F9V69F6TZIAB","pain","5","","74","J","1","","0","1","0","","0.3410562849","false","33","","0.4887640326","main_expt","","0.3410562849","","0.1160378653","","0.07764728595","","","","","",""
"121","","bandit","109","406630","0.0-71.0-0.0","01435725","wem/bandit_single","A2F9V69F6TZIAB","pain","5","","74","J","1","","0","0","1","","0.3772037995","false","34","","0.4871413525","main_expt","","0.3772037995","","0.1240203414","","0.1021677232","","","","","",""
"562","","bandit","110","408960","0.0-72.0-0.0","01435725","wem/bandit_single","A2F9V69F6TZIAB","pain","5","","74","J","1","","0","0","1","","0.3601610849","false","35","","0.472467875","main_expt","","0.3601610849","","0.1568527985","","0.09263198197","","","","","",""
"169","","bandit","111","410897","0.0-73.0-0.0","01435725","wem/bandit_single","A2F9V69F6TZIAB","pain","5","","75","K","2","","0","0","1","","0.1887398002","false","36","","0.4801988656","main_expt","","0.3199141994","","0.1887398002","","0.1395706987","","","","","",""
"161","","bandit","112","412832","0.0-74.0-0.0","01435725","wem/bandit_single","A2F9V69F6TZIAB","pain","5","","75","K","2","","0","0","1","","0.1567271146","false","37","","0.4658101737","main_expt","","0.3022128767","","0.1567271146","","0.1166343238","","","","","",""
"162","","bandit","113","414769","0.0-75.0-0.0","01435725","wem/bandit_single","A2F9V69F6TZIAB","pain","5","","75","K","2","","0","0","1","","0.1213003185","false","38","","0.4725237643","main_expt","","0.220841548","","0.1213003185","","0.1344783462","","","","","",""
"34","","bandit","114","416582","0.0-76.0-0.0","01435725","wem/bandit_single","A2F9V69F6TZIAB","pain","5","","76","L","3","","0","0","1","","0.1132701409","false","39","","0.4863678522","main_expt","","0.2273815274","","0.1129188575","","0.1132701409","","","","","",""
"149","","bandit","115","418498","0.0-77.0-0.0","01435725","wem/bandit_single","A2F9V69F6TZIAB","pain","5","","76","L","3","","0","0","1","","0.1269330716","false","40","","0.4756100127","main_expt","","0.2216047912","","0.1490040727","","0.1269330716","","","","","",""
"287","","bandit","116","420551","0.0-78.0-0.0","01435725","wem/bandit_single","A2F9V69F6TZIAB","pain","5","","76","L","3","","0","0","1","","0.1043764639","false","41","","0.4644843691","main_expt","","0.1790357129","","0.20555416","","0.1043764639","","","","","",""
"466","","bandit","117","422782","0.0-79.0-0.0","01435725","wem/bandit_single","A2F9V69F6TZIAB","pain","5","","76","L","3","","0","0","1","","0.123259557","false","42","","0.4595487669","main_expt","","0.1124402831","","0.2458082757","","0.123259557","","","","","",""
"329","","bandit","118","424880","0.0-80.0-0.0","01435725","wem/bandit_single","A2F9V69F6TZIAB","pain","5","","76","L","3","","0","0","1","","0.1523094635","false","43","","0.4598563523","main_expt","","0.1309909921","","0.1980967925","","0.1523094635","","","","","",""
"153","","bandit","119","426808","0.0-81.0-0.0","01435725","wem/bandit_single","A2F9V69F6TZIAB","pain","5","","72","H","0","img/none_selected.jpg","0","0","1","","0.4444935065","false","44","","0.4444935065","main_expt","","0.1620245532","","0.2011817551","","0.1438901127","","","","","",""
"547","","bandit","120","429120","0.0-82.0-0.0","01435725","wem/bandit_single","A2F9V69F6TZIAB","pain","5","","72","H","0","img/none_selected.jpg","0","1","0","","0.4201454787","false","45","","0.4201454787","main_expt","","0.1962154431","","0.1908172103","","0.1381896233","","","","","",""
"191","","bandit","121","431078","0.0-83.0-0.0","01435725","wem/bandit_single","A2F9V69F6TZIAB","pain","5","","72","H","0","img/none_selected.jpg","0","1","0","","0.4420567968","false","46","","0.4420567968","main_expt","","0.1548021256","","0.1682898959","","0.08118013389","","","","","",""
"169","","bandit","122","433014","0.0-84.0-0.0","01435725","wem/bandit_single","A2F9V69F6TZIAB","pain","5","","72","H","0","img/none_selected.jpg","0","0","1","","0.4454115659","false","47","","0.4454115659","main_expt","","0.155425446","","0.114950809","","0.08279503272","","","","","",""
"60","","bandit","123","434840","0.0-85.0-0.0","01435725","wem/bandit_single","A2F9V69F6TZIAB","pain","5","","72","H","0","img/none_selected.jpg","0","1","0","","0.4409121906","false","48","","0.4409121906","main_expt","","0.2368850053","","0.1231508501","","0.09757227309","","","","","",""
"23","","bandit","124","436630","0.0-86.0-0.0","01435725","wem/bandit_single","A2F9V69F6TZIAB","pain","5","","72","H","0","img/none_selected.jpg","0","1","0","","0.4640555105","false","49","","0.4640555105","main_expt","","0.1712995484","","0.1264715503","","0.1407466139","","","","","",""
"16","","bandit","125","438417","0.0-87.0-0.0","01435725","wem/bandit_single","A2F9V69F6TZIAB","pain","5","","72","H","0","img/none_selected.jpg","0","0","1","","0.4619625264","false","50","","0.4619625264","main_expt","","0.2371897999","","0.1119267987","","0.1128896644","","","","","",""
"3725","","bandit","126","443936","0.0-88.0-0.0","01435725","wem/bandit_single","A2F9V69F6TZIAB","pain","5","","72","H","0","img/none_selected.jpg","0","0","1","","0.4686499241","false","51","","0.4686499241","main_expt","","0.2520952739","","0.1192285775","","0.1292206793","","","","","",""
"89","","bandit","127","445791","0.0-89.0-0.0","01435725","wem/bandit_single","A2F9V69F6TZIAB","pain","5","","72","H","0","img/none_selected.jpg","0","1","0","","0.4721244997","false","52","","0.4721244997","main_expt","","0.2201249325","","0.1536714506","","0.117204758","","","","","",""
"105","","bandit","128","447681","0.0-90.0-0.0","01435725","wem/bandit_single","A2F9V69F6TZIAB","pain","5","","72","H","0","img/none_selected.jpg","0","1","0","","0.4776765754","false","53","","0.4776765754","main_expt","","0.2019083534","","0.1817289366","","0.1180232867","","","","","",""
"111","","bandit","129","449548","0.0-91.0-0.0","01435725","wem/bandit_single","A2F9V69F6TZIAB","pain","5","","72","H","0","img/none_selected.jpg","0","1","0","","0.4788042678","false","54","","0.4788042678","main_expt","","0.2133100918","","0.1664376657","","0.09503139185","","","","","",""
"300","","bandit","130","451629","0.0-92.0-0.0","01435725","wem/bandit_single","A2F9V69F6TZIAB","pain","5","","72","H","0","img/none_selected.jpg","0","0","1","","0.4852168201","false","55","","0.4852168201","main_expt","","0.2210295122","","0.1219288973","","0.1238025275","","","","","",""
"104","","bandit","131","453500","0.0-93.0-0.0","01435725","wem/bandit_single","A2F9V69F6TZIAB","pain","5","","72","H","0","img/none_selected.jpg","0","0","1","","0.4860946669","false","56","","0.4860946669","main_expt","","0.1728424853","","0.1392062569","","0.1544257673","","","","","",""
"221","","bandit","132","455493","0.0-94.0-0.0","01435725","wem/bandit_single","A2F9V69F6TZIAB","pain","5","","74","J","1","","0","0","1","","0.2301797189","false","57","","0.4859962979","main_expt","","0.2301797189","","0.2060247316","","0.1492478473","","","","","",""
"206","","bandit","133","457467","0.0-95.0-0.0","01435725","wem/bandit_single","A2F9V69F6TZIAB","pain","5","","74","J","1","","0","1","0","","0.2820892606","false","58","","0.4751013025","main_expt","","0.2820892606","","0.1723567799","","0.1392181034","","","","","",""
"113","","bandit","134","459347","0.0-96.0-0.0","01435725","wem/bandit_single","A2F9V69F6TZIAB","pain","5","","74","J","1","","0","0","1","","0.308641684","false","59","","0.4816883425","main_expt","","0.308641684","","0.16345501","","0.1854998728","","","","","",""
"311","","bandit","135","461428","0.0-97.0-0.0","01435725","wem/bandit_single","A2F9V69F6TZIAB","pain","5","","74","J","1","","0","0","1","","0.3012287428","false","60","","0.4846541976","main_expt","","0.3012287428","","0.1552759559","","0.1306651225","","","","","",""
"1125","","bandit","136","464331","0.0-98.0-0.0","01435725","wem/bandit_single","A2F9V69F6TZIAB","pain","5","","74","J","1","","0","0","1","","0.263166603","false","61","","0.4848840061","main_expt","","0.263166603","","0.1652193455","","0.1567024934","","","","","",""
"63","","bandit","137","466165","0.0-99.0-0.0","01435725","wem/bandit_single","A2F9V69F6TZIAB","pain","5","","75","K","2","","0","0","1","","0.1813222976","false","62","","0.4856292504","main_expt","","0.2428038775","","0.1813222976","","0.1622246099","","","","","",""
"615","","bandit","138","468548","0.0-100.0-0.0","01435725","wem/bandit_single","A2F9V69F6TZIAB","pain","5","","75","K","2","","0","1","0","","0.1727004114","false","63","","0.4865153319","main_expt","","0.2843805899","","0.1727004114","","0.2196770705","","","","","",""
"170","","bandit","139","470484","0.0-101.0-0.0","01435725","wem/bandit_single","A2F9V69F6TZIAB","pain","5","","75","K","2","","0","1","0","","0.2105999223","false","64","","0.4874146034","main_expt","","0.2895992306","","0.2105999223","","0.218319606","","","","","",""
"436","","bandit","140","472699","0.0-102.0-0.0","01435725","wem/bandit_single","A2F9V69F6TZIAB","pain","5","","75","K","2","","0","0","1","","0.240225816","false","65","","0.4781609215","main_expt","","0.3847688","","0.240225816","","0.2278721313","","","","","",""
"591","","bandit","141","475059","0.0-103.0-0.0","01435725","wem/bandit_single","A2F9V69F6TZIAB","pain","5","","75","K","2","","0","1","0","","0.2924754864","false","66","","0.4848714892","main_expt","","0.4083751038","","0.2924754864","","0.1599393353","","","","","",""
"978","","bandit","142","477819","0.0-104.0-0.0","01435725","wem/bandit_single","A2F9V69F6TZIAB","pain","5","","75","K","2","","0","0","1","","0.2363072125","false","67","","0.4872204599","main_expt","","0.4036944211","","0.2363072125","","0.1647045883","","","","","",""
"1438","","bandit","143","481028","0.0-105.0-0.0","01435725","wem/bandit_single","A2F9V69F6TZIAB","pain","5","","75","K","2","","0","0","1","","0.264359064","false","68","","0.4749956953","main_expt","","0.3910329043","","0.264359064","","0.1442333851","","","","","",""
"93","","bandit","144","482890","0.0-106.0-0.0","01435725","wem/bandit_single","A2F9V69F6TZIAB","pain","5","","75","K","2","","0","0","1","","0.2755227552","false","69","","0.4776093432","main_expt","","0.3438989047","","0.2755227552","","0.1757685765","","","","","",""
"20","","bandit","145","484682","0.0-107.0-0.0","01435725","wem/bandit_single","A2F9V69F6TZIAB","pain","5","","75","K","2","","0","0","1","","0.2978365432","false","70","","0.4550183311","main_expt","","0.3282106587","","0.2978365432","","0.1995177274","","","","","",""
"160","","bandit","146","486611","0.0-108.0-0.0","01435725","wem/bandit_single","A2F9V69F6TZIAB","pain","5","","76","L","3","","0","0","1","","0.2429348876","false","71","","0.4466984445","main_expt","","0.3085852942","","0.2788476436","","0.2429348876","","","","","",""
"219","","bandit","147","488613","0.0-109.0-0.0","01435725","wem/bandit_single","A2F9V69F6TZIAB","pain","5","","76","L","3","","0","0","1","","0.2134703404","false","72","","0.453817204","main_expt","","0.317066931","","0.2983184618","","0.2134703404","","","","","",""
"1573","","bandit","148","491965","0.0-110.0-0.0","01435725","wem/bandit_single","A2F9V69F6TZIAB","pain","5","","76","L","3","","0","0","1","","0.2779115064","false","73","","0.4421557619","main_expt","","0.3118309255","","0.3235064893","","0.2779115064","","","","","",""
"62","","bandit","149","493795","0.0-111.0-0.0","01435725","wem/bandit_single","A2F9V69F6TZIAB","pain","5","","72","H","0","img/none_selected.jpg","0","0","1","","0.4340536998","false","74","","0.4340536998","main_expt","","0.3442292265","","0.2605282151","","0.2696493969","","","","","",""
"1061","","bandit","150","496636","0.0-112.0-0.0","01435725","wem/bandit_single","A2F9V69F6TZIAB","pain","5","","72","H","0","img/none_selected.jpg","0","0","1","","0.4148912722","false","75","","0.4148912722","main_expt","","0.3392290825","","0.3081503464","","0.2929582525","","","","","",""
"476","","bandit","151","498884","0.0-113.0-0.0","01435725","wem/bandit_single","A2F9V69F6TZIAB","pain","5","","72","H","0","img/none_selected.jpg","0","0","1","","0.4049452856","false","76","","0.4049452856","main_expt","","0.3019050266","","0.3793773342","","0.2925997362","","","","","",""
"146","","bandit","152","500810","0.0-114.0-0.0","01435725","wem/bandit_single","A2F9V69F6TZIAB","pain","5","","72","H","0","img/none_selected.jpg","0","0","1","","0.3804311168","false","77","","0.3804311168","main_expt","","0.3346778491","","0.4108459626","","0.2402419665","","","","","",""
"520","","bandit","153","503099","0.0-115.0-0.0","01435725","wem/bandit_single","A2F9V69F6TZIAB","pain","5","","72","H","0","img/none_selected.jpg","0","0","1","","0.4076768351","false","78","","0.4076768351","main_expt","","0.2858281516","","0.432197644","","0.2662288132","","","","","",""
"1055","","bandit","154","505927","0.0-116.0-0.0","01435725","wem/bandit_single","A2F9V69F6TZIAB","pain","5","","74","J","1","","0","0","1","","0.2601805687","false","79","","0.4322729224","main_expt","","0.2601805687","","0.4681634707","","0.2946750364","","","","","",""
"698","","bandit","155","508394","0.0-117.0-0.0","01435725","wem/bandit_single","A2F9V69F6TZIAB","pain","5","","74","J","1","","0","0","1","","0.2494540003","false","80","","0.4344903628","main_expt","","0.2494540003","","0.4487514359","","0.3142603933","","","","","",""
"639","","bandit","156","510805","0.0-118.0-0.0","01435725","wem/bandit_single","A2F9V69F6TZIAB","pain","5","","74","J","1","","0","0","1","","0.2029748002","false","81","","0.4128510282","main_expt","","0.2029748002","","0.4278748425","","0.3045476359","","","","","",""
"173","","bandit","157","512748","0.0-119.0-0.0","01435725","wem/bandit_single","A2F9V69F6TZIAB","pain","5","","74","J","1","","0","0","1","","0.1459008349","false","82","","0.3473788204","main_expt","","0.1459008349","","0.3873338363","","0.2481672469","","","","","",""
"189","","bandit","158","514708","0.0-120.0-0.0","01435725","wem/bandit_single","A2F9V69F6TZIAB","pain","5","","75","K","2","","0","1","0","","0.3676955993","false","83","","0.3964685929","main_expt","","0.1792892234","","0.3676955993","","0.2366474468","","","","","",""
"166","","bandit","159","516644","0.0-121.0-0.0","01435725","wem/bandit_single","A2F9V69F6TZIAB","pain","5","","75","K","2","","0","1","0","","0.3494013457","false","84","","0.4058457219","main_expt","","0.1384159538","","0.3494013457","","0.2327145127","","","","","",""
"211","","bandit","160","518632","0.0-122.0-0.0","01435725","wem/bandit_single","A2F9V69F6TZIAB","pain","5","","75","K","2","","0","0","1","","0.3484693071","false","85","","0.419702676","main_expt","","0.1569521301","","0.3484693071","","0.2276425053","","","","","",""
"129","","bandit","161","520532","0.0-123.0-0.0","01435725","wem/bandit_single","A2F9V69F6TZIAB","pain","5","","75","K","2","","0","0","1","","0.3738623358","false","86","","0.3584641731","main_expt","","0.2111509195","","0.3738623358","","0.1932648708","","","","","",""
"923","","bandit","162","523226","0.0-124.0-0.0","01435725","wem/bandit_single","A2F9V69F6TZIAB","pain","5","","75","K","2","","0","1","0","","0.3635865115","false","87","","0.3362954576","main_expt","","0.1855749087","","0.3635865115","","0.1554886006","","","","","",""
"719","","bandit","163","525716","0.0-125.0-0.0","01435725","wem/bandit_single","A2F9V69F6TZIAB","pain","5","","75","K","2","","0","0","1","","0.28993028","false","88","","0.3495778317","main_expt","","0.1260067519","","0.28993028","","0.1288388744","","","","","",""
"348","","bandit","164","527846","0.0-126.0-0.0","01435725","wem/bandit_single","A2F9V69F6TZIAB","pain","5","","75","K","2","","0","0","1","","0.2529053562","false","89","","0.3337998134","main_expt","","0.1930097593","","0.2529053562","","0.1672252434","","","","","",""
"1316","","bandit","165","530956","0.0-127.0-0.0","01435725","wem/bandit_single","A2F9V69F6TZIAB","pain","5","","72","H","0","img/none_selected.jpg","0","0","1","","0.3254710898","false","90","","0.3254710898","main_expt","","0.2016869017","","0.2239223254","","0.1379373657","","","","","",""
"652","","bandit","166","533380","0.0-128.0-0.0","01435725","wem/bandit_single","A2F9V69F6TZIAB","pain","5","","72","H","0","img/none_selected.jpg","0","0","1","","0.3248617863","false","91","","0.3248617863","main_expt","","0.2283296651","","0.1874521573","","0.1296834551","","","","","",""
"60","","bandit","167","535212","0.0-129.0-0.0","01435725","wem/bandit_single","A2F9V69F6TZIAB","pain","5","","74","J","1","","0","0","1","","0.2253008126","false","92","","0.3290731597","main_expt","","0.2253008126","","0.1464907128","","0.1601432093","","","","","",""
"101","","bandit","168","537086","0.0-130.0-0.0","01435725","wem/bandit_single","A2F9V69F6TZIAB","pain","5","","74","J","1","","0","0","1","","0.1826671142","false","93","","0.2947126164","main_expt","","0.1826671142","","0.1817498408","","0.1976873148","","","","","",""
"181","","bandit","169","539060","0.0-131.0-0.0","01435725","wem/bandit_single","A2F9V69F6TZIAB","pain","5","","74","J","1","","0","0","1","","0.1650727581","false","94","","0.2762739163","main_expt","","0.1650727581","","0.1967130988","","0.2296862911","","","","","",""
"273","","bandit","170","541106","0.0-132.0-0.0","01435725","wem/bandit_single","A2F9V69F6TZIAB","pain","5","","75","K","2","","0","0","1","","0.2294656294","false","95","","0.3184689772","main_expt","","0.1971582392","","0.2294656294","","0.1990842867","","","","","",""
"565","","bandit","171","543444","0.0-133.0-0.0","01435725","wem/bandit_single","A2F9V69F6TZIAB","pain","5","","75","K","2","","0","0","1","","0.2966343553","false","96","","0.281027734","main_expt","","0.1791402521","","0.2966343553","","0.258496532","","","","","",""
"5100","","bandit","172","550331","0.0-134.0-0.0","01435725","wem/bandit_single","A2F9V69F6TZIAB","pain","5","","75","K","2","","0","0","1","","0.3346257274","false","97","","0.2474299406","main_expt","","0.1516442175","","0.3346257274","","0.2766566169","","","","","",""
"221","","bandit","173","552325","0.0-135.0-0.0","01435725","wem/bandit_single","A2F9V69F6TZIAB","pain","5","","74","J","1","","0","1","0","","0.2200018313","false","98","","0.2217126022","main_expt","","0.2200018313","","0.3139493976","","0.2377114848","","","","","",""
"98","","bandit","174","554195","0.0-136.0-0.0","01435725","wem/bandit_single","A2F9V69F6TZIAB","pain","5","","74","J","1","","0","1","0","","0.2752547205","false","99","","0.2677278576","main_expt","","0.2752547205","","0.2478490566","","0.3124158187","","","","","",""
"35","","bandit","175","556005","0.0-137.0-0.0","01435725","wem/bandit_single","A2F9V69F6TZIAB","pain","5","","74","J","1","","0","0","1","","0.252850905","false","100","","0.3271916833","main_expt","","0.252850905","","0.2602221343","","0.2059987679","","","","","",""
"99","","bandit","176","557877","0.0-138.0-0.0","01435725","wem/bandit_single","A2F9V69F6TZIAB","pain","5","","74","J","1","","0","1","0","","0.1867047362","false","101","","0.3066156257","main_expt","","0.1867047362","","0.2584762291","","0.1758265216","","","","","",""
"259","","bandit","177","559908","0.0-139.0-0.0","01435725","wem/bandit_single","A2F9V69F6TZIAB","pain","5","","74","J","1","","0","0","1","","0.1175578895","false","102","","0.3260250896","main_expt","","0.1175578895","","0.282093771","","0.2262322791","","","","","",""
"4049","","bandit","178","565730","0.0-140.0-0.0","01435725","wem/bandit_single","A2F9V69F6TZIAB","pain","5","","72","H","0","img/none_selected.jpg","0","0","1","","0.3731136732","false","103","","0.3731136732","main_expt","","0.09132094505","","0.2725256196","","0.2018281434","","","","","",""
"212","","bandit","179","567717","0.0-141.0-0.0","01435725","wem/bandit_single","A2F9V69F6TZIAB","pain","5","","72","H","0","img/none_selected.jpg","0","1","0","","0.3941656488","false","104","","0.3941656488","main_expt","","0.1422553795","","0.2243623384","","0.1447482012","","","","","",""
"449","","bandit","180","569954","0.0-142.0-0.0","01435725","wem/bandit_single","A2F9V69F6TZIAB","pain","5","","72","H","0","img/none_selected.jpg","0","1","0","","0.4030151573","false","105","","0.4030151573","main_expt","","0.1390697773","","0.2403200944","","0.2104813725","","","","","",""
"3237","","bandit","181","575114","0.0-143.0-0.0","01435725","wem/bandit_single","A2F9V69F6TZIAB","pain","5","","72","H","0","img/none_selected.jpg","0","0","1","","0.3715193073","false","106","","0.3715193073","main_expt","","0.1155807694","","0.2332798071","","0.2492378957","","","","","",""
"10721","","bandit","182","587609","0.0-144.0-0.0","01435725","wem/bandit_single","A2F9V69F6TZIAB","pain","5","","74","J","1","","0","0","1","","0.105728532","false","107","","0.3837270358","main_expt","","0.105728532","","0.181620067","","0.217404121","","","","","",""
"75","","bandit","183","589475","0.0-145.0-0.0","01435725","wem/bandit_single","A2F9V69F6TZIAB","pain","5","","72","H","0","img/none_selected.jpg","0","0","1","","0.3908875135","false","108","","0.3908875135","main_expt","","0.08831090648","","0.2173069915","","0.2142202377","","","","","",""
"242","","bandit","184","591489","0.0-146.0-0.0","01435725","wem/bandit_single","A2F9V69F6TZIAB","pain","5","","72","H","0","img/none_selected.jpg","0","0","1","","0.3774052568","false","109","","0.3774052568","main_expt","","0.1043724426","","0.226697077","","0.2683226389","","","","","",""
"130","","bandit","185","593395","0.0-147.0-0.0","01435725","wem/bandit_single","A2F9V69F6TZIAB","pain","5","","72","H","0","img/none_selected.jpg","0","0","1","","0.3601275089","false","110","","0.3601275089","main_expt","","0.07530108238","","0.2695419639","","0.2619142817","","","","","",""
"161","","bandit","186","595329","0.0-148.0-0.0","01435725","wem/bandit_single","A2F9V69F6TZIAB","pain","5","","76","L","3","","0","1","0","","0.2754039507","false","111","","0.3880855357","main_expt","","0.05159845725","","0.2635727161","","0.2754039507","","","","","",""
"106","","bandit","187","597209","0.0-149.0-0.0","01435725","wem/bandit_single","A2F9V69F6TZIAB","pain","5","","76","L","3","","0","0","1","","0.2721436228","false","112","","0.3864248384","main_expt","","0.08116028731","","0.3202716687","","0.2721436228","","","","","",""
"82","","bandit","188","599064","0.0-150.0-0.0","01435725","wem/bandit_single","A2F9V69F6TZIAB","pain","5","","76","L","3","","0","1","0","","0.2598768298","false","113","","0.339569604","main_expt","","0.08538759299","","0.3546461764","","0.2598768298","","","","","",""
"89","","bandit","189","600946","0.0-151.0-0.0","01435725","wem/bandit_single","A2F9V69F6TZIAB","pain","5","","76","L","3","","0","0","1","","0.2271708717","false","114","","0.3612744832","main_expt","","0.106551095","","0.3339806629","","0.2271708717","","","","","",""
"3521","","bandit","190","606243","0.0-152.0-0.0","01435725","wem/bandit_single","A2F9V69F6TZIAB","pain","5","","76","L","3","","0","0","1","","0.2382373761","false","115","","0.3616298021","main_expt","","0.1120532439","","0.3175163572","","0.2382373761","","","","","",""
"953","","bandit","191","608971","0.0-153.0-0.0","01435725","wem/bandit_single","A2F9V69F6TZIAB","pain","5","","76","L","3","","0","0","1","","0.2092397162","false","116","","0.3886586702","main_expt","","0.07206247825","","0.3626291523","","0.2092397162","","","","","",""
"13833","","bandit","192","624576","0.0-154.0-0.0","01435725","wem/bandit_single","A2F9V69F6TZIAB","pain","5","","75","K","2","","0","1","0","","0.4005972513","false","117","","0.3837198657","main_expt","","0.05990892348","","0.4005972513","","0.1790603663","","","","","",""
"222","","bandit","193","626579","0.0-155.0-0.0","01435725","wem/bandit_single","A2F9V69F6TZIAB","pain","5","","75","K","2","","0","0","1","","0.3994725347","false","118","","0.3831944796","main_expt","","0.07349038746","","0.3994725347","","0.2515048449","","","","","",""
"38","","bandit","194","628394","0.0-156.0-0.0","01435725","wem/bandit_single","A2F9V69F6TZIAB","pain","5","","75","K","2","","0","0","1","","0.3690387214","false","119","","0.3200080389","main_expt","","0.0880416307","","0.3690387214","","0.2591845625","","","","","",""
"3","","bandit","195","630173","0.0-157.0-0.0","01435725","wem/bandit_single","A2F9V69F6TZIAB","pain","5","","75","K","2","","0","0","1","","0.3553033444","false","120","","0.3498825307","main_expt","","0.08832912692","","0.3553033444","","0.2719994365","","","","","",""
"598","","bandit","196","632547","0.0-158.0-0.0","01435725","wem/bandit_single","A2F9V69F6TZIAB","pain","5","","75","K","2","","0","0","1","","0.3558993888","false","121","","0.3150568547","main_expt","","0.08322673311","","0.3558993888","","0.2511552987","","","","","",""
"89","","bandit","197","634409","0.0-159.0-0.0","01435725","wem/bandit_single","A2F9V69F6TZIAB","pain","5","","74","J","1","","0","0","1","","0.1027924146","false","122","","0.332296042","main_expt","","0.1027924146","","0.3539125929","","0.246059836","","","","","",""
"433","","bandit","198","636617","0.0-160.0-0.0","01435725","wem/bandit_single","A2F9V69F6TZIAB","pain","5","","74","J","1","","0","0","1","","0.1112730508","false","123","","0.3023892254","main_expt","","0.1112730508","","0.2756210624","","0.201637063","","","","","",""
"42","","bandit","199","638434","0.0-161.0-0.0","01435725","wem/bandit_single","A2F9V69F6TZIAB","pain","5","","74","J","1","","0","0","1","","0.1401536705","false","124","","0.2971441903","main_expt","","0.1401536705","","0.2924451827","","0.2424225803","","","","","",""
"98","","bandit","200","640320","0.0-162.0-0.0","01435725","wem/bandit_single","A2F9V69F6TZIAB","pain","5","","74","J","1","","0","0","1","","0.170676821","false","125","","0.2989687221","main_expt","","0.170676821","","0.3283550958","","0.2663511033","","","","","",""
"35","","bandit","201","642130","0.0-163.0-0.0","01435725","wem/bandit_single","A2F9V69F6TZIAB","pain","5","","74","J","1","","0","0","1","","0.2239131839","false","126","","0.3470717071","main_expt","","0.2239131839","","0.3561713316","","0.2214557307","","","","","",""
"7698","","bandit","202","651602","0.0-164.0-0.0","01435725","wem/bandit_single","A2F9V69F6TZIAB","pain","5","","72","H","0","img/none_selected.jpg","0","0","1","","0.3399927284","false","127","","0.3399927284","main_expt","","0.1828765327","","0.3093512765","","0.2274120533","","","","","",""
"2000","","bandit","203","655376","0.0-165.0-0.0","01435725","wem/bandit_single","A2F9V69F6TZIAB","pain","5","","72","H","0","img/none_selected.jpg","0","0","1","","0.3039142281","false","128","","0.3039142281","main_expt","","0.2182936746","","0.3682433617","","0.2035603578","","","","","",""
"976","","bandit","204","658129","0.0-166.0-0.0","01435725","wem/bandit_single","A2F9V69F6TZIAB","pain","5","","72","H","0","img/none_selected.jpg","0","0","1","","0.331948561","false","129","","0.331948561","main_expt","","0.2206976306","","0.3485983391","","0.1571118888","","","","","",""
"249","","bandit","205","660154","0.0-167.0-0.0","01435725","wem/bandit_single","A2F9V69F6TZIAB","pain","5","","74","J","1","","0","0","1","","0.1657145536","false","130","","0.3512730473","main_expt","","0.1657145536","","0.3907345736","","0.08617346002","","","","","",""
"127","","bandit","206","662059","0.0-168.0-0.0","01435725","wem/bandit_single","A2F9V69F6TZIAB","pain","5","","74","J","1","","0","0","1","","0.2555784817","false","131","","0.3617370935","main_expt","","0.2555784817","","0.3697977754","","0.1196539686","","","","","",""
"6862","","bandit","207","670696","0.0-169.0-0.0","01435725","wem/bandit_single","A2F9V69F6TZIAB","pain","5","","74","J","1","","0","0","1","","0.287060772","false","132","","0.3520165756","main_expt","","0.287060772","","0.3916621277","","0.1111227042","","","","","",""
"279","","bandit","208","672754","0.0-170.0-0.0","01435725","wem/bandit_single","A2F9V69F6TZIAB","pain","5","","75","K","2","","0","0","1","","0.3437671512","false","133","","0.3863989014","main_expt","","0.238965149","","0.3437671512","","0.1223368092","","","","","",""
"98","","bandit","209","674641","0.0-171.0-0.0","01435725","wem/bandit_single","A2F9V69F6TZIAB","pain","5","","75","K","2","","0","1","0","","0.3636108046","false","134","","0.3391859262","main_expt","","0.2457001749","","0.3636108046","","0.1001486166","","","","","",""
"23","","bandit","210","676440","0.0-172.0-0.0","01435725","wem/bandit_single","A2F9V69F6TZIAB","pain","5","","75","K","2","","0","1","0","","0.3251377881","false","135","","0.3700101905","main_expt","","0.2499382958","","0.3251377881","","0.1179747861","","","","","",""
"63","","bandit","211","678281","0.0-173.0-0.0","01435725","wem/bandit_single","A2F9V69F6TZIAB","pain","5","","75","K","2","","0","1","0","","0.3838305716","false","136","","0.3002558999","main_expt","","0.2553087313","","0.3838305716","","0.1167775935","","","","","",""
"3159","","bandit","212","683216","0.0-174.0-0.0","01435725","wem/bandit_single","A2F9V69F6TZIAB","pain","5","","75","K","2","","0","0","1","","0.374624825","false","137","","0.3242357935","main_expt","","0.2517181947","","0.374624825","","0.1459170178","","","","","",""
"401","","bandit","213","685393","0.0-175.0-0.0","01435725","wem/bandit_single","A2F9V69F6TZIAB","pain","5","","76","L","3","","0","0","1","","0.1403776257","false","138","","0.3413485239","main_expt","","0.2531469116","","0.36903936","","0.1403776257","","","","","",""
"4753","","bandit","214","691924","0.0-176.0-0.0","01435725","wem/bandit_single","A2F9V69F6TZIAB","pain","5","","75","K","2","","0","0","1","","0.3757762965","false","139","","0.3172825342","main_expt","","0.2810662396","","0.3757762965","","0.1647502834","","","","","",""
"2175","","bandit","215","695875","0.0-177.0-0.0","01435725","wem/bandit_single","A2F9V69F6TZIAB","pain","5","","76","L","3","","0","0","1","","0.2135508935","false","140","","0.3683668128","main_expt","","0.2226737135","","0.3240643918","","0.2135508935","","","","","",""
"351","","bandit","216","698004","0.0-178.0-0.0","01435725","wem/bandit_single","A2F9V69F6TZIAB","pain","5","","75","K","2","","0","1","0","","0.342151626","false","141","","0.2976824498","main_expt","","0.2330331678","","0.342151626","","0.2286669107","","","","","",""
"19","","bandit","217","699804","0.0-179.0-0.0","01435725","wem/bandit_single","A2F9V69F6TZIAB","pain","5","","75","K","2","","0","0","1","","0.3576151309","false","142","","0.3424177608","main_expt","","0.1833347363","","0.3576151309","","0.1870561284","","","","","",""
"8662","","bandit","218","710244","0.0-180.0-0.0","01435725","wem/bandit_single","A2F9V69F6TZIAB","pain","5","","76","L","3","","0","0","1","","0.220851353","false","143","","0.3367953268","main_expt","","0.2063127673","","0.3075624404","","0.220851353","","","","","",""
"14660","","bandit","219","726683","0.0-181.0-0.0","01435725","wem/bandit_single","A2F9V69F6TZIAB","pain","5","","75","K","2","","0","0","1","","0.3666812205","false","144","","0.3446852995","main_expt","","0.24054226","","0.3666812205","","0.1581776843","","","","","",""
"45","","bandit","220","728507","0.0-182.0-0.0","01435725","wem/bandit_single","A2F9V69F6TZIAB","pain","5","","72","H","0","img/none_selected.jpg","0","0","1","","0.3569090532","false","145","","0.3569090532","main_expt","","0.3397881996","","0.373264243","","0.1562309797","","","","","",""
"255","","bandit","221","730538","0.0-183.0-0.0","01435725","wem/bandit_single","A2F9V69F6TZIAB","pain","5","","72","H","0","img/none_selected.jpg","0","0","1","","0.3546691234","false","146","","0.3546691234","main_expt","","0.334771558","","0.3588440804","","0.201277092","","","","","",""
"281","","bandit","222","732595","0.0-184.0-0.0","01435725","wem/bandit_single","A2F9V69F6TZIAB","pain","5","","74","J","1","","0","0","1","","0.3135854179","false","147","","0.3346193534","main_expt","","0.3135854179","","0.3848898601","","0.2014254916","","","","","",""
"76","","bandit","223","734467","0.0-185.0-0.0","01435725","wem/bandit_single","A2F9V69F6TZIAB","pain","5","","74","J","1","","0","0","1","","0.2601716543","false","148","","0.3481099765","main_expt","","0.2601716543","","0.4049875018","","0.1783642851","","","","","",""
"85","","bandit","224","736347","0.0-186.0-0.0","01435725","wem/bandit_single","A2F9V69F6TZIAB","pain","5","","74","J","1","","0","1","0","","0.2449203511","false","149","","0.3473239498","main_expt","","0.2449203511","","0.3644303146","","0.2394621943","","","","","",""
"316","","bandit","225","738442","0.0-187.0-0.0","01435725","wem/bandit_single","A2F9V69F6TZIAB","pain","5","","74","J","1","","0","0","1","","0.2679682766","false","150","","0.3457177179","main_expt","","0.2679682766","","0.3820895465","","0.2009439561","","","","","",""
"665","","bandit","226","740907","0.0-188.0-0.0","01435725","wem/bandit_single","A2F9V69F6TZIAB","pain","5","","75","K","2","","0","0","1","","0.3715335383","false","151","","0.3131990842","main_expt","","0.2811524043","","0.3715335383","","0.1783838281","","","","","",""
"25205","","bandit","227","767891","0.0-189.0-0.0","01435725","wem/bandit_single","A2F9V69F6TZIAB","pain","5","","75","K","2","","0","0","1","","0.3270427106","false","152","","0.2632978047","main_expt","","0.2320671432","","0.3270427106","","0.2357029213","","","","","",""
"3020","","bandit","228","772689","0.0-190.0-0.0","01435725","wem/bandit_single","A2F9V69F6TZIAB","pain","5","","72","H","0","img/none_selected.jpg","0","1","0","","0.2782579121","false","153","","0.2782579121","main_expt","","0.2655606304","","0.3117301263","","0.1701289497","","","","","",""
"375","","bandit","229","774843","0.0-191.0-0.0","01435725","wem/bandit_single","A2F9V69F6TZIAB","pain","5","","72","H","0","img/none_selected.jpg","0","1","0","","0.2212449789","false","154","","0.2212449789","main_expt","","0.3485425359","","0.2860829053","","0.1613436629","","","","","",""
"200","","bandit","230","776827","0.0-192.0-0.0","01435725","wem/bandit_single","A2F9V69F6TZIAB","pain","5","","72","H","0","img/none_selected.jpg","0","0","1","","0.1944586175","false","155","","0.1944586175","main_expt","","0.3302543019","","0.2412247214","","0.1419994917","","","","","",""
"199","","bandit","231","778826","0.0-193.0-0.0","01435725","wem/bandit_single","A2F9V69F6TZIAB","pain","5","","74","J","1","","0","0","1","","0.2696600886","false","156","","0.2035424954","main_expt","","0.2696600886","","0.2505935016","","0.2076402971","","","","","",""
"926","","bandit","232","781529","0.0-194.0-0.0","01435725","wem/bandit_single","A2F9V69F6TZIAB","pain","5","","75","K","2","","0","0","1","","0.2677381881","false","157","","0.2039725598","main_expt","","0.3095791192","","0.2677381881","","0.2253974945","","","","","",""
"261","","bandit","233","783569","0.0-195.0-0.0","01435725","wem/bandit_single","A2F9V69F6TZIAB","pain","5","","75","K","2","","0","0","1","","0.228073272","false","158","","0.1610126092","main_expt","","0.3427908005","","0.228073272","","0.3173726248","","","","","",""
"762","","bandit","234","786112","0.0-196.0-0.0","01435725","wem/bandit_single","A2F9V69F6TZIAB","pain","5","","76","L","3","","0","0","1","","0.2929560982","false","159","","0.2244023171","main_expt","","0.3459652535","","0.2181731157","","0.2929560982","","","","","",""
"502","","bandit","235","788394","0.0-197.0-0.0","01435725","wem/bandit_single","A2F9V69F6TZIAB","pain","5","","72","H","0","img/none_selected.jpg","0","0","1","","0.2550463449","false","160","","0.2550463449","main_expt","","0.3277363444","","0.2483475363","","0.2599130114","","","","","",""
"491","","bandit","236","790738","0.0-198.0-0.0","01435725","wem/bandit_single","A2F9V69F6TZIAB","pain","5","","72","H","0","img/none_selected.jpg","0","0","1","","0.1988840894","false","161","","0.1988840894","main_expt","","0.3043896987","","0.2287268475","","0.3006759107","","","","","",""
"524","","bandit","237","793044","0.0-199.0-0.0","01435725","wem/bandit_single","A2F9V69F6TZIAB","pain","5","","72","H","0","img/none_selected.jpg","0","0","1","","0.3208820199","false","162","","0.3208820199","main_expt","","0.3013302692","","0.2118340618","","0.3359074288","","","","","",""
"3867","","bandit","238","798689","0.0-200.0-0.0","01435725","wem/bandit_single","A2F9V69F6TZIAB","pain","5","","74","J","1","","0","0","1","","0.3359404133","false","163","","0.3416291965","main_expt","","0.3359404133","","0.2467500447","","0.3248254093","","","","","",""
"17","","bandit","239","800494","0.0-201.0-0.0","01435725","wem/bandit_single","A2F9V69F6TZIAB","pain","5","","75","K","2","","0","0","1","","0.2745506496","false","164","","0.3531125991","main_expt","","0.3449747326","","0.2745506496","","0.2480447101","","","","","",""
"60","","bandit","240","802350","0.0-202.0-0.0","01435725","wem/bandit_single","A2F9V69F6TZIAB","pain","5","","75","K","2","","0","0","1","","0.2893970703","false","165","","0.3329293945","main_expt","","0.3388680014","","0.2893970703","","0.2291527929","","","","","",""
"636","","bandit","241","804796","0.0-203.0-0.0","01435725","wem/bandit_single","A2F9V69F6TZIAB","pain","5","","76","L","3","","0","0","1","","0.2408823094","false","166","","0.368824295","main_expt","","0.3565097084","","0.326956194","","0.2408823094","","","","","",""
"333","","bandit","242","806913","0.0-204.0-0.0","01435725","wem/bandit_single","A2F9V69F6TZIAB","pain","5","","74","J","1","","0","0","1","","0.3807311224","false","167","","0.3528049135","main_expt","","0.3807311224","","0.2562538154","","0.1852653973","","","","","",""
"3626","","bandit","243","812329","0.0-205.0-0.0","01435725","wem/bandit_single","A2F9V69F6TZIAB","pain","5","","74","J","1","","0","1","0","","0.4157533759","false","168","","0.3530437727","main_expt","","0.4157533759","","0.259707785","","0.1123614246","","","","","",""
"356","","bandit","244","814465","0.0-206.0-0.0","01435725","wem/bandit_single","A2F9V69F6TZIAB","pain","5","","76","L","3","","0","0","1","","0.1289140747","false","169","","0.3619584092","main_expt","","0.3990846218","","0.305903145","","0.1289140747","","","","","",""
"73","","bandit","245","816319","0.0-207.0-0.0","01435725","wem/bandit_single","A2F9V69F6TZIAB","pain","5","","76","L","3","","0","0","1","","0.1082073398","false","170","","0.3851568221","main_expt","","0.3840903594","","0.2780458482","","0.1082073398","","","","","",""
"6229","","bandit","246","824326","0.0-208.0-0.0","01435725","wem/bandit_single","A2F9V69F6TZIAB","pain","5","","76","L","3","","0","0","1","","0.09560917383","false","171","","0.369821393","main_expt","","0.4279034191","","0.2754425626","","0.09560917383","","","","","",""
"2486","","bandit","247","828590","0.0-209.0-0.0","01435725","wem/bandit_single","A2F9V69F6TZIAB","pain","5","","72","H","0","img/none_selected.jpg","0","0","1","","0.3238500873","false","172","","0.3238500873","main_expt","","0.4277210969","","0.2801866594","","0.09002122866","","","","","",""
"479","","bandit","248","830847","0.0-210.0-0.0","01435725","wem/bandit_single","A2F9V69F6TZIAB","pain","5","","72","H","0","img/none_selected.jpg","0","1","0","","0.371178543","false","173","","0.371178543","main_expt","","0.4177409887","","0.2903169923","","0.06359212806","","","","","",""
"124","","bandit","249","832750","0.0-211.0-0.0","01435725","wem/bandit_single","A2F9V69F6TZIAB","pain","5","","72","H","0","img/none_selected.jpg","0","0","1","","0.364968973","false","174","","0.364968973","main_expt","","0.4149019111","","0.3135769273","","0.07897407323","","","","","",""
"417","","bandit","250","834969","0.0-212.0-0.0","01435725","wem/bandit_single","A2F9V69F6TZIAB","pain","5","","74","J","1","","0","0","1","","0.3890834012","false","175","","0.4172857806","main_expt","","0.3890834012","","0.3205535054","","0.05374651045","","","","","",""
"8747","","bandit","251","845503","0.0-213.0-0.0","01435725","wem/bandit_single","A2F9V69F6TZIAB","pain","5","","72","H","0","img/none_selected.jpg","0","0","1","","0.3931137538","false","176","","0.3931137538","main_expt","","0.3775492635","","0.3548310205","","0.05298342689","","","","","",""
"2953","","bandit","252","850247","0.0-214.0-0.0","01435725","wem/bandit_single","A2F9V69F6TZIAB","pain","5","","72","H","0","img/none_selected.jpg","0","0","1","","0.4118750583","false","177","","0.4118750583","main_expt","","0.2763311933","","0.3374760958","","0.04117570961","","","","","",""
"3177","","bandit","253","855208","0.0-215.0-0.0","01435725","wem/bandit_single","A2F9V69F6TZIAB","pain","5","","74","J","1","","0","1","0","","0.2117274321","false","178","","0.4019835374","main_expt","","0.2117274321","","0.3045899674","","0.0682688674","","","","","",""
"234","","bandit","254","857222","0.0-216.0-0.0","01435725","wem/bandit_single","A2F9V69F6TZIAB","pain","5","","74","J","1","","0","1","0","","0.2071796451","false","179","","0.3943962464","main_expt","","0.2071796451","","0.2701203387","","0.0699035784","","","","","",""
"59","","bandit","255","859063","0.0-217.0-0.0","01435725","wem/bandit_single","A2F9V69F6TZIAB","pain","5","","74","J","1","","0","0","1","","0.2237333922","false","180","","0.3879360396","main_expt","","0.2237333922","","0.3010541938","","0.08066818268","","","","","",""
"13292","","bandit","256","874158","0.0-218.0-0.0","01435725","wem/bandit_single","A2F9V69F6TZIAB","pain","5","","76","L","3","","0","1","0","","0.06418194011","false","181","","0.3516035239","main_expt","","0.1462221579","","0.2685782119","","0.06418194011","","","","","",""
"356","","bandit","257","876294","0.0-219.0-0.0","01435725","wem/bandit_single","A2F9V69F6TZIAB","pain","5","","76","L","3","","0","0","1","","0.05948248489","false","182","","0.3544849886","main_expt","","0.1745001591","","0.2333395507","","0.05948248489","","","","","",""
"903","","bandit","258","879008","0.0-220.0-0.0","01435725","wem/bandit_single","A2F9V69F6TZIAB","pain","5","","76","L","3","","0","0","1","","0.04249263759","false","183","","0.3239224462","main_expt","","0.1840457003","","0.1817222791","","0.04249263759","","","","","",""
"21618","","bandit","259","902406","0.0-221.0-0.0","01435725","wem/bandit_single","A2F9V69F6TZIAB","pain","5","","74","J","1","","0","0","1","","0.1684271963","false","184","","0.3437575642","main_expt","","0.1684271963","","0.1946528514","","0.05174265856","","","","","",""
"740","","bandit","260","904927","0.0-222.0-0.0","01435725","wem/bandit_single","A2F9V69F6TZIAB","pain","5","","75","K","2","","0","0","1","","0.1998780622","false","185","","0.3584643827","main_expt","","0.1820742113","","0.1998780622","","0.04700335152","","","","","",""
"794","","bandit","261","907502","0.0-223.0-0.0","01435725","wem/bandit_single","A2F9V69F6TZIAB","pain","5","","75","K","2","","0","0","1","","0.2674223733","false","186","","0.3968797112","main_expt","","0.2156320388","","0.2674223733","","0.0651928762","","","","","",""
"14","","bandit","262","909298","0.0-224.0-0.0","01435725","wem/bandit_single","A2F9V69F6TZIAB","pain","5","","75","K","2","","0","0","1","","0.2625155344","false","187","","0.3851297664","main_expt","","0.2805416817","","0.2625155344","","0.1006801651","","","","","",""
"8610","","bandit","263","919694","0.0-225.0-0.0","01435725","wem/bandit_single","A2F9V69F6TZIAB","pain","5","","75","K","2","","0","1","0","","0.2428845682","false","188","","0.3861445831","main_expt","","0.255869765","","0.2428845682","","0.1650650448","","","","","",""
"292","","bandit","264","921773","0.0-226.0-0.0","01435725","wem/bandit_single","A2F9V69F6TZIAB","pain","5","","75","K","2","","0","1","0","","0.2017656849","false","189","","0.3904601473","main_expt","","0.1757761595","","0.2017656849","","0.1545550266","","","","","",""
"706","","bandit","265","924262","0.0-227.0-0.0","01435725","wem/bandit_single","A2F9V69F6TZIAB","pain","5","","75","K","2","","0","0","1","","0.2163316772","false","190","","0.430863334","main_expt","","0.1346649685","","0.2163316772","","0.187471884","","","","","",""
"334","","bandit","266","926378","0.0-228.0-0.0","01435725","wem/bandit_single","A2F9V69F6TZIAB","pain","5","","75","K","2","","0","0","1","","0.2055350187","false","191","","0.4113524325","main_expt","","0.1132332922","","0.2055350187","","0.1611513775","","","","","",""
"10863","","bandit","267","939022","0.0-229.0-0.0","01435725","wem/bandit_single","A2F9V69F6TZIAB","pain","5","","76","L","3","","0","0","1","","0.1777959463","false","192","","0.4039805352","main_expt","","0.1208943264","","0.1895719249","","0.1777959463","","","","","",""
"297","","bandit","268","941102","0.0-230.0-0.0","01435725","wem/bandit_single","A2F9V69F6TZIAB","pain","5","","75","K","2","","0","0","1","","0.1748526562","false","193","","0.4245567291","main_expt","","0.1939792015","","0.1748526562","","0.1871499601","","","","","",""
"56","","bandit","269","942948","0.0-231.0-0.0","01435725","wem/bandit_single","A2F9V69F6TZIAB","pain","5","","75","K","2","","0","0","1","","0.1474168317","false","194","","0.3947968319","main_expt","","0.16637132","","0.1474168317","","0.1876497678","","","","","",""
"613","","bandit","270","945367","0.0-232.0-0.0","01435725","wem/bandit_single","A2F9V69F6TZIAB","pain","5","","74","J","1","","0","0","1","","0.1730885183","false","195","","0.4142863389","main_expt","","0.1730885183","","0.192031623","","0.1091892437","","","","","",""
"4759","","bandit","271","951910","0.0-233.0-0.0","01435725","wem/bandit_single","A2F9V69F6TZIAB","pain","5","","75","K","2","","0","0","1","","0.2058404012","false","196","","0.4233691667","main_expt","","0.215114198","","0.2058404012","","0.1617114059","","","","","",""
"12792","","bandit","272","966485","0.0-234.0-0.0","01435725","wem/bandit_single","A2F9V69F6TZIAB","pain","5","","76","L","3","","0","0","1","","0.1704243662","false","197","","0.3910113043","main_expt","","0.2080771369","","0.2424759238","","0.1704243662","","","","","",""
"848","","bandit","273","969117","0.0-235.0-0.0","01435725","wem/bandit_single","A2F9V69F6TZIAB","pain","5","","72","H","0","img/none_selected.jpg","0","0","1","","0.4036427912","false","198","","0.4036427912","main_expt","","0.2349601263","","0.2209877853","","0.1547158464","","","","","",""
"273","","bandit","274","971175","0.0-236.0-0.0","01435725","wem/bandit_single","A2F9V69F6TZIAB","pain","5","","72","H","0","img/none_selected.jpg","0","0","1","","0.4211573591","false","199","","0.4211573591","main_expt","","0.2603506135","","0.2167038869","","0.1871633293","","","","","",""
"180","","bandit","275","973144","0.0-237.0-0.0","01435725","wem/bandit_single","A2F9V69F6TZIAB","pain","5","","74","J","1","","0","0","1","","0.3238520586","false","200","","0.4279321675","main_expt","","0.3238520586","","0.1923465651","","0.2044595191","","","","","",""
"658","","bandit","276","975592","0.0-238.0-0.0","01435725","wem/bandit_single","A2F9V69F6TZIAB","pain","5","","74","J","1","","0","0","1","","0.3006478669","false","201","","0.4164542871","main_expt","","0.3006478669","","0.2292217674","","0.2260370877","","","","","",""
"7062","","bandit","277","984438","0.0-239.0-0.0","01435725","wem/bandit_single","A2F9V69F6TZIAB","pain","5","","76","L","3","","0","0","1","","0.2543806879","false","202","","0.4304584766","main_expt","","0.2728804465","","0.2458551357","","0.2543806879","","","","","",""
"1070","","bandit","278","987293","0.0-240.0-0.0","01435725","wem/bandit_single","A2F9V69F6TZIAB","pain","5","","75","K","2","","0","1","0","","0.2388066436","false","203","","0.4301844238","main_expt","","0.3070028205","","0.2388066436","","0.248330882","","","","","",""
"253","","bandit","279","989333","0.0-241.0-0.0","01435725","wem/bandit_single","A2F9V69F6TZIAB","pain","5","","75","K","2","","0","0","1","","0.2087278664","false","204","","0.3900297032","main_expt","","0.2937269753","","0.2087278664","","0.272777159","","","","","",""
"382","","bandit","280","991498","0.0-242.0-0.0","01435725","wem/bandit_single","A2F9V69F6TZIAB","pain","5","","74","J","1","","0","0","1","","0.2378968556","false","205","","0.3928583167","main_expt","","0.2378968556","","0.1498191458","","0.3434557908","","","","","",""
"1389","","bandit","281","994671","0.0-243.0-0.0","01435725","wem/bandit_single","A2F9V69F6TZIAB","pain","5","","76","L","3","","0","0","1","","0.3670462125","false","206","","0.4066069638","main_expt","","0.2621799838","","0.1173401749","","0.3670462125","","","","","",""
"294","","bandit","282","996752","0.0-244.0-0.0","01435725","wem/bandit_single","A2F9V69F6TZIAB","pain","5","","76","L","3","","0","0","1","","0.3762900352","false","207","","0.3973448409","main_expt","","0.2751860601","","0.131911627","","0.3762900352","","","","","",""
"238","","bandit","283","998789","0.0-245.0-0.0","01435725","wem/bandit_single","A2F9V69F6TZIAB","pain","5","","75","K","2","","0","0","1","","0.121614138","false","208","","0.4149937731","main_expt","","0.2449975294","","0.121614138","","0.3619644859","","","","","",""
"78017","","bandit","284","1078641","0.0-246.0-0.0","01435725","wem/bandit_single","A2F9V69F6TZIAB","pain","5","","72","H","0","img/none_selected.jpg","0","1","0","","0.4174336027","false","209","","0.4174336027","main_expt","","0.2260792918","","0.1301565943","","0.3487947413","","","","","",""
"100","","bandit","285","1080693","0.0-247.0-0.0","01435725","wem/bandit_single","A2F9V69F6TZIAB","pain","5","","72","H","0","img/none_selected.jpg","0","1","0","","0.3969791934","false","210","","0.3969791934","main_expt","","0.2506868781","","0.09603783024","","0.3019817091","","","","","",""
"384","","bandit","286","1082976","0.0-248.0-0.0","01435725","wem/bandit_single","A2F9V69F6TZIAB","pain","5","","72","H","0","img/none_selected.jpg","0","0","1","","0.4109689779","false","211","","0.4109689779","main_expt","","0.2364470615","","0.09853312819","","0.3322841588","","","","","",""
"352","","bandit","287","1085147","0.0-249.0-0.0","01435725","wem/bandit_single","A2F9V69F6TZIAB","pain","5","","72","H","0","img/none_selected.jpg","0","0","1","","0.3870841375","false","212","","0.3870841375","main_expt","","0.2097336517","","0.08497623984","","0.3257981887","","","","","",""
"407","","bandit","288","1087402","0.0-250.0-0.0","01435725","wem/bandit_single","A2F9V69F6TZIAB","pain","5","","72","H","0","img/none_selected.jpg","0","1","0","","0.3702451026","false","213","","0.3702451026","main_expt","","0.223293056","","0.0690536233","","0.299150427","","","","","",""
"222","","bandit","289","1089467","0.0-251.0-0.0","01435725","wem/bandit_single","A2F9V69F6TZIAB","pain","5","","72","H","0","img/none_selected.jpg","0","0","1","","0.4052473305","false","214","","0.4052473305","main_expt","","0.2797804449","","0.05607702273","","0.2841516905","","","","","",""
"302","","bandit","290","1091609","0.0-252.0-0.0","01435725","wem/bandit_single","A2F9V69F6TZIAB","pain","5","","74","J","1","","0","0","1","","0.3307304153","false","215","","0.4003088938","main_expt","","0.3307304153","","0.0612243178","","0.2421432752","","","","","",""
"261","","bandit","291","1093705","0.0-253.0-0.0","01435725","wem/bandit_single","A2F9V69F6TZIAB","pain","5","","74","J","1","","0","0","1","","0.3341057131","false","216","","0.4087675299","main_expt","","0.3341057131","","0.03010565971","","0.1705338946","","","","","",""
"19","","bandit","292","1095544","0.0-254.0-0.0","01435725","wem/bandit_single","A2F9V69F6TZIAB","pain","5","","74","J","1","","0","1","0","","0.3086359365","false","217","","0.3947963157","main_expt","","0.3086359365","","0.05034411961","","0.219014384","","","","","",""
"236","","bandit","293","1097604","0.0-255.0-0.0","01435725","wem/bandit_single","A2F9V69F6TZIAB","pain","5","","74","J","1","","0","1","0","","0.370061562","false","218","","0.4200256015","main_expt","","0.370061562","","0.03278593655","","0.2135739311","","","","","",""
"37302","","bandit","294","1136767","0.0-256.0-0.0","01435725","wem/bandit_single","A2F9V69F6TZIAB","pain","5","","72","H","0","img/none_selected.jpg","0","0","1","","0.3845181055","false","219","","0.3845181055","main_expt","","0.3425962001","","0.02968551415","","0.1719688778","","","","","",""
"117","","bandit","295","1138732","0.0-257.0-0.0","01435725","wem/bandit_single","A2F9V69F6TZIAB","pain","5","","74","J","1","","0","0","1","","0.3200162658","false","220","","0.3200105211","main_expt","","0.3200162658","","0.03392365282","","0.1017501311","","","","","",""
"282","","bandit","296","1140888","0.0-258.0-0.0","01435725","wem/bandit_single","A2F9V69F6TZIAB","pain","5","","75","K","2","","0","0","1","","0.03139192041","false","221","","0.297673658","main_expt","","0.3209906652","","0.03139192041","","0.1121412156","","","","","",""
"2938","","bandit","297","1145673","0.0-259.0-0.0","01435725","wem/bandit_single","A2F9V69F6TZIAB","pain","5","","75","K","2","","0","0","1","","0.02842311261","false","222","","0.2963768597","main_expt","","0.3013890172","","0.02842311261","","0.1091313961","","","","","",""
"44","","bandit","298","1147569","0.0-260.0-0.0","01435725","wem/bandit_single","A2F9V69F6TZIAB","pain","5","","76","L","3","","0","0","1","","0.09983876589","false","223","","0.2927297303","main_expt","","0.2614115174","","0.0287580325","","0.09983876589","","","","","",""
"88","","bandit","299","1149566","0.0-261.0-0.0","01435725","wem/bandit_single","A2F9V69F6TZIAB","pain","5","","75","K","2","","0","0","1","","0.02300930076","false","224","","0.2751498343","main_expt","","0.2490141009","","0.02300930076","","0.1018501693","","","","","",""
"194","","bandit","300","1151582","0.0-262.0-0.0","01435725","wem/bandit_single","A2F9V69F6TZIAB","pain","5","","74","J","1","","0","0","1","","0.263459589","false","225","","0.2377617529","main_expt","","0.263459589","","0.02989568437","","0.1222407881","","","","","",""
"114","","bandit","301","1153537","0.0-263.0-0.0","01435725","wem/bandit_single","A2F9V69F6TZIAB","pain","5","","74","J","1","","0","0","1","","0.2828917593","false","226","","0.2137681397","main_expt","","0.2828917593","","0.04233903912","","0.1332846515","","","","","",""
"63","","bandit","302","1155429","0.0-264.0-0.0","01435725","wem/bandit_single","A2F9V69F6TZIAB","pain","5","","72","H","0","img/none_selected.jpg","0","1","0","","0.1830623781","false","227","","0.1830623781","main_expt","","0.2635957152","","0.0317259717","","0.1606351014","","","","","",""
"265","","bandit","303","1157579","0.0-265.0-0.0","01435725","wem/bandit_single","A2F9V69F6TZIAB","pain","5","","72","H","0","img/none_selected.jpg","0","0","1","","0.1665925442","false","228","","0.1665925442","main_expt","","0.259674247","","0.04253553249","","0.1292420082","","","","","",""
"216","","bandit","304","1159604","0.0-266.0-0.0","01435725","wem/bandit_single","A2F9V69F6TZIAB","pain","5","","72","H","0","img/none_selected.jpg","0","0","1","","0.2136718414","false","229","","0.2136718414","main_expt","","0.2737318667","","0.06761640147","","0.1281284096","","","","","",""
"68","","bandit","305","1161519","0.0-267.0-0.0","01435725","wem/bandit_single","A2F9V69F6TZIAB","pain","5","","72","H","0","img/none_selected.jpg","0","0","1","","0.2435987791","false","230","","0.2435987791","main_expt","","0.3195589589","","0.08572380951","","0.0791291566","","","","","",""
"109","","bandit","306","1163435","0.0-268.0-0.0","01435725","wem/bandit_single","A2F9V69F6TZIAB","pain","5","","72","H","0","img/none_selected.jpg","0","0","1","","0.2566168121","false","231","","0.2566168121","main_expt","","0.3304270948","","0.07272236896","","0.10920453","","","","","",""
"190","","bandit","307","1165450","0.0-269.0-0.0","01435725","wem/bandit_single","A2F9V69F6TZIAB","pain","5","","72","H","0","img/none_selected.jpg","0","0","1","","0.2152843379","false","232","","0.2152843379","main_expt","","0.2806951239","","0.0735724775","","0.167261158","","","","","",""
"337","","bandit","308","1167619","0.0-270.0-0.0","01435725","wem/bandit_single","A2F9V69F6TZIAB","pain","5","","72","H","0","img/none_selected.jpg","0","1","0","","0.2361400262","false","233","","0.2361400262","main_expt","","0.3115261247","","0.06465645962","","0.1078973024","","","","","",""
"191","","bandit","309","1169649","0.0-271.0-0.0","01435725","wem/bandit_single","A2F9V69F6TZIAB","pain","5","","72","H","0","img/none_selected.jpg","0","1","0","","0.2575526348","false","234","","0.2575526348","main_expt","","0.3001083946","","0.04279198238","","0.2366146445","","","","","",""
"170","","bandit","310","1171652","0.0-272.0-0.0","01435725","wem/bandit_single","A2F9V69F6TZIAB","pain","5","","72","H","0","img/none_selected.jpg","0","0","1","","0.2828430508","false","235","","0.2828430508","main_expt","","0.2768541542","","0.06672803397","","0.2393051992","","","","","",""
"194","","bandit","311","1173688","0.0-273.0-0.0","01435725","wem/bandit_single","A2F9V69F6TZIAB","pain","5","","72","H","0","img/none_selected.jpg","0","1","0","","0.2860482958","false","236","","0.2860482958","main_expt","","0.332362789","","0.07100342573","","0.2976693115","","","","","",""
"141","","bandit","312","1175659","0.0-274.0-0.0","01435725","wem/bandit_single","A2F9V69F6TZIAB","pain","5","","72","H","0","img/none_selected.jpg","0","0","1","","0.2783023894","false","237","","0.2783023894","main_expt","","0.3408832027","","0.03680589181","","0.2674299269","","","","","",""
"150","","bandit","313","1177687","0.0-275.0-0.0","01435725","wem/bandit_single","A2F9V69F6TZIAB","pain","5","","72","H","0","img/none_selected.jpg","0","1","0","","0.2644861187","false","238","","0.2644861187","main_expt","","0.362117859","","0.02733344458","","0.2647207175","","","","","",""
"242","","bandit","314","1179750","0.0-276.0-0.0","01435725","wem/bandit_single","A2F9V69F6TZIAB","pain","5","","72","H","0","img/none_selected.jpg","0","0","1","","0.3186717024","false","239","","0.3186717024","main_expt","","0.3574250999","","0.01831396817","","0.1936342125","","","","","",""
"204","","bandit","315","1181813","0.0-277.0-0.0","01435725","wem/bandit_single","A2F9V69F6TZIAB","pain","5","","72","H","0","img/none_selected.jpg","0","1","0","","0.3360375491","false","240","","0.3360375491","main_expt","","0.290436356","","0.01383764992","","0.2382432393","","","","","",""
"94","","bandit","316","1183802","0.0-278.0-0.0","01435725","wem/bandit_single","A2F9V69F6TZIAB","pain","5","","72","H","0","img/none_selected.jpg","0","0","1","","0.3386213473","false","241","","0.3386213473","main_expt","","0.3414967811","","0.0277662638","","0.2984572788","","","","","",""
"36","","bandit","317","1185720","0.0-279.0-0.0","01435725","wem/bandit_single","A2F9V69F6TZIAB","pain","5","","74","J","1","","0","0","1","","0.3778608287","false","242","","0.3523037021","main_expt","","0.3778608287","","0.04064120638","","0.2927867707","","","","","",""
"48","","bandit","318","1187579","0.0-280.0-0.0","01435725","wem/bandit_single","A2F9V69F6TZIAB","pain","5","","74","J","1","","0","1","0","","0.3552630766","false","243","","0.360543067","main_expt","","0.3552630766","","0.04640587852","","0.2870713985","","","","","",""
"1","","bandit","319","1189453","0.0-281.0-0.0","01435725","wem/bandit_single","A2F9V69F6TZIAB","pain","5","","74","J","1","","0","0","1","","0.3538674815","false","244","","0.3728786331","main_expt","","0.3538674815","","0.06567084485","","0.2882437102","","","","","",""
"36","","bandit","320","1191327","0.0-282.0-0.0","01435725","wem/bandit_single","A2F9V69F6TZIAB","pain","5","","74","J","1","","0","0","1","","0.3592745223","false","245","","0.3736501537","main_expt","","0.3592745223","","0.1069305933","","0.3125457984","","","","","",""
"134","","bandit","321","1193312","0.0-283.0-0.0","01435725","wem/bandit_single","A2F9V69F6TZIAB","pain","5","","74","J","1","","0","1","0","","0.3784559109","false","246","","0.3880614915","main_expt","","0.3784559109","","0.07318543846","","0.2949331023","","","","","",""
"187","","bandit","322","1195375","0.0-284.0-0.0","01435725","wem/bandit_single","A2F9V69F6TZIAB","pain","5","","74","J","1","","0","1","0","","0.3871101473","false","247","","0.3906355486","main_expt","","0.3871101473","","0.06866628372","","0.3557375168","","","","","",""
"198","","bandit","323","1197404","0.0-285.0-0.0","01435725","wem/bandit_single","A2F9V69F6TZIAB","pain","5","","74","J","1","","0","0","1","","0.366594806","false","248","","0.3713177951","main_expt","","0.366594806","","0.06101724449","","0.3190142928","","","","","",""
"38","","bandit","324","1199344","0.0-286.0-0.0","01435725","wem/bandit_single","A2F9V69F6TZIAB","pain","5","","74","J","1","","0","1","0","","0.35265903","false","249","","0.2887643678","main_expt","","0.35265903","","0.07132197128","","0.2946857214","","","","","",""
"178","","bandit","325","1201373","0.0-287.0-0.0","01435725","wem/bandit_single","A2F9V69F6TZIAB","pain","5","","74","J","1","","0","1","0","","0.3725690128","false","250","","0.3503459773","main_expt","","0.3725690128","","0.04991986053","","0.285145352","","","","","",""
"138","","bandit","326","1203351","0.0-288.0-0.0","01435725","wem/bandit_single","A2F9V69F6TZIAB","pain","5","","74","J","1","","0","0","1","","0.3516217444","false","251","","0.3900307368","main_expt","","0.3516217444","","0.087584861","","0.2572530626","","","","","",""
"167","","bandit","327","1205352","0.0-289.0-0.0","01435725","wem/bandit_single","A2F9V69F6TZIAB","pain","5","","74","J","1","","0","0","1","","0.3478664427","false","252","","0.3998204568","main_expt","","0.3478664427","","0.1089760904","","0.206609756","","","","","",""
"62","","bandit","328","1207227","0.0-290.0-0.0","01435725","wem/bandit_single","A2F9V69F6TZIAB","pain","5","","74","J","1","","0","1","0","","0.2845216812","false","253","","0.4062214202","main_expt","","0.2845216812","","0.1389783028","","0.2526850855","","","","","",""
"169","","bandit","329","1209264","0.0-291.0-0.0","01435725","wem/bandit_single","A2F9V69F6TZIAB","pain","5","","74","J","1","","0","0","1","","0.3395138109","false","254","","0.434330363","main_expt","","0.3395138109","","0.1438582992","","0.2143143283","","","","","",""
"126","","bandit","330","1211240","0.0-292.0-0.0","01435725","wem/bandit_single","A2F9V69F6TZIAB","pain","5","","74","J","1","","0","0","1","","0.284072963","false","255","","0.463361135","main_expt","","0.284072963","","0.1341592381","","0.2330346229","","","","","",""
"149","","bandit","331","1213259","0.0-293.0-0.0","01435725","wem/bandit_single","A2F9V69F6TZIAB","pain","5","","74","J","1","","0","0","1","","0.2791977035","false","256","","0.4513325925","main_expt","","0.2791977035","","0.1539827047","","0.1707848091","","","","","",""
"268","","bandit","332","1215358","0.0-294.0-0.0","01435725","wem/bandit_single","A2F9V69F6TZIAB","pain","5","","74","J","1","","0","0","1","","0.2827618753","false","257","","0.4493477618","main_expt","","0.2827618753","","0.1067893116","","0.204762461","","","","","",""
"431","","bandit","333","1217661","0.0-295.0-0.0","01435725","wem/bandit_single","A2F9V69F6TZIAB","pain","5","","75","K","2","","0","0","1","","0.05021154971","false","258","","0.4586876348","main_expt","","0.2367173663","","0.05021154971","","0.1678630312","","","","","",""
"271","","bandit","334","1219746","0.0-296.0-0.0","01435725","wem/bandit_single","A2F9V69F6TZIAB","pain","5","","75","K","2","","0","0","1","","0.04357518244","false","259","","0.45931789","main_expt","","0.2715647874","","0.04357518244","","0.1739170557","","","","","",""
"266","","bandit","335","1221872","0.0-297.0-0.0","01435725","wem/bandit_single","A2F9V69F6TZIAB","pain","5","","75","K","2","","0","0","1","","0.05606835832","false","260","","0.4583289396","main_expt","","0.2310951927","","0.05606835832","","0.1848885371","","","","","",""
"57","","bandit","336","1223755","0.0-298.0-0.0","01435725","wem/bandit_single","A2F9V69F6TZIAB","pain","5","","76","L","3","","0","0","1","","0.2258440324","false","261","","0.4470277171","main_expt","","0.2297288133","","0.05035703518","","0.2258440324","","","","","",""
"52","","bandit","337","1225624","0.0-299.0-0.0","01435725","wem/bandit_single","A2F9V69F6TZIAB","pain","5","","76","L","3","","0","0","1","","0.2167220908","false","262","","0.457772586","main_expt","","0.2072969611","","0.04352905051","","0.2167220908","","","","","",""
"215","","bandit","338","1227652","0.0-300.0-0.0","01435725","wem/bandit_single","A2F9V69F6TZIAB","pain","5","","76","L","3","","0","0","1","","0.2118780444","false","263","","0.417694616","main_expt","","0.2427077321","","0.0373968872","","0.2118780444","","","","","",""
"1","","bandit","339","1229572","0.0-301.0-0.0","01435725","wem/bandit_single","A2F9V69F6TZIAB","pain","5","","76","L","3","","0","0","1","","0.1870566281","false","264","","0.4214939516","main_expt","","0.3052561595","","0.04440415955","","0.1870566281","","","","","",""
"254","","bandit","340","1231663","0.0-302.0-0.0","01435725","wem/bandit_single","A2F9V69F6TZIAB","pain","5","","76","L","3","","0","1","0","","0.1706127143","false","265","","0.413465883","main_expt","","0.3000319327","","0.0139225964","","0.1706127143","","","","","",""
"100","","bandit","341","1233607","0.0-303.0-0.0","01435725","wem/bandit_single","A2F9V69F6TZIAB","pain","5","","76","L","3","","0","0","1","","0.1693140566","false","266","","0.4116424673","main_expt","","0.3134404232","","0.01259799349","","0.1693140566","","","","","",""
"182","","bandit","342","1235646","0.0-304.0-0.0","01435725","wem/bandit_single","A2F9V69F6TZIAB","pain","5","","72","H","0","img/none_selected.jpg","0","0","1","","0.3863145418","false","267","","0.3863145418","main_expt","","0.3066387991","","0.00740451457","","0.1753800763","","","","","",""
"192","","bandit","343","1237721","0.0-305.0-0.0","01435725","wem/bandit_single","A2F9V69F6TZIAB","pain","5","","74","J","1","","0","0","1","","0.3058482798","false","268","","0.4265221664","main_expt","","0.3058482798","","0.004693585052","","0.1918786918","","","","","",""
"511","","bandit","344","1240099","0.0-306.0-0.0","01435725","wem/bandit_single","A2F9V69F6TZIAB","pain","5","","75","K","2","","0","0","1","","0.004824061053","false","269","","0.4515898034","main_expt","","0.2523051309","","0.004824061053","","0.1999989265","","","","","",""
"69","","bandit","345","1242030","0.0-307.0-0.0","01435725","wem/bandit_single","A2F9V69F6TZIAB","pain","5","","76","L","3","","0","1","0","","0.2211747839","false","270","","0.4467147125","main_expt","","0.2663701485","","0.006174480496","","0.2211747839","","","","","",""
"262","","bandit","346","1244141","0.0-308.0-0.0","01435725","wem/bandit_single","A2F9V69F6TZIAB","pain","5","","72","H","0","img/none_selected.jpg","0","0","1","","0.4582909467","false","271","","0.4582909467","main_expt","","0.2485798686","","0.00832103917","","0.2404792593","","","","","",""
"73","","bandit","347","1246082","0.0-309.0-0.0","01435725","wem/bandit_single","A2F9V69F6TZIAB","pain","5","","76","L","3","","0","0","1","","0.2558589782","false","272","","0.4709209778","main_expt","","0.2345495347","","0.00728594366","","0.2558589782","","","","","",""
"141","","bandit","348","1248052","0.0-310.0-0.0","01435725","wem/bandit_single","A2F9V69F6TZIAB","pain","5","","76","L","3","","0","0","1","","0.1700432942","false","273","","0.4660917397","main_expt","","0.2137032991","","0.01114453755","","0.1700432942","","","","","",""
"20","","bandit","349","1249907","0.0-311.0-0.0","01435725","wem/bandit_single","A2F9V69F6TZIAB","pain","5","","76","L","3","","0","1","0","","0.2452429789","false","274","","0.4639522763","main_expt","","0.2108512091","","0.01390500062","","0.2452429789","","","","","",""
"211","","bandit","350","1251990","0.0-312.0-0.0","01435725","wem/bandit_single","A2F9V69F6TZIAB","pain","5","","76","L","3","","0","0","1","","0.2540496776","false","275","","0.4559735555","main_expt","","0.1817434844","","0.01307999715","","0.2540496776","","","","","",""
"54","","bandit","351","1253872","0.0-313.0-0.0","01435725","wem/bandit_single","A2F9V69F6TZIAB","pain","5","","76","L","3","","0","0","1","","0.2816965905","false","276","","0.4246507461","main_expt","","0.2037179719","","0.01650166306","","0.2816965905","","","","","",""
"72","","bandit","352","1255781","0.0-314.0-0.0","01435725","wem/bandit_single","A2F9V69F6TZIAB","pain","5","","76","L","3","","0","0","1","","0.2757967379","false","277","","0.4061878557","main_expt","","0.211691867","","0.02228120093","","0.2757967379","","","","","",""
"115","","bandit","353","1257780","0.0-315.0-0.0","01435725","wem/bandit_single","A2F9V69F6TZIAB","pain","5","","76","L","3","","0","0","1","","0.3233086266","false","278","","0.4185559707","main_expt","","0.1725584367","","0.01609054627","","0.3233086266","","","","","",""
"13314","","bandit","354","1273021","0.0-316.0-0.0","01435725","wem/bandit_single","A2F9V69F6TZIAB","pain","5","","72","H","0","img/none_selected.jpg","0","0","1","","0.4048416859","false","279","","0.4048416859","main_expt","","0.1976152383","","0.03276024715","","0.3447853064","","","","","",""
"58","","bandit","355","1274927","0.0-317.0-0.0","01435725","wem/bandit_single","A2F9V69F6TZIAB","pain","5","","72","H","0","img/none_selected.jpg","0","1","0","","0.3930733378","false","280","","0.3930733378","main_expt","","0.2245419331","","0.045813934","","0.2944080033","","","","","",""
"13","","bandit","356","1276796","0.0-318.0-0.0","01435725","wem/bandit_single","A2F9V69F6TZIAB","pain","5","","72","H","0","img/none_selected.jpg","0","0","1","","0.3722539572","false","281","","0.3722539572","main_expt","","0.2649095144","","0.07680660156","","0.3455536282","","","","","",""
"157","","bandit","357","1278948","0.0-319.0-0.0","01435725","wem/bandit_single","A2F9V69F6TZIAB","pain","5","","74","J","1","","0","0","1","","0.2440542309","false","282","","0.392640689","main_expt","","0.2440542309","","0.08989395926","","0.3002636441","","","","","",""
"79","","bandit","358","1280942","0.0-320.0-0.0","01435725","wem/bandit_single","A2F9V69F6TZIAB","pain","5","","74","J","1","","0","0","1","","0.3074658718","false","283","","0.3657249804","main_expt","","0.3074658718","","0.1096048843","","0.2433385189","","","","","",""
"142","","bandit","359","1282969","0.0-321.0-0.0","01435725","wem/bandit_single","A2F9V69F6TZIAB","pain","5","","74","J","1","","0","1","0","","0.3224089974","false","284","","0.3625644972","main_expt","","0.3224089974","","0.1082817284","","0.2108667552","","","","","",""
"165","","bandit","360","1285014","0.0-322.0-0.0","01435725","wem/bandit_single","A2F9V69F6TZIAB","pain","5","","74","J","1","","0","0","1","","0.3022873968","false","285","","0.3054288932","main_expt","","0.3022873968","","0.1629804938","","0.2340218901","","","","","",""
"156","","bandit","361","1287041","0.0-323.0-0.0","01435725","wem/bandit_single","A2F9V69F6TZIAB","pain","5","","74","J","1","","0","0","1","","0.2889410052","false","286","","0.3391155559","main_expt","","0.2889410052","","0.1852598429","","0.2499238339","","","","","",""
"94","","bandit","362","1289033","0.0-324.0-0.0","01435725","wem/bandit_single","A2F9V69F6TZIAB","pain","5","","74","J","1","","0","0","1","","0.3151816804","false","287","","0.3328791194","main_expt","","0.3151816804","","0.2065414002","","0.2334780882","","","","","",""
"173","","bandit","363","1291109","0.0-325.0-0.0","01435725","wem/bandit_single","A2F9V69F6TZIAB","pain","5","","74","J","1","","0","0","1","","0.3489654206","false","288","","0.3011075564","main_expt","","0.3489654206","","0.1811366591","","0.2784320663","","","","","",""
"0","","bandit","364","1293052","0.0-326.0-0.0","01435725","wem/bandit_single","A2F9V69F6TZIAB","pain","5","","74","J","1","","0","0","1","","0.3673528387","false","289","","0.3326814497","main_expt","","0.3673528387","","0.1202209304","","0.2751214951","","","","","",""
"35","","bandit","365","1294996","0.0-327.0-0.0","01435725","wem/bandit_single","A2F9V69F6TZIAB","pain","5","","74","J","1","","0","0","1","","0.3156989172","false","290","","0.3289320066","main_expt","","0.3156989172","","0.1453470377","","0.304381699","","","","","",""
"229","","bandit","366","1297110","0.0-328.0-0.0","01435725","wem/bandit_single","A2F9V69F6TZIAB","pain","5","","74","J","1","","0","0","1","","0.3731423443","false","291","","0.3074380044","main_expt","","0.3731423443","","0.1477070836","","0.2447169523","","","","","",""
"82","","bandit","367","1299087","0.0-329.0-0.0","01435725","wem/bandit_single","A2F9V69F6TZIAB","pain","5","","74","J","1","","0","0","1","","0.3819638953","false","292","","0.247625386","main_expt","","0.3819638953","","0.1442574827","","0.2422140582","","","","","",""
"72","","bandit","368","1301001","0.0-330.0-0.0","01435725","wem/bandit_single","A2F9V69F6TZIAB","pain","5","","74","J","1","","0","0","1","","0.3709780048","false","293","","0.2438381571","main_expt","","0.3709780048","","0.1219757373","","0.1480972705","","","","","",""
"63","","bandit","369","1302934","0.0-331.0-0.0","01435725","wem/bandit_single","A2F9V69F6TZIAB","pain","5","","74","J","1","","0","1","0","","0.4013541824","false","294","","0.2772308066","main_expt","","0.4013541824","","0.149249144","","0.1338078997","","","","","",""
"95","","bandit","370","1304892","0.0-332.0-0.0","01435725","wem/bandit_single","A2F9V69F6TZIAB","pain","5","","74","J","1","","0","0","1","","0.4203470877","false","295","","0.2386370059","main_expt","","0.4203470877","","0.1066825056","","0.1452417655","","","","","",""
"13","","bandit","371","1306730","0.0-333.0-0.0","01435725","wem/bandit_single","A2F9V69F6TZIAB","pain","5","","74","J","1","","0","1","0","","0.4006598815","false","296","","0.2322267342","main_expt","","0.4006598815","","0.06692503618","","0.12995508","","","","","",""
