"rt","responses","trial_type","trial_index","time_elapsed","internal_node_id","subjID","study","MID","cond","drift","key_press","respCharCode","respKey","respChoiceNum","respChoice","gems","bombs","no_reward","GemPrChosen","BombPrChosen","practice","trial_counter","WinPr_0","LosePr_0","trial_label","WinPr_1","LosePr_1","WinPr_2","LosePr_2","WinPr_3","LosePr_3","Q0","Q1","Q2","gender","age","ethnicity"
"840896","{""Q0"":""A3K7CU7LUKV0ZV""}","survey-text","0","840905","0.0-0.0","01978017","wem/bandit_single","A3K7UC7LUKV0ZV","pain","7","","","","","","","","","","","","","","","","","","","","","","","","","","",""
"1581","","text","1","843489","0.0-1.0","01978017","wem/bandit_single","A3K7UC7LUKV0ZV","pain","7","32","","","","","","","","","","","","","","","","","","","","","","","","","",""
"10145","","text","2","853636","0.0-2.0","01978017","wem/bandit_single","A3K7UC7LUKV0ZV","pain","7","32","","","","","","","","","","","","","","","","","","","","","","","","","",""
"14048","","text","3","867687","0.0-3.0","01978017","wem/bandit_single","A3K7UC7LUKV0ZV","pain","7","32","","","","","","","","","","","","","","","","","","","","","","","","","",""
"11491","","text","4","879180","0.0-4.0","01978017","wem/bandit_single","A3K7UC7LUKV0ZV","pain","7","32","","","","","","","","","","","","","","","","","","","","","","","","","",""
"6687","","text","5","885868","0.0-5.0","01978017","wem/bandit_single","A3K7UC7LUKV0ZV","pain","7","32","","","","","","","","","","","","","","","","","","","","","","","","","",""
"5246","","text","6","891116","0.0-6.0","01978017","wem/bandit_single","A3K7UC7LUKV0ZV","pain","7","32","","","","","","","","","","","","","","","","","","","","","","","","","",""
"2223","","text","7","893339","0.0-7.0","01978017","wem/bandit_single","A3K7UC7LUKV0ZV","pain","7","32","","","","","","","","","","","","","","","","","","","","","","","","","",""
"1439","","text","8","894780","0.0-8.0","01978017","wem/bandit_single","A3K7UC7LUKV0ZV","pain","7","32","","","","","","","","","","","","","","","","","","","","","","","","","",""
"1071","","text","9","895851","0.0-9.0","01978017","wem/bandit_single","A3K7UC7LUKV0ZV","pain","7","32","","","","","","","","","","","","","","","","","","","","","","","","","",""
"1935","","text","10","897787","0.0-10.0","01978017","wem/bandit_single","A3K7UC7LUKV0ZV","pain","7","32","","","","","","","","","","","","","","","","","","","","","","","","","",""
"23704","","text","11","921493","0.0-11.0","01978017","wem/bandit_single","A3K7UC7LUKV0ZV","pain","7","32","","","","","","","","","","","","","","","","","","","","","","","","","",""
"1891","","bandit","12","924891","0.0-12.0-0.0","01978017","wem/bandit_single","A3K7UC7LUKV0ZV","pain","7","","74","J","0","img/none_selected_demo.jpg","0","0","1","0","0","true","0","0","0","","","","","","","","","","","","",""
"675","","bandit","13","927321","0.0-13.0-0.0","01978017","wem/bandit_single","A3K7UC7LUKV0ZV","pain","7","","75","K","0","img/none_selected_demo.jpg","0","0","1","0","0","true","0","0","0","","","","","","","","","","","","",""
"4147","","text","14","931722","0.0-14.0","01978017","wem/bandit_single","A3K7UC7LUKV0ZV","pain","7","32","","","","","","","","","","","","","","","","","","","","","","","","","",""
"644","","text","15","932367","0.0-15.0","01978017","wem/bandit_single","A3K7UC7LUKV0ZV","pain","7","32","","","","","","","","","","","","","","","","","","","","","","","","","",""
"1950","","text","16","934319","0.0-16.0","01978017","wem/bandit_single","A3K7UC7LUKV0ZV","pain","7","32","","","","","","","","","","","","","","","","","","","","","","","","","",""
"1959","","text","17","936279","0.0-17.0","01978017","wem/bandit_single","A3K7UC7LUKV0ZV","pain","7","32","","","","","","","","","","","","","","","","","","","","","","","","","",""
"965","","bandit","18","938751","0.0-18.0-0.0","01978017","wem/bandit_single","A3K7UC7LUKV0ZV","pain","7","","74","J","0","img/none_selected_demo.jpg","0","1","0","0","0.8","true","0","0","0.8","80_20_practice","0","0.2","","","","","","","","","",""
"379","","bandit","19","940886","0.0-18.0-1.0","01978017","wem/bandit_single","A3K7UC7LUKV0ZV","pain","7","","74","J","0","img/none_selected_demo.jpg","0","1","0","0","0.8","true","0","0","0.8","80_20_practice","0","0.2","","","","","","","","","",""
"59","","bandit","20","942702","0.0-18.0-2.0","01978017","wem/bandit_single","A3K7UC7LUKV0ZV","pain","7","","74","J","0","img/none_selected_demo.jpg","0","0","1","0","0.8","true","0","0","0.8","80_20_practice","0","0.2","","","","","","","","","",""
"62","","bandit","21","944518","0.0-18.0-3.0","01978017","wem/bandit_single","A3K7UC7LUKV0ZV","pain","7","","74","J","0","img/none_selected_demo.jpg","0","0","1","0","0.8","true","0","0","0.8","80_20_practice","0","0.2","","","","","","","","","",""
"1316","","bandit","22","947590","0.0-18.0-4.0","01978017","wem/bandit_single","A3K7UC7LUKV0ZV","pain","7","","74","J","0","img/none_selected_demo.jpg","0","1","0","0","0.8","true","0","0","0.8","80_20_practice","0","0.2","","","","","","","","","",""
"157","","bandit","23","949502","0.0-18.0-5.0","01978017","wem/bandit_single","A3K7UC7LUKV0ZV","pain","7","","74","J","0","img/none_selected_demo.jpg","0","1","0","0","0.8","true","0","0","0.8","80_20_practice","0","0.2","","","","","","","","","",""
"277","","bandit","24","951533","0.0-18.0-6.0","01978017","wem/bandit_single","A3K7UC7LUKV0ZV","pain","7","","74","J","0","img/none_selected_demo.jpg","0","0","1","0","0.8","true","0","0","0.8","80_20_practice","0","0.2","","","","","","","","","",""
"60","","bandit","25","953348","0.0-18.0-7.0","01978017","wem/bandit_single","A3K7UC7LUKV0ZV","pain","7","","74","J","0","img/none_selected_demo.jpg","0","1","0","0","0.8","true","0","0","0.8","80_20_practice","0","0.2","","","","","","","","","",""
"118","","bandit","26","955222","0.0-18.0-8.0","01978017","wem/bandit_single","A3K7UC7LUKV0ZV","pain","7","","74","J","0","img/none_selected_demo.jpg","0","1","0","0","0.8","true","0","0","0.8","80_20_practice","0","0.2","","","","","","","","","",""
"132","","bandit","27","957110","0.0-18.0-9.0","01978017","wem/bandit_single","A3K7UC7LUKV0ZV","pain","7","","74","J","0","img/none_selected_demo.jpg","0","1","0","0","0.8","true","0","0","0.8","80_20_practice","0","0.2","","","","","","","","","",""
"316","","bandit","28","959183","0.0-18.0-10.0","01978017","wem/bandit_single","A3K7UC7LUKV0ZV","pain","7","","74","J","0","img/none_selected_demo.jpg","0","1","0","0","0.8","true","0","0","0.8","80_20_practice","0","0.2","","","","","","","","","",""
"131","","bandit","29","961070","0.0-18.0-11.0","01978017","wem/bandit_single","A3K7UC7LUKV0ZV","pain","7","","74","J","0","img/none_selected_demo.jpg","0","1","0","0","0.8","true","0","0","0.8","80_20_practice","0","0.2","","","","","","","","","",""
"2116","","bandit","30","964942","0.0-18.0-12.0","01978017","wem/bandit_single","A3K7UC7LUKV0ZV","pain","7","","74","J","0","img/none_selected_demo.jpg","0","0","1","0","0.8","true","0","0","0.8","80_20_practice","0","0.2","","","","","","","","","",""
"355","","bandit","31","967054","0.0-18.0-13.0","01978017","wem/bandit_single","A3K7UC7LUKV0ZV","pain","7","","74","J","0","img/none_selected_demo.jpg","0","1","0","0","0.8","true","0","0","0.8","80_20_practice","0","0.2","","","","","","","","","",""
"786","","bandit","32","969597","0.0-18.0-14.0","01978017","wem/bandit_single","A3K7UC7LUKV0ZV","pain","7","","74","J","0","img/none_selected_demo.jpg","0","1","0","0","0.8","true","0","0","0.8","80_20_practice","0","0.2","","","","","","","","","",""
"180","","bandit","33","971533","0.0-18.0-15.0","01978017","wem/bandit_single","A3K7UC7LUKV0ZV","pain","7","","74","J","0","img/none_selected_demo.jpg","0","1","0","0","0.8","true","0","0","0.8","80_20_practice","0","0.2","","","","","","","","","",""
"779","","bandit","34","974070","0.0-18.0-16.0","01978017","wem/bandit_single","A3K7UC7LUKV0ZV","pain","7","","74","J","0","img/none_selected_demo.jpg","0","1","0","0","0.8","true","0","0","0.8","80_20_practice","0","0.2","","","","","","","","","",""
"772","","bandit","35","976598","0.0-18.0-17.0","01978017","wem/bandit_single","A3K7UC7LUKV0ZV","pain","7","","74","J","0","img/none_selected_demo.jpg","0","1","0","0","0.8","true","0","0","0.8","80_20_practice","0","0.2","","","","","","","","","",""
"53","","bandit","36","978407","0.0-18.0-18.0","01978017","wem/bandit_single","A3K7UC7LUKV0ZV","pain","7","","74","J","0","img/none_selected_demo.jpg","0","1","0","0","0.8","true","0","0","0.8","80_20_practice","0","0.2","","","","","","","","","",""
"59","","bandit","37","980222","0.0-18.0-19.0","01978017","wem/bandit_single","A3K7UC7LUKV0ZV","pain","7","","74","J","0","img/none_selected_demo.jpg","0","1","0","0","0.8","true","0","0","0.8","80_20_practice","0","0.2","","","","","","","","","",""
"3292","","text","38","983767","0.0-19.0","01978017","wem/bandit_single","A3K7UC7LUKV0ZV","pain","7","32","","","","","","","","","","","","","","","","","","","","","","","","","",""
"1764","","bandit","39","987036","0.0-20.0-0.0","01978017","wem/bandit_single","A3K7UC7LUKV0ZV","pain","7","","74","J","0","img/none_selected_demo.jpg","0","0","1","0","0","true","0","0","0","","0","0","","","","","","","","","",""
"9501","","text","40","996791","0.0-21.0","01978017","wem/bandit_single","A3K7UC7LUKV0ZV","pain","7","32","","","","","","","","","","","","","","","","","","","","","","","","","",""
"1107","","text","41","997900","0.0-22.0","01978017","wem/bandit_single","A3K7UC7LUKV0ZV","pain","7","32","","","","","","","","","","","","","","","","","","","","","","","","","",""
"838","","text","42","998740","0.0-23.0","01978017","wem/bandit_single","A3K7UC7LUKV0ZV","pain","7","32","","","","","","","","","","","","","","","","","","","","","","","","","",""
"3422","","text","43","1002163","0.0-24.0","01978017","wem/bandit_single","A3K7UC7LUKV0ZV","pain","7","32","","","","","","","","","","","","","","","","","","","","","","","","","",""
"2815","","text","44","1004980","0.0-25.0","01978017","wem/bandit_single","A3K7UC7LUKV0ZV","pain","7","32","","","","","","","","","","","","","","","","","","","","","","","","","",""
"3959","","text","45","1008941","0.0-26.0","01978017","wem/bandit_single","A3K7UC7LUKV0ZV","pain","7","32","","","","","","","","","","","","","","","","","","","","","","","","","",""
"2581","","text","46","1011524","0.0-27.0","01978017","wem/bandit_single","A3K7UC7LUKV0ZV","pain","7","32","","","","","","","","","","","","","","","","","","","","","","","","","",""
"1639","","text","47","1013164","0.0-28.0","01978017","wem/bandit_single","A3K7UC7LUKV0ZV","pain","7","32","","","","","","","","","","","","","","","","","","","","","","","","","",""
"3796","","text","48","1016964","0.0-29.0","01978017","wem/bandit_single","A3K7UC7LUKV0ZV","pain","7","32","","","","","","","","","","","","","","","","","","","","","","","","","",""
"1422","","text","49","1018388","0.0-30.0","01978017","wem/bandit_single","A3K7UC7LUKV0ZV","pain","7","32","","","","","","","","","","","","","","","","","","","","","","","","","",""
"2885","","text","50","1021275","0.0-31.0","01978017","wem/bandit_single","A3K7UC7LUKV0ZV","pain","7","32","","","","","","","","","","","","","","","","","","","","","","","","","",""
"701","","bandit","51","1023481","0.0-32.0-0.0","01978017","wem/bandit_single","A3K7UC7LUKV0ZV","pain","7","","72","H","0","img/none_selected.jpg","0","1","0","0","0.8","true","0","0","0.8","full_practice","0","0.2","0","0.6","0","0.2","","","","","",""
"317","","bandit","52","1025554","0.0-32.0-1.0","01978017","wem/bandit_single","A3K7UC7LUKV0ZV","pain","7","","72","H","0","img/none_selected.jpg","0","0","1","0","0.8","true","0","0","0.8","full_practice","0","0.2","0","0.6","0","0.2","","","","","",""
"317","","bandit","53","1027626","0.0-32.0-2.0","01978017","wem/bandit_single","A3K7UC7LUKV0ZV","pain","7","","72","H","0","img/none_selected.jpg","0","1","0","0","0.8","true","0","0","0.8","full_practice","0","0.2","0","0.6","0","0.2","","","","","",""
"332","","bandit","54","1029713","0.0-32.0-3.0","01978017","wem/bandit_single","A3K7UC7LUKV0ZV","pain","7","","72","H","0","img/none_selected.jpg","0","1","0","0","0.8","true","0","0","0.8","full_practice","0","0.2","0","0.6","0","0.2","","","","","",""
"155","","bandit","55","1031628","0.0-32.0-4.0","01978017","wem/bandit_single","A3K7UC7LUKV0ZV","pain","7","","72","H","0","img/none_selected.jpg","0","1","0","0","0.8","true","0","0","0.8","full_practice","0","0.2","0","0.6","0","0.2","","","","","",""
"268","","bandit","56","1033651","0.0-32.0-5.0","01978017","wem/bandit_single","A3K7UC7LUKV0ZV","pain","7","","72","H","0","img/none_selected.jpg","0","1","0","0","0.8","true","0","0","0.8","full_practice","0","0.2","0","0.6","0","0.2","","","","","",""
"82","","bandit","57","1035489","0.0-32.0-6.0","01978017","wem/bandit_single","A3K7UC7LUKV0ZV","pain","7","","72","H","0","img/none_selected.jpg","0","1","0","0","0.8","true","0","0","0.8","full_practice","0","0.2","0","0.6","0","0.2","","","","","",""
"45","","bandit","58","1037289","0.0-32.0-7.0","01978017","wem/bandit_single","A3K7UC7LUKV0ZV","pain","7","","72","H","0","img/none_selected.jpg","0","1","0","0","0.8","true","0","0","0.8","full_practice","0","0.2","0","0.6","0","0.2","","","","","",""
"797","","bandit","59","1039841","0.0-32.0-8.0","01978017","wem/bandit_single","A3K7UC7LUKV0ZV","pain","7","","72","H","0","img/none_selected.jpg","0","1","0","0","0.8","true","0","0","0.8","full_practice","0","0.2","0","0.6","0","0.2","","","","","",""
"69","","bandit","60","1041665","0.0-32.0-9.0","01978017","wem/bandit_single","A3K7UC7LUKV0ZV","pain","7","","72","H","0","img/none_selected.jpg","0","0","1","0","0.8","true","0","0","0.8","full_practice","0","0.2","0","0.6","0","0.2","","","","","",""
"735","","bandit","61","1044157","0.0-32.0-10.0","01978017","wem/bandit_single","A3K7UC7LUKV0ZV","pain","7","","75","K","2","","0","0","1","0","0.6","true","0","0","0.8","full_practice","0","0.2","0","0.6","0","0.2","","","","","",""
"41","","bandit","62","1045954","0.0-32.0-11.0","01978017","wem/bandit_single","A3K7UC7LUKV0ZV","pain","7","","75","K","2","","0","1","0","0","0.6","true","0","0","0.8","full_practice","0","0.2","0","0.6","0","0.2","","","","","",""
"107","","bandit","63","1047817","0.0-32.0-12.0","01978017","wem/bandit_single","A3K7UC7LUKV0ZV","pain","7","","75","K","2","","0","0","1","0","0.6","true","0","0","0.8","full_practice","0","0.2","0","0.6","0","0.2","","","","","",""
"197","","bandit","64","1049769","0.0-32.0-13.0","01978017","wem/bandit_single","A3K7UC7LUKV0ZV","pain","7","","75","K","2","","0","0","1","0","0.6","true","0","0","0.8","full_practice","0","0.2","0","0.6","0","0.2","","","","","",""
"76","","bandit","65","1051602","0.0-32.0-14.0","01978017","wem/bandit_single","A3K7UC7LUKV0ZV","pain","7","","76","L","3","","0","0","1","0","0.2","true","0","0","0.8","full_practice","0","0.2","0","0.6","0","0.2","","","","","",""
"19","","bandit","66","1053377","0.0-32.0-15.0","01978017","wem/bandit_single","A3K7UC7LUKV0ZV","pain","7","","76","L","3","","0","0","1","0","0.2","true","0","0","0.8","full_practice","0","0.2","0","0.6","0","0.2","","","","","",""
"182","","bandit","67","1055314","0.0-32.0-16.0","01978017","wem/bandit_single","A3K7UC7LUKV0ZV","pain","7","","72","H","0","img/none_selected.jpg","0","1","0","0","0.8","true","0","0","0.8","full_practice","0","0.2","0","0.6","0","0.2","","","","","",""
"420","","bandit","68","1057298","0.0-32.0-17.0","01978017","wem/bandit_single","A3K7UC7LUKV0ZV","pain","7","","72","H","0","img/none_selected.jpg","0","0","1","0","0.8","true","0","0","0.8","full_practice","0","0.2","0","0.6","0","0.2","","","","","",""
"69","","bandit","69","1059122","0.0-32.0-18.0","01978017","wem/bandit_single","A3K7UC7LUKV0ZV","pain","7","","72","H","0","img/none_selected.jpg","0","1","0","0","0.8","true","0","0","0.8","full_practice","0","0.2","0","0.6","0","0.2","","","","","",""
"298","","bandit","70","1061179","0.0-32.0-19.0","01978017","wem/bandit_single","A3K7UC7LUKV0ZV","pain","7","","72","H","0","img/none_selected.jpg","0","0","1","0","0.8","true","0","0","0.8","full_practice","0","0.2","0","0.6","0","0.2","","","","","",""
"2787","","text","71","1064223","0.0-33.0","01978017","wem/bandit_single","A3K7UC7LUKV0ZV","pain","7","32","","","","","","","","","","","","","","","","","","","","","","","","","",""
"3722","","text","72","1068948","0.0-34.0","01978017","wem/bandit_single","A3K7UC7LUKV0ZV","pain","7","32","","","","","","","","","","","","","","","","","","","","","","","","","",""
"3014","","text","73","1071964","0.0-35.0","01978017","wem/bandit_single","A3K7UC7LUKV0ZV","pain","7","32","","","","","","","","","","","","","","","","","","","","","","","","","",""
"1558","","text","74","1073525","0.0-36.0","01978017","wem/bandit_single","A3K7UC7LUKV0ZV","pain","7","32","","","","","","","","","","","","","","","","","","","","","","","","","",""
"1382","","text","75","1074909","0.0-37.0","01978017","wem/bandit_single","A3K7UC7LUKV0ZV","pain","7","32","","","","","","","","","","","","","","","","","","","","","","","","","",""
"1356","","bandit","76","1077771","0.0-38.0-0.0","01978017","wem/bandit_single","A3K7UC7LUKV0ZV","pain","7","","75","K","2","","0","0","1","","0.182860278","false","1","","0.2046929885","main_expt","","0.4656663819","","0.182860278","","0.05137684772","","","","","",""
"83","","bandit","77","1079610","0.0-39.0-0.0","01978017","wem/bandit_single","A3K7UC7LUKV0ZV","pain","7","","75","K","2","","0","0","1","","0.1824128093","false","2","","0.1903203277","main_expt","","0.4696156166","","0.1824128093","","0.07150319997","","","","","",""
"373","","bandit","78","1081738","0.0-40.0-0.0","01978017","wem/bandit_single","A3K7UC7LUKV0ZV","pain","7","","74","J","1","","0","1","0","","0.477042595","false","3","","0.1806567389","main_expt","","0.477042595","","0.1671989933","","0.080703679","","","","","",""
"75","","bandit","79","1083570","0.0-41.0-0.0","01978017","wem/bandit_single","A3K7UC7LUKV0ZV","pain","7","","74","J","1","","0","0","1","","0.4833388502","false","4","","0.1746643784","main_expt","","0.4833388502","","0.1769774761","","0.09206073837","","","","","",""
"36","","bandit","80","1085362","0.0-42.0-0.0","01978017","wem/bandit_single","A3K7UC7LUKV0ZV","pain","7","","74","J","1","","0","1","0","","0.4679643189","false","5","","0.1575849224","main_expt","","0.4679643189","","0.1847579949","","0.09846378213","","","","","",""
"404","","bandit","81","1087524","0.0-43.0-0.0","01978017","wem/bandit_single","A3K7UC7LUKV0ZV","pain","7","","74","J","1","","0","1","0","","0.4728114282","false","6","","0.1848921601","main_expt","","0.4728114282","","0.2263389119","","0.07982937149","","","","","",""
"25","","bandit","82","1089307","0.0-44.0-0.0","01978017","wem/bandit_single","A3K7UC7LUKV0ZV","pain","7","","74","J","1","","0","1","0","","0.4763129956","false","7","","0.2090417599","main_expt","","0.4763129956","","0.233500047","","0.08361087011","","","","","",""
"211","","bandit","83","1091275","0.0-45.0-0.0","01978017","wem/bandit_single","A3K7UC7LUKV0ZV","pain","7","","74","J","1","","0","0","1","","0.4605171502","false","8","","0.2340345007","main_expt","","0.4605171502","","0.2213385325","","0.1210475052","","","","","",""
"147","","bandit","84","1093178","0.0-46.0-0.0","01978017","wem/bandit_single","A3K7UC7LUKV0ZV","pain","7","","74","J","1","","0","0","1","","0.457599345","false","9","","0.2388832632","main_expt","","0.457599345","","0.216727727","","0.1023248189","","","","","",""
"460","","bandit","85","1095395","0.0-47.0-0.0","01978017","wem/bandit_single","A3K7UC7LUKV0ZV","pain","7","","74","J","1","","0","0","1","","0.4514273669","false","10","","0.2336568073","main_expt","","0.4514273669","","0.1757193701","","0.1311876697","","","","","",""
"244","","bandit","86","1097394","0.0-48.0-0.0","01978017","wem/bandit_single","A3K7UC7LUKV0ZV","pain","7","","76","L","3","","0","0","1","","0.1171839072","false","11","","0.2682397485","main_expt","","0.461109344","","0.221687112","","0.1171839072","","","","","",""
"61","","bandit","87","1099212","0.0-49.0-0.0","01978017","wem/bandit_single","A3K7UC7LUKV0ZV","pain","7","","76","L","3","","0","0","1","","0.09103905321","false","12","","0.2855743842","main_expt","","0.4750360261","","0.1693148256","","0.09103905321","","","","","",""
"50","","bandit","88","1101019","0.0-50.0-0.0","01978017","wem/bandit_single","A3K7UC7LUKV0ZV","pain","7","","76","L","3","","0","0","1","","0.08195125901","false","13","","0.2877368863","main_expt","","0.4882900813","","0.1861997022","","0.08195125901","","","","","",""
"179","","bandit","89","1102955","0.0-51.0-0.0","01978017","wem/bandit_single","A3K7UC7LUKV0ZV","pain","7","","72","H","0","img/none_selected.jpg","0","0","1","","0.2904717711","false","14","","0.2904717711","main_expt","","0.4836145896","","0.2056371894","","0.1022478824","","","","","",""
"1177","","bandit","90","1105892","0.0-52.0-0.0","01978017","wem/bandit_single","A3K7UC7LUKV0ZV","pain","7","","72","H","0","img/none_selected.jpg","0","1","0","","0.3145527135","false","15","","0.3145527135","main_expt","","0.4841526839","","0.207651467","","0.1295923723","","","","","",""
"259","","bandit","91","1107906","0.0-53.0-0.0","01978017","wem/bandit_single","A3K7UC7LUKV0ZV","pain","7","","72","H","0","img/none_selected.jpg","0","0","1","","0.2919685568","false","16","","0.2919685568","main_expt","","0.4733209008","","0.264879833","","0.1259026636","","","","","",""
"43","","bandit","92","1109706","0.0-54.0-0.0","01978017","wem/bandit_single","A3K7UC7LUKV0ZV","pain","7","","72","H","0","img/none_selected.jpg","0","1","0","","0.2437915417","false","17","","0.2437915417","main_expt","","0.4548629562","","0.301226273","","0.08714849596","","","","","",""
"1322","","bandit","93","1112787","0.0-55.0-0.0","01978017","wem/bandit_single","A3K7UC7LUKV0ZV","pain","7","","72","H","0","img/none_selected.jpg","0","0","1","","0.2139729843","false","18","","0.2139729843","main_expt","","0.4423108412","","0.3355017989","","0.06082296625","","","","","",""
"186","","bandit","94","1114730","0.0-56.0-0.0","01978017","wem/bandit_single","A3K7UC7LUKV0ZV","pain","7","","72","H","0","img/none_selected.jpg","0","1","0","","0.2117718275","false","19","","0.2117718275","main_expt","","0.4510346454","","0.4066928382","","0.04376078701","","","","","",""
"29","","bandit","95","1116514","0.0-57.0-0.0","01978017","wem/bandit_single","A3K7UC7LUKV0ZV","pain","7","","72","H","0","img/none_selected.jpg","0","0","1","","0.2128214431","false","20","","0.2128214431","main_expt","","0.4522943673","","0.4152799178","","0.0431273538","","","","","",""
"68","","bandit","96","1118145","0.0-58.0-0.0","01978017","wem/bandit_single","A3K7UC7LUKV0ZV","pain","7","","72","H","0","img/none_selected.jpg","0","0","1","","0.2557511999","false","21","","0.2557511999","main_expt","","0.4213917452","","0.4005545413","","0.05700218709","","","","","",""
"452","","bandit","97","1120354","0.0-59.0-0.0","01978017","wem/bandit_single","A3K7UC7LUKV0ZV","pain","7","","72","H","0","img/none_selected.jpg","0","0","1","","0.2240556206","false","22","","0.2240556206","main_expt","","0.4055738921","","0.4065945052","","0.03008320558","","","","","",""
"147","","bandit","98","1122257","0.0-60.0-0.0","01978017","wem/bandit_single","A3K7UC7LUKV0ZV","pain","7","","72","H","0","img/none_selected.jpg","0","0","1","","0.1913455436","false","23","","0.1913455436","main_expt","","0.4102744642","","0.4396923884","","0.04675245401","","","","","",""
"442","","bandit","99","1124457","0.0-61.0-0.0","01978017","wem/bandit_single","A3K7UC7LUKV0ZV","pain","7","","72","H","0","img/none_selected.jpg","0","0","1","","0.1767964116","false","24","","0.1767964116","main_expt","","0.4215519413","","0.4414607804","","0.02664245213","","","","","",""
"459","","bandit","100","1126674","0.0-62.0-0.0","01978017","wem/bandit_single","A3K7UC7LUKV0ZV","pain","7","","74","J","1","","0","0","1","","0.4076768117","false","25","","0.1667721477","main_expt","","0.4076768117","","0.430597795","","0.02443183667","","","","","",""
"377","","bandit","101","1128808","0.0-63.0-0.0","01978017","wem/bandit_single","A3K7UC7LUKV0ZV","pain","7","","74","J","1","","0","0","1","","0.3563873355","false","26","","0.132468293","main_expt","","0.3563873355","","0.4049624372","","0.02765515704","","","","","",""
"36","","bandit","102","1130602","0.0-64.0-0.0","01978017","wem/bandit_single","A3K7UC7LUKV0ZV","pain","7","","74","J","1","","0","0","1","","0.3305608977","false","27","","0.1283549716","main_expt","","0.3305608977","","0.3959859591","","0.05751586542","","","","","",""
"147","","bandit","103","1132505","0.0-65.0-0.0","01978017","wem/bandit_single","A3K7UC7LUKV0ZV","pain","7","","75","K","2","","0","0","1","","0.4316273603","false","28","","0.1218888314","main_expt","","0.323916825","","0.4316273603","","0.1046410472","","","","","",""
"467","","bandit","104","1134730","0.0-66.0-0.0","01978017","wem/bandit_single","A3K7UC7LUKV0ZV","pain","7","","75","K","2","","0","0","1","","0.4618757987","false","29","","0.08739650486","main_expt","","0.3256975875","","0.4618757987","","0.1174110135","","","","","",""
"104","","bandit","105","1136593","0.0-67.0-0.0","01978017","wem/bandit_single","A3K7UC7LUKV0ZV","pain","7","","75","K","2","","0","1","0","","0.4764599947","false","30","","0.1113113005","main_expt","","0.3590663193","","0.4764599947","","0.09344635718","","","","","",""
"634","","bandit","106","1138984","0.0-68.0-0.0","01978017","wem/bandit_single","A3K7UC7LUKV0ZV","pain","7","","75","K","2","","0","0","1","","0.4870567238","false","31","","0.1234593762","main_expt","","0.2794303661","","0.4870567238","","0.07228097062","","","","","",""
"446","","bandit","107","1141186","0.0-69.0-0.0","01978017","wem/bandit_single","A3K7UC7LUKV0ZV","pain","7","","75","K","2","","0","1","0","","0.4744541924","false","32","","0.1204693509","main_expt","","0.2725021833","","0.4744541924","","0.06660380695","","","","","",""
"219","","bandit","108","1143161","0.0-70.0-0.0","01978017","wem/bandit_single","A3K7UC7LUKV0ZV","pain","7","","75","K","2","","0","1","0","","0.4595636441","false","33","","0.1525092538","main_expt","","0.2662358977","","0.4595636441","","0.06161000393","","","","","",""
"90","","bandit","109","1145008","0.0-71.0-0.0","01978017","wem/bandit_single","A3K7UC7LUKV0ZV","pain","7","","75","K","2","","0","1","0","","0.4700794195","false","34","","0.0933794629","main_expt","","0.3062719381","","0.4700794195","","0.08245015188","","","","","",""
"44","","bandit","110","1146808","0.0-72.0-0.0","01978017","wem/bandit_single","A3K7UC7LUKV0ZV","pain","7","","75","K","2","","0","1","0","","0.46481425","false","35","","0.06693018499","main_expt","","0.3199342551","","0.46481425","","0.08195488018","","","","","",""
"131","","bandit","111","1148698","0.0-73.0-0.0","01978017","wem/bandit_single","A3K7UC7LUKV0ZV","pain","7","","75","K","2","","0","0","1","","0.4518384169","false","36","","0.09916465935","main_expt","","0.3039619122","","0.4518384169","","0.1004102013","","","","","",""
"60","","bandit","112","1150513","0.0-74.0-0.0","01978017","wem/bandit_single","A3K7UC7LUKV0ZV","pain","7","","75","K","2","","0","1","0","","0.439581627","false","37","","0.08872434017","main_expt","","0.2927636057","","0.439581627","","0.1390326598","","","","","",""
"85","","bandit","113","1152354","0.0-75.0-0.0","01978017","wem/bandit_single","A3K7UC7LUKV0ZV","pain","7","","75","K","2","","0","0","1","","0.3994664239","false","38","","0.08103487055","main_expt","","0.3513205482","","0.3994664239","","0.143322519","","","","","",""
"154","","bandit","114","1154267","0.0-76.0-0.0","01978017","wem/bandit_single","A3K7UC7LUKV0ZV","pain","7","","75","K","2","","0","1","0","","0.399239641","false","39","","0.09262773223","main_expt","","0.3199725693","","0.399239641","","0.1439849427","","","","","",""
"354","","bandit","115","1156377","0.0-77.0-0.0","01978017","wem/bandit_single","A3K7UC7LUKV0ZV","pain","7","","75","K","2","","0","0","1","","0.3842971785","false","40","","0.08276392867","main_expt","","0.2899826696","","0.3842971785","","0.1813186375","","","","","",""
"411","","bandit","116","1158544","0.0-78.0-0.0","01978017","wem/bandit_single","A3K7UC7LUKV0ZV","pain","7","","75","K","2","","0","0","1","","0.3584077127","false","41","","0.07889170896","main_expt","","0.2470457707","","0.3584077127","","0.182623784","","","","","",""
"692","","bandit","117","1160993","0.0-79.0-0.0","01978017","wem/bandit_single","A3K7UC7LUKV0ZV","pain","7","","75","K","2","","0","0","1","","0.2940512223","false","42","","0.1007082374","main_expt","","0.2860815649","","0.2940512223","","0.1310997782","","","","","",""
"99","","bandit","118","1162849","0.0-80.0-0.0","01978017","wem/bandit_single","A3K7UC7LUKV0ZV","pain","7","","76","L","3","","0","0","1","","0.1211351308","false","43","","0.04983151166","main_expt","","0.3649324249","","0.3274682868","","0.1211351308","","","","","",""
"139","","bandit","119","1164746","0.0-81.0-0.0","01978017","wem/bandit_single","A3K7UC7LUKV0ZV","pain","7","","76","L","3","","0","0","1","","0.1032393721","false","44","","0.06772206808","main_expt","","0.3722884938","","0.3105097628","","0.1032393721","","","","","",""
"593","","bandit","120","1167097","0.0-82.0-0.0","01978017","wem/bandit_single","A3K7UC7LUKV0ZV","pain","7","","76","L","3","","0","0","1","","0.145243047","false","45","","0.07082322934","main_expt","","0.3589666793","","0.3253779088","","0.145243047","","","","","",""
"52","","bandit","121","1168905","0.0-83.0-0.0","01978017","wem/bandit_single","A3K7UC7LUKV0ZV","pain","7","","76","L","3","","0","1","0","","0.1871821161","false","46","","0.08302100682","main_expt","","0.309469461","","0.2907447256","","0.1871821161","","","","","",""
"91","","bandit","122","1170754","0.0-84.0-0.0","01978017","wem/bandit_single","A3K7UC7LUKV0ZV","pain","7","","76","L","3","","0","0","1","","0.1827431821","false","47","","0.04947507936","main_expt","","0.3486132663","","0.2922490699","","0.1827431821","","","","","",""
"90","","bandit","123","1172600","0.0-85.0-0.0","01978017","wem/bandit_single","A3K7UC7LUKV0ZV","pain","7","","76","L","3","","0","0","1","","0.1863443356","false","48","","0.05970491685","main_expt","","0.3613151755","","0.3012354267","","0.1863443356","","","","","",""
"83","","bandit","124","1174442","0.0-86.0-0.0","01978017","wem/bandit_single","A3K7UC7LUKV0ZV","pain","7","","76","L","3","","0","0","1","","0.2089920758","false","49","","0.05846806591","main_expt","","0.3810076255","","0.3199255499","","0.2089920758","","","","","",""
"25","","bandit","125","1176225","0.0-87.0-0.0","01978017","wem/bandit_single","A3K7UC7LUKV0ZV","pain","7","","72","H","0","img/none_selected.jpg","0","0","1","","0.08078022322","false","50","","0.08078022322","main_expt","","0.3528158806","","0.3246792682","","0.2204805957","","","","","",""
"282","","bandit","126","1178075","0.0-88.0-0.0","01978017","wem/bandit_single","A3K7UC7LUKV0ZV","pain","7","","72","H","0","img/none_selected.jpg","0","0","1","","0.08366705542","false","51","","0.08366705542","main_expt","","0.4127521961","","0.3158487008","","0.2796788854","","","","","",""
"9988","","bandit","127","1189820","0.0-89.0-0.0","01978017","wem/bandit_single","A3K7UC7LUKV0ZV","pain","7","","75","K","2","","0","1","0","","0.2764666405","false","52","","0.1365111474","main_expt","","0.4034362436","","0.2764666405","","0.2870992152","","","","","",""
"370","","bandit","128","1191947","0.0-90.0-0.0","01978017","wem/bandit_single","A3K7UC7LUKV0ZV","pain","7","","75","K","2","","0","0","1","","0.2740398937","false","53","","0.1238361543","main_expt","","0.4268522392","","0.2740398937","","0.3176469779","","","","","",""
"674","","bandit","129","1194378","0.0-91.0-0.0","01978017","wem/bandit_single","A3K7UC7LUKV0ZV","pain","7","","75","K","2","","0","0","1","","0.2499565254","false","54","","0.1150058699","main_expt","","0.4471231168","","0.2499565254","","0.3407727651","","","","","",""
"132","","bandit","130","1196266","0.0-92.0-0.0","01978017","wem/bandit_single","A3K7UC7LUKV0ZV","pain","7","","75","K","2","","0","0","1","","0.221305586","false","55","","0.1498695165","main_expt","","0.4397300441","","0.221305586","","0.380871147","","","","","",""
"612","","bandit","131","1198634","0.0-93.0-0.0","01978017","wem/bandit_single","A3K7UC7LUKV0ZV","pain","7","","74","J","1","","0","1","0","","0.4266514607","false","56","","0.1559096332","main_expt","","0.4266514607","","0.2513729962","","0.3614982187","","","","","",""
"98","","bandit","132","1200492","0.0-94.0-0.0","01978017","wem/bandit_single","A3K7UC7LUKV0ZV","pain","7","","74","J","1","","0","0","1","","0.4351066669","false","57","","0.139260175","main_expt","","0.4351066669","","0.254621842","","0.3219973572","","","","","",""
"169","","bandit","133","1202419","0.0-95.0-0.0","01978017","wem/bandit_single","A3K7UC7LUKV0ZV","pain","7","","74","J","1","","0","1","0","","0.4114765848","false","58","","0.1101041774","main_expt","","0.4114765848","","0.2911199408","","0.3136466855","","","","","",""
"890","","bandit","134","1205067","0.0-96.0-0.0","01978017","wem/bandit_single","A3K7UC7LUKV0ZV","pain","7","","74","J","1","","0","0","1","","0.4331866813","false","59","","0.1619704935","main_expt","","0.4331866813","","0.3260103257","","0.3553654786","","","","","",""
"49255","","bandit","135","1256082","0.0-97.0-0.0","01978017","wem/bandit_single","A3K7UC7LUKV0ZV","pain","7","","74","J","1","","0","0","1","","0.4452666195","false","60","","0.1023472493","main_expt","","0.4452666195","","0.3801831719","","0.302494743","","","","","",""
"163","","bandit","136","1258004","0.0-98.0-0.0","01978017","wem/bandit_single","A3K7UC7LUKV0ZV","pain","7","","75","K","2","","0","0","1","","0.4097171909","false","61","","0.1659923055","main_expt","","0.4533212266","","0.4097171909","","0.3194951829","","","","","",""
"700","","bandit","137","1260460","0.0-99.0-0.0","01978017","wem/bandit_single","A3K7UC7LUKV0ZV","pain","7","","75","K","2","","0","0","1","","0.4297251169","false","62","","0.1773336283","main_expt","","0.4546633602","","0.4297251169","","0.3491175101","","","","","",""
"73","","bandit","138","1262292","0.0-100.0-0.0","01978017","wem/bandit_single","A3K7UC7LUKV0ZV","pain","7","","75","K","2","","0","1","0","","0.4523537282","false","63","","0.1838898345","main_expt","","0.431915851","","0.4523537282","","0.3618657485","","","","","",""
"394","","bandit","139","1264444","0.0-101.0-0.0","01978017","wem/bandit_single","A3K7UC7LUKV0ZV","pain","7","","75","K","2","","0","0","1","","0.4577822331","false","64","","0.1535376321","main_expt","","0.4397857724","","0.4577822331","","0.3331995431","","","","","",""
"876","","bandit","140","1267076","0.0-102.0-0.0","01978017","wem/bandit_single","A3K7UC7LUKV0ZV","pain","7","","75","K","2","","0","1","0","","0.4366397349","false","65","","0.1696059705","main_expt","","0.3803141428","","0.4366397349","","0.3222916502","","","","","",""
"929","","bandit","141","1269765","0.0-103.0-0.0","01978017","wem/bandit_single","A3K7UC7LUKV0ZV","pain","7","","75","K","2","","0","0","1","","0.4223045317","false","66","","0.1747776373","main_expt","","0.4318665216","","0.4223045317","","0.2935747005","","","","","",""
"1001","","bandit","142","1272525","0.0-104.0-0.0","01978017","wem/bandit_single","A3K7UC7LUKV0ZV","pain","7","","75","K","2","","0","0","1","","0.453094409","false","67","","0.1880318686","main_expt","","0.3783394243","","0.453094409","","0.272098099","","","","","",""
"827","","bandit","143","1275108","0.0-105.0-0.0","01978017","wem/bandit_single","A3K7UC7LUKV0ZV","pain","7","","75","K","2","","0","1","0","","0.4441165928","false","68","","0.1703396733","main_expt","","0.3424409758","","0.4441165928","","0.2839543474","","","","","",""
"4","","bandit","144","1276869","0.0-106.0-0.0","01978017","wem/bandit_single","A3K7UC7LUKV0ZV","pain","7","","75","K","2","","0","0","1","","0.437102529","false","69","","0.2041307244","main_expt","","0.3825588005","","0.437102529","","0.3106529802","","","","","",""
"353","","bandit","145","1278981","0.0-107.0-0.0","01978017","wem/bandit_single","A3K7UC7LUKV0ZV","pain","7","","75","K","2","","0","1","0","","0.463010405","false","70","","0.2380468473","main_expt","","0.4019939479","","0.463010405","","0.2152651325","","","","","",""
"313","","bandit","146","1281052","0.0-108.0-0.0","01978017","wem/bandit_single","A3K7UC7LUKV0ZV","pain","7","","75","K","2","","0","1","0","","0.4511055106","false","71","","0.2540220497","main_expt","","0.3995375499","","0.4511055106","","0.2150247356","","","","","",""
"419","","bandit","147","1283227","0.0-109.0-0.0","01978017","wem/bandit_single","A3K7UC7LUKV0ZV","pain","7","","76","L","3","","0","1","0","","0.2196699897","false","72","","0.2877519017","main_expt","","0.3655493795","","0.456238914","","0.2196699897","","","","","",""
"3060","","bandit","148","1288045","0.0-110.0-0.0","01978017","wem/bandit_single","A3K7UC7LUKV0ZV","pain","7","","76","L","3","","0","0","1","","0.2086164273","false","73","","0.3090267326","main_expt","","0.3443296275","","0.4499554287","","0.2086164273","","","","","",""
"669","","bandit","149","1290470","0.0-111.0-0.0","01978017","wem/bandit_single","A3K7UC7LUKV0ZV","pain","7","","76","L","3","","0","1","0","","0.2226006448","false","74","","0.3400901674","main_expt","","0.3647916216","","0.4439780401","","0.2226006448","","","","","",""
"3397","","bandit","150","1295628","0.0-112.0-0.0","01978017","wem/bandit_single","A3K7UC7LUKV0ZV","pain","7","","76","L","3","","0","1","0","","0.2015377479","false","75","","0.3519214117","main_expt","","0.3531956798","","0.4332341766","","0.2015377479","","","","","",""
"1170","","bandit","151","1298556","0.0-113.0-0.0","01978017","wem/bandit_single","A3K7UC7LUKV0ZV","pain","7","","76","L","3","","0","1","0","","0.2614433548","false","76","","0.3621584499","main_expt","","0.3375826797","","0.4241516559","","0.2614433548","","","","","",""
"137","","bandit","152","1300451","0.0-114.0-0.0","01978017","wem/bandit_single","A3K7UC7LUKV0ZV","pain","7","","76","L","3","","0","0","1","","0.3216300101","false","77","","0.3919288513","main_expt","","0.3389323042","","0.404580079","","0.3216300101","","","","","",""
"132","","bandit","153","1302340","0.0-115.0-0.0","01978017","wem/bandit_single","A3K7UC7LUKV0ZV","pain","7","","76","L","3","","0","0","1","","0.3253900192","false","78","","0.3733142104","main_expt","","0.3633343286","","0.4291019186","","0.3253900192","","","","","",""
"1010","","bandit","154","1305108","0.0-116.0-0.0","01978017","wem/bandit_single","A3K7UC7LUKV0ZV","pain","7","","76","L","3","","0","0","1","","0.3253799771","false","79","","0.3594898906","main_expt","","0.35510173","","0.4431072694","","0.3253799771","","","","","",""
"264","","bandit","155","1307132","0.0-117.0-0.0","01978017","wem/bandit_single","A3K7UC7LUKV0ZV","pain","7","","76","L","3","","0","0","1","","0.321449248","false","80","","0.3740263767","main_expt","","0.3313699227","","0.4443251544","","0.321449248","","","","","",""
"131","","bandit","156","1309020","0.0-118.0-0.0","01978017","wem/bandit_single","A3K7UC7LUKV0ZV","pain","7","","74","J","1","","0","1","0","","0.3545786091","false","81","","0.4031190442","main_expt","","0.3545786091","","0.4222806544","","0.3644617874","","","","","",""
"64","","bandit","157","1310843","0.0-119.0-0.0","01978017","wem/bandit_single","A3K7UC7LUKV0ZV","pain","7","","74","J","1","","0","0","1","","0.36958943","false","82","","0.397551472","main_expt","","0.36958943","","0.4348184101","","0.3646727683","","","","","",""
"188","","bandit","158","1312789","0.0-120.0-0.0","01978017","wem/bandit_single","A3K7UC7LUKV0ZV","pain","7","","74","J","1","","0","0","1","","0.3818301908","false","83","","0.4251589807","main_expt","","0.3818301908","","0.4237956171","","0.3823543101","","","","","",""
"151","","bandit","159","1314546","0.0-121.0-0.0","01978017","wem/bandit_single","A3K7UC7LUKV0ZV","pain","7","","74","J","1","","0","1","0","","0.3841316884","false","84","","0.406460911","main_expt","","0.3841316884","","0.4255820551","","0.3927357351","","","","","",""
"99","","bandit","160","1316402","0.0-122.0-0.0","01978017","wem/bandit_single","A3K7UC7LUKV0ZV","pain","7","","74","J","1","","0","1","0","","0.3769873451","false","85","","0.4190094225","main_expt","","0.3769873451","","0.4407045426","","0.3242792488","","","","","",""
"36","","bandit","161","1318195","0.0-123.0-0.0","01978017","wem/bandit_single","A3K7UC7LUKV0ZV","pain","7","","74","J","1","","0","0","1","","0.3624331431","false","86","","0.4006115864","main_expt","","0.3624331431","","0.4276882268","","0.3257651096","","","","","",""
"57","","bandit","162","1320010","0.0-124.0-0.0","01978017","wem/bandit_single","A3K7UC7LUKV0ZV","pain","7","","74","J","1","","0","1","0","","0.356636023","false","87","","0.3761684651","main_expt","","0.356636023","","0.4430021271","","0.3768973447","","","","","",""
"75","","bandit","163","1321843","0.0-125.0-0.0","01978017","wem/bandit_single","A3K7UC7LUKV0ZV","pain","7","","74","J","1","","0","1","0","","0.392705536","false","88","","0.3935355307","main_expt","","0.392705536","","0.4259892117","","0.3333804566","","","","","",""
"51","","bandit","164","1323652","0.0-126.0-0.0","01978017","wem/bandit_single","A3K7UC7LUKV0ZV","pain","7","","74","J","1","","0","1","0","","0.39579544","false","89","","0.3870426381","main_expt","","0.39579544","","0.4451393147","","0.3326985542","","","","","",""
"58","","bandit","165","1325467","0.0-127.0-0.0","01978017","wem/bandit_single","A3K7UC7LUKV0ZV","pain","7","","74","J","1","","0","0","1","","0.3832348421","false","90","","0.3838573884","main_expt","","0.3832348421","","0.4450202473","","0.3392082427","","","","","",""
"1016","","bandit","166","1328244","0.0-128.0-0.0","01978017","wem/bandit_single","A3K7UC7LUKV0ZV","pain","7","","74","J","1","","0","0","1","","0.4009824957","false","91","","0.376063899","main_expt","","0.4009824957","","0.428726471","","0.2686139101","","","","","",""
"904","","bandit","167","1330906","0.0-129.0-0.0","01978017","wem/bandit_single","A3K7UC7LUKV0ZV","pain","7","","72","H","0","img/none_selected.jpg","0","1","0","","0.3877690924","false","92","","0.3877690924","main_expt","","0.360902971","","0.4207086611","","0.247120026","","","","","",""
"52","","bandit","168","1332714","0.0-130.0-0.0","01978017","wem/bandit_single","A3K7UC7LUKV0ZV","pain","7","","72","H","0","img/none_selected.jpg","0","0","1","","0.3832772702","false","93","","0.3832772702","main_expt","","0.4098322422","","0.4271109851","","0.1945967668","","","","","",""
"17","","bandit","169","1334491","0.0-131.0-0.0","01978017","wem/bandit_single","A3K7UC7LUKV0ZV","pain","7","","72","H","0","img/none_selected.jpg","0","0","1","","0.3569295009","false","94","","0.3569295009","main_expt","","0.365685068","","0.3988025755","","0.2059940606","","","","","",""
"42","","bandit","170","1336290","0.0-132.0-0.0","01978017","wem/bandit_single","A3K7UC7LUKV0ZV","pain","7","","72","H","0","img/none_selected.jpg","0","1","0","","0.3462427099","false","95","","0.3462427099","main_expt","","0.3246475432","","0.3413505888","","0.2276463074","","","","","",""
"33","","bandit","171","1338082","0.0-133.0-0.0","01978017","wem/bandit_single","A3K7UC7LUKV0ZV","pain","7","","72","H","0","img/none_selected.jpg","0","0","1","","0.2902370181","false","96","","0.2902370181","main_expt","","0.3155220288","","0.2791034264","","0.3088064785","","","","","",""
"73","","bandit","172","1339915","0.0-134.0-0.0","01978017","wem/bandit_single","A3K7UC7LUKV0ZV","pain","7","","72","H","0","img/none_selected.jpg","0","0","1","","0.2679909325","false","97","","0.2679909325","main_expt","","0.2920368253","","0.2300358144","","0.3167474357","","","","","",""
"43","","bandit","173","1341714","0.0-135.0-0.0","01978017","wem/bandit_single","A3K7UC7LUKV0ZV","pain","7","","72","H","0","img/none_selected.jpg","0","1","0","","0.1827708427","false","98","","0.1827708427","main_expt","","0.3060047135","","0.245913642","","0.3311058144","","","","","",""
"778","","bandit","174","1344251","0.0-136.0-0.0","01978017","wem/bandit_single","A3K7UC7LUKV0ZV","pain","7","","72","H","0","img/none_selected.jpg","0","0","1","","0.1847148603","false","99","","0.1847148603","main_expt","","0.2834300817","","0.1977736678","","0.2831383079","","","","","",""
"88","","bandit","175","1346099","0.0-137.0-0.0","01978017","wem/bandit_single","A3K7UC7LUKV0ZV","pain","7","","72","H","0","img/none_selected.jpg","0","0","1","","0.230590463","false","100","","0.230590463","main_expt","","0.3094748938","","0.2300987319","","0.2697282324","","","","","",""
"26","","bandit","176","1347882","0.0-138.0-0.0","01978017","wem/bandit_single","A3K7UC7LUKV0ZV","pain","7","","72","H","0","img/none_selected.jpg","0","0","1","","0.2036778932","false","101","","0.2036778932","main_expt","","0.2776834174","","0.2375929523","","0.2908511313","","","","","",""
"91","","bandit","177","1349730","0.0-139.0-0.0","01978017","wem/bandit_single","A3K7UC7LUKV0ZV","pain","7","","75","K","2","","0","1","0","","0.2034833152","false","102","","0.2146692458","main_expt","","0.2649828438","","0.2034833152","","0.3371086545","","","","","",""
"35","","bandit","178","1351523","0.0-140.0-0.0","01978017","wem/bandit_single","A3K7UC7LUKV0ZV","pain","7","","75","K","2","","0","0","1","","0.2510503681","false","103","","0.2194044235","main_expt","","0.1977849252","","0.2510503681","","0.2925399581","","","","","",""
"32","","bandit","179","1353314","0.0-141.0-0.0","01978017","wem/bandit_single","A3K7UC7LUKV0ZV","pain","7","","75","K","2","","0","0","1","","0.2563420723","false","104","","0.2869514305","main_expt","","0.164180841","","0.2563420723","","0.229866195","","","","","",""
"403","","bandit","180","1355475","0.0-142.0-0.0","01978017","wem/bandit_single","A3K7UC7LUKV0ZV","pain","7","","75","K","2","","0","0","1","","0.2025228913","false","105","","0.2577924419","main_expt","","0.1410880488","","0.2025228913","","0.2786648232","","","","","",""
"32","","bandit","181","1357267","0.0-143.0-0.0","01978017","wem/bandit_single","A3K7UC7LUKV0ZV","pain","7","","76","L","3","","0","0","1","","0.2907959635","false","106","","0.2984789445","main_expt","","0.2151151798","","0.2288818116","","0.2907959635","","","","","",""
"104","","bandit","182","1359130","0.0-144.0-0.0","01978017","wem/bandit_single","A3K7UC7LUKV0ZV","pain","7","","76","L","3","","0","1","0","","0.2934471614","false","107","","0.2483059356","main_expt","","0.2068678097","","0.2725684277","","0.2934471614","","","","","",""
"33","","bandit","183","1360922","0.0-145.0-0.0","01978017","wem/bandit_single","A3K7UC7LUKV0ZV","pain","7","","76","L","3","","0","0","1","","0.2761460559","false","108","","0.2177203031","main_expt","","0.1775779384","","0.2725367566","","0.2761460559","","","","","",""
"91","","bandit","184","1362770","0.0-146.0-0.0","01978017","wem/bandit_single","A3K7UC7LUKV0ZV","pain","7","","76","L","3","","0","1","0","","0.3154055318","false","109","","0.2155336726","main_expt","","0.1633907035","","0.2645412755","","0.3154055318","","","","","",""
"556","","bandit","185","1365082","0.0-147.0-0.0","01978017","wem/bandit_single","A3K7UC7LUKV0ZV","pain","7","","76","L","3","","0","1","0","","0.3375256398","false","110","","0.2012134729","main_expt","","0.1918139944","","0.2537238549","","0.3375256398","","","","","",""
"417","","bandit","186","1367259","0.0-148.0-0.0","01978017","wem/bandit_single","A3K7UC7LUKV0ZV","pain","7","","76","L","3","","0","0","1","","0.3575411602","false","111","","0.1362677005","main_expt","","0.1512725872","","0.2404930496","","0.3575411602","","","","","",""
"321","","bandit","187","1369341","0.0-149.0-0.0","01978017","wem/bandit_single","A3K7UC7LUKV0ZV","pain","7","","76","L","3","","0","0","1","","0.3357984678","false","112","","0.1146466799","main_expt","","0.1579322392","","0.2031918028","","0.3357984678","","","","","",""
"246","","bandit","188","1371346","0.0-150.0-0.0","01978017","wem/bandit_single","A3K7UC7LUKV0ZV","pain","7","","76","L","3","","0","1","0","","0.2950954247","false","113","","0.1503083978","main_expt","","0.1638150459","","0.2649243105","","0.2950954247","","","","","",""
"34","","bandit","189","1373137","0.0-151.0-0.0","01978017","wem/bandit_single","A3K7UC7LUKV0ZV","pain","7","","76","L","3","","0","1","0","","0.3242299597","false","114","","0.1750780752","main_expt","","0.1913716077","","0.2669290767","","0.3242299597","","","","","",""
"11","","bandit","190","1374836","0.0-152.0-0.0","01978017","wem/bandit_single","A3K7UC7LUKV0ZV","pain","7","","76","L","3","","0","1","0","","0.3224166769","false","115","","0.1486636943","main_expt","","0.1762938339","","0.2538219684","","0.3224166769","","","","","",""
"58","","bandit","191","1376651","0.0-153.0-0.0","01978017","wem/bandit_single","A3K7UC7LUKV0ZV","pain","7","","76","L","3","","0","0","1","","0.3512221687","false","116","","0.149377163","main_expt","","0.1696576366","","0.2987800907","","0.3512221687","","","","","",""
"35","","bandit","192","1378443","0.0-154.0-0.0","01978017","wem/bandit_single","A3K7UC7LUKV0ZV","pain","7","","76","L","3","","0","1","0","","0.3854596622","false","117","","0.1255156769","main_expt","","0.1743908607","","0.2863147972","","0.3854596622","","","","","",""
"50","","bandit","193","1380252","0.0-155.0-0.0","01978017","wem/bandit_single","A3K7UC7LUKV0ZV","pain","7","","76","L","3","","0","0","1","","0.3311459155","false","118","","0.09405737873","main_expt","","0.2187419408","","0.2863485017","","0.3311459155","","","","","",""
"49","","bandit","194","1382059","0.0-156.0-0.0","01978017","wem/bandit_single","A3K7UC7LUKV0ZV","pain","7","","76","L","3","","0","1","0","","0.3243143835","false","119","","0.0580133569","main_expt","","0.2602037773","","0.2704451175","","0.3243143835","","","","","",""
"201","","bandit","195","1384019","0.0-157.0-0.0","01978017","wem/bandit_single","A3K7UC7LUKV0ZV","pain","7","","76","L","3","","0","0","1","","0.3830596167","false","120","","0.04965982272","main_expt","","0.2665240463","","0.2545920365","","0.3830596167","","","","","",""
"105","","bandit","196","1385883","0.0-158.0-0.0","01978017","wem/bandit_single","A3K7UC7LUKV0ZV","pain","7","","76","L","3","","0","1","0","","0.4451194006","false","121","","0.05452098248","main_expt","","0.2300357123","","0.323502768","","0.4451194006","","","","","",""
"169","","bandit","197","1387811","0.0-159.0-0.0","01978017","wem/bandit_single","A3K7UC7LUKV0ZV","pain","7","","76","L","3","","0","1","0","","0.4636898934","false","122","","0.0475995955","main_expt","","0.2071140152","","0.3380353075","","0.4636898934","","","","","",""
"90","","bandit","198","1389658","0.0-160.0-0.0","01978017","wem/bandit_single","A3K7UC7LUKV0ZV","pain","7","","76","L","3","","0","1","0","","0.4384370655","false","123","","0.04799769062","main_expt","","0.2590656513","","0.341491638","","0.4384370655","","","","","",""
"114","","bandit","199","1391532","0.0-161.0-0.0","01978017","wem/bandit_single","A3K7UC7LUKV0ZV","pain","7","","76","L","3","","0","1","0","","0.456933673","false","124","","0.06454195205","main_expt","","0.2492473134","","0.3269941981","","0.456933673","","","","","",""
"1192","","bandit","200","1394483","0.0-162.0-0.0","01978017","wem/bandit_single","A3K7UC7LUKV0ZV","pain","7","","76","L","3","","0","0","1","","0.4834692703","false","125","","0.0570469748","main_expt","","0.2569957816","","0.3263020805","","0.4834692703","","","","","",""
"195","","bandit","201","1396435","0.0-163.0-0.0","01978017","wem/bandit_single","A3K7UC7LUKV0ZV","pain","7","","76","L","3","","0","1","0","","0.4895912119","false","126","","0.06214194377","main_expt","","0.2715808503","","0.3377655475","","0.4895912119","","","","","",""
"627","","bandit","202","1398819","0.0-164.0-0.0","01978017","wem/bandit_single","A3K7UC7LUKV0ZV","pain","7","","76","L","3","","0","1","0","","0.4791977258","false","127","","0.06219251386","main_expt","","0.3260406689","","0.3489319456","","0.4791977258","","","","","",""
"146","","bandit","203","1400723","0.0-165.0-0.0","01978017","wem/bandit_single","A3K7UC7LUKV0ZV","pain","7","","76","L","3","","0","1","0","","0.4772399827","false","128","","0.06192095676","main_expt","","0.3487232841","","0.3450526125","","0.4772399827","","","","","",""
"141","","bandit","204","1402621","0.0-166.0-0.0","01978017","wem/bandit_single","A3K7UC7LUKV0ZV","pain","7","","76","L","3","","0","0","1","","0.4688955373","false","129","","0.03846933599","main_expt","","0.3601162145","","0.3297424559","","0.4688955373","","","","","",""
"311","","bandit","205","1404690","0.0-167.0-0.0","01978017","wem/bandit_single","A3K7UC7LUKV0ZV","pain","7","","76","L","3","","0","0","1","","0.4651179545","false","130","","0.02330960587","main_expt","","0.4185413006","","0.3731420779","","0.4651179545","","","","","",""
"450","","bandit","206","1406898","0.0-168.0-0.0","01978017","wem/bandit_single","A3K7UC7LUKV0ZV","pain","7","","76","L","3","","0","1","0","","0.4794739162","false","131","","0.03495479357","main_expt","","0.4537663544","","0.325638262","","0.4794739162","","","","","",""
"450","","bandit","207","1409107","0.0-169.0-0.0","01978017","wem/bandit_single","A3K7UC7LUKV0ZV","pain","7","","76","L","3","","0","0","1","","0.4679846252","false","132","","0.02752519027","main_expt","","0.4489861829","","0.3132782049","","0.4679846252","","","","","",""
"179","","bandit","208","1411044","0.0-170.0-0.0","01978017","wem/bandit_single","A3K7UC7LUKV0ZV","pain","7","","76","L","3","","0","0","1","","0.4636487781","false","133","","0.03239645132","main_expt","","0.4465240103","","0.3552481716","","0.4636487781","","","","","",""
"466","","bandit","209","1413269","0.0-171.0-0.0","01978017","wem/bandit_single","A3K7UC7LUKV0ZV","pain","7","","74","J","1","","0","1","0","","0.4286255731","false","134","","0.02361228775","main_expt","","0.4286255731","","0.3478795997","","0.4578614037","","","","","",""
"358","","bandit","210","1415388","0.0-172.0-0.0","01978017","wem/bandit_single","A3K7UC7LUKV0ZV","pain","7","","74","J","1","","0","0","1","","0.3969320342","false","135","","0.01378345967","main_expt","","0.3969320342","","0.3394088604","","0.4339873336","","","","","",""
"199","","bandit","211","1417347","0.0-173.0-0.0","01978017","wem/bandit_single","A3K7UC7LUKV0ZV","pain","7","","74","J","1","","0","1","0","","0.3975573163","false","136","","0.01349892684","main_expt","","0.3975573163","","0.3739095734","","0.4091277288","","","","","",""
"1137","","bandit","212","1420244","0.0-174.0-0.0","01978017","wem/bandit_single","A3K7UC7LUKV0ZV","pain","7","","74","J","1","","0","0","1","","0.4226438881","false","137","","0.01373747566","main_expt","","0.4226438881","","0.3319731639","","0.4024864596","","","","","",""
"1135","","bandit","213","1423138","0.0-175.0-0.0","01978017","wem/bandit_single","A3K7UC7LUKV0ZV","pain","7","","74","J","1","","0","0","1","","0.383622376","false","138","","0.009346923256","main_expt","","0.383622376","","0.3427854578","","0.3793932322","","","","","",""
"1036","","bandit","214","1425931","0.0-176.0-0.0","01978017","wem/bandit_single","A3K7UC7LUKV0ZV","pain","7","","72","H","0","img/none_selected.jpg","0","0","1","","0.005947695369","false","139","","0.005947695369","main_expt","","0.3892077266","","0.2804250852","","0.3940691536","","","","","",""
"1729","","bandit","215","1429419","0.0-177.0-0.0","01978017","wem/bandit_single","A3K7UC7LUKV0ZV","pain","7","","72","H","0","img/none_selected.jpg","0","0","1","","0.003062149202","false","140","","0.003062149202","main_expt","","0.3721285976","","0.294489168","","0.3878174143","","","","","",""
"49","","bandit","216","1431227","0.0-178.0-0.0","01978017","wem/bandit_single","A3K7UC7LUKV0ZV","pain","7","","72","H","0","img/none_selected.jpg","0","0","1","","0.003723800288","false","141","","0.003723800288","main_expt","","0.403063379","","0.2849233321","","0.3671315422","","","","","",""
"26","","bandit","217","1433010","0.0-179.0-0.0","01978017","wem/bandit_single","A3K7UC7LUKV0ZV","pain","7","","72","H","0","img/none_selected.jpg","0","0","1","","0.003048460602","false","142","","0.003048460602","main_expt","","0.3916907223","","0.2605380125","","0.338830911","","","","","",""
"449","","bandit","218","1435149","0.0-180.0-0.0","01978017","wem/bandit_single","A3K7UC7LUKV0ZV","pain","7","","72","H","0","img/none_selected.jpg","0","0","1","","0.002664125267","false","143","","0.002664125267","main_expt","","0.4212357341","","0.3030740536","","0.2709557481","","","","","",""
"635","","bandit","219","1437542","0.0-181.0-0.0","01978017","wem/bandit_single","A3K7UC7LUKV0ZV","pain","7","","72","H","0","img/none_selected.jpg","0","0","1","","0.0015633636","false","144","","0.0015633636","main_expt","","0.3944164323","","0.29766321","","0.249986241","","","","","",""
"145","","bandit","220","1439447","0.0-182.0-0.0","01978017","wem/bandit_single","A3K7UC7LUKV0ZV","pain","7","","74","J","1","","0","0","1","","0.4129391908","false","145","","0.002084593646","main_expt","","0.4129391908","","0.2862291296","","0.2694710106","","","","","",""
"31","","bandit","221","1441238","0.0-183.0-0.0","01978017","wem/bandit_single","A3K7UC7LUKV0ZV","pain","7","","74","J","1","","0","1","0","","0.4027876266","false","146","","0.0008356934022","main_expt","","0.4027876266","","0.3151642481","","0.3099728414","","","","","",""
"16","","bandit","222","1443014","0.0-184.0-0.0","01978017","wem/bandit_single","A3K7UC7LUKV0ZV","pain","7","","74","J","1","","0","0","1","","0.3906291495","false","147","","0.00187417998","main_expt","","0.3906291495","","0.3261334855","","0.3010760093","","","","","",""
"40","","bandit","223","1444814","0.0-185.0-0.0","01978017","wem/bandit_single","A3K7UC7LUKV0ZV","pain","7","","74","J","1","","0","0","1","","0.3718958907","false","148","","0.001549413081","main_expt","","0.3718958907","","0.3605999671","","0.2861733563","","","","","",""
"522","","bandit","224","1447093","0.0-186.0-0.0","01978017","wem/bandit_single","A3K7UC7LUKV0ZV","pain","7","","74","J","1","","0","1","0","","0.3513552953","false","149","","0.002318569837","main_expt","","0.3513552953","","0.3848975894","","0.2613296644","","","","","",""
"221","","bandit","225","1449073","0.0-187.0-0.0","01978017","wem/bandit_single","A3K7UC7LUKV0ZV","pain","7","","74","J","1","","0","1","0","","0.3796712552","false","150","","0.002401941109","main_expt","","0.3796712552","","0.3680345664","","0.2955554784","","","","","",""
"278","","bandit","226","1451110","0.0-188.0-0.0","01978017","wem/bandit_single","A3K7UC7LUKV0ZV","pain","7","","74","J","1","","0","1","0","","0.4275550045","false","151","","0.002416650241","main_expt","","0.4275550045","","0.3517559312","","0.2928365899","","","","","",""
"105","","bandit","227","1452973","0.0-189.0-0.0","01978017","wem/bandit_single","A3K7UC7LUKV0ZV","pain","7","","74","J","1","","0","0","1","","0.4266807854","false","152","","0.002533271813","main_expt","","0.4266807854","","0.3963282571","","0.3000067833","","","","","",""
"50","","bandit","228","1454781","0.0-190.0-0.0","01978017","wem/bandit_single","A3K7UC7LUKV0ZV","pain","7","","74","J","1","","0","1","0","","0.4633151701","false","153","","0.00322942279","main_expt","","0.4633151701","","0.432842039","","0.2757802357","","","","","",""
"187","","bandit","229","1456725","0.0-191.0-0.0","01978017","wem/bandit_single","A3K7UC7LUKV0ZV","pain","7","","74","J","1","","0","0","1","","0.4723469507","false","154","","0.003404333974","main_expt","","0.4723469507","","0.4134551824","","0.3252288772","","","","","",""
"34","","bandit","230","1458517","0.0-192.0-0.0","01978017","wem/bandit_single","A3K7UC7LUKV0ZV","pain","7","","74","J","1","","0","0","1","","0.4829251431","false","155","","0.008925030754","main_expt","","0.4829251431","","0.426737857","","0.2746928085","","","","","",""
"331","","bandit","231","1460605","0.0-193.0-0.0","01978017","wem/bandit_single","A3K7UC7LUKV0ZV","pain","7","","75","K","2","","0","1","0","","0.4289541051","false","156","","0.005317619152","main_expt","","0.4753947098","","0.4289541051","","0.2881451241","","","","","",""
"483","","bandit","232","1462846","0.0-194.0-0.0","01978017","wem/bandit_single","A3K7UC7LUKV0ZV","pain","7","","75","K","2","","0","0","1","","0.4593738684","false","157","","0.002657446392","main_expt","","0.4686295074","","0.4593738684","","0.2861132768","","","","","",""
"97","","bandit","233","1464702","0.0-195.0-0.0","01978017","wem/bandit_single","A3K7UC7LUKV0ZV","pain","7","","75","K","2","","0","1","0","","0.4716769587","false","158","","0.005349678466","main_expt","","0.4746137902","","0.4716769587","","0.2382703247","","","","","",""
"266","","bandit","234","1466726","0.0-196.0-0.0","01978017","wem/bandit_single","A3K7UC7LUKV0ZV","pain","7","","75","K","2","","0","1","0","","0.4566829936","false","159","","0.00353293949","main_expt","","0.4626257703","","0.4566829936","","0.2650616746","","","","","",""
"89","","bandit","235","1468573","0.0-197.0-0.0","01978017","wem/bandit_single","A3K7UC7LUKV0ZV","pain","7","","75","K","2","","0","0","1","","0.4684401337","false","160","","0.004525880368","main_expt","","0.4690497323","","0.4684401337","","0.2841227011","","","","","",""
"67","","bandit","236","1470398","0.0-198.0-0.0","01978017","wem/bandit_single","A3K7UC7LUKV0ZV","pain","7","","75","K","2","","0","0","1","","0.4327192474","false","161","","0.00364468733","main_expt","","0.4605728382","","0.4327192474","","0.3103310899","","","","","",""
"257","","bandit","237","1472413","0.0-199.0-0.0","01978017","wem/bandit_single","A3K7UC7LUKV0ZV","pain","7","","75","K","2","","0","1","0","","0.4158578039","false","162","","0.004567203872","main_expt","","0.4663204896","","0.4158578039","","0.2990864795","","","","","",""
"122","","bandit","238","1474293","0.0-200.0-0.0","01978017","wem/bandit_single","A3K7UC7LUKV0ZV","pain","7","","75","K","2","","0","1","0","","0.4206849782","false","163","","0.003538815","main_expt","","0.4626626357","","0.4206849782","","0.2650304997","","","","","",""
"482","","bandit","239","1476533","0.0-201.0-0.0","01978017","wem/bandit_single","A3K7UC7LUKV0ZV","pain","7","","75","K","2","","0","0","1","","0.4276923589","false","164","","0.002896615325","main_expt","","0.4672680551","","0.4276923589","","0.2877519924","","","","","",""
"138","","bandit","240","1478429","0.0-202.0-0.0","01978017","wem/bandit_single","A3K7UC7LUKV0ZV","pain","7","","75","K","2","","0","0","1","","0.4204466813","false","165","","0.004500484281","main_expt","","0.455015491","","0.4204466813","","0.2818109827","","","","","",""
"643","","bandit","241","1480832","0.0-203.0-0.0","01978017","wem/bandit_single","A3K7UC7LUKV0ZV","pain","7","","76","L","3","","0","0","1","","0.324785045","false","166","","0.01017739848","main_expt","","0.4201800218","","0.4229734844","","0.324785045","","","","","",""
"1287","","bandit","242","1483877","0.0-204.0-0.0","01978017","wem/bandit_single","A3K7UC7LUKV0ZV","pain","7","","76","L","3","","0","0","1","","0.3339304688","false","167","","0.0129517719","main_expt","","0.4430085171","","0.4474449943","","0.3339304688","","","","","",""
"696","","bandit","243","1486333","0.0-205.0-0.0","01978017","wem/bandit_single","A3K7UC7LUKV0ZV","pain","7","","76","L","3","","0","1","0","","0.3351003476","false","168","","0.009045291763","main_expt","","0.4526671473","","0.4458086367","","0.3351003476","","","","","",""
"170","","bandit","244","1488261","0.0-206.0-0.0","01978017","wem/bandit_single","A3K7UC7LUKV0ZV","pain","7","","76","L","3","","0","0","1","","0.3556935824","false","169","","0.01553154223","main_expt","","0.4477525289","","0.4619433307","","0.3556935824","","","","","",""
"720","","bandit","245","1490741","0.0-207.0-0.0","01978017","wem/bandit_single","A3K7UC7LUKV0ZV","pain","7","","76","L","3","","0","0","1","","0.3690608098","false","170","","0.01787531072","main_expt","","0.41154262","","0.4703570947","","0.3690608098","","","","","",""
"708","","bandit","246","1493206","0.0-208.0-0.0","01978017","wem/bandit_single","A3K7UC7LUKV0ZV","pain","7","","76","L","3","","0","0","1","","0.3631266209","false","171","","0.01316551092","main_expt","","0.37868858","","0.474742395","","0.3631266209","","","","","",""
"215","","bandit","247","1495113","0.0-209.0-0.0","01978017","wem/bandit_single","A3K7UC7LUKV0ZV","pain","7","","76","L","3","","0","1","0","","0.3392191481","false","172","","0.0172037691","main_expt","","0.3971498268","","0.4773845315","","0.3392191481","","","","","",""
"318","","bandit","248","1497193","0.0-210.0-0.0","01978017","wem/bandit_single","A3K7UC7LUKV0ZV","pain","7","","76","L","3","","0","0","1","","0.2931772585","false","173","","0.01427011775","main_expt","","0.4319579383","","0.4680058345","","0.2931772585","","","","","",""
"182","","bandit","249","1499136","0.0-211.0-0.0","01978017","wem/bandit_single","A3K7UC7LUKV0ZV","pain","7","","76","L","3","","0","0","1","","0.2750831853","false","174","","0.01057019218","main_expt","","0.4174714043","","0.4561145842","","0.2750831853","","","","","",""
"153","","bandit","250","1501049","0.0-212.0-0.0","01978017","wem/bandit_single","A3K7UC7LUKV0ZV","pain","7","","76","L","3","","0","0","1","","0.2997345097","false","175","","0.007255369755","main_expt","","0.3846013355","","0.472279608","","0.2997345097","","","","","",""
"151","","bandit","251","1502961","0.0-213.0-0.0","01978017","wem/bandit_single","A3K7UC7LUKV0ZV","pain","7","","76","L","3","","0","0","1","","0.3402413884","false","176","","0.01305273867","main_expt","","0.4019342833","","0.4602447812","","0.3402413884","","","","","",""
"82","","bandit","252","1504801","0.0-214.0-0.0","01978017","wem/bandit_single","A3K7UC7LUKV0ZV","pain","7","","74","J","1","","0","1","0","","0.4211485366","false","177","","0.0133150908","main_expt","","0.4211485366","","0.4343313091","","0.3099882557","","","","","",""
"241","","bandit","253","1506800","0.0-215.0-0.0","01978017","wem/bandit_single","A3K7UC7LUKV0ZV","pain","7","","74","J","1","","0","0","1","","0.4133977621","false","178","","0.01259822705","main_expt","","0.4133977621","","0.4048428007","","0.2761175095","","","","","",""
"137","","bandit","254","1508696","0.0-216.0-0.0","01978017","wem/bandit_single","A3K7UC7LUKV0ZV","pain","7","","74","J","1","","0","1","0","","0.4395013083","false","179","","0.008971211221","main_expt","","0.4395013083","","0.3826353834","","0.3053987856","","","","","",""
"641","","bandit","255","1511095","0.0-217.0-0.0","01978017","wem/bandit_single","A3K7UC7LUKV0ZV","pain","7","","74","J","1","","0","0","1","","0.4385200931","false","180","","0.01053614943","main_expt","","0.4385200931","","0.3352628501","","0.291880519","","","","","",""
"178","","bandit","256","1513031","0.0-218.0-0.0","01978017","wem/bandit_single","A3K7UC7LUKV0ZV","pain","7","","74","J","1","","0","0","1","","0.4225113135","false","181","","0.01184041186","main_expt","","0.4225113135","","0.2990499081","","0.298429346","","","","","",""
"836","","bandit","257","1515625","0.0-219.0-0.0","01978017","wem/bandit_single","A3K7UC7LUKV0ZV","pain","7","","74","J","1","","0","0","1","","0.3723799893","false","182","","0.03042574256","main_expt","","0.3723799893","","0.3698835663","","0.3343264324","","","","","",""
"386","","bandit","258","1517769","0.0-220.0-0.0","01978017","wem/bandit_single","A3K7UC7LUKV0ZV","pain","7","","74","J","1","","0","0","1","","0.3790924375","false","183","","0.03286829004","main_expt","","0.3790924375","","0.3849917371","","0.2890729732","","","","","",""
"48","","bandit","259","1519577","0.0-221.0-0.0","01978017","wem/bandit_single","A3K7UC7LUKV0ZV","pain","7","","75","K","2","","0","1","0","","0.3560661239","false","184","","0.05565884368","main_expt","","0.4122006093","","0.3560661239","","0.1975841231","","","","","",""
"151","","bandit","260","1521488","0.0-222.0-0.0","01978017","wem/bandit_single","A3K7UC7LUKV0ZV","pain","7","","75","K","2","","0","0","1","","0.3637043243","false","185","","0.05703602855","main_expt","","0.3681720139","","0.3637043243","","0.213981158","","","","","",""
"82","","bandit","261","1523328","0.0-223.0-0.0","01978017","wem/bandit_single","A3K7UC7LUKV0ZV","pain","7","","75","K","2","","0","1","0","","0.370254809","false","186","","0.08167625523","main_expt","","0.3735732413","","0.370254809","","0.1690135127","","","","","",""
"185","","bandit","262","1525271","0.0-224.0-0.0","01978017","wem/bandit_single","A3K7UC7LUKV0ZV","pain","7","","75","K","2","","0","0","1","","0.3451477914","false","187","","0.08146612985","main_expt","","0.3763431734","","0.3451477914","","0.2606776113","","","","","",""
"136","","bandit","263","1527169","0.0-225.0-0.0","01978017","wem/bandit_single","A3K7UC7LUKV0ZV","pain","7","","75","K","2","","0","0","1","","0.3939300048","false","188","","0.09365986726","main_expt","","0.3515668436","","0.3939300048","","0.2431197375","","","","","",""
"615","","bandit","264","1529545","0.0-226.0-0.0","01978017","wem/bandit_single","A3K7UC7LUKV0ZV","pain","7","","75","K","2","","0","0","1","","0.4136030152","false","189","","0.09268069957","main_expt","","0.3343836861","","0.4136030152","","0.2308206277","","","","","",""
"37","","bandit","265","1531345","0.0-227.0-0.0","01978017","wem/bandit_single","A3K7UC7LUKV0ZV","pain","7","","75","K","2","","0","1","0","","0.4261376259","false","190","","0.08594859785","main_expt","","0.2525345787","","0.4261376259","","0.2025271702","","","","","",""
"30","","bandit","266","1533138","0.0-228.0-0.0","01978017","wem/bandit_single","A3K7UC7LUKV0ZV","pain","7","","75","K","2","","0","1","0","","0.3908696756","false","191","","0.08932588753","main_expt","","0.2685183708","","0.3908696756","","0.2751540988","","","","","",""
"230","","bandit","267","1535128","0.0-229.0-0.0","01978017","wem/bandit_single","A3K7UC7LUKV0ZV","pain","7","","75","K","2","","0","0","1","","0.4106222578","false","192","","0.1064261942","main_expt","","0.2572514827","","0.4106222578","","0.2569606715","","","","","",""
"9","","bandit","268","1536896","0.0-230.0-0.0","01978017","wem/bandit_single","A3K7UC7LUKV0ZV","pain","7","","75","K","2","","0","1","0","","0.4282135821","false","193","","0.1536879749","main_expt","","0.1969756064","","0.4282135821","","0.2874900681","","","","","",""
"243","","bandit","269","1538898","0.0-231.0-0.0","01978017","wem/bandit_single","A3K7UC7LUKV0ZV","pain","7","","75","K","2","","0","1","0","","0.4423695223","false","194","","0.1389913839","main_expt","","0.2134952627","","0.4423695223","","0.1735349233","","","","","",""
"102","","bandit","270","1540759","0.0-232.0-0.0","01978017","wem/bandit_single","A3K7UC7LUKV0ZV","pain","7","","75","K","2","","0","1","0","","0.4594299266","false","195","","0.1439418744","main_expt","","0.1620875807","","0.4594299266","","0.1922880567","","","","","",""
"426","","bandit","271","1542944","0.0-233.0-0.0","01978017","wem/bandit_single","A3K7UC7LUKV0ZV","pain","7","","75","K","2","","0","1","0","","0.4446405127","false","196","","0.131143091","main_expt","","0.166822232","","0.4446405127","","0.180833075","","","","","",""
"1048","","bandit","272","1545752","0.0-234.0-0.0","01978017","wem/bandit_single","A3K7UC7LUKV0ZV","pain","7","","75","K","2","","0","0","1","","0.4559667881","false","197","","0.1358316141","main_expt","","0.1951417713","","0.4559667881","","0.2213655201","","","","","",""
"273","","bandit","273","1547783","0.0-235.0-0.0","01978017","wem/bandit_single","A3K7UC7LUKV0ZV","pain","7","","75","K","2","","0","0","1","","0.4760465659","false","198","","0.1271866158","main_expt","","0.1946571809","","0.4760465659","","0.1886922679","","","","","",""
"67","","bandit","274","1549610","0.0-236.0-0.0","01978017","wem/bandit_single","A3K7UC7LUKV0ZV","pain","7","","75","K","2","","0","1","0","","0.4682530898","false","199","","0.1427164763","main_expt","","0.125569753","","0.4682530898","","0.1960792333","","","","","",""
"430","","bandit","275","1551800","0.0-237.0-0.0","01978017","wem/bandit_single","A3K7UC7LUKV0ZV","pain","7","","75","K","2","","0","1","0","","0.4722721777","false","200","","0.1465126473","main_expt","","0.110010897","","0.4722721777","","0.2093645874","","","","","",""
"305","","bandit","276","1553864","0.0-238.0-0.0","01978017","wem/bandit_single","A3K7UC7LUKV0ZV","pain","7","","75","K","2","","0","1","0","","0.4739800601","false","201","","0.1271257608","main_expt","","0.1280762957","","0.4739800601","","0.1673165995","","","","","",""
"63","","bandit","277","1555617","0.0-239.0-0.0","01978017","wem/bandit_single","A3K7UC7LUKV0ZV","pain","7","","75","K","2","","0","0","1","","0.479726886","false","202","","0.08657179739","main_expt","","0.1402913484","","0.479726886","","0.2086438453","","","","","",""
"234","","bandit","278","1557609","0.0-240.0-0.0","01978017","wem/bandit_single","A3K7UC7LUKV0ZV","pain","7","","75","K","2","","0","1","0","","0.4642372742","false","203","","0.09313456927","main_expt","","0.2217412738","","0.4642372742","","0.1973992815","","","","","",""
"530","","bandit","279","1559898","0.0-241.0-0.0","01978017","wem/bandit_single","A3K7UC7LUKV0ZV","pain","7","","75","K","2","","0","0","1","","0.4560882558","false","204","","0.1497906572","main_expt","","0.2231628045","","0.4560882558","","0.2256674954","","","","","",""
"326","","bandit","280","1561985","0.0-242.0-0.0","01978017","wem/bandit_single","A3K7UC7LUKV0ZV","pain","7","","75","K","2","","0","1","0","","0.4525737262","false","205","","0.1829644856","main_expt","","0.2170181201","","0.4525737262","","0.2163874892","","","","","",""
"123","","bandit","281","1563873","0.0-243.0-0.0","01978017","wem/bandit_single","A3K7UC7LUKV0ZV","pain","7","","75","K","2","","0","1","0","","0.4550624295","false","206","","0.1612057882","main_expt","","0.2796725078","","0.4550624295","","0.2197086186","","","","","",""
"182","","bandit","282","1565817","0.0-244.0-0.0","01978017","wem/bandit_single","A3K7UC7LUKV0ZV","pain","7","","75","K","2","","0","1","0","","0.4723612306","false","207","","0.1697938272","main_expt","","0.2817680811","","0.4723612306","","0.2065154411","","","","","",""
"31","","bandit","283","1567609","0.0-245.0-0.0","01978017","wem/bandit_single","A3K7UC7LUKV0ZV","pain","7","","75","K","2","","0","0","1","","0.4766034411","false","208","","0.1559958766","main_expt","","0.2823403198","","0.4766034411","","0.1685179651","","","","","",""
"411","","bandit","284","1569778","0.0-246.0-0.0","01978017","wem/bandit_single","A3K7UC7LUKV0ZV","pain","7","","75","K","2","","0","1","0","","0.483515399","false","209","","0.1446830505","main_expt","","0.3618902866","","0.483515399","","0.138461816","","","","","",""
"432","","bandit","285","1571971","0.0-247.0-0.0","01978017","wem/bandit_single","A3K7UC7LUKV0ZV","pain","7","","75","K","2","","0","0","1","","0.4880418707","false","210","","0.1231196185","main_expt","","0.373554641","","0.4880418707","","0.1494322788","","","","","",""
"493","","bandit","286","1574225","0.0-248.0-0.0","01978017","wem/bandit_single","A3K7UC7LUKV0ZV","pain","7","","74","J","1","","0","0","1","","0.4160488284","false","211","","0.1456244431","main_expt","","0.4160488284","","0.4802592994","","0.1799359977","","","","","",""
"153","","bandit","287","1576137","0.0-249.0-0.0","01978017","wem/bandit_single","A3K7UC7LUKV0ZV","pain","7","","74","J","1","","0","1","0","","0.381710399","false","212","","0.1656867557","main_expt","","0.381710399","","0.4738887763","","0.1810857181","","","","","",""
"136","","bandit","288","1578032","0.0-250.0-0.0","01978017","wem/bandit_single","A3K7UC7LUKV0ZV","pain","7","","74","J","1","","0","0","1","","0.3769148707","false","213","","0.224977978","main_expt","","0.3769148707","","0.4808850683","","0.1615137558","","","","","",""
"328","","bandit","289","1580120","0.0-251.0-0.0","01978017","wem/bandit_single","A3K7UC7LUKV0ZV","pain","7","","74","J","1","","0","1","0","","0.3476207329","false","214","","0.307554285","main_expt","","0.3476207329","","0.4825694391","","0.1650702933","","","","","",""
"210","","bandit","290","1582089","0.0-252.0-0.0","01978017","wem/bandit_single","A3K7UC7LUKV0ZV","pain","7","","74","J","1","","0","0","1","","0.3089741626","false","215","","0.3638187162","main_expt","","0.3089741626","","0.4847107186","","0.1804791034","","","","","",""
"143","","bandit","291","1583994","0.0-253.0-0.0","01978017","wem/bandit_single","A3K7UC7LUKV0ZV","pain","7","","74","J","1","","0","1","0","","0.3674618518","false","216","","0.3543809852","main_expt","","0.3674618518","","0.4809007894","","0.1573161505","","","","","",""
"559","","bandit","292","1586314","0.0-254.0-0.0","01978017","wem/bandit_single","A3K7UC7LUKV0ZV","pain","7","","74","J","1","","0","0","1","","0.3283657719","false","217","","0.3301156576","main_expt","","0.3283657719","","0.4741770765","","0.1434716653","","","","","",""
"79","","bandit","293","1588153","0.0-255.0-0.0","01978017","wem/bandit_single","A3K7UC7LUKV0ZV","pain","7","","74","J","1","","0","0","1","","0.3302734852","false","218","","0.3132999057","main_expt","","0.3302734852","","0.4819245576","","0.1911838451","","","","","",""
"301","","bandit","294","1590216","0.0-256.0-0.0","01978017","wem/bandit_single","A3K7UC7LUKV0ZV","pain","7","","74","J","1","","0","1","0","","0.3554571327","false","219","","0.2205266592","main_expt","","0.3554571327","","0.4793241995","","0.1441129831","","","","","",""
"491","","bandit","295","1592467","0.0-257.0-0.0","01978017","wem/bandit_single","A3K7UC7LUKV0ZV","pain","7","","74","J","1","","0","0","1","","0.319330444","false","220","","0.2167078271","main_expt","","0.319330444","","0.4713672071","","0.1920309772","","","","","",""
"120","","bandit","296","1594345","0.0-258.0-0.0","01978017","wem/bandit_single","A3K7UC7LUKV0ZV","pain","7","","74","J","1","","0","0","1","","0.3105046037","false","221","","0.2038989409","main_expt","","0.3105046037","","0.4728071858","","0.1770810464","","","","","",""
"342","","bandit","297","1596448","0.0-259.0-0.0","01978017","wem/bandit_single","A3K7UC7LUKV0ZV","pain","7","","72","H","0","img/none_selected.jpg","0","0","1","","0.18760722","false","222","","0.18760722","main_expt","","0.2971369975","","0.4742115633","","0.1726735039","","","","","",""
"193","","bandit","298","1598400","0.0-260.0-0.0","01978017","wem/bandit_single","A3K7UC7LUKV0ZV","pain","7","","72","H","0","img/none_selected.jpg","0","1","0","","0.1794058889","false","223","","0.1794058889","main_expt","","0.2924153056","","0.4606319974","","0.1935596247","","","","","",""
"866","","bandit","299","1601025","0.0-261.0-0.0","01978017","wem/bandit_single","A3K7UC7LUKV0ZV","pain","7","","72","H","0","img/none_selected.jpg","0","1","0","","0.1973287288","false","224","","0.1973287288","main_expt","","0.3251713444","","0.4796626282","","0.184290804","","","","","",""
"883","","bandit","300","1603666","0.0-262.0-0.0","01978017","wem/bandit_single","A3K7UC7LUKV0ZV","pain","7","","72","H","0","img/none_selected.jpg","0","0","1","","0.1657141015","false","225","","0.1657141015","main_expt","","0.3191667618","","0.4770938662","","0.1182631535","","","","","",""
"928","","bandit","301","1606353","0.0-263.0-0.0","01978017","wem/bandit_single","A3K7UC7LUKV0ZV","pain","7","","72","H","0","img/none_selected.jpg","0","0","1","","0.1333985498","false","226","","0.1333985498","main_expt","","0.3163975521","","0.4753940461","","0.1243406576","","","","","",""
"240","","bandit","302","1608352","0.0-264.0-0.0","01978017","wem/bandit_single","A3K7UC7LUKV0ZV","pain","7","","72","H","0","img/none_selected.jpg","0","0","1","","0.1426718429","false","227","","0.1426718429","main_expt","","0.3153023093","","0.4692559414","","0.1887705619","","","","","",""
"711","","bandit","303","1610824","0.0-265.0-0.0","01978017","wem/bandit_single","A3K7UC7LUKV0ZV","pain","7","","72","H","0","img/none_selected.jpg","0","0","1","","0.1510234048","false","228","","0.1510234048","main_expt","","0.252814401","","0.4549715312","","0.1594511678","","","","","",""
"55","","bandit","304","1612640","0.0-266.0-0.0","01978017","wem/bandit_single","A3K7UC7LUKV0ZV","pain","7","","74","J","1","","0","0","1","","0.2830586582","false","229","","0.1786638104","main_expt","","0.2830586582","","0.4818432606","","0.1582092687","","","","","",""
"162","","bandit","305","1614561","0.0-267.0-0.0","01978017","wem/bandit_single","A3K7UC7LUKV0ZV","pain","7","","74","J","1","","0","0","1","","0.2124451555","false","230","","0.1564383184","main_expt","","0.2124451555","","0.4542350274","","0.149178519","","","","","",""
"100","","bandit","306","1616370","0.0-268.0-0.0","01978017","wem/bandit_single","A3K7UC7LUKV0ZV","pain","7","","75","K","2","","0","1","0","","0.4646494747","false","231","","0.1398607303","main_expt","","0.1175217461","","0.4646494747","","0.2063022429","","","","","",""
"1866","","bandit","307","1619994","0.0-269.0-0.0","01978017","wem/bandit_single","A3K7UC7LUKV0ZV","pain","7","","75","K","2","","0","0","1","","0.4617677548","false","232","","0.1323980205","main_expt","","0.144677577","","0.4617677548","","0.2424934828","","","","","",""
"248","","bandit","308","1622003","0.0-270.0-0.0","01978017","wem/bandit_single","A3K7UC7LUKV0ZV","pain","7","","75","K","2","","0","0","1","","0.4535872836","false","233","","0.1510374747","main_expt","","0.1555092754","","0.4535872836","","0.2404462099","","","","","",""
"704","","bandit","309","1624466","0.0-271.0-0.0","01978017","wem/bandit_single","A3K7UC7LUKV0ZV","pain","7","","76","L","3","","0","1","0","","0.1830028502","false","234","","0.133247495","main_expt","","0.1250762939","","0.4297764401","","0.1830028502","","","","","",""
"372","","bandit","310","1626596","0.0-272.0-0.0","01978017","wem/bandit_single","A3K7UC7LUKV0ZV","pain","7","","76","L","3","","0","1","0","","0.2197419317","false","235","","0.1666928205","main_expt","","0.1094925358","","0.4335441617","","0.2197419317","","","","","",""
"447","","bandit","311","1628802","0.0-273.0-0.0","01978017","wem/bandit_single","A3K7UC7LUKV0ZV","pain","7","","75","K","2","","0","0","1","","0.4390497594","false","236","","0.1772374327","main_expt","","0.09099935704","","0.4390497594","","0.2537285896","","","","","",""
"360","","bandit","312","1630923","0.0-274.0-0.0","01978017","wem/bandit_single","A3K7UC7LUKV0ZV","pain","7","","75","K","2","","0","0","1","","0.4557250369","false","237","","0.2093850131","main_expt","","0.07445530481","","0.4557250369","","0.2967198922","","","","","",""
"1740","","bandit","313","1634426","0.0-275.0-0.0","01978017","wem/bandit_single","A3K7UC7LUKV0ZV","pain","7","","75","K","2","","0","1","0","","0.4712934341","false","238","","0.2323540058","main_expt","","0.1160826651","","0.4712934341","","0.2716881628","","","","","",""
"930","","bandit","314","1637117","0.0-276.0-0.0","01978017","wem/bandit_single","A3K7UC7LUKV0ZV","pain","7","","75","K","2","","0","0","1","","0.4744109467","false","239","","0.2527052166","main_expt","","0.1935594103","","0.4744109467","","0.2840113657","","","","","",""
"157","","bandit","315","1639035","0.0-277.0-0.0","01978017","wem/bandit_single","A3K7UC7LUKV0ZV","pain","7","","76","L","3","","0","1","0","","0.3274134878","false","240","","0.2429338356","main_expt","","0.2305108235","","0.4856904038","","0.3274134878","","","","","",""
"68","","bandit","316","1640866","0.0-278.0-0.0","01978017","wem/bandit_single","A3K7UC7LUKV0ZV","pain","7","","76","L","3","","0","1","0","","0.3106351565","false","241","","0.2422046893","main_expt","","0.23744922","","0.474377245","","0.3106351565","","","","","",""
"82","","bandit","317","1642706","0.0-279.0-0.0","01978017","wem/bandit_single","A3K7UC7LUKV0ZV","pain","7","","76","L","3","","0","0","1","","0.276301991","false","242","","0.1974588069","main_expt","","0.2644088126","","0.4699498903","","0.276301991","","","","","",""
"792","","bandit","318","1645258","0.0-280.0-0.0","01978017","wem/bandit_single","A3K7UC7LUKV0ZV","pain","7","","76","L","3","","0","0","1","","0.2682550828","false","243","","0.1697106736","main_expt","","0.3029471314","","0.4696131401","","0.2682550828","","","","","",""
"623","","bandit","319","1647643","0.0-281.0-0.0","01978017","wem/bandit_single","A3K7UC7LUKV0ZV","pain","7","","76","L","3","","0","0","1","","0.2717267912","false","244","","0.1495066821","main_expt","","0.2869027424","","0.4519085084","","0.2717267912","","","","","",""
"1008","","bandit","320","1650410","0.0-282.0-0.0","01978017","wem/bandit_single","A3K7UC7LUKV0ZV","pain","7","","76","L","3","","0","1","0","","0.2480355477","false","245","","0.1664551864","main_expt","","0.2928347339","","0.4620487724","","0.2480355477","","","","","",""
"617","","bandit","321","1652786","0.0-283.0-0.0","01978017","wem/bandit_single","A3K7UC7LUKV0ZV","pain","7","","76","L","3","","0","0","1","","0.2978011657","false","246","","0.1660340973","main_expt","","0.2537870262","","0.4553277256","","0.2978011657","","","","","",""
"1314","","bandit","322","1655858","0.0-284.0-0.0","01978017","wem/bandit_single","A3K7UC7LUKV0ZV","pain","7","","76","L","3","","0","1","0","","0.3183795364","false","247","","0.2232834288","main_expt","","0.220788829","","0.4470790686","","0.3183795364","","","","","",""
"266","","bandit","323","1657884","0.0-285.0-0.0","01978017","wem/bandit_single","A3K7UC7LUKV0ZV","pain","7","","76","L","3","","0","1","0","","0.3496285813","false","248","","0.2337066106","main_expt","","0.2260039815","","0.4370243233","","0.3496285813","","","","","",""
"509","","bandit","324","1660154","0.0-286.0-0.0","01978017","wem/bandit_single","A3K7UC7LUKV0ZV","pain","7","","76","L","3","","0","0","1","","0.3450691196","false","249","","0.2555848542","main_expt","","0.2536259712","","0.4344986606","","0.3450691196","","","","","",""
"529","","bandit","325","1662442","0.0-287.0-0.0","01978017","wem/bandit_single","A3K7UC7LUKV0ZV","pain","7","","76","L","3","","0","1","0","","0.3451339369","false","250","","0.2423579198","main_expt","","0.2748463286","","0.4418367533","","0.3451339369","","","","","",""
"136","","bandit","326","1664339","0.0-288.0-0.0","01978017","wem/bandit_single","A3K7UC7LUKV0ZV","pain","7","","76","L","3","","0","0","1","","0.3928119302","false","251","","0.2275025436","main_expt","","0.2623633266","","0.4227475224","","0.3928119302","","","","","",""
"205","","bandit","327","1666306","0.0-289.0-0.0","01978017","wem/bandit_single","A3K7UC7LUKV0ZV","pain","7","","76","L","3","","0","1","0","","0.3926241496","false","252","","0.2868871138","main_expt","","0.3173920108","","0.423648384","","0.3926241496","","","","","",""
"62","","bandit","328","1668130","0.0-290.0-0.0","01978017","wem/bandit_single","A3K7UC7LUKV0ZV","pain","7","","76","L","3","","0","0","1","","0.4074069762","false","253","","0.2719675916","main_expt","","0.3172059241","","0.4321428437","","0.4074069762","","","","","",""
"464","","bandit","329","1670354","0.0-291.0-0.0","01978017","wem/bandit_single","A3K7UC7LUKV0ZV","pain","7","","74","J","1","","0","0","1","","0.3200237469","false","254","","0.3118638267","main_expt","","0.3200237469","","0.4621147124","","0.3831412703","","","","","",""
"209","","bandit","330","1672322","0.0-292.0-0.0","01978017","wem/bandit_single","A3K7UC7LUKV0ZV","pain","7","","76","L","3","","0","0","1","","0.3639457665","false","255","","0.2103897122","main_expt","","0.3358809316","","0.4586218194","","0.3639457665","","","","","",""
"57","","bandit","331","1674138","0.0-293.0-0.0","01978017","wem/bandit_single","A3K7UC7LUKV0ZV","pain","7","","76","L","3","","0","1","0","","0.3353936822","false","256","","0.2053105091","main_expt","","0.3288682213","","0.4661438042","","0.3353936822","","","","","",""
"26","","bandit","332","1675923","0.0-294.0-0.0","01978017","wem/bandit_single","A3K7UC7LUKV0ZV","pain","7","","76","L","3","","0","0","1","","0.3457786028","false","257","","0.2101260802","main_expt","","0.3298558235","","0.4746145216","","0.3457786028","","","","","",""
"474","","bandit","333","1678160","0.0-295.0-0.0","01978017","wem/bandit_single","A3K7UC7LUKV0ZV","pain","7","","76","L","3","","0","1","0","","0.3336199161","false","258","","0.251470712","main_expt","","0.3544886593","","0.479590246","","0.3336199161","","","","","",""
"122","","bandit","334","1680046","0.0-296.0-0.0","01978017","wem/bandit_single","A3K7UC7LUKV0ZV","pain","7","","76","L","3","","0","1","0","","0.3182937175","false","259","","0.2320991284","main_expt","","0.3380036538","","0.4543592645","","0.3182937175","","","","","",""
"200","","bandit","335","1682007","0.0-297.0-0.0","01978017","wem/bandit_single","A3K7UC7LUKV0ZV","pain","7","","76","L","3","","0","1","0","","0.3004718715","false","260","","0.2850429488","main_expt","","0.2797544445","","0.4591910344","","0.3004718715","","","","","",""
"21","","bandit","336","1683789","0.0-298.0-0.0","01978017","wem/bandit_single","A3K7UC7LUKV0ZV","pain","7","","76","L","3","","0","1","0","","0.2969538951","false","261","","0.3396488321","main_expt","","0.2594239605","","0.4416244086","","0.2969538951","","","","","",""
"33","","bandit","337","1685581","0.0-299.0-0.0","01978017","wem/bandit_single","A3K7UC7LUKV0ZV","pain","7","","76","L","3","","0","0","1","","0.336502974","false","262","","0.243241633","main_expt","","0.2804023839","","0.410126596","","0.336502974","","","","","",""
"129","","bandit","338","1687469","0.0-300.0-0.0","01978017","wem/bandit_single","A3K7UC7LUKV0ZV","pain","7","","76","L","3","","0","0","1","","0.3417757729","false","263","","0.221101122","main_expt","","0.2526654216","","0.3852167719","","0.3417757729","","","","","",""
"120","","bandit","339","1689353","0.0-301.0-0.0","01978017","wem/bandit_single","A3K7UC7LUKV0ZV","pain","7","","74","J","1","","0","0","1","","0.2262009497","false","264","","0.2475963948","main_expt","","0.2262009497","","0.4048243192","","0.3288238543","","","","","",""
"34","","bandit","340","1691151","0.0-302.0-0.0","01978017","wem/bandit_single","A3K7UC7LUKV0ZV","pain","7","","74","J","1","","0","0","1","","0.2111455706","false","265","","0.2472156829","main_expt","","0.2111455706","","0.3671025299","","0.2661945806","","","","","",""
"28","","bandit","341","1692943","0.0-303.0-0.0","01978017","wem/bandit_single","A3K7UC7LUKV0ZV","pain","7","","74","J","1","","0","0","1","","0.1816972253","false","266","","0.2257792125","main_expt","","0.1816972253","","0.366792141","","0.2831053071","","","","","",""
"638","","bandit","342","1695342","0.0-304.0-0.0","01978017","wem/bandit_single","A3K7UC7LUKV0ZV","pain","7","","72","H","0","img/none_selected.jpg","0","0","1","","0.2434052149","false","267","","0.2434052149","main_expt","","0.08996407949","","0.3187551676","","0.2814616526","","","","","",""
"1","","bandit","343","1697103","0.0-305.0-0.0","01978017","wem/bandit_single","A3K7UC7LUKV0ZV","pain","7","","72","H","0","img/none_selected.jpg","0","0","1","","0.2472891614","false","268","","0.2472891614","main_expt","","0.08316088703","","0.2992927481","","0.2698532634","","","","","",""
"114","","bandit","344","1698981","0.0-306.0-0.0","01978017","wem/bandit_single","A3K7UC7LUKV0ZV","pain","7","","72","H","0","img/none_selected.jpg","0","1","0","","0.2592343403","false","269","","0.2592343403","main_expt","","0.132755096","","0.3158706852","","0.332936287","","","","","",""
"275","","bandit","345","1701016","0.0-307.0-0.0","01978017","wem/bandit_single","A3K7UC7LUKV0ZV","pain","7","","72","H","0","img/none_selected.jpg","0","0","1","","0.2626766442","false","270","","0.2626766442","main_expt","","0.1295257529","","0.3399881701","","0.3520051328","","","","","",""
"667","","bandit","346","1703447","0.0-308.0-0.0","01978017","wem/bandit_single","A3K7UC7LUKV0ZV","pain","7","","74","J","1","","0","0","1","","0.1243547369","false","271","","0.2889536683","main_expt","","0.1243547369","","0.3425846673","","0.319936882","","","","","",""
"99","","bandit","347","1705309","0.0-309.0-0.0","01978017","wem/bandit_single","A3K7UC7LUKV0ZV","pain","7","","74","J","1","","0","0","1","","0.1129401117","false","272","","0.3519527746","main_expt","","0.1129401117","","0.3661992365","","0.3526338178","","","","","",""
"1661","","bandit","348","1708734","0.0-310.0-0.0","01978017","wem/bandit_single","A3K7UC7LUKV0ZV","pain","7","","74","J","1","","0","0","1","","0.07602588951","false","273","","0.3142239271","main_expt","","0.07602588951","","0.3548292996","","0.3661190652","","","","","",""
"231","","bandit","349","1710726","0.0-311.0-0.0","01978017","wem/bandit_single","A3K7UC7LUKV0ZV","pain","7","","75","K","2","","0","0","1","","0.3015993901","false","274","","0.2858465014","main_expt","","0.08326080211","","0.3015993901","","0.3531355024","","","","","",""
"906","","bandit","350","1713392","0.0-312.0-0.0","01978017","wem/bandit_single","A3K7UC7LUKV0ZV","pain","7","","75","K","2","","0","0","1","","0.3074537736","false","275","","0.2833142968","main_expt","","0.1117875064","","0.3074537736","","0.3710682781","","","","","",""
"1085","","bandit","351","1716238","0.0-313.0-0.0","01978017","wem/bandit_single","A3K7UC7LUKV0ZV","pain","7","","75","K","2","","0","1","0","","0.2995557441","false","276","","0.303505508","main_expt","","0.1087564456","","0.2995557441","","0.3039620657","","","","","",""
"422","","bandit","352","1718421","0.0-314.0-0.0","01978017","wem/bandit_single","A3K7UC7LUKV0ZV","pain","7","","75","K","2","","0","0","1","","0.3372524479","false","277","","0.2503405658","main_expt","","0.1402577261","","0.3372524479","","0.3661174243","","","","","",""
"791","","bandit","353","1720974","0.0-315.0-0.0","01978017","wem/bandit_single","A3K7UC7LUKV0ZV","pain","7","","75","K","2","","0","0","1","","0.3941332117","false","278","","0.2575241406","main_expt","","0.1639331241","","0.3941332117","","0.3603903852","","","","","",""
"734","","bandit","354","1723473","0.0-316.0-0.0","01978017","wem/bandit_single","A3K7UC7LUKV0ZV","pain","7","","75","K","2","","0","0","1","","0.369807449","false","279","","0.2537993043","main_expt","","0.08855821706","","0.369807449","","0.3865241344","","","","","",""
"492","","bandit","355","1725726","0.0-317.0-0.0","01978017","wem/bandit_single","A3K7UC7LUKV0ZV","pain","7","","75","K","2","","0","0","1","","0.3726167961","false","280","","0.1734094061","main_expt","","0.1116659285","","0.3726167961","","0.3941828848","","","","","",""
"117","","bandit","356","1727605","0.0-318.0-0.0","01978017","wem/bandit_single","A3K7UC7LUKV0ZV","pain","7","","75","K","2","","0","1","0","","0.3849966858","false","281","","0.1846732939","main_expt","","0.1032088387","","0.3849966858","","0.4060440919","","","","","",""
"192","","bandit","357","1729558","0.0-319.0-0.0","01978017","wem/bandit_single","A3K7UC7LUKV0ZV","pain","7","","75","K","2","","0","0","1","","0.4081920515","false","282","","0.1808782366","main_expt","","0.1449157137","","0.4081920515","","0.3855255831","","","","","",""
"127","","bandit","358","1731447","0.0-320.0-0.0","01978017","wem/bandit_single","A3K7UC7LUKV0ZV","pain","7","","75","K","2","","0","1","0","","0.3930572229","false","283","","0.1375342675","main_expt","","0.1649674285","","0.3930572229","","0.3694157076","","","","","",""
"295","","bandit","359","1733504","0.0-321.0-0.0","01978017","wem/bandit_single","A3K7UC7LUKV0ZV","pain","7","","75","K","2","","0","0","1","","0.379410926","false","284","","0.1029306966","main_expt","","0.1373277791","","0.379410926","","0.4137550783","","","","","",""
"797","","bandit","360","1736061","0.0-322.0-0.0","01978017","wem/bandit_single","A3K7UC7LUKV0ZV","pain","7","","75","K","2","","0","1","0","","0.3947179778","false","285","","0.08821361919","main_expt","","0.1616488504","","0.3947179778","","0.4268254387","","","","","",""
"213","","bandit","361","1738010","0.0-323.0-0.0","01978017","wem/bandit_single","A3K7UC7LUKV0ZV","pain","7","","75","K","2","","0","0","1","","0.4036344472","false","286","","0.08321279743","main_expt","","0.1306737704","","0.4036344472","","0.4115685589","","","","","",""
"18","","bandit","362","1739787","0.0-324.0-0.0","01978017","wem/bandit_single","A3K7UC7LUKV0ZV","pain","7","","75","K","2","","0","1","0","","0.4025981517","false","287","","0.0595967864","main_expt","","0.2059275786","","0.4025981517","","0.3828423493","","","","","",""
"132","","bandit","363","1741683","0.0-325.0-0.0","01978017","wem/bandit_single","A3K7UC7LUKV0ZV","pain","7","","75","K","2","","0","1","0","","0.4183513528","false","288","","0.06539189492","main_expt","","0.1892738114","","0.4183513528","","0.4121581376","","","","","",""
"1","","bandit","364","1743445","0.0-326.0-0.0","01978017","wem/bandit_single","A3K7UC7LUKV0ZV","pain","7","","75","K","2","","0","0","1","","0.4516793017","false","289","","0.06484578344","main_expt","","0.1656659279","","0.4516793017","","0.4227758831","","","","","",""
"1330","","bandit","365","1746539","0.0-327.0-0.0","01978017","wem/bandit_single","A3K7UC7LUKV0ZV","pain","7","","76","L","3","","0","1","0","","0.4149367164","false","290","","0.06626982825","main_expt","","0.1814252587","","0.4112115972","","0.4149367164","","","","","",""
"400","","bandit","366","1748699","0.0-328.0-0.0","01978017","wem/bandit_single","A3K7UC7LUKV0ZV","pain","7","","76","L","3","","0","0","1","","0.399757838","false","291","","0.1096348163","main_expt","","0.2385479929","","0.4372982331","","0.399757838","","","","","",""
"113","","bandit","367","1750570","0.0-329.0-0.0","01978017","wem/bandit_single","A3K7UC7LUKV0ZV","pain","7","","76","L","3","","0","1","0","","0.3846886596","false","292","","0.1604398542","main_expt","","0.2322046479","","0.4238416902","","0.3846886596","","","","","",""
"128","","bandit","368","1752458","0.0-330.0-0.0","01978017","wem/bandit_single","A3K7UC7LUKV0ZV","pain","7","","76","L","3","","0","0","1","","0.3364000065","false","293","","0.1714651471","main_expt","","0.223393304","","0.4034354509","","0.3364000065","","","","","",""
"1258","","bandit","369","1755477","0.0-331.0-0.0","01978017","wem/bandit_single","A3K7UC7LUKV0ZV","pain","7","","76","L","3","","0","0","1","","0.3545739736","false","294","","0.1378543876","main_expt","","0.2290093083","","0.4093667064","","0.3545739736","","","","","",""
"473","","bandit","370","1757714","0.0-332.0-0.0","01978017","wem/bandit_single","A3K7UC7LUKV0ZV","pain","7","","76","L","3","","0","0","1","","0.2891777922","false","295","","0.1243446737","main_expt","","0.2875464899","","0.4294791191","","0.2891777922","","","","","",""
"527","","bandit","371","1760004","0.0-333.0-0.0","01978017","wem/bandit_single","A3K7UC7LUKV0ZV","pain","7","","76","L","3","","0","1","0","","0.2084544567","false","296","","0.1831574145","main_expt","","0.2880416719","","0.4289259587","","0.2084544567","","","","","",""
"395","","bandit","372","1762163","0.0-334.0-0.0","01978017","wem/bandit_single","A3K7UC7LUKV0ZV","pain","7","","76","L","3","","0","1","0","","0.2481546198","false","297","","0.1645554297","main_expt","","0.2144640116","","0.4073385017","","0.2481546198","","","","","",""
"550","","bandit","373","1764474","0.0-335.0-0.0","01978017","wem/bandit_single","A3K7UC7LUKV0ZV","pain","7","","76","L","3","","0","0","1","","0.2961938921","false","298","","0.1424629524","main_expt","","0.2150894671","","0.3914212946","","0.2961938921","","","","","",""
