"rt","responses","trial_type","trial_index","time_elapsed","internal_node_id","subjID","study","MID","cond","drift","key_press","respCharCode","respKey","respChoiceNum","respChoice","gems","bombs","no_reward","GemPrChosen","BombPrChosen","practice","trial_counter","WinPr_0","LosePr_0","trial_label","WinPr_1","LosePr_1","WinPr_2","LosePr_2","WinPr_3","LosePr_3","Q0","Q1","Q2","gender","age","ethnicity"
"18728","{""Q0"":""ACN0C9HPYDTED""}","survey-text","0","18740","0.0-0.0","02897101","wem/bandit_single","ACN0C9HPYDTED","pain","3","","","","","","","","","","","","","","","","","","","","","","","","","","",""
"14362","","text","1","34105","0.0-1.0","02897101","wem/bandit_single","ACN0C9HPYDTED","pain","3","32","","","","","","","","","","","","","","","","","","","","","","","","","",""
"3997","","text","2","38104","0.0-2.0","02897101","wem/bandit_single","ACN0C9HPYDTED","pain","3","32","","","","","","","","","","","","","","","","","","","","","","","","","",""
"20097","","text","3","58202","0.0-3.0","02897101","wem/bandit_single","ACN0C9HPYDTED","pain","3","32","","","","","","","","","","","","","","","","","","","","","","","","","",""
"14758","","text","4","72961","0.0-4.0","02897101","wem/bandit_single","ACN0C9HPYDTED","pain","3","32","","","","","","","","","","","","","","","","","","","","","","","","","",""
"10312","","text","5","83274","0.0-5.0","02897101","wem/bandit_single","ACN0C9HPYDTED","pain","3","32","","","","","","","","","","","","","","","","","","","","","","","","","",""
"7654","","text","6","90929","0.0-6.0","02897101","wem/bandit_single","ACN0C9HPYDTED","pain","3","32","","","","","","","","","","","","","","","","","","","","","","","","","",""
"7166","","text","7","98097","0.0-7.0","02897101","wem/bandit_single","ACN0C9HPYDTED","pain","3","32","","","","","","","","","","","","","","","","","","","","","","","","","",""
"5528","","text","8","103626","0.0-8.0","02897101","wem/bandit_single","ACN0C9HPYDTED","pain","3","32","","","","","","","","","","","","","","","","","","","","","","","","","",""
"1830","","text","9","105458","0.0-9.0","02897101","wem/bandit_single","ACN0C9HPYDTED","pain","3","32","","","","","","","","","","","","","","","","","","","","","","","","","",""
"4309","","text","10","109769","0.0-10.0","02897101","wem/bandit_single","ACN0C9HPYDTED","pain","3","32","","","","","","","","","","","","","","","","","","","","","","","","","",""
"5342","","text","11","115112","0.0-11.0","02897101","wem/bandit_single","ACN0C9HPYDTED","pain","3","32","","","","","","","","","","","","","","","","","","","","","","","","","",""
"1085","","bandit","12","117703","0.0-12.0-0.0","02897101","wem/bandit_single","ACN0C9HPYDTED","pain","3","","74","J","0","img/none_selected_demo.jpg","0","0","1","0","0","true","0","0","0","","","","","","","","","","","","",""
"1027","","bandit","13","120484","0.0-13.0-0.0","02897101","wem/bandit_single","ACN0C9HPYDTED","pain","3","","75","K","0","img/none_selected_demo.jpg","0","0","1","0","0","true","0","0","0","","","","","","","","","","","","",""
"5553","","text","14","126289","0.0-14.0","02897101","wem/bandit_single","ACN0C9HPYDTED","pain","3","32","","","","","","","","","","","","","","","","","","","","","","","","","",""
"2710","","text","15","129000","0.0-15.0","02897101","wem/bandit_single","ACN0C9HPYDTED","pain","3","32","","","","","","","","","","","","","","","","","","","","","","","","","",""
"4638","","text","16","133640","0.0-16.0","02897101","wem/bandit_single","ACN0C9HPYDTED","pain","3","32","","","","","","","","","","","","","","","","","","","","","","","","","",""
"3824","","text","17","137464","0.0-17.0","02897101","wem/bandit_single","ACN0C9HPYDTED","pain","3","32","","","","","","","","","","","","","","","","","","","","","","","","","",""
"2019","","bandit","18","140988","0.0-18.0-0.0","02897101","wem/bandit_single","ACN0C9HPYDTED","pain","3","","75","K","1","","0","1","0","0","0.2","true","0","0","0.8","80_20_practice","0","0.2","","","","","","","","","",""
"54","","bandit","19","142795","0.0-18.0-1.0","02897101","wem/bandit_single","ACN0C9HPYDTED","pain","3","","74","J","0","img/none_selected_demo.jpg","0","1","0","0","0.8","true","0","0","0.8","80_20_practice","0","0.2","","","","","","","","","",""
"16","","bandit","20","144565","0.0-18.0-2.0","02897101","wem/bandit_single","ACN0C9HPYDTED","pain","3","","74","J","0","img/none_selected_demo.jpg","0","1","0","0","0.8","true","0","0","0.8","80_20_practice","0","0.2","","","","","","","","","",""
"390","","bandit","21","146707","0.0-18.0-3.0","02897101","wem/bandit_single","ACN0C9HPYDTED","pain","3","","75","K","1","","0","0","1","0","0.2","true","0","0","0.8","80_20_practice","0","0.2","","","","","","","","","",""
"423","","bandit","22","148883","0.0-18.0-4.0","02897101","wem/bandit_single","ACN0C9HPYDTED","pain","3","","75","K","1","","0","0","1","0","0.2","true","0","0","0.8","80_20_practice","0","0.2","","","","","","","","","",""
"15","","bandit","23","150652","0.0-18.0-5.0","02897101","wem/bandit_single","ACN0C9HPYDTED","pain","3","","74","J","0","img/none_selected_demo.jpg","0","0","1","0","0.8","true","0","0","0.8","80_20_practice","0","0.2","","","","","","","","","",""
"320","","bandit","24","152725","0.0-18.0-6.0","02897101","wem/bandit_single","ACN0C9HPYDTED","pain","3","","74","J","0","img/none_selected_demo.jpg","0","0","1","0","0.8","true","0","0","0.8","80_20_practice","0","0.2","","","","","","","","","",""
"343","","bandit","25","154821","0.0-18.0-7.0","02897101","wem/bandit_single","ACN0C9HPYDTED","pain","3","","75","K","1","","0","0","1","0","0.2","true","0","0","0.8","80_20_practice","0","0.2","","","","","","","","","",""
"215","","bandit","26","156788","0.0-18.0-8.0","02897101","wem/bandit_single","ACN0C9HPYDTED","pain","3","","74","J","0","img/none_selected_demo.jpg","0","1","0","0","0.8","true","0","0","0.8","80_20_practice","0","0.2","","","","","","","","","",""
"38","","bandit","27","158581","0.0-18.0-9.0","02897101","wem/bandit_single","ACN0C9HPYDTED","pain","3","","75","K","1","","0","1","0","0","0.2","true","0","0","0.8","80_20_practice","0","0.2","","","","","","","","","",""
"127","","bandit","28","160459","0.0-18.0-10.0","02897101","wem/bandit_single","ACN0C9HPYDTED","pain","3","","75","K","1","","0","0","1","0","0.2","true","0","0","0.8","80_20_practice","0","0.2","","","","","","","","","",""
"40","","bandit","29","162252","0.0-18.0-11.0","02897101","wem/bandit_single","ACN0C9HPYDTED","pain","3","","74","J","0","img/none_selected_demo.jpg","0","1","0","0","0.8","true","0","0","0.8","80_20_practice","0","0.2","","","","","","","","","",""
"440","","bandit","30","164443","0.0-18.0-12.0","02897101","wem/bandit_single","ACN0C9HPYDTED","pain","3","","74","J","0","img/none_selected_demo.jpg","0","1","0","0","0.8","true","0","0","0.8","80_20_practice","0","0.2","","","","","","","","","",""
"48","","bandit","31","166243","0.0-18.0-13.0","02897101","wem/bandit_single","ACN0C9HPYDTED","pain","3","","75","K","1","","0","1","0","0","0.2","true","0","0","0.8","80_20_practice","0","0.2","","","","","","","","","",""
"262","","bandit","32","168259","0.0-18.0-14.0","02897101","wem/bandit_single","ACN0C9HPYDTED","pain","3","","75","K","1","","0","1","0","0","0.2","true","0","0","0.8","80_20_practice","0","0.2","","","","","","","","","",""
"96","","bandit","33","170109","0.0-18.0-15.0","02897101","wem/bandit_single","ACN0C9HPYDTED","pain","3","","74","J","0","img/none_selected_demo.jpg","0","0","1","0","0.8","true","0","0","0.8","80_20_practice","0","0.2","","","","","","","","","",""
"85","","bandit","34","171948","0.0-18.0-16.0","02897101","wem/bandit_single","ACN0C9HPYDTED","pain","3","","74","J","0","img/none_selected_demo.jpg","0","1","0","0","0.8","true","0","0","0.8","80_20_practice","0","0.2","","","","","","","","","",""
"359","","bandit","35","174061","0.0-18.0-17.0","02897101","wem/bandit_single","ACN0C9HPYDTED","pain","3","","75","K","1","","0","0","1","0","0.2","true","0","0","0.8","80_20_practice","0","0.2","","","","","","","","","",""
"231","","bandit","36","176044","0.0-18.0-18.0","02897101","wem/bandit_single","ACN0C9HPYDTED","pain","3","","74","J","0","img/none_selected_demo.jpg","0","1","0","0","0.8","true","0","0","0.8","80_20_practice","0","0.2","","","","","","","","","",""
"40","","bandit","37","177837","0.0-18.0-19.0","02897101","wem/bandit_single","ACN0C9HPYDTED","pain","3","","75","K","1","","0","0","1","0","0.2","true","0","0","0.8","80_20_practice","0","0.2","","","","","","","","","",""
"9746","","text","38","187833","0.0-19.0","02897101","wem/bandit_single","ACN0C9HPYDTED","pain","3","32","","","","","","","","","","","","","","","","","","","","","","","","","",""
"3182","","bandit","39","192518","0.0-20.0-0.0","02897101","wem/bandit_single","ACN0C9HPYDTED","pain","3","","74","J","0","img/none_selected_demo.jpg","0","0","1","0","0","true","0","0","0","","0","0","","","","","","","","","",""
"6190","","text","40","198960","0.0-21.0","02897101","wem/bandit_single","ACN0C9HPYDTED","pain","3","32","","","","","","","","","","","","","","","","","","","","","","","","","",""
"2047","","text","41","201008","0.0-22.0","02897101","wem/bandit_single","ACN0C9HPYDTED","pain","3","32","","","","","","","","","","","","","","","","","","","","","","","","","",""
"2512","","text","42","203522","0.0-23.0","02897101","wem/bandit_single","ACN0C9HPYDTED","pain","3","32","","","","","","","","","","","","","","","","","","","","","","","","","",""
"9717","","text","43","213241","0.0-24.0","02897101","wem/bandit_single","ACN0C9HPYDTED","pain","3","32","","","","","","","","","","","","","","","","","","","","","","","","","",""
"8022","","text","44","221265","0.0-25.0","02897101","wem/bandit_single","ACN0C9HPYDTED","pain","3","32","","","","","","","","","","","","","","","","","","","","","","","","","",""
"3638","","text","45","224905","0.0-26.0","02897101","wem/bandit_single","ACN0C9HPYDTED","pain","3","32","","","","","","","","","","","","","","","","","","","","","","","","","",""
"3631","","text","46","228537","0.0-27.0","02897101","wem/bandit_single","ACN0C9HPYDTED","pain","3","32","","","","","","","","","","","","","","","","","","","","","","","","","",""
"101710","","text","47","330250","0.0-28.0","02897101","wem/bandit_single","ACN0C9HPYDTED","pain","3","32","","","","","","","","","","","","","","","","","","","","","","","","","",""
"5044","","text","48","335297","0.0-29.0","02897101","wem/bandit_single","ACN0C9HPYDTED","pain","3","32","","","","","","","","","","","","","","","","","","","","","","","","","",""
"1270","","text","49","336569","0.0-30.0","02897101","wem/bandit_single","ACN0C9HPYDTED","pain","3","32","","","","","","","","","","","","","","","","","","","","","","","","","",""
"9126","","text","50","345697","0.0-31.0","02897101","wem/bandit_single","ACN0C9HPYDTED","pain","3","32","","","","","","","","","","","","","","","","","","","","","","","","","",""
"726","","bandit","51","347925","0.0-32.0-0.0","02897101","wem/bandit_single","ACN0C9HPYDTED","pain","3","","74","J","1","","0","0","1","0","0.2","true","0","0","0.8","full_practice","0","0.2","0","0.6","0","0.2","","","","","",""
"335","","bandit","52","350012","0.0-32.0-1.0","02897101","wem/bandit_single","ACN0C9HPYDTED","pain","3","","72","H","0","img/none_selected.jpg","0","1","0","0","0.8","true","0","0","0.8","full_practice","0","0.2","0","0.6","0","0.2","","","","","",""
"711","","bandit","53","352477","0.0-32.0-2.0","02897101","wem/bandit_single","ACN0C9HPYDTED","pain","3","","75","K","2","","0","0","1","0","0.6","true","0","0","0.8","full_practice","0","0.2","0","0.6","0","0.2","","","","","",""
"117","","bandit","54","354348","0.0-32.0-3.0","02897101","wem/bandit_single","ACN0C9HPYDTED","pain","3","","76","L","3","","0","0","1","0","0.2","true","0","0","0.8","full_practice","0","0.2","0","0.6","0","0.2","","","","","",""
"63","","bandit","55","356166","0.0-32.0-4.0","02897101","wem/bandit_single","ACN0C9HPYDTED","pain","3","","72","H","0","img/none_selected.jpg","0","1","0","0","0.8","true","0","0","0.8","full_practice","0","0.2","0","0.6","0","0.2","","","","","",""
"29","","bandit","56","357948","0.0-32.0-5.0","02897101","wem/bandit_single","ACN0C9HPYDTED","pain","3","","74","J","1","","0","0","1","0","0.2","true","0","0","0.8","full_practice","0","0.2","0","0.6","0","0.2","","","","","",""
"46","","bandit","57","359747","0.0-32.0-6.0","02897101","wem/bandit_single","ACN0C9HPYDTED","pain","3","","72","H","0","img/none_selected.jpg","0","1","0","0","0.8","true","0","0","0.8","full_practice","0","0.2","0","0.6","0","0.2","","","","","",""
"57","","bandit","58","361559","0.0-32.0-7.0","02897101","wem/bandit_single","ACN0C9HPYDTED","pain","3","","72","H","0","img/none_selected.jpg","0","1","0","0","0.8","true","0","0","0.8","full_practice","0","0.2","0","0.6","0","0.2","","","","","",""
"348","","bandit","59","363661","0.0-32.0-8.0","02897101","wem/bandit_single","ACN0C9HPYDTED","pain","3","","72","H","0","img/none_selected.jpg","0","1","0","0","0.8","true","0","0","0.8","full_practice","0","0.2","0","0.6","0","0.2","","","","","",""
"61","","bandit","60","365476","0.0-32.0-9.0","02897101","wem/bandit_single","ACN0C9HPYDTED","pain","3","","72","H","0","img/none_selected.jpg","0","1","0","0","0.8","true","0","0","0.8","full_practice","0","0.2","0","0.6","0","0.2","","","","","",""
"237","","bandit","61","367469","0.0-32.0-10.0","02897101","wem/bandit_single","ACN0C9HPYDTED","pain","3","","72","H","0","img/none_selected.jpg","0","0","1","0","0.8","true","0","0","0.8","full_practice","0","0.2","0","0.6","0","0.2","","","","","",""
"215","","bandit","62","369436","0.0-32.0-11.0","02897101","wem/bandit_single","ACN0C9HPYDTED","pain","3","","74","J","1","","0","0","1","0","0.2","true","0","0","0.8","full_practice","0","0.2","0","0.6","0","0.2","","","","","",""
"879","","bandit","63","372067","0.0-32.0-12.0","02897101","wem/bandit_single","ACN0C9HPYDTED","pain","3","","76","L","3","","0","0","1","0","0.2","true","0","0","0.8","full_practice","0","0.2","0","0.6","0","0.2","","","","","",""
"7","","bandit","64","373828","0.0-32.0-13.0","02897101","wem/bandit_single","ACN0C9HPYDTED","pain","3","","72","H","0","img/none_selected.jpg","0","1","0","0","0.8","true","0","0","0.8","full_practice","0","0.2","0","0.6","0","0.2","","","","","",""
"150","","bandit","65","375731","0.0-32.0-14.0","02897101","wem/bandit_single","ACN0C9HPYDTED","pain","3","","72","H","0","img/none_selected.jpg","0","0","1","0","0.8","true","0","0","0.8","full_practice","0","0.2","0","0.6","0","0.2","","","","","",""
"199","","bandit","66","377683","0.0-32.0-15.0","02897101","wem/bandit_single","ACN0C9HPYDTED","pain","3","","72","H","0","img/none_selected.jpg","0","1","0","0","0.8","true","0","0","0.8","full_practice","0","0.2","0","0.6","0","0.2","","","","","",""
"144","","bandit","67","379583","0.0-32.0-16.0","02897101","wem/bandit_single","ACN0C9HPYDTED","pain","3","","72","H","0","img/none_selected.jpg","0","0","1","0","0.8","true","0","0","0.8","full_practice","0","0.2","0","0.6","0","0.2","","","","","",""
"84","","bandit","68","381420","0.0-32.0-17.0","02897101","wem/bandit_single","ACN0C9HPYDTED","pain","3","","75","K","2","","0","1","0","0","0.6","true","0","0","0.8","full_practice","0","0.2","0","0.6","0","0.2","","","","","",""
"38","","bandit","69","383212","0.0-32.0-18.0","02897101","wem/bandit_single","ACN0C9HPYDTED","pain","3","","75","K","2","","0","1","0","0","0.6","true","0","0","0.8","full_practice","0","0.2","0","0.6","0","0.2","","","","","",""
"94","","bandit","70","385061","0.0-32.0-19.0","02897101","wem/bandit_single","ACN0C9HPYDTED","pain","3","","75","K","2","","0","1","0","0","0.6","true","0","0","0.8","full_practice","0","0.2","0","0.6","0","0.2","","","","","",""
"1660","","text","71","386976","0.0-33.0","02897101","wem/bandit_single","ACN0C9HPYDTED","pain","3","32","","","","","","","","","","","","","","","","","","","","","","","","","",""
"8071","","text","72","396048","0.0-34.0","02897101","wem/bandit_single","ACN0C9HPYDTED","pain","3","32","","","","","","","","","","","","","","","","","","","","","","","","","",""
"3061","","text","73","399112","0.0-35.0","02897101","wem/bandit_single","ACN0C9HPYDTED","pain","3","32","","","","","","","","","","","","","","","","","","","","","","","","","",""
"2205","","text","74","401320","0.0-36.0","02897101","wem/bandit_single","ACN0C9HPYDTED","pain","3","32","","","","","","","","","","","","","","","","","","","","","","","","","",""
"3125","","text","75","404448","0.0-37.0","02897101","wem/bandit_single","ACN0C9HPYDTED","pain","3","32","","","","","","","","","","","","","","","","","","","","","","","","","",""
"1173","","bandit","76","407126","0.0-38.0-0.0","02897101","wem/bandit_single","ACN0C9HPYDTED","pain","3","","75","K","2","","0","0","1","","0.3417032333","false","1","","0.2211287853","main_expt","","0.2015711498","","0.3417032333","","0.06813583588","","","","","",""
"221","","bandit","77","409099","0.0-39.0-0.0","02897101","wem/bandit_single","ACN0C9HPYDTED","pain","3","","72","H","0","img/none_selected.jpg","0","0","1","","0.2921894834","false","2","","0.2921894834","main_expt","","0.1868286341","","0.3935143322","","0.08840771113","","","","","",""
"47","","bandit","78","410900","0.0-40.0-0.0","02897101","wem/bandit_single","ACN0C9HPYDTED","pain","3","","74","J","1","","0","1","0","","0.2285659085","false","3","","0.2712314767","main_expt","","0.2285659085","","0.3247841161","","0.14311428","","","","","",""
"63","","bandit","79","412716","0.0-41.0-0.0","02897101","wem/bandit_single","ACN0C9HPYDTED","pain","3","","74","J","1","","0","1","0","","0.2587006496","false","4","","0.3501044345","main_expt","","0.2587006496","","0.3524809632","","0.1389033164","","","","","",""
"309","","bandit","80","414781","0.0-42.0-0.0","02897101","wem/bandit_single","ACN0C9HPYDTED","pain","3","","74","J","1","","0","0","1","","0.2238216231","false","5","","0.3826883046","main_expt","","0.2238216231","","0.3243282494","","0.1064755534","","","","","",""
"270","","bandit","81","416805","0.0-43.0-0.0","02897101","wem/bandit_single","ACN0C9HPYDTED","pain","3","","72","H","0","img/none_selected.jpg","0","0","1","","0.3538977559","false","6","","0.3538977559","main_expt","","0.2114086621","","0.3856520047","","0.07607549968","","","","","",""
"214","","bandit","82","418773","0.0-44.0-0.0","02897101","wem/bandit_single","ACN0C9HPYDTED","pain","3","","74","J","1","","0","1","0","","0.225256176","false","7","","0.3911179113","main_expt","","0.225256176","","0.3595299576","","0.0490522351","","","","","",""
"158","","bandit","83","420685","0.0-45.0-0.0","02897101","wem/bandit_single","ACN0C9HPYDTED","pain","3","","74","J","1","","0","0","1","","0.1920600422","false","8","","0.3378010318","main_expt","","0.1920600422","","0.2908809246","","0.04564729275","","","","","",""
"126","","bandit","84","422565","0.0-46.0-0.0","02897101","wem/bandit_single","ACN0C9HPYDTED","pain","3","","74","J","1","","0","0","1","","0.222474992","false","9","","0.3584091786","main_expt","","0.222474992","","0.3401169694","","0.05361883364","","","","","",""
"86","","bandit","85","424404","0.0-47.0-0.0","02897101","wem/bandit_single","ACN0C9HPYDTED","pain","3","","75","K","2","","0","0","1","","0.370347707","false","10","","0.3822252457","main_expt","","0.1720297318","","0.370347707","","0.05689605437","","","","","",""
"13","","bandit","86","426173","0.0-48.0-0.0","02897101","wem/bandit_single","ACN0C9HPYDTED","pain","3","","74","J","1","","0","0","1","","0.1672236423","false","11","","0.4003480189","main_expt","","0.1672236423","","0.3385652673","","0.05596529361","","","","","",""
"38","","bandit","87","427967","0.0-49.0-0.0","02897101","wem/bandit_single","ACN0C9HPYDTED","pain","3","","76","L","3","","0","0","1","","0.07455145674","false","12","","0.4035898181","main_expt","","0.1908353862","","0.3433253296","","0.07455145674","","","","","",""
"62","","bandit","88","429781","0.0-50.0-0.0","02897101","wem/bandit_single","ACN0C9HPYDTED","pain","3","","72","H","0","img/none_selected.jpg","0","0","1","","0.3939267589","false","13","","0.3939267589","main_expt","","0.1373256951","","0.3306460316","","0.1061797552","","","","","",""
"198","","bandit","89","431732","0.0-51.0-0.0","02897101","wem/bandit_single","ACN0C9HPYDTED","pain","3","","74","J","1","","0","0","1","","0.1605467602","false","14","","0.4058751809","main_expt","","0.1605467602","","0.3423394156","","0.09003395111","","","","","",""
"0","","bandit","90","433486","0.0-52.0-0.0","02897101","wem/bandit_single","ACN0C9HPYDTED","pain","3","","74","J","1","","0","0","1","","0.1270826231","false","15","","0.3784768297","main_expt","","0.1270826231","","0.3514631564","","0.09190110762","","","","","",""
"36","","bandit","91","435277","0.0-53.0-0.0","02897101","wem/bandit_single","ACN0C9HPYDTED","pain","3","","75","K","2","","0","0","1","","0.3763865137","false","16","","0.3742197382","main_expt","","0.1659789958","","0.3763865137","","0.1119147711","","","","","",""
"366","","bandit","92","437396","0.0-54.0-0.0","02897101","wem/bandit_single","ACN0C9HPYDTED","pain","3","","74","J","1","","0","0","1","","0.1810296119","false","17","","0.3738750299","main_expt","","0.1810296119","","0.3613216018","","0.1268228496","","","","","",""
"22","","bandit","93","439172","0.0-55.0-0.0","02897101","wem/bandit_single","ACN0C9HPYDTED","pain","3","","72","H","0","img/none_selected.jpg","0","1","0","","0.30878177","false","18","","0.30878177","main_expt","","0.2209588372","","0.3354311471","","0.160542793","","","","","",""
"397","","bandit","94","441326","0.0-56.0-0.0","02897101","wem/bandit_single","ACN0C9HPYDTED","pain","3","","72","H","0","img/none_selected.jpg","0","1","0","","0.3257740717","false","19","","0.3257740717","main_expt","","0.1577150754","","0.3151580681","","0.1913020378","","","","","",""
"5","","bandit","95","443084","0.0-57.0-0.0","02897101","wem/bandit_single","ACN0C9HPYDTED","pain","3","","72","H","0","img/none_selected.jpg","0","0","1","","0.2780557495","false","20","","0.2780557495","main_expt","","0.2368366468","","0.2633525784","","0.2201213849","","","","","",""
"471","","bandit","96","445308","0.0-58.0-0.0","02897101","wem/bandit_single","ACN0C9HPYDTED","pain","3","","72","H","0","img/none_selected.jpg","0","0","1","","0.2552615423","false","21","","0.2552615423","main_expt","","0.1692925459","","0.2730255539","","0.1747441944","","","","","",""
"141","","bandit","97","447204","0.0-59.0-0.0","02897101","wem/bandit_single","ACN0C9HPYDTED","pain","3","","74","J","1","","0","0","1","","0.144462955","false","22","","0.2862558775","main_expt","","0.144462955","","0.2366183143","","0.1407764438","","","","","",""
"119","","bandit","98","449076","0.0-60.0-0.0","02897101","wem/bandit_single","ACN0C9HPYDTED","pain","3","","72","H","0","img/none_selected.jpg","0","0","1","","0.290674517","false","23","","0.290674517","main_expt","","0.1928882479","","0.2193011186","","0.1444197889","","","","","",""
"760","","bandit","99","451590","0.0-61.0-0.0","02897101","wem/bandit_single","ACN0C9HPYDTED","pain","3","","75","K","2","","0","0","1","","0.2058852999","false","24","","0.2669553567","main_expt","","0.2077361259","","0.2058852999","","0.1898422889","","","","","",""
"387","","bandit","100","453733","0.0-62.0-0.0","02897101","wem/bandit_single","ACN0C9HPYDTED","pain","3","","75","K","2","","0","0","1","","0.2377147794","false","25","","0.2134469473","main_expt","","0.2580980749","","0.2377147794","","0.2319991336","","","","","",""
"79","","bandit","101","455565","0.0-63.0-0.0","02897101","wem/bandit_single","ACN0C9HPYDTED","pain","3","","76","L","3","","0","0","1","","0.2140617454","false","26","","0.2027981442","main_expt","","0.2593960467","","0.3017638279","","0.2140617454","","","","","",""
"110","","bandit","102","457429","0.0-64.0-0.0","02897101","wem/bandit_single","ACN0C9HPYDTED","pain","3","","72","H","0","img/none_selected.jpg","0","1","0","","0.1669761534","false","27","","0.1669761534","main_expt","","0.2913294918","","0.2647551657","","0.2186733942","","","","","",""
"245","","bandit","103","459429","0.0-65.0-0.0","02897101","wem/bandit_single","ACN0C9HPYDTED","pain","3","","72","H","0","img/none_selected.jpg","0","0","1","","0.1301617017","false","28","","0.1301617017","main_expt","","0.2838721205","","0.2864353885","","0.2573772923","","","","","",""
"14","","bandit","104","461196","0.0-66.0-0.0","02897101","wem/bandit_single","ACN0C9HPYDTED","pain","3","","74","J","1","","0","0","1","","0.2225595658","false","29","","0.1540227795","main_expt","","0.2225595658","","0.2669447337","","0.2563684882","","","","","",""
"151","","bandit","105","463100","0.0-67.0-0.0","02897101","wem/bandit_single","ACN0C9HPYDTED","pain","3","","72","H","0","img/none_selected.jpg","0","1","0","","0.1290956128","false","30","","0.1290956128","main_expt","","0.2450998207","","0.242519946","","0.3180657859","","","","","",""
"230","","bandit","106","465084","0.0-68.0-0.0","02897101","wem/bandit_single","ACN0C9HPYDTED","pain","3","","72","H","0","img/none_selected.jpg","0","0","1","","0.157476084","false","31","","0.157476084","main_expt","","0.2358374841","","0.1808952067","","0.3391977199","","","","","",""
"438","","bandit","107","467276","0.0-69.0-0.0","02897101","wem/bandit_single","ACN0C9HPYDTED","pain","3","","72","H","0","img/none_selected.jpg","0","0","1","","0.1667461438","false","32","","0.1667461438","main_expt","","0.2465538883","","0.1490402933","","0.3655242212","","","","","",""
"112","","bandit","108","469141","0.0-70.0-0.0","02897101","wem/bandit_single","ACN0C9HPYDTED","pain","3","","74","J","1","","0","1","0","","0.2479029149","false","33","","0.1698659255","main_expt","","0.2479029149","","0.1607825008","","0.3476833293","","","","","",""
"213","","bandit","109","471108","0.0-71.0-0.0","02897101","wem/bandit_single","ACN0C9HPYDTED","pain","3","","74","J","1","","0","1","0","","0.1813792252","false","34","","0.1830702822","main_expt","","0.1813792252","","0.2019438485","","0.3287357547","","","","","",""
"270","","bandit","110","473133","0.0-72.0-0.0","02897101","wem/bandit_single","ACN0C9HPYDTED","pain","3","","74","J","1","","0","1","0","","0.1507873856","false","35","","0.1648441896","main_expt","","0.1507873856","","0.1187506792","","0.3568635533","","","","","",""
"350","","bandit","111","475237","0.0-73.0-0.0","02897101","wem/bandit_single","ACN0C9HPYDTED","pain","3","","74","J","1","","0","0","1","","0.185146395","false","36","","0.1702375356","main_expt","","0.185146395","","0.107122158","","0.2559818432","","","","","",""
"356","","bandit","112","477348","0.0-74.0-0.0","02897101","wem/bandit_single","ACN0C9HPYDTED","pain","3","","72","H","0","img/none_selected.jpg","0","0","1","","0.1248493821","false","37","","0.1248493821","main_expt","","0.1995500277","","0.1462043769","","0.2095103509","","","","","",""
"46","","bandit","113","479147","0.0-75.0-0.0","02897101","wem/bandit_single","ACN0C9HPYDTED","pain","3","","74","J","1","","0","0","1","","0.2324476024","false","38","","0.1806095344","main_expt","","0.2324476024","","0.1562864446","","0.1824107212","","","","","",""
"167","","bandit","114","481067","0.0-76.0-0.0","02897101","wem/bandit_single","ACN0C9HPYDTED","pain","3","","74","J","1","","0","1","0","","0.2374336796","false","39","","0.1636381498","main_expt","","0.2374336796","","0.1425148763","","0.180532013","","","","","",""
"1239","","bandit","115","484060","0.0-77.0-0.0","02897101","wem/bandit_single","ACN0C9HPYDTED","pain","3","","74","J","1","","0","0","1","","0.1871034738","false","40","","0.128328165","main_expt","","0.1871034738","","0.1332413707","","0.209403608","","","","","",""
"86","","bandit","116","485900","0.0-78.0-0.0","02897101","wem/bandit_single","ACN0C9HPYDTED","pain","3","","74","J","1","","0","1","0","","0.1923798107","false","41","","0.1128848486","main_expt","","0.1923798107","","0.170838957","","0.1790729352","","","","","",""
"732","","bandit","117","488388","0.0-79.0-0.0","02897101","wem/bandit_single","ACN0C9HPYDTED","pain","3","","74","J","1","","0","0","1","","0.2175202152","false","42","","0.1024028154","main_expt","","0.2175202152","","0.221577246","","0.1586268334","","","","","",""
"20","","bandit","118","490165","0.0-80.0-0.0","02897101","wem/bandit_single","ACN0C9HPYDTED","pain","3","","72","H","0","img/none_selected.jpg","0","0","1","","0.1842117743","false","43","","0.1842117743","main_expt","","0.199004634","","0.2937465132","","0.1953085145","","","","","",""
"109","","bandit","119","492028","0.0-81.0-0.0","02897101","wem/bandit_single","ACN0C9HPYDTED","pain","3","","74","J","1","","0","0","1","","0.1979694218","false","44","","0.2398699605","main_expt","","0.1979694218","","0.2473378206","","0.229373846","","","","","",""
"101","","bandit","120","493883","0.0-82.0-0.0","02897101","wem/bandit_single","ACN0C9HPYDTED","pain","3","","72","H","0","img/none_selected.jpg","0","0","1","","0.2666943954","false","45","","0.2666943954","main_expt","","0.1992427108","","0.2911711657","","0.2387173179","","","","","",""
"246","","bandit","121","495883","0.0-83.0-0.0","02897101","wem/bandit_single","ACN0C9HPYDTED","pain","3","","75","K","2","","0","0","1","","0.2520057509","false","46","","0.3187479261","main_expt","","0.2240306516","","0.2520057509","","0.2142046797","","","","","",""
"470","","bandit","122","498107","0.0-84.0-0.0","02897101","wem/bandit_single","ACN0C9HPYDTED","pain","3","","76","L","3","","0","0","1","","0.2454335886","false","47","","0.3190608455","main_expt","","0.2065012218","","0.2527148282","","0.2454335886","","","","","",""
"126","","bandit","123","499987","0.0-85.0-0.0","02897101","wem/bandit_single","ACN0C9HPYDTED","pain","3","","75","K","2","","0","0","1","","0.273334487","false","48","","0.3135096665","main_expt","","0.1926440163","","0.273334487","","0.2810950816","","","","","",""
"181","","bandit","124","501935","0.0-86.0-0.0","02897101","wem/bandit_single","ACN0C9HPYDTED","pain","3","","74","J","1","","0","1","0","","0.1670810943","false","49","","0.3341811191","main_expt","","0.1670810943","","0.3181736471","","0.2547597437","","","","","",""
"292","","bandit","125","503981","0.0-87.0-0.0","02897101","wem/bandit_single","ACN0C9HPYDTED","pain","3","","74","J","1","","0","0","1","","0.1198069869","false","50","","0.3459923598","main_expt","","0.1198069869","","0.3806153608","","0.224323175","","","","","",""
"29","","bandit","126","505765","0.0-88.0-0.0","02897101","wem/bandit_single","ACN0C9HPYDTED","pain","3","","72","H","0","img/none_selected.jpg","0","0","1","","0.3331953563","false","51","","0.3331953563","main_expt","","0.103394302","","0.3949296296","","0.2755477452","","","","","",""
"57","","bandit","127","507588","0.0-89.0-0.0","02897101","wem/bandit_single","ACN0C9HPYDTED","pain","3","","74","J","1","","0","0","1","","0.1018912343","false","52","","0.3915962888","main_expt","","0.1018912343","","0.3544293331","","0.3022170302","","","","","",""
"245","","bandit","128","509588","0.0-90.0-0.0","02897101","wem/bandit_single","ACN0C9HPYDTED","pain","3","","74","J","1","","0","0","1","","0.07233269407","false","53","","0.3984086051","main_expt","","0.07233269407","","0.3007967805","","0.2886203433","","","","","",""
"822","","bandit","129","512165","0.0-91.0-0.0","02897101","wem/bandit_single","ACN0C9HPYDTED","pain","3","","72","H","0","img/none_selected.jpg","0","1","0","","0.4181407331","false","54","","0.4181407331","main_expt","","0.09210147888","","0.3376398899","","0.3072524501","","","","","",""
"1670","","bandit","130","515589","0.0-92.0-0.0","02897101","wem/bandit_single","ACN0C9HPYDTED","pain","3","","74","J","1","","0","0","1","","0.08866102842","false","55","","0.3964386999","main_expt","","0.08866102842","","0.3625264345","","0.3847595325","","","","","",""
"940","","bandit","131","518283","0.0-93.0-0.0","02897101","wem/bandit_single","ACN0C9HPYDTED","pain","3","","74","J","1","","0","0","1","","0.1208391037","false","56","","0.4043277199","main_expt","","0.1208391037","","0.313137485","","0.4008313728","","","","","",""
"116","","bandit","132","520155","0.0-94.0-0.0","02897101","wem/bandit_single","ACN0C9HPYDTED","pain","3","","72","H","0","img/none_selected.jpg","0","0","1","","0.3232173094","false","57","","0.3232173094","main_expt","","0.1429525169","","0.3287581384","","0.3763680666","","","","","",""
"77","","bandit","133","521988","0.0-95.0-0.0","02897101","wem/bandit_single","ACN0C9HPYDTED","pain","3","","74","J","1","","0","1","0","","0.1800007821","false","58","","0.3352595409","main_expt","","0.1800007821","","0.2891608333","","0.3630839511","","","","","",""
"45","","bandit","134","523788","0.0-96.0-0.0","02897101","wem/bandit_single","ACN0C9HPYDTED","pain","3","","74","J","1","","0","0","1","","0.1168587732","false","59","","0.3423270404","main_expt","","0.1168587732","","0.2228703537","","0.3166885591","","","","","",""
"85","","bandit","135","525628","0.0-97.0-0.0","02897101","wem/bandit_single","ACN0C9HPYDTED","pain","3","","72","H","0","img/none_selected.jpg","0","1","0","","0.3326485747","false","60","","0.3326485747","main_expt","","0.08966050757","","0.2694349638","","0.3339947878","","","","","",""
"1085","","bandit","136","528468","0.0-98.0-0.0","02897101","wem/bandit_single","ACN0C9HPYDTED","pain","3","","72","H","0","img/none_selected.jpg","0","0","1","","0.3239501662","false","61","","0.3239501662","main_expt","","0.06827284498","","0.3291501217","","0.3559621948","","","","","",""
"3","","bandit","137","530228","0.0-99.0-0.0","02897101","wem/bandit_single","ACN0C9HPYDTED","pain","3","","74","J","1","","0","0","1","","0.0870528816","false","62","","0.3140158541","main_expt","","0.0870528816","","0.3516688484","","0.3565904981","","","","","",""
"102","","bandit","138","532084","0.0-100.0-0.0","02897101","wem/bandit_single","ACN0C9HPYDTED","pain","3","","72","H","0","img/none_selected.jpg","0","1","0","","0.2896297009","false","63","","0.2896297009","main_expt","","0.07384780705","","0.3662001291","","0.3766945074","","","","","",""
"1500","","bandit","139","535341","0.0-101.0-0.0","02897101","wem/bandit_single","ACN0C9HPYDTED","pain","3","","72","H","0","img/none_selected.jpg","0","1","0","","0.2848001348","false","64","","0.2848001348","main_expt","","0.09386223648","","0.3986377969","","0.4038560084","","","","","",""
"2903","","bandit","140","539998","0.0-102.0-0.0","02897101","wem/bandit_single","ACN0C9HPYDTED","pain","3","","72","H","0","img/none_selected.jpg","0","0","1","","0.2621939157","false","65","","0.2621939157","main_expt","","0.08656227431","","0.4284050928","","0.4081833366","","","","","",""
"1084","","bandit","141","542838","0.0-103.0-0.0","02897101","wem/bandit_single","ACN0C9HPYDTED","pain","3","","74","J","1","","0","1","0","","0.1254260964","false","66","","0.2218985249","main_expt","","0.1254260964","","0.4295130084","","0.4111507483","","","","","",""
"52","","bandit","142","544644","0.0-104.0-0.0","02897101","wem/bandit_single","ACN0C9HPYDTED","pain","3","","74","J","1","","0","0","1","","0.0848557225","false","67","","0.2203007364","main_expt","","0.0848557225","","0.4192215244","","0.3731562577","","","","","",""
"214","","bandit","143","546612","0.0-105.0-0.0","02897101","wem/bandit_single","ACN0C9HPYDTED","pain","3","","72","H","0","img/none_selected.jpg","0","0","1","","0.2163243509","false","68","","0.2163243509","main_expt","","0.1277621339","","0.4617344849","","0.3471707475","","","","","",""
"110","","bandit","144","548476","0.0-106.0-0.0","02897101","wem/bandit_single","ACN0C9HPYDTED","pain","3","","74","J","1","","0","0","1","","0.1425885083","false","69","","0.1552451017","main_expt","","0.1425885083","","0.4496684627","","0.3163780081","","","","","",""
"318","","bandit","145","550548","0.0-107.0-0.0","02897101","wem/bandit_single","ACN0C9HPYDTED","pain","3","","75","K","2","","0","0","1","","0.4572021165","false","70","","0.144295094","main_expt","","0.1765985622","","0.4572021165","","0.2872849644","","","","","",""
"45","","bandit","146","552348","0.0-108.0-0.0","02897101","wem/bandit_single","ACN0C9HPYDTED","pain","3","","76","L","3","","0","1","0","","0.300298776","false","71","","0.1823242822","main_expt","","0.1520060204","","0.457930868","","0.300298776","","","","","",""
"45","","bandit","147","554148","0.0-109.0-0.0","02897101","wem/bandit_single","ACN0C9HPYDTED","pain","3","","76","L","3","","0","0","1","","0.3280152389","false","72","","0.144478384","main_expt","","0.09933583891","","0.4687468973","","0.3280152389","","","","","",""
"239","","bandit","148","556142","0.0-110.0-0.0","02897101","wem/bandit_single","ACN0C9HPYDTED","pain","3","","75","K","2","","0","1","0","","0.4707862587","false","73","","0.1420634247","main_expt","","0.1087995109","","0.4707862587","","0.2758062481","","","","","",""
"163","","bandit","149","558061","0.0-111.0-0.0","02897101","wem/bandit_single","ACN0C9HPYDTED","pain","3","","75","K","2","","0","0","1","","0.4602293826","false","74","","0.1358649702","main_expt","","0.150223613","","0.4602293826","","0.3370537031","","","","","",""
"133","","bandit","150","559949","0.0-112.0-0.0","02897101","wem/bandit_single","ACN0C9HPYDTED","pain","3","","76","L","3","","0","0","1","","0.3323795279","false","75","","0.09700523291","main_expt","","0.1945690608","","0.439891953","","0.3323795279","","","","","",""
"381","","bandit","151","562085","0.0-113.0-0.0","02897101","wem/bandit_single","ACN0C9HPYDTED","pain","3","","75","K","2","","0","0","1","","0.4424180744","false","76","","0.07829726083","main_expt","","0.2454913388","","0.4424180744","","0.3822428931","","","","","",""
"286","","bandit","152","564125","0.0-114.0-0.0","02897101","wem/bandit_single","ACN0C9HPYDTED","pain","3","","74","J","1","","0","0","1","","0.2181262922","false","77","","0.08460916486","main_expt","","0.2181262922","","0.4066280348","","0.4136836411","","","","","",""
"26","","bandit","153","565908","0.0-115.0-0.0","02897101","wem/bandit_single","ACN0C9HPYDTED","pain","3","","72","H","0","img/none_selected.jpg","0","1","0","","0.0875988483","false","78","","0.0875988483","main_expt","","0.2500794828","","0.3969262671","","0.4505469687","","","","","",""
"86","","bandit","154","567748","0.0-116.0-0.0","02897101","wem/bandit_single","ACN0C9HPYDTED","pain","3","","72","H","0","img/none_selected.jpg","0","1","0","","0.06491107755","false","79","","0.06491107755","main_expt","","0.2021405589","","0.4119020232","","0.4251749511","","","","","",""
"13","","bandit","155","569517","0.0-117.0-0.0","02897101","wem/bandit_single","ACN0C9HPYDTED","pain","3","","72","H","0","img/none_selected.jpg","0","0","1","","0.1021818806","false","80","","0.1021818806","main_expt","","0.1654874554","","0.3797331509","","0.3976376265","","","","","",""
"44","","bandit","156","571316","0.0-118.0-0.0","02897101","wem/bandit_single","ACN0C9HPYDTED","pain","3","","74","J","1","","0","0","1","","0.1281487551","false","81","","0.07175209231","main_expt","","0.1281487551","","0.4024270851","","0.409462467","","","","","",""
"45","","bandit","157","573117","0.0-119.0-0.0","02897101","wem/bandit_single","ACN0C9HPYDTED","pain","3","","72","H","0","img/none_selected.jpg","0","0","1","","0.04651379375","false","82","","0.04651379375","main_expt","","0.1167166884","","0.3976574516","","0.4541942335","","","","","",""
"269","","bandit","158","575142","0.0-120.0-0.0","02897101","wem/bandit_single","ACN0C9HPYDTED","pain","3","","76","L","3","","0","0","1","","0.4452160763","false","83","","0.03148502893","main_expt","","0.1426109787","","0.3749492802","","0.4452160763","","","","","",""
"107","","bandit","159","577005","0.0-121.0-0.0","02897101","wem/bandit_single","ACN0C9HPYDTED","pain","3","","75","K","2","","0","1","0","","0.4021863709","false","84","","0.05186863446","main_expt","","0.121887906","","0.4021863709","","0.438985114","","","","","",""
"61","","bandit","160","578823","0.0-122.0-0.0","02897101","wem/bandit_single","ACN0C9HPYDTED","pain","3","","75","K","2","","0","0","1","","0.3624574422","false","85","","0.04986731509","main_expt","","0.1361926199","","0.3624574422","","0.4331173667","","","","","",""
"434","","bandit","161","581012","0.0-123.0-0.0","02897101","wem/bandit_single","ACN0C9HPYDTED","pain","3","","72","H","0","img/none_selected.jpg","0","0","1","","0.05891938772","false","86","","0.05891938772","main_expt","","0.1287871674","","0.387939101","","0.447547065","","","","","",""
"6","","bandit","162","582773","0.0-124.0-0.0","02897101","wem/bandit_single","ACN0C9HPYDTED","pain","3","","75","K","2","","0","0","1","","0.3949621072","false","87","","0.06619539979","main_expt","","0.13112728","","0.3949621072","","0.4451560311","","","","","",""
"415","","bandit","163","584943","0.0-125.0-0.0","02897101","wem/bandit_single","ACN0C9HPYDTED","pain","3","","74","J","1","","0","0","1","","0.1385028762","false","88","","0.03553047297","main_expt","","0.1385028762","","0.3789082299","","0.4010299359","","","","","",""
"43","","bandit","164","586742","0.0-126.0-0.0","02897101","wem/bandit_single","ACN0C9HPYDTED","pain","3","","75","K","2","","0","1","0","","0.3718344374","false","89","","0.03983007571","main_expt","","0.1377901848","","0.3718344374","","0.430672582","","","","","",""
"4","","bandit","165","588501","0.0-127.0-0.0","02897101","wem/bandit_single","ACN0C9HPYDTED","pain","3","","75","K","2","","0","1","0","","0.4341719303","false","90","","0.02618566652","main_expt","","0.1642812903","","0.4341719303","","0.4063924327","","","","","",""
"28","","bandit","166","590285","0.0-128.0-0.0","02897101","wem/bandit_single","ACN0C9HPYDTED","pain","3","","75","K","2","","0","1","0","","0.4538289377","false","91","","0.03325063158","main_expt","","0.2115922749","","0.4538289377","","0.4115689239","","","","","",""
"67","","bandit","167","592108","0.0-129.0-0.0","02897101","wem/bandit_single","ACN0C9HPYDTED","pain","3","","75","K","2","","0","0","1","","0.4508501544","false","92","","0.02042352937","main_expt","","0.1819790886","","0.4508501544","","0.4195244723","","","","","",""
"28","","bandit","168","593892","0.0-130.0-0.0","02897101","wem/bandit_single","ACN0C9HPYDTED","pain","3","","76","L","3","","0","1","0","","0.3976010387","false","93","","0.01887694535","main_expt","","0.2039146085","","0.4548943395","","0.3976010387","","","","","",""
"333","","bandit","169","595980","0.0-131.0-0.0","02897101","wem/bandit_single","ACN0C9HPYDTED","pain","3","","76","L","3","","0","0","1","","0.3668479885","false","94","","0.02367451168","main_expt","","0.2307813202","","0.4646086811","","0.3668479885","","","","","",""
"252","","bandit","170","597988","0.0-132.0-0.0","02897101","wem/bandit_single","ACN0C9HPYDTED","pain","3","","75","K","2","","0","0","1","","0.467541367","false","95","","0.02723032617","main_expt","","0.2213313998","","0.467541367","","0.3332342888","","","","","",""
"204","","bandit","171","599947","0.0-133.0-0.0","02897101","wem/bandit_single","ACN0C9HPYDTED","pain","3","","76","L","3","","0","0","1","","0.2884910782","false","96","","0.02648196594","main_expt","","0.2568515079","","0.4642351642","","0.2884910782","","","","","",""
"149","","bandit","172","601851","0.0-134.0-0.0","02897101","wem/bandit_single","ACN0C9HPYDTED","pain","3","","75","K","2","","0","0","1","","0.4467755515","false","97","","0.01585024216","main_expt","","0.2699845376","","0.4467755515","","0.2656891479","","","","","",""
"190","","bandit","173","603796","0.0-135.0-0.0","02897101","wem/bandit_single","ACN0C9HPYDTED","pain","3","","72","H","0","img/none_selected.jpg","0","0","1","","0.01169409205","false","98","","0.01169409205","main_expt","","0.2797451528","","0.4056350907","","0.2595300749","","","","","",""
"36","","bandit","174","605587","0.0-136.0-0.0","02897101","wem/bandit_single","ACN0C9HPYDTED","pain","3","","75","K","2","","0","0","1","","0.339742379","false","99","","0.01197913588","main_expt","","0.3187705275","","0.339742379","","0.2519900202","","","","","",""
"107","","bandit","175","607451","0.0-137.0-0.0","02897101","wem/bandit_single","ACN0C9HPYDTED","pain","3","","74","J","1","","0","0","1","","0.3570824245","false","100","","0.01759776774","main_expt","","0.3570824245","","0.3381167522","","0.2523409295","","","","","",""
"359","","bandit","176","609565","0.0-138.0-0.0","02897101","wem/bandit_single","ACN0C9HPYDTED","pain","3","","75","K","2","","0","0","1","","0.2803213009","false","101","","0.04295615511","main_expt","","0.3489468272","","0.2803213009","","0.2146893193","","","","","",""
"138","","bandit","177","611461","0.0-139.0-0.0","02897101","wem/bandit_single","ACN0C9HPYDTED","pain","3","","76","L","3","","0","0","1","","0.1843767259","false","102","","0.06572998715","main_expt","","0.3015799625","","0.317644571","","0.1843767259","","","","","",""
"67","","bandit","178","613284","0.0-140.0-0.0","02897101","wem/bandit_single","ACN0C9HPYDTED","pain","3","","75","K","2","","0","0","1","","0.3024927185","false","103","","0.1043212589","main_expt","","0.2656450655","","0.3024927185","","0.2108432206","","","","","",""
"12","","bandit","179","615053","0.0-141.0-0.0","02897101","wem/bandit_single","ACN0C9HPYDTED","pain","3","","72","H","0","img/none_selected.jpg","0","0","1","","0.07063930719","false","104","","0.07063930719","main_expt","","0.261155182","","0.3339077782","","0.26792014","","","","","",""
"283","","bandit","180","617091","0.0-142.0-0.0","02897101","wem/bandit_single","ACN0C9HPYDTED","pain","3","","72","H","0","img/none_selected.jpg","0","0","1","","0.09992353171","false","105","","0.09992353171","main_expt","","0.2794756432","","0.2966783269","","0.3302583292","","","","","",""
"53","","bandit","181","618899","0.0-143.0-0.0","02897101","wem/bandit_single","ACN0C9HPYDTED","pain","3","","74","J","1","","0","0","1","","0.2719827923","false","106","","0.1074399807","main_expt","","0.2719827923","","0.3722996478","","0.3099187861","","","","","",""
"181","","bandit","182","620835","0.0-144.0-0.0","02897101","wem/bandit_single","ACN0C9HPYDTED","pain","3","","72","H","0","img/none_selected.jpg","0","0","1","","0.1398361659","false","107","","0.1398361659","main_expt","","0.2614179637","","0.3764369168","","0.3526315454","","","","","",""
"196","","bandit","183","622787","0.0-145.0-0.0","02897101","wem/bandit_single","ACN0C9HPYDTED","pain","3","","75","K","2","","0","1","0","","0.3221289315","false","108","","0.1503356919","main_expt","","0.3154283329","","0.3221289315","","0.3741147492","","","","","",""
"60","","bandit","184","624605","0.0-146.0-0.0","02897101","wem/bandit_single","ACN0C9HPYDTED","pain","3","","75","K","2","","0","0","1","","0.3394272446","false","109","","0.1554773292","main_expt","","0.3965133924","","0.3394272446","","0.3775387023","","","","","",""
"140","","bandit","185","626501","0.0-147.0-0.0","02897101","wem/bandit_single","ACN0C9HPYDTED","pain","3","","76","L","3","","0","1","0","","0.3603169275","false","110","","0.1862379276","main_expt","","0.4096679205","","0.3108194313","","0.3603169275","","","","","",""
"35","","bandit","186","628292","0.0-148.0-0.0","02897101","wem/bandit_single","ACN0C9HPYDTED","pain","3","","75","K","2","","0","0","1","","0.2754643313","false","111","","0.2096222548","main_expt","","0.4107972434","","0.2754643313","","0.3492898999","","","","","",""
"20","","bandit","187","630067","0.0-149.0-0.0","02897101","wem/bandit_single","ACN0C9HPYDTED","pain","3","","76","L","3","","0","0","1","","0.3332089306","false","112","","0.2432579143","main_expt","","0.4229867006","","0.2906444469","","0.3332089306","","","","","",""
"45","","bandit","188","631868","0.0-150.0-0.0","02897101","wem/bandit_single","ACN0C9HPYDTED","pain","3","","76","L","3","","0","0","1","","0.3450976056","false","113","","0.1721880852","main_expt","","0.4045712819","","0.3006146448","","0.3450976056","","","","","",""
"82","","bandit","189","633707","0.0-151.0-0.0","02897101","wem/bandit_single","ACN0C9HPYDTED","pain","3","","76","L","3","","0","0","1","","0.3725565121","false","114","","0.2081909003","main_expt","","0.3821667802","","0.2668468313","","0.3725565121","","","","","",""
"29","","bandit","190","635491","0.0-152.0-0.0","02897101","wem/bandit_single","ACN0C9HPYDTED","pain","3","","72","H","0","img/none_selected.jpg","0","0","1","","0.272711811","false","115","","0.272711811","main_expt","","0.3342096713","","0.3032344037","","0.3789561431","","","","","",""
"117","","bandit","191","637365","0.0-153.0-0.0","02897101","wem/bandit_single","ACN0C9HPYDTED","pain","3","","74","J","1","","0","0","1","","0.3475890958","false","116","","0.2801201945","main_expt","","0.3475890958","","0.279678247","","0.3829881954","","","","","",""
"338","","bandit","192","639459","0.0-154.0-0.0","02897101","wem/bandit_single","ACN0C9HPYDTED","pain","3","","76","L","3","","0","1","0","","0.3872477479","false","117","","0.3615324036","main_expt","","0.3545652452","","0.2762620489","","0.3872477479","","","","","",""
"301","","bandit","193","641515","0.0-155.0-0.0","02897101","wem/bandit_single","ACN0C9HPYDTED","pain","3","","76","L","3","","0","0","1","","0.3952603005","false","118","","0.3615177178","main_expt","","0.3542043025","","0.2880572365","","0.3952603005","","","","","",""
"117","","bandit","194","643389","0.0-156.0-0.0","02897101","wem/bandit_single","ACN0C9HPYDTED","pain","3","","75","K","2","","0","0","1","","0.2807620685","false","119","","0.3875935955","main_expt","","0.3471352845","","0.2807620685","","0.3838673248","","","","","",""
"59","","bandit","195","645204","0.0-157.0-0.0","02897101","wem/bandit_single","ACN0C9HPYDTED","pain","3","","75","K","2","","0","1","0","","0.2811576832","false","120","","0.4052723714","main_expt","","0.3343169965","","0.2811576832","","0.4148997213","","","","","",""
"116","","bandit","196","647076","0.0-158.0-0.0","02897101","wem/bandit_single","ACN0C9HPYDTED","pain","3","","75","K","2","","0","0","1","","0.3016455194","false","121","","0.44462971","main_expt","","0.3595120763","","0.3016455194","","0.4184259471","","","","","",""
"675","","bandit","197","649507","0.0-159.0-0.0","02897101","wem/bandit_single","ACN0C9HPYDTED","pain","3","","76","L","3","","0","0","1","","0.4271141924","false","122","","0.4338931322","main_expt","","0.3296914373","","0.3161331551","","0.4271141924","","","","","",""
"67","","bandit","198","651332","0.0-160.0-0.0","02897101","wem/bandit_single","ACN0C9HPYDTED","pain","3","","76","L","3","","0","0","1","","0.3994299035","false","123","","0.4248885798","main_expt","","0.3369167856","","0.2882518765","","0.3994299035","","","","","",""
"238","","bandit","199","653332","0.0-161.0-0.0","02897101","wem/bandit_single","ACN0C9HPYDTED","pain","3","","75","K","2","","0","0","1","","0.3426101702","false","124","","0.3773411534","main_expt","","0.3181772373","","0.3426101702","","0.4319292606","","","","","",""
"164","","bandit","200","655252","0.0-162.0-0.0","02897101","wem/bandit_single","ACN0C9HPYDTED","pain","3","","76","L","3","","0","0","1","","0.4228137624","false","125","","0.3322500489","main_expt","","0.3285823626","","0.3623178769","","0.4228137624","","","","","",""
"109","","bandit","201","657116","0.0-163.0-0.0","02897101","wem/bandit_single","ACN0C9HPYDTED","pain","3","","75","K","2","","0","0","1","","0.3487147863","false","126","","0.3742157909","main_expt","","0.3203566048","","0.3487147863","","0.4445824992","","","","","",""
"20","","bandit","202","658893","0.0-164.0-0.0","02897101","wem/bandit_single","ACN0C9HPYDTED","pain","3","","76","L","3","","0","1","0","","0.4525048151","false","127","","0.3851047317","main_expt","","0.3852478983","","0.4137567253","","0.4525048151","","","","","",""
"12","","bandit","203","660662","0.0-165.0-0.0","02897101","wem/bandit_single","ACN0C9HPYDTED","pain","3","","76","L","3","","0","1","0","","0.4692783601","false","128","","0.4043255462","main_expt","","0.3389365807","","0.3814482247","","0.4692783601","","","","","",""
"282","","bandit","204","662701","0.0-166.0-0.0","02897101","wem/bandit_single","ACN0C9HPYDTED","pain","3","","76","L","3","","0","1","0","","0.4168961411","false","129","","0.4123407707","main_expt","","0.3137404055","","0.4168244781","","0.4168961411","","","","","",""
"59","","bandit","205","664517","0.0-167.0-0.0","02897101","wem/bandit_single","ACN0C9HPYDTED","pain","3","","76","L","3","","0","1","0","","0.3790243023","false","130","","0.4046971735","main_expt","","0.3258581953","","0.4365918222","","0.3790243023","","","","","",""
"523","","bandit","206","666797","0.0-168.0-0.0","02897101","wem/bandit_single","ACN0C9HPYDTED","pain","3","","76","L","3","","0","0","1","","0.4049885765","false","131","","0.4461276952","main_expt","","0.2883577813","","0.4389841863","","0.4049885765","","","","","",""
"67","","bandit","207","668622","0.0-169.0-0.0","02897101","wem/bandit_single","ACN0C9HPYDTED","pain","3","","75","K","2","","0","1","0","","0.4152650591","false","132","","0.4611465992","main_expt","","0.3560589507","","0.4152650591","","0.4146365962","","","","","",""
"59","","bandit","208","670437","0.0-170.0-0.0","02897101","wem/bandit_single","ACN0C9HPYDTED","pain","3","","75","K","2","","0","0","1","","0.4542457407","false","133","","0.4798080461","main_expt","","0.358394082","","0.4542457407","","0.3895917514","","","","","",""
"43","","bandit","209","672237","0.0-171.0-0.0","02897101","wem/bandit_single","ACN0C9HPYDTED","pain","3","","76","L","3","","0","0","1","","0.4031985028","false","134","","0.4536835414","main_expt","","0.3605573227","","0.4598844585","","0.4031985028","","","","","",""
"523","","bandit","210","674516","0.0-172.0-0.0","02897101","wem/bandit_single","ACN0C9HPYDTED","pain","3","","75","K","2","","0","1","0","","0.4690925783","false","135","","0.4297718384","main_expt","","0.3695471057","","0.4690925783","","0.3950250086","","","","","",""
"1397","","bandit","211","677670","0.0-173.0-0.0","02897101","wem/bandit_single","ACN0C9HPYDTED","pain","3","","75","K","2","","0","0","1","","0.4382452635","false","136","","0.4047290025","main_expt","","0.4060603524","","0.4382452635","","0.3958408827","","","","","",""
"506","","bandit","212","679933","0.0-174.0-0.0","02897101","wem/bandit_single","ACN0C9HPYDTED","pain","3","","76","L","3","","0","1","0","","0.4025558346","false","137","","0.4062789173","main_expt","","0.3977168634","","0.4469583278","","0.4025558346","","","","","",""
"1516","","bandit","213","683205","0.0-175.0-0.0","02897101","wem/bandit_single","ACN0C9HPYDTED","pain","3","","75","K","2","","0","1","0","","0.44739429","false","138","","0.3893267926","main_expt","","0.3884520433","","0.44739429","","0.3901350715","","","","","",""
"364","","bandit","214","685325","0.0-176.0-0.0","02897101","wem/bandit_single","ACN0C9HPYDTED","pain","3","","75","K","2","","0","1","0","","0.4329330235","false","139","","0.3355070849","main_expt","","0.3517782966","","0.4329330235","","0.4069565875","","","","","",""
"515","","bandit","215","687596","0.0-177.0-0.0","02897101","wem/bandit_single","ACN0C9HPYDTED","pain","3","","75","K","2","","0","1","0","","0.4427321083","false","140","","0.3033729388","main_expt","","0.3147433726","","0.4427321083","","0.4384632306","","","","","",""
"508","","bandit","216","689861","0.0-178.0-0.0","02897101","wem/bandit_single","ACN0C9HPYDTED","pain","3","","75","K","2","","0","1","0","","0.4630674526","false","141","","0.3495942718","main_expt","","0.315874603","","0.4630674526","","0.4513823692","","","","","",""
"451","","bandit","217","692069","0.0-179.0-0.0","02897101","wem/bandit_single","ACN0C9HPYDTED","pain","3","","75","K","2","","0","0","1","","0.4678156034","false","142","","0.373744609","main_expt","","0.2660579121","","0.4678156034","","0.4477105457","","","","","",""
"2419","","bandit","218","696245","0.0-180.0-0.0","02897101","wem/bandit_single","ACN0C9HPYDTED","pain","3","","75","K","2","","0","1","0","","0.4556942345","false","143","","0.3983109068","main_expt","","0.2791435274","","0.4556942345","","0.4399018081","","","","","",""
"2659","","bandit","219","700662","0.0-181.0-0.0","02897101","wem/bandit_single","ACN0C9HPYDTED","pain","3","","75","K","2","","0","1","0","","0.4606745253","false","144","","0.4290647624","main_expt","","0.3232226047","","0.4606745253","","0.3929519584","","","","","",""
"883","","bandit","220","703301","0.0-182.0-0.0","02897101","wem/bandit_single","ACN0C9HPYDTED","pain","3","","75","K","2","","0","1","0","","0.4493721712","false","145","","0.4360055891","main_expt","","0.2863527335","","0.4493721712","","0.3638959839","","","","","",""
"347","","bandit","221","705404","0.0-183.0-0.0","02897101","wem/bandit_single","ACN0C9HPYDTED","pain","3","","75","K","2","","0","0","1","","0.411205332","false","146","","0.4408793748","main_expt","","0.2399582054","","0.411205332","","0.3109408856","","","","","",""
"33","","bandit","222","707195","0.0-184.0-0.0","02897101","wem/bandit_single","ACN0C9HPYDTED","pain","3","","76","L","3","","0","1","0","","0.303790043","false","147","","0.4152856751","main_expt","","0.2186627863","","0.4091009254","","0.303790043","","","","","",""
"420","","bandit","223","709372","0.0-185.0-0.0","02897101","wem/bandit_single","ACN0C9HPYDTED","pain","3","","75","K","2","","0","0","1","","0.3878952866","false","148","","0.400149315","main_expt","","0.233860686","","0.3878952866","","0.2836070719","","","","","",""
"92","","bandit","224","711220","0.0-186.0-0.0","02897101","wem/bandit_single","ACN0C9HPYDTED","pain","3","","76","L","3","","0","0","1","","0.2132997302","false","149","","0.4081055764","main_expt","","0.2752018233","","0.39239053","","0.2132997302","","","","","",""
"508","","bandit","225","713485","0.0-187.0-0.0","02897101","wem/bandit_single","ACN0C9HPYDTED","pain","3","","76","L","3","","0","0","1","","0.1906505553","false","150","","0.3946041437","main_expt","","0.2306982087","","0.3869122725","","0.1906505553","","","","","",""
"18","","bandit","226","715261","0.0-188.0-0.0","02897101","wem/bandit_single","ACN0C9HPYDTED","pain","3","","75","K","2","","0","1","0","","0.3562084687","false","151","","0.3517385329","main_expt","","0.272940168","","0.3562084687","","0.1887938372","","","","","",""
"49","","bandit","227","717068","0.0-189.0-0.0","02897101","wem/bandit_single","ACN0C9HPYDTED","pain","3","","75","K","2","","0","1","0","","0.3975166132","false","152","","0.33807167","main_expt","","0.246833375","","0.3975166132","","0.1452925277","","","","","",""
"51","","bandit","228","718876","0.0-190.0-0.0","02897101","wem/bandit_single","ACN0C9HPYDTED","pain","3","","75","K","2","","0","0","1","","0.4221253747","false","153","","0.3507556502","main_expt","","0.2555278221","","0.4221253747","","0.1236287895","","","","","",""
"243","","bandit","229","720876","0.0-191.0-0.0","02897101","wem/bandit_single","ACN0C9HPYDTED","pain","3","","76","L","3","","0","0","1","","0.119712108","false","154","","0.3484399371","main_expt","","0.1964980564","","0.3887365422","","0.119712108","","","","","",""
"82","","bandit","230","722715","0.0-192.0-0.0","02897101","wem/bandit_single","ACN0C9HPYDTED","pain","3","","76","L","3","","0","0","1","","0.1638630184","false","155","","0.4023996329","main_expt","","0.2158986014","","0.3935049101","","0.1638630184","","","","","",""
"123","","bandit","231","724595","0.0-193.0-0.0","02897101","wem/bandit_single","ACN0C9HPYDTED","pain","3","","75","K","2","","0","0","1","","0.4185769797","false","156","","0.3489947109","main_expt","","0.2269609611","","0.4185769797","","0.138562935","","","","","",""
"427","","bandit","232","726779","0.0-194.0-0.0","02897101","wem/bandit_single","ACN0C9HPYDTED","pain","3","","72","H","0","img/none_selected.jpg","0","1","0","","0.3223479281","false","157","","0.3223479281","main_expt","","0.2997599927","","0.412821327","","0.1424057266","","","","","",""
"234","","bandit","233","728772","0.0-195.0-0.0","02897101","wem/bandit_single","ACN0C9HPYDTED","pain","3","","72","H","0","img/none_selected.jpg","0","0","1","","0.3334556671","false","158","","0.3334556671","main_expt","","0.2608946303","","0.4433072999","","0.1068688432","","","","","",""
"83","","bandit","234","730612","0.0-196.0-0.0","02897101","wem/bandit_single","ACN0C9HPYDTED","pain","3","","74","J","1","","0","0","1","","0.2927903113","false","159","","0.3686402331","main_expt","","0.2927903113","","0.4600675837","","0.08394897778","","","","","",""
"2","","bandit","235","732372","0.0-197.0-0.0","02897101","wem/bandit_single","ACN0C9HPYDTED","pain","3","","72","H","0","img/none_selected.jpg","0","1","0","","0.3711838842","false","160","","0.3711838842","main_expt","","0.3165869591","","0.449399373","","0.09909711901","","","","","",""
"444","","bandit","236","734573","0.0-198.0-0.0","02897101","wem/bandit_single","ACN0C9HPYDTED","pain","3","","72","H","0","img/none_selected.jpg","0","0","1","","0.385982022","false","161","","0.385982022","main_expt","","0.3355773311","","0.4303005813","","0.09256485174","","","","","",""
"473","","bandit","237","736804","0.0-199.0-0.0","02897101","wem/bandit_single","ACN0C9HPYDTED","pain","3","","72","H","0","img/none_selected.jpg","0","0","1","","0.3435676447","false","162","","0.3435676447","main_expt","","0.3801839585","","0.4319487415","","0.07550585721","","","","","",""
"130","","bandit","238","738692","0.0-200.0-0.0","02897101","wem/bandit_single","ACN0C9HPYDTED","pain","3","","72","H","0","img/none_selected.jpg","0","1","0","","0.3840292687","false","163","","0.3840292687","main_expt","","0.3796909961","","0.4459750046","","0.08055395315","","","","","",""
"90","","bandit","239","740539","0.0-201.0-0.0","02897101","wem/bandit_single","ACN0C9HPYDTED","pain","3","","72","H","0","img/none_selected.jpg","0","0","1","","0.3427058888","false","164","","0.3427058888","main_expt","","0.3657353238","","0.4529977304","","0.07824920034","","","","","",""
"43","","bandit","240","742340","0.0-202.0-0.0","02897101","wem/bandit_single","ACN0C9HPYDTED","pain","3","","72","H","0","img/none_selected.jpg","0","0","1","","0.3258967388","false","165","","0.3258967388","main_expt","","0.3937598932","","0.4472909282","","0.08439791844","","","","","",""
"147","","bandit","241","744252","0.0-203.0-0.0","02897101","wem/bandit_single","ACN0C9HPYDTED","pain","3","","72","H","0","img/none_selected.jpg","0","0","1","","0.2704303424","false","166","","0.2704303424","main_expt","","0.3914196171","","0.4399772256","","0.05039915739","","","","","",""
"82","","bandit","242","746093","0.0-204.0-0.0","02897101","wem/bandit_single","ACN0C9HPYDTED","pain","3","","74","J","1","","0","0","1","","0.3919877423","false","167","","0.3205555932","main_expt","","0.3919877423","","0.4636729032","","0.05759530337","","","","","",""
"43","","bandit","243","747892","0.0-205.0-0.0","02897101","wem/bandit_single","ACN0C9HPYDTED","pain","3","","74","J","1","","0","0","1","","0.3647459683","false","168","","0.3639109947","main_expt","","0.3647459683","","0.4437796743","","0.04992464654","","","","","",""
"219","","bandit","244","749868","0.0-206.0-0.0","02897101","wem/bandit_single","ACN0C9HPYDTED","pain","3","","76","L","3","","0","0","1","","0.03416660819","false","169","","0.3733582142","main_expt","","0.4058418149","","0.456101387","","0.03416660819","","","","","",""
"34","","bandit","245","751661","0.0-207.0-0.0","02897101","wem/bandit_single","ACN0C9HPYDTED","pain","3","","75","K","2","","0","1","0","","0.4571218852","false","170","","0.3832331311","main_expt","","0.3998590153","","0.4571218852","","0.01917125828","","","","","",""
"119","","bandit","246","753541","0.0-208.0-0.0","02897101","wem/bandit_single","ACN0C9HPYDTED","pain","3","","75","K","2","","0","0","1","","0.445510323","false","171","","0.3815339887","main_expt","","0.3887500458","","0.445510323","","0.02244253376","","","","","",""
"27","","bandit","247","755327","0.0-209.0-0.0","02897101","wem/bandit_single","ACN0C9HPYDTED","pain","3","","75","K","2","","0","0","1","","0.4280794999","false","172","","0.3471775219","main_expt","","0.4102182378","","0.4280794999","","0.02619280326","","","","","",""
"31","","bandit","248","757115","0.0-210.0-0.0","02897101","wem/bandit_single","ACN0C9HPYDTED","pain","3","","75","K","2","","0","0","1","","0.4379780546","false","173","","0.340289466","main_expt","","0.3895773165","","0.4379780546","","0.0218428458","","","","","",""
"52","","bandit","249","758924","0.0-211.0-0.0","02897101","wem/bandit_single","ACN0C9HPYDTED","pain","3","","72","H","0","img/none_selected.jpg","0","0","1","","0.3280863639","false","174","","0.3280863639","main_expt","","0.3826402373","","0.4160926905","","0.02840617367","","","","","",""
"18","","bandit","250","760699","0.0-212.0-0.0","02897101","wem/bandit_single","ACN0C9HPYDTED","pain","3","","75","K","2","","0","1","0","","0.44195178","false","175","","0.3782643392","main_expt","","0.38572844","","0.44195178","","0.0268928826","","","","","",""
"164","","bandit","251","762619","0.0-213.0-0.0","02897101","wem/bandit_single","ACN0C9HPYDTED","pain","3","","75","K","2","","0","1","0","","0.4469840309","false","176","","0.3714875018","main_expt","","0.3566605828","","0.4469840309","","0.04471375276","","","","","",""
"410","","bandit","252","764788","0.0-214.0-0.0","02897101","wem/bandit_single","ACN0C9HPYDTED","pain","3","","75","K","2","","0","0","1","","0.4732589693","false","177","","0.3110573775","main_expt","","0.3736379944","","0.4732589693","","0.04508647299","","","","","",""
"147","","bandit","253","766692","0.0-215.0-0.0","02897101","wem/bandit_single","ACN0C9HPYDTED","pain","3","","72","H","0","img/none_selected.jpg","0","1","0","","0.3725785744","false","178","","0.3725785744","main_expt","","0.3835263095","","0.4716065645","","0.07342594821","","","","","",""
"10","","bandit","254","768461","0.0-216.0-0.0","02897101","wem/bandit_single","ACN0C9HPYDTED","pain","3","","72","H","0","img/none_selected.jpg","0","0","1","","0.4143512522","false","179","","0.4143512522","main_expt","","0.3531759074","","0.4724187392","","0.08189943715","","","","","",""
"58","","bandit","255","770275","0.0-217.0-0.0","02897101","wem/bandit_single","ACN0C9HPYDTED","pain","3","","75","K","2","","0","1","0","","0.4551908631","false","180","","0.4240428135","main_expt","","0.3185705061","","0.4551908631","","0.07894611151","","","","","",""
"51","","bandit","256","772084","0.0-218.0-0.0","02897101","wem/bandit_single","ACN0C9HPYDTED","pain","3","","75","K","2","","0","0","1","","0.456416976","false","181","","0.4394908049","main_expt","","0.2823592255","","0.456416976","","0.06982230443","","","","","",""
"586","","bandit","257","774429","0.0-219.0-0.0","02897101","wem/bandit_single","ACN0C9HPYDTED","pain","3","","72","H","0","img/none_selected.jpg","0","1","0","","0.4180692962","false","182","","0.4180692962","main_expt","","0.2741397005","","0.4525945541","","0.06674639092","","","","","",""
"50","","bandit","258","776237","0.0-220.0-0.0","02897101","wem/bandit_single","ACN0C9HPYDTED","pain","3","","72","H","0","img/none_selected.jpg","0","1","0","","0.4468782907","false","183","","0.4468782907","main_expt","","0.2936799338","","0.4439654651","","0.04008595334","","","","","",""
"98","","bandit","259","778092","0.0-221.0-0.0","02897101","wem/bandit_single","ACN0C9HPYDTED","pain","3","","72","H","0","img/none_selected.jpg","0","0","1","","0.4489540851","false","184","","0.4489540851","main_expt","","0.3027831177","","0.4366406792","","0.04652727321","","","","","",""
"59","","bandit","260","779908","0.0-222.0-0.0","02897101","wem/bandit_single","ACN0C9HPYDTED","pain","3","","75","K","2","","0","0","1","","0.4282468188","false","185","","0.4669005471","main_expt","","0.3180510168","","0.4282468188","","0.05033673313","","","","","",""
"3","","bandit","261","781669","0.0-223.0-0.0","02897101","wem/bandit_single","ACN0C9HPYDTED","pain","3","","75","K","2","","0","0","1","","0.4249990568","false","186","","0.419417397","main_expt","","0.3285352945","","0.4249990568","","0.03009771755","","","","","",""
"100","","bandit","262","783525","0.0-224.0-0.0","02897101","wem/bandit_single","ACN0C9HPYDTED","pain","3","","72","H","0","img/none_selected.jpg","0","1","0","","0.3735271503","false","187","","0.3735271503","main_expt","","0.3278715557","","0.4159118542","","0.02601150791","","","","","",""
"42","","bandit","263","785326","0.0-225.0-0.0","02897101","wem/bandit_single","ACN0C9HPYDTED","pain","3","","72","H","0","img/none_selected.jpg","0","1","0","","0.3339942922","false","188","","0.3339942922","main_expt","","0.3408065186","","0.4294829221","","0.02389042297","","","","","",""
"73","","bandit","264","787157","0.0-226.0-0.0","02897101","wem/bandit_single","ACN0C9HPYDTED","pain","3","","72","H","0","img/none_selected.jpg","0","0","1","","0.3200911101","false","189","","0.3200911101","main_expt","","0.3335894225","","0.4183094629","","0.02303770395","","","","","",""
"58","","bandit","265","788972","0.0-227.0-0.0","02897101","wem/bandit_single","ACN0C9HPYDTED","pain","3","","75","K","2","","0","1","0","","0.3769048436","false","190","","0.379511296","main_expt","","0.2560009578","","0.3769048436","","0.0156858998","","","","","",""
"26","","bandit","266","790756","0.0-228.0-0.0","02897101","wem/bandit_single","ACN0C9HPYDTED","pain","3","","75","K","2","","0","0","1","","0.3654839124","false","191","","0.3475909393","main_expt","","0.2422543603","","0.3654839124","","0.02184200568","","","","","",""
"67","","bandit","267","792581","0.0-229.0-0.0","02897101","wem/bandit_single","ACN0C9HPYDTED","pain","3","","72","H","0","img/none_selected.jpg","0","0","1","","0.3248483226","false","192","","0.3248483226","main_expt","","0.2479432207","","0.4158526776","","0.04159540118","","","","","",""
"46","","bandit","268","794388","0.0-230.0-0.0","02897101","wem/bandit_single","ACN0C9HPYDTED","pain","3","","75","K","2","","0","1","0","","0.4294001388","false","193","","0.3530355579","main_expt","","0.2198669916","","0.4294001388","","0.02418359434","","","","","",""
"123","","bandit","269","796269","0.0-231.0-0.0","02897101","wem/bandit_single","ACN0C9HPYDTED","pain","3","","75","K","2","","0","0","1","","0.421006879","false","194","","0.3613612536","main_expt","","0.1832858475","","0.421006879","","0.03036789999","","","","","",""
"82","","bandit","270","798108","0.0-232.0-0.0","02897101","wem/bandit_single","ACN0C9HPYDTED","pain","3","","72","H","0","img/none_selected.jpg","0","0","1","","0.3712676973","false","195","","0.3712676973","main_expt","","0.1758973168","","0.3993762185","","0.0328032794","","","","","",""
"19","","bandit","271","799884","0.0-233.0-0.0","02897101","wem/bandit_single","ACN0C9HPYDTED","pain","3","","75","K","2","","0","0","1","","0.3953591144","false","196","","0.3797177139","main_expt","","0.1472052011","","0.3953591144","","0.03367124179","","","","","",""
"74","","bandit","272","801717","0.0-234.0-0.0","02897101","wem/bandit_single","ACN0C9HPYDTED","pain","3","","72","H","0","img/none_selected.jpg","0","0","1","","0.3703437648","false","197","","0.3703437648","main_expt","","0.09357285733","","0.4186523265","","0.03515804352","","","","","",""
"131","","bandit","273","803605","0.0-235.0-0.0","02897101","wem/bandit_single","ACN0C9HPYDTED","pain","3","","76","L","3","","0","0","1","","0.0474911349","false","198","","0.3269028648","main_expt","","0.1466532231","","0.4334783576","","0.0474911349","","","","","",""
"90","","bandit","274","805452","0.0-236.0-0.0","02897101","wem/bandit_single","ACN0C9HPYDTED","pain","3","","74","J","1","","0","0","1","","0.1745555733","false","199","","0.2972028605","main_expt","","0.1745555733","","0.452916177","","0.04758635843","","","","","",""
"83","","bandit","275","807293","0.0-237.0-0.0","02897101","wem/bandit_single","ACN0C9HPYDTED","pain","3","","72","H","0","img/none_selected.jpg","0","0","1","","0.2548635421","false","200","","0.2548635421","main_expt","","0.1496088854","","0.4652130485","","0.06637193447","","","","","",""
"10","","bandit","276","809062","0.0-238.0-0.0","02897101","wem/bandit_single","ACN0C9HPYDTED","pain","3","","75","K","2","","0","1","0","","0.4544628945","false","201","","0.2360204523","main_expt","","0.1144678821","","0.4544628945","","0.03961336895","","","","","",""
"42","","bandit","277","810860","0.0-239.0-0.0","02897101","wem/bandit_single","ACN0C9HPYDTED","pain","3","","75","K","2","","0","0","1","","0.4346785174","false","202","","0.1847208139","main_expt","","0.08314182588","","0.4346785174","","0.04217273593","","","","","",""
"354","","bandit","278","812972","0.0-240.0-0.0","02897101","wem/bandit_single","ACN0C9HPYDTED","pain","3","","75","K","2","","0","1","0","","0.4340895374","false","203","","0.1740418795","main_expt","","0.1008304514","","0.4340895374","","0.03601881868","","","","","",""
"19","","bandit","279","814748","0.0-241.0-0.0","02897101","wem/bandit_single","ACN0C9HPYDTED","pain","3","","75","K","2","","0","1","0","","0.4398780919","false","204","","0.1469060572","main_expt","","0.1170364225","","0.4398780919","","0.04663301139","","","","","",""
"19","","bandit","280","816541","0.0-242.0-0.0","02897101","wem/bandit_single","ACN0C9HPYDTED","pain","3","","75","K","2","","0","1","0","","0.4001316318","false","205","","0.1162446513","main_expt","","0.1228414706","","0.4001316318","","0.04643109282","","","","","",""
"35","","bandit","281","818333","0.0-243.0-0.0","02897101","wem/bandit_single","ACN0C9HPYDTED","pain","3","","75","K","2","","0","0","1","","0.4347617828","false","206","","0.1289033918","main_expt","","0.1574749647","","0.4347617828","","0.06886832812","","","","","",""
"434","","bandit","282","820527","0.0-244.0-0.0","02897101","wem/bandit_single","ACN0C9HPYDTED","pain","3","","72","H","0","img/none_selected.jpg","0","0","1","","0.1261822501","false","207","","0.1261822501","main_expt","","0.1922173773","","0.4383015813","","0.0600143171","","","","","",""
"9","","bandit","283","822293","0.0-245.0-0.0","02897101","wem/bandit_single","ACN0C9HPYDTED","pain","3","","72","H","0","img/none_selected.jpg","0","0","1","","0.1024795668","false","208","","0.1024795668","main_expt","","0.1673160211","","0.4038237536","","0.04637571639","","","","","",""
"42","","bandit","284","824092","0.0-246.0-0.0","02897101","wem/bandit_single","ACN0C9HPYDTED","pain","3","","75","K","2","","0","0","1","","0.3890753365","false","209","","0.1129838087","main_expt","","0.1269527993","","0.3890753365","","0.04040360689","","","","","",""
"59","","bandit","285","825908","0.0-247.0-0.0","02897101","wem/bandit_single","ACN0C9HPYDTED","pain","3","","75","K","2","","0","1","0","","0.3792373644","false","210","","0.1562804612","main_expt","","0.1114377498","","0.3792373644","","0.02069644656","","","","","",""
"25","","bandit","286","827693","0.0-248.0-0.0","02897101","wem/bandit_single","ACN0C9HPYDTED","pain","3","","75","K","2","","0","0","1","","0.3780611868","false","211","","0.1363837251","main_expt","","0.1155820846","","0.3780611868","","0.03173395488","","","","","",""
"42","","bandit","287","829492","0.0-249.0-0.0","02897101","wem/bandit_single","ACN0C9HPYDTED","pain","3","","75","K","2","","0","1","0","","0.3483689532","false","212","","0.09358237554","main_expt","","0.1553323518","","0.3483689532","","0.02469601981","","","","","",""
"26","","bandit","288","831276","0.0-250.0-0.0","02897101","wem/bandit_single","ACN0C9HPYDTED","pain","3","","75","K","2","","0","0","1","","0.2874103991","false","213","","0.05743859841","main_expt","","0.2062901667","","0.2874103991","","0.04258417901","","","","","",""
"83","","bandit","289","833116","0.0-251.0-0.0","02897101","wem/bandit_single","ACN0C9HPYDTED","pain","3","","72","H","0","img/none_selected.jpg","0","0","1","","0.05800100084","false","214","","0.05800100084","main_expt","","0.2076956631","","0.2620706088","","0.05493755721","","","","","",""
"251","","bandit","290","835126","0.0-252.0-0.0","02897101","wem/bandit_single","ACN0C9HPYDTED","pain","3","","72","H","0","img/none_selected.jpg","0","1","0","","0.05413405856","false","215","","0.05413405856","main_expt","","0.2609492508","","0.2855520155","","0.08978059799","","","","","",""
"1353","","bandit","291","838237","0.0-253.0-0.0","02897101","wem/bandit_single","ACN0C9HPYDTED","pain","3","","75","K","2","","0","0","1","","0.2916786734","false","216","","0.03942357166","main_expt","","0.2500101786","","0.2916786734","","0.09809121306","","","","","",""
"48","","bandit","292","840045","0.0-254.0-0.0","02897101","wem/bandit_single","ACN0C9HPYDTED","pain","3","","75","K","2","","0","0","1","","0.2823685681","false","217","","0.03801572204","main_expt","","0.2748248586","","0.2823685681","","0.1427848958","","","","","",""
"465","","bandit","293","842269","0.0-255.0-0.0","02897101","wem/bandit_single","ACN0C9HPYDTED","pain","3","","72","H","0","img/none_selected.jpg","0","0","1","","0.03890441123","false","218","","0.03890441123","main_expt","","0.311954441","","0.2423520158","","0.1570322525","","","","","",""
"14","","bandit","294","844044","0.0-256.0-0.0","02897101","wem/bandit_single","ACN0C9HPYDTED","pain","3","","72","H","0","img/none_selected.jpg","0","0","1","","0.01887456362","false","219","","0.01887456362","main_expt","","0.3632760336","","0.2949403562","","0.1805036953","","","","","",""
"82","","bandit","295","845883","0.0-257.0-0.0","02897101","wem/bandit_single","ACN0C9HPYDTED","pain","3","","75","K","2","","0","1","0","","0.3123592507","false","220","","0.02149820142","main_expt","","0.3369908474","","0.3123592507","","0.1305519061","","","","","",""
"145","","bandit","296","847788","0.0-258.0-0.0","02897101","wem/bandit_single","ACN0C9HPYDTED","pain","3","","75","K","2","","0","0","1","","0.3184432139","false","221","","0.03528878979","main_expt","","0.3047504054","","0.3184432139","","0.09039333473","","","","","",""
"155","","bandit","297","849699","0.0-259.0-0.0","02897101","wem/bandit_single","ACN0C9HPYDTED","pain","3","","75","K","2","","0","0","1","","0.3596246423","false","222","","0.03906528797","main_expt","","0.3107799438","","0.3596246423","","0.0801847008","","","","","",""
"114","","bandit","298","851573","0.0-260.0-0.0","02897101","wem/bandit_single","ACN0C9HPYDTED","pain","3","","72","H","0","img/none_selected.jpg","0","0","1","","0.04285152396","false","223","","0.04285152396","main_expt","","0.3359374044","","0.3048299186","","0.08930296305","","","","","",""
"334","","bandit","299","853669","0.0-261.0-0.0","02897101","wem/bandit_single","ACN0C9HPYDTED","pain","3","","76","L","3","","0","0","1","","0.0783544472","false","224","","0.03308098724","main_expt","","0.354776332","","0.3097637171","","0.0783544472","","","","","",""
"65","","bandit","300","855492","0.0-262.0-0.0","02897101","wem/bandit_single","ACN0C9HPYDTED","pain","3","","74","J","1","","0","0","1","","0.3747964846","false","225","","0.03318257961","main_expt","","0.3747964846","","0.3313621339","","0.05733223117","","","","","",""
"2","","bandit","301","857251","0.0-263.0-0.0","02897101","wem/bandit_single","ACN0C9HPYDTED","pain","3","","75","K","2","","0","0","1","","0.2611013425","false","226","","0.02568716964","main_expt","","0.3530330239","","0.2611013425","","0.09472546141","","","","","",""
"91","","bandit","302","859099","0.0-264.0-0.0","02897101","wem/bandit_single","ACN0C9HPYDTED","pain","3","","72","H","0","img/none_selected.jpg","0","0","1","","0.03534330031","false","227","","0.03534330031","main_expt","","0.3299445106","","0.2761398934","","0.08353253247","","","","","",""
"818","","bandit","303","861675","0.0-265.0-0.0","02897101","wem/bandit_single","ACN0C9HPYDTED","pain","3","","72","H","0","img/none_selected.jpg","0","0","1","","0.03702628412","false","228","","0.03702628412","main_expt","","0.3286020352","","0.2358148364","","0.06220105415","","","","","",""
"203","","bandit","304","863637","0.0-266.0-0.0","02897101","wem/bandit_single","ACN0C9HPYDTED","pain","3","","75","K","2","","0","0","1","","0.2091128555","false","229","","0.03077125553","main_expt","","0.3178943429","","0.2091128555","","0.06639782905","","","","","",""
"641","","bandit","305","866035","0.0-267.0-0.0","02897101","wem/bandit_single","ACN0C9HPYDTED","pain","3","","75","K","2","","0","0","1","","0.181986641","false","230","","0.03752036101","main_expt","","0.3254915512","","0.181986641","","0.07029464087","","","","","",""
"161","","bandit","306","867955","0.0-268.0-0.0","02897101","wem/bandit_single","ACN0C9HPYDTED","pain","3","","72","H","0","img/none_selected.jpg","0","0","1","","0.02736090244","false","231","","0.02736090244","main_expt","","0.3298497064","","0.1599443191","","0.07612781315","","","","","",""
"732","","bandit","307","870445","0.0-269.0-0.0","02897101","wem/bandit_single","ACN0C9HPYDTED","pain","3","","72","H","0","img/none_selected.jpg","0","0","1","","0.02154887034","false","232","","0.02154887034","main_expt","","0.300331178","","0.125214013","","0.04325191911","","","","","",""
"1","","bandit","308","872204","0.0-270.0-0.0","02897101","wem/bandit_single","ACN0C9HPYDTED","pain","3","","75","K","2","","0","0","1","","0.134118517","false","233","","0.0228348974","main_expt","","0.3357562734","","0.134118517","","0.04039924652","","","","","",""
"226","","bandit","309","874188","0.0-271.0-0.0","02897101","wem/bandit_single","ACN0C9HPYDTED","pain","3","","75","K","2","","0","0","1","","0.1238594142","false","234","","0.01030782054","main_expt","","0.3257461803","","0.1238594142","","0.0435796211","","","","","",""
"25","","bandit","310","875971","0.0-272.0-0.0","02897101","wem/bandit_single","ACN0C9HPYDTED","pain","3","","76","L","3","","0","0","1","","0.02315237623","false","235","","0.02615737471","main_expt","","0.3534766227","","0.1141846942","","0.02315237623","","","","","",""
"2","","bandit","311","877733","0.0-273.0-0.0","02897101","wem/bandit_single","ACN0C9HPYDTED","pain","3","","74","J","1","","0","0","1","","0.3733068719","false","236","","0.0224272094","main_expt","","0.3733068719","","0.1101280349","","0.02010779399","","","","","",""
"145","","bandit","312","879636","0.0-274.0-0.0","02897101","wem/bandit_single","ACN0C9HPYDTED","pain","3","","76","L","3","","0","0","1","","0.01796146932","false","237","","0.02679999918","main_expt","","0.4105295152","","0.09079266978","","0.01796146932","","","","","",""
"121","","bandit","313","881516","0.0-275.0-0.0","02897101","wem/bandit_single","ACN0C9HPYDTED","pain","3","","75","K","2","","0","0","1","","0.1365862295","false","238","","0.07542988795","main_expt","","0.4225156592","","0.1365862295","","0.0167141813","","","","","",""
"145","","bandit","314","883421","0.0-276.0-0.0","02897101","wem/bandit_single","ACN0C9HPYDTED","pain","3","","75","K","2","","0","0","1","","0.1846819155","false","239","","0.09772903","main_expt","","0.4360895212","","0.1846819155","","0.03283355296","","","","","",""
"95","","bandit","315","885276","0.0-277.0-0.0","02897101","wem/bandit_single","ACN0C9HPYDTED","pain","3","","72","H","0","img/none_selected.jpg","0","0","1","","0.1044145256","false","240","","0.1044145256","main_expt","","0.423514393","","0.1795044078","","0.05325110434","","","","","",""
"105","","bandit","316","887141","0.0-278.0-0.0","02897101","wem/bandit_single","ACN0C9HPYDTED","pain","3","","72","H","0","img/none_selected.jpg","0","0","1","","0.109937241","false","241","","0.109937241","main_expt","","0.3824942702","","0.1522343712","","0.04551940083","","","","","",""
"114","","bandit","317","889013","0.0-279.0-0.0","02897101","wem/bandit_single","ACN0C9HPYDTED","pain","3","","74","J","1","","0","0","1","","0.3758562762","false","242","","0.09239004846","main_expt","","0.3758562762","","0.1433696576","","0.05503183359","","","","","",""
"153","","bandit","318","890925","0.0-280.0-0.0","02897101","wem/bandit_single","ACN0C9HPYDTED","pain","3","","74","J","1","","0","0","1","","0.2984655584","false","243","","0.1014218366","main_expt","","0.2984655584","","0.1427577162","","0.04467871076","","","","","",""
"48","","bandit","319","892732","0.0-281.0-0.0","02897101","wem/bandit_single","ACN0C9HPYDTED","pain","3","","74","J","1","","0","0","1","","0.2901672904","false","244","","0.192841162","main_expt","","0.2901672904","","0.1340795621","","0.06552455376","","","","","",""
"49","","bandit","320","894541","0.0-282.0-0.0","02897101","wem/bandit_single","ACN0C9HPYDTED","pain","3","","72","H","0","img/none_selected.jpg","0","1","0","","0.1953250812","false","245","","0.1953250812","main_expt","","0.2495050599","","0.1469719784","","0.1005127954","","","","","",""
"120","","bandit","321","896420","0.0-283.0-0.0","02897101","wem/bandit_single","ACN0C9HPYDTED","pain","3","","72","H","0","img/none_selected.jpg","0","0","1","","0.1865380945","false","246","","0.1865380945","main_expt","","0.2406773486","","0.140914489","","0.11534406","","","","","",""
"8","","bandit","322","898187","0.0-284.0-0.0","02897101","wem/bandit_single","ACN0C9HPYDTED","pain","3","","72","H","0","img/none_selected.jpg","0","0","1","","0.221100819","false","247","","0.221100819","main_expt","","0.2265306157","","0.1592666071","","0.08579934652","","","","","",""
"138","","bandit","323","900083","0.0-285.0-0.0","02897101","wem/bandit_single","ACN0C9HPYDTED","pain","3","","72","H","0","img/none_selected.jpg","0","1","0","","0.2106100544","false","248","","0.2106100544","main_expt","","0.2000380921","","0.2210893918","","0.08554071629","","","","","",""
"33","","bandit","324","901875","0.0-286.0-0.0","02897101","wem/bandit_single","ACN0C9HPYDTED","pain","3","","72","H","0","img/none_selected.jpg","0","1","0","","0.2172535859","false","249","","0.2172535859","main_expt","","0.1920984986","","0.2306666851","","0.07137080198","","","","","",""
"57","","bandit","325","903691","0.0-287.0-0.0","02897101","wem/bandit_single","ACN0C9HPYDTED","pain","3","","72","H","0","img/none_selected.jpg","0","0","1","","0.1953648199","false","250","","0.1953648199","main_expt","","0.1624135027","","0.2422322172","","0.06874505311","","","","","",""
"170","","bandit","326","905621","0.0-288.0-0.0","02897101","wem/bandit_single","ACN0C9HPYDTED","pain","3","","75","K","2","","0","0","1","","0.2425189851","false","251","","0.2129795833","main_expt","","0.2057369507","","0.2425189851","","0.04927492375","","","","","",""
"92","","bandit","327","907471","0.0-289.0-0.0","02897101","wem/bandit_single","ACN0C9HPYDTED","pain","3","","75","K","2","","0","0","1","","0.1980379423","false","252","","0.2271134102","main_expt","","0.26034901","","0.1980379423","","0.0504542679","","","","","",""
"125","","bandit","328","909356","0.0-290.0-0.0","02897101","wem/bandit_single","ACN0C9HPYDTED","pain","3","","72","H","0","img/none_selected.jpg","0","0","1","","0.2152809257","false","253","","0.2152809257","main_expt","","0.1886300366","","0.2040952335","","0.0313618618","","","","","",""
"104","","bandit","329","911220","0.0-291.0-0.0","02897101","wem/bandit_single","ACN0C9HPYDTED","pain","3","","74","J","1","","0","0","1","","0.1978078828","false","254","","0.2065685424","main_expt","","0.1978078828","","0.1621407843","","0.0191685034","","","","","",""
"151","","bandit","330","913132","0.0-292.0-0.0","02897101","wem/bandit_single","ACN0C9HPYDTED","pain","3","","74","J","1","","0","0","1","","0.1544468143","false","255","","0.2000715388","main_expt","","0.1544468143","","0.1817956319","","0.01882474885","","","","","",""
"270","","bandit","331","915164","0.0-293.0-0.0","02897101","wem/bandit_single","ACN0C9HPYDTED","pain","3","","72","H","0","img/none_selected.jpg","0","0","1","","0.1997851389","false","256","","0.1997851389","main_expt","","0.1552120094","","0.1796151025","","0.01765542058","","","","","",""
"152","","bandit","332","917076","0.0-294.0-0.0","02897101","wem/bandit_single","ACN0C9HPYDTED","pain","3","","72","H","0","img/none_selected.jpg","0","0","1","","0.1965173465","false","257","","0.1965173465","main_expt","","0.1337291471","","0.1874922979","","0.0162265086","","","","","",""
"112","","bandit","333","918947","0.0-295.0-0.0","02897101","wem/bandit_single","ACN0C9HPYDTED","pain","3","","76","L","3","","0","0","1","","0.01630278654","false","258","","0.1816932188","main_expt","","0.1279332347","","0.2152410464","","0.01630278654","","","","","",""
"105","","bandit","334","920811","0.0-296.0-0.0","02897101","wem/bandit_single","ACN0C9HPYDTED","pain","3","","75","K","2","","0","0","1","","0.2311433436","false","259","","0.2275026539","main_expt","","0.152418206","","0.2311433436","","0.0149919991","","","","","",""
"74","","bandit","335","922644","0.0-297.0-0.0","02897101","wem/bandit_single","ACN0C9HPYDTED","pain","3","","75","K","2","","0","0","1","","0.1621257941","false","260","","0.1798156178","main_expt","","0.1100328583","","0.1621257941","","0.02225913397","","","","","",""
"161","","bandit","336","924565","0.0-298.0-0.0","02897101","wem/bandit_single","ACN0C9HPYDTED","pain","3","","72","H","0","img/none_selected.jpg","0","0","1","","0.187122726","false","261","","0.187122726","main_expt","","0.1537012171","","0.1219102136","","0.02865634389","","","","","",""
"0","","bandit","337","926328","0.0-299.0-0.0","02897101","wem/bandit_single","ACN0C9HPYDTED","pain","3","","75","K","2","","0","0","1","","0.1667536199","false","262","","0.1507521212","main_expt","","0.1302597035","","0.1667536199","","0.03173788073","","","","","",""
"86","","bandit","338","928173","0.0-300.0-0.0","02897101","wem/bandit_single","ACN0C9HPYDTED","pain","3","","75","K","2","","0","1","0","","0.1361259709","false","263","","0.1374951011","main_expt","","0.1297736826","","0.1361259709","","0.04250990858","","","","","",""
"376","","bandit","339","930308","0.0-301.0-0.0","02897101","wem/bandit_single","ACN0C9HPYDTED","pain","3","","75","K","2","","0","0","1","","0.1217381733","false","264","","0.1158818852","main_expt","","0.1326654045","","0.1217381733","","0.056503948","","","","","",""
"296","","bandit","340","932364","0.0-302.0-0.0","02897101","wem/bandit_single","ACN0C9HPYDTED","pain","3","","75","K","2","","0","0","1","","0.1258265959","false","265","","0.1147359408","main_expt","","0.1586413096","","0.1258265959","","0.07592662832","","","","","",""
"17","","bandit","341","934140","0.0-303.0-0.0","02897101","wem/bandit_single","ACN0C9HPYDTED","pain","3","","72","H","0","img/none_selected.jpg","0","0","1","","0.09491002089","false","266","","0.09491002089","main_expt","","0.1496521415","","0.1445769791","","0.1002340293","","","","","",""
"195","","bandit","342","936094","0.0-304.0-0.0","02897101","wem/bandit_single","ACN0C9HPYDTED","pain","3","","72","H","0","img/none_selected.jpg","0","0","1","","0.1181284109","false","267","","0.1181284109","main_expt","","0.1410052581","","0.1014120844","","0.1526998269","","","","","",""
"510","","bandit","343","938365","0.0-305.0-0.0","02897101","wem/bandit_single","ACN0C9HPYDTED","pain","3","","75","K","2","","0","0","1","","0.06386630904","false","268","","0.1054434992","main_expt","","0.145208313","","0.06386630904","","0.1340815566","","","","","",""
"41","","bandit","344","940166","0.0-306.0-0.0","02897101","wem/bandit_single","ACN0C9HPYDTED","pain","3","","72","H","0","img/none_selected.jpg","0","0","1","","0.1307900039","false","269","","0.1307900039","main_expt","","0.1387339362","","0.03725778621","","0.1350059692","","","","","",""
"19","","bandit","345","941948","0.0-307.0-0.0","02897101","wem/bandit_single","ACN0C9HPYDTED","pain","3","","75","K","2","","0","0","1","","0.02825676517","false","270","","0.1444746669","main_expt","","0.1822325734","","0.02825676517","","0.1008257698","","","","","",""
"74","","bandit","346","943782","0.0-308.0-0.0","02897101","wem/bandit_single","ACN0C9HPYDTED","pain","3","","72","H","0","img/none_selected.jpg","0","0","1","","0.1622504114","false","271","","0.1622504114","main_expt","","0.1752825828","","0.02967844624","","0.1257425884","","","","","",""
"45","","bandit","347","945587","0.0-309.0-0.0","02897101","wem/bandit_single","ACN0C9HPYDTED","pain","3","","75","K","2","","0","0","1","","0.03051557875","false","272","","0.1814673171","main_expt","","0.1572277832","","0.03051557875","","0.1363444874","","","","","",""
"57","","bandit","348","947403","0.0-310.0-0.0","02897101","wem/bandit_single","ACN0C9HPYDTED","pain","3","","72","H","0","img/none_selected.jpg","0","0","1","","0.1930303076","false","273","","0.1930303076","main_expt","","0.1609880977","","0.0408401102","","0.1090842693","","","","","",""
"25","","bandit","349","949187","0.0-311.0-0.0","02897101","wem/bandit_single","ACN0C9HPYDTED","pain","3","","72","H","0","img/none_selected.jpg","0","0","1","","0.1704680895","false","274","","0.1704680895","main_expt","","0.2228580822","","0.03240614182","","0.1397265487","","","","","",""
"161","","bandit","350","951108","0.0-312.0-0.0","02897101","wem/bandit_single","ACN0C9HPYDTED","pain","3","","75","K","2","","0","0","1","","0.04120982645","false","275","","0.1785534293","main_expt","","0.2126640298","","0.04120982645","","0.210641606","","","","","",""
"74","","bandit","351","952942","0.0-313.0-0.0","02897101","wem/bandit_single","ACN0C9HPYDTED","pain","3","","75","K","2","","0","0","1","","0.04353307789","false","276","","0.1843971019","main_expt","","0.2006548762","","0.04353307789","","0.1523626192","","","","","",""
"853","","bandit","352","955555","0.0-314.0-0.0","02897101","wem/bandit_single","ACN0C9HPYDTED","pain","3","","75","K","2","","0","0","1","","0.0172565486","false","277","","0.2042268453","main_expt","","0.1986275587","","0.0172565486","","0.16102954","","","","","",""
"210","","bandit","353","957526","0.0-315.0-0.0","02897101","wem/bandit_single","ACN0C9HPYDTED","pain","3","","72","H","0","img/none_selected.jpg","0","0","1","","0.1609113936","false","278","","0.1609113936","main_expt","","0.1321506531","","0.02582715814","","0.1166001048","","","","","",""
"134","","bandit","354","959420","0.0-316.0-0.0","02897101","wem/bandit_single","ACN0C9HPYDTED","pain","3","","72","H","0","img/none_selected.jpg","0","0","1","","0.1604878733","false","279","","0.1604878733","main_expt","","0.2112193978","","0.03609925784","","0.1427402012","","","","","",""
"24","","bandit","355","961204","0.0-317.0-0.0","02897101","wem/bandit_single","ACN0C9HPYDTED","pain","3","","75","K","2","","0","0","1","","0.02629944548","false","280","","0.1678567182","main_expt","","0.1872216356","","0.02629944548","","0.1524149458","","","","","",""
"455","","bandit","356","963420","0.0-318.0-0.0","02897101","wem/bandit_single","ACN0C9HPYDTED","pain","3","","72","H","0","img/none_selected.jpg","0","0","1","","0.1338700362","false","281","","0.1338700362","main_expt","","0.1635487084","","0.01890368782","","0.1638207856","","","","","",""
"111","","bandit","357","965291","0.0-319.0-0.0","02897101","wem/bandit_single","ACN0C9HPYDTED","pain","3","","72","H","0","img/none_selected.jpg","0","0","1","","0.2010661714","false","282","","0.2010661714","main_expt","","0.1576359327","","0.01508823693","","0.1055747009","","","","","",""
"2280","","bandit","358","969332","0.0-320.0-0.0","02897101","wem/bandit_single","ACN0C9HPYDTED","pain","3","","72","H","0","img/none_selected.jpg","0","0","1","","0.1763159594","false","283","","0.1763159594","main_expt","","0.21861051","","0.01359220223","","0.1121395768","","","","","",""
"413","","bandit","359","971508","0.0-321.0-0.0","02897101","wem/bandit_single","ACN0C9HPYDTED","pain","3","","72","H","0","img/none_selected.jpg","0","0","1","","0.2379754842","false","284","","0.2379754842","main_expt","","0.180487154","","0.01691173417","","0.1110051372","","","","","",""
"1624","","bandit","360","974892","0.0-322.0-0.0","02897101","wem/bandit_single","ACN0C9HPYDTED","pain","3","","75","K","2","","0","0","1","","0.01734240677","false","285","","0.2769670592","main_expt","","0.1641106304","","0.01734240677","","0.1746572204","","","","","",""
"1713","","bandit","361","978367","0.0-323.0-0.0","02897101","wem/bandit_single","ACN0C9HPYDTED","pain","3","","72","H","0","img/none_selected.jpg","0","0","1","","0.3002963297","false","286","","0.3002963297","main_expt","","0.1866508097","","0.01574531315","","0.2038956484","","","","","",""
"1478","","bandit","362","981604","0.0-324.0-0.0","02897101","wem/bandit_single","ACN0C9HPYDTED","pain","3","","72","H","0","img/none_selected.jpg","0","1","0","","0.2804215723","false","287","","0.2804215723","main_expt","","0.1339791425","","0.011703364","","0.2396876396","","","","","",""
"71","","bandit","363","983436","0.0-325.0-0.0","02897101","wem/bandit_single","ACN0C9HPYDTED","pain","3","","72","H","0","img/none_selected.jpg","0","0","1","","0.2873948651","false","288","","0.2873948651","main_expt","","0.1910191906","","0.01499165326","","0.2300823482","","","","","",""
"447","","bandit","364","985643","0.0-326.0-0.0","02897101","wem/bandit_single","ACN0C9HPYDTED","pain","3","","75","K","2","","0","0","1","","0.01307353483","false","289","","0.3383825142","main_expt","","0.1987886011","","0.01307353483","","0.2697946193","","","","","",""
"128","","bandit","365","987532","0.0-327.0-0.0","02897101","wem/bandit_single","ACN0C9HPYDTED","pain","3","","75","K","2","","0","0","1","","0.005839555229","false","290","","0.3597664772","main_expt","","0.2163493667","","0.005839555229","","0.3030113395","","","","","",""
"58","","bandit","366","989364","0.0-328.0-0.0","02897101","wem/bandit_single","ACN0C9HPYDTED","pain","3","","75","K","2","","0","0","1","","0.00760433752","false","291","","0.3684517111","main_expt","","0.1987756658","","0.00760433752","","0.2903670118","","","","","",""
"128","","bandit","367","991252","0.0-329.0-0.0","02897101","wem/bandit_single","ACN0C9HPYDTED","pain","3","","75","K","2","","0","0","1","","0.01807310376","false","292","","0.3471931258","main_expt","","0.1996771378","","0.01807310376","","0.3219279298","","","","","",""
"137","","bandit","368","993148","0.0-330.0-0.0","02897101","wem/bandit_single","ACN0C9HPYDTED","pain","3","","72","H","0","img/none_selected.jpg","0","0","1","","0.3742872252","false","293","","0.3742872252","main_expt","","0.2067525645","","0.02882206876","","0.2585416619","","","","","",""
"295","","bandit","369","995204","0.0-331.0-0.0","02897101","wem/bandit_single","ACN0C9HPYDTED","pain","3","","75","K","2","","0","0","1","","0.02728804169","false","294","","0.3937541296","main_expt","","0.230585761","","0.02728804169","","0.3093607287","","","","","",""
"174","","bandit","370","997142","0.0-332.0-0.0","02897101","wem/bandit_single","ACN0C9HPYDTED","pain","3","","76","L","3","","0","0","1","","0.315069057","false","295","","0.3331550888","main_expt","","0.1936278336","","0.01545304162","","0.315069057","","","","","",""
"174","","bandit","371","999076","0.0-333.0-0.0","02897101","wem/bandit_single","ACN0C9HPYDTED","pain","3","","74","J","1","","0","0","1","","0.1733248866","false","296","","0.3564327955","main_expt","","0.1733248866","","0.01463146341","","0.3556215031","","","","","",""
"102","","bandit","372","1000940","0.0-334.0-0.0","02897101","wem/bandit_single","ACN0C9HPYDTED","pain","3","","72","H","0","img/none_selected.jpg","0","0","1","","0.3344242189","false","297","","0.3344242189","main_expt","","0.1762096585","","0.03487584845","","0.3380436511","","","","","",""
"207","","bandit","373","1002907","0.0-335.0-0.0","02897101","wem/bandit_single","ACN0C9HPYDTED","pain","3","","72","H","0","img/none_selected.jpg","0","0","1","","0.3434582948","false","298","","0.3434582948","main_expt","","0.176801175","","0.04917346329","","0.347815101","","","","","",""
