"rt","responses","trial_type","trial_index","time_elapsed","internal_node_id","subjID","study","MID","cond","drift","key_press","respCharCode","respKey","respChoiceNum","respChoice","gems","bombs","no_reward","GemPrChosen","BombPrChosen","practice","trial_counter","WinPr_0","LosePr_0","trial_label","WinPr_1","LosePr_1","WinPr_2","LosePr_2","WinPr_3","LosePr_3","Q0","Q1","Q2","gender","age","ethnicity"
"10698","{""Q0"":""A32QJF67JMJFKX""}","survey-text","0","10708","0.0-0.0","03225022","wem/bandit_single","A32QJF67JMJFKX","gain","7","","","","","","","","","","","","","","","","","","","","","","","","","","",""
"3397","","text","1","15113","0.0-1.0","03225022","wem/bandit_single","A32QJF67JMJFKX","gain","7","32","","","","","","","","","","","","","","","","","","","","","","","","","",""
"8971","","text","2","24086","0.0-2.0","03225022","wem/bandit_single","A32QJF67JMJFKX","gain","7","32","","","","","","","","","","","","","","","","","","","","","","","","","",""
"31230","","text","3","55319","0.0-3.0","03225022","wem/bandit_single","A32QJF67JMJFKX","gain","7","32","","","","","","","","","","","","","","","","","","","","","","","","","",""
"13727","","text","4","69049","0.0-4.0","03225022","wem/bandit_single","A32QJF67JMJFKX","gain","7","32","","","","","","","","","","","","","","","","","","","","","","","","","",""
"8851","","text","5","77902","0.0-5.0","03225022","wem/bandit_single","A32QJF67JMJFKX","gain","7","32","","","","","","","","","","","","","","","","","","","","","","","","","",""
"3983","","text","6","81888","0.0-6.0","03225022","wem/bandit_single","A32QJF67JMJFKX","gain","7","32","","","","","","","","","","","","","","","","","","","","","","","","","",""
"9365","","text","7","91255","0.0-7.0","03225022","wem/bandit_single","A32QJF67JMJFKX","gain","7","32","","","","","","","","","","","","","","","","","","","","","","","","","",""
"5192","","text","8","96448","0.0-8.0","03225022","wem/bandit_single","A32QJF67JMJFKX","gain","7","32","","","","","","","","","","","","","","","","","","","","","","","","","",""
"2516","","text","9","98966","0.0-9.0","03225022","wem/bandit_single","A32QJF67JMJFKX","gain","7","32","","","","","","","","","","","","","","","","","","","","","","","","","",""
"16264","","text","10","115232","0.0-10.0","03225022","wem/bandit_single","A32QJF67JMJFKX","gain","7","32","","","","","","","","","","","","","","","","","","","","","","","","","",""
"15892","","text","11","131126","0.0-11.0","03225022","wem/bandit_single","A32QJF67JMJFKX","gain","7","32","","","","","","","","","","","","","","","","","","","","","","","","","",""
"1275","","bandit","12","133918","0.0-12.0-0.0","03225022","wem/bandit_single","A32QJF67JMJFKX","gain","7","","74","J","0","img/none_selected_demo.jpg","0","0","1","0","0","true","0","0","0","","","","","","","","","","","","",""
"621","","bandit","13","136304","0.0-13.0-0.0","03225022","wem/bandit_single","A32QJF67JMJFKX","gain","7","","75","K","0","img/none_selected_demo.jpg","0","0","1","0","0","true","0","0","0","","","","","","","","","","","","",""
"6086","","text","14","142648","0.0-14.0","03225022","wem/bandit_single","A32QJF67JMJFKX","gain","7","32","","","","","","","","","","","","","","","","","","","","","","","","","",""
"1445","","text","15","144094","0.0-15.0","03225022","wem/bandit_single","A32QJF67JMJFKX","gain","7","32","","","","","","","","","","","","","","","","","","","","","","","","","",""
"2166","","text","16","146262","0.0-16.0","03225022","wem/bandit_single","A32QJF67JMJFKX","gain","7","32","","","","","","","","","","","","","","","","","","","","","","","","","",""
"2062","","text","17","148327","0.0-17.0","03225022","wem/bandit_single","A32QJF67JMJFKX","gain","7","32","","","","","","","","","","","","","","","","","","","","","","","","","",""
"1515","","bandit","18","151356","0.0-18.0-0.0","03225022","wem/bandit_single","A32QJF67JMJFKX","gain","7","","74","J","0","img/none_selected_demo.jpg","1","0","0","0.8","0","true","0","0.8","0","80_20_practice","0.2","0","","","","","","","","","",""
"225","","bandit","19","153348","0.0-18.0-1.0","03225022","wem/bandit_single","A32QJF67JMJFKX","gain","7","","74","J","0","img/none_selected_demo.jpg","1","0","0","0.8","0","true","0","0.8","0","80_20_practice","0.2","0","","","","","","","","","",""
"42","","bandit","20","155159","0.0-18.0-2.0","03225022","wem/bandit_single","A32QJF67JMJFKX","gain","7","","74","J","0","img/none_selected_demo.jpg","1","0","0","0.8","0","true","0","0.8","0","80_20_practice","0.2","0","","","","","","","","","",""
"0","","bandit","21","156924","0.0-18.0-3.0","03225022","wem/bandit_single","A32QJF67JMJFKX","gain","7","","74","J","0","img/none_selected_demo.jpg","0","0","1","0.8","0","true","0","0.8","0","80_20_practice","0.2","0","","","","","","","","","",""
"17","","bandit","22","158705","0.0-18.0-4.0","03225022","wem/bandit_single","A32QJF67JMJFKX","gain","7","","74","J","0","img/none_selected_demo.jpg","0","0","1","0.8","0","true","0","0.8","0","80_20_practice","0.2","0","","","","","","","","","",""
"13","","bandit","23","160484","0.0-18.0-5.0","03225022","wem/bandit_single","A32QJF67JMJFKX","gain","7","","74","J","0","img/none_selected_demo.jpg","1","0","0","0.8","0","true","0","0.8","0","80_20_practice","0.2","0","","","","","","","","","",""
"41","","bandit","24","162292","0.0-18.0-6.0","03225022","wem/bandit_single","A32QJF67JMJFKX","gain","7","","74","J","0","img/none_selected_demo.jpg","1","0","0","0.8","0","true","0","0.8","0","80_20_practice","0.2","0","","","","","","","","","",""
"167","","bandit","25","164228","0.0-18.0-7.0","03225022","wem/bandit_single","A32QJF67JMJFKX","gain","7","","74","J","0","img/none_selected_demo.jpg","1","0","0","0.8","0","true","0","0.8","0","80_20_practice","0.2","0","","","","","","","","","",""
"42","","bandit","26","166038","0.0-18.0-8.0","03225022","wem/bandit_single","A32QJF67JMJFKX","gain","7","","74","J","0","img/none_selected_demo.jpg","1","0","0","0.8","0","true","0","0.8","0","80_20_practice","0.2","0","","","","","","","","","",""
"973","","bandit","27","168779","0.0-18.0-9.0","03225022","wem/bandit_single","A32QJF67JMJFKX","gain","7","","74","J","0","img/none_selected_demo.jpg","1","0","0","0.8","0","true","0","0.8","0","80_20_practice","0.2","0","","","","","","","","","",""
"97","","bandit","28","170642","0.0-18.0-10.0","03225022","wem/bandit_single","A32QJF67JMJFKX","gain","7","","74","J","0","img/none_selected_demo.jpg","1","0","0","0.8","0","true","0","0.8","0","80_20_practice","0.2","0","","","","","","","","","",""
"66","","bandit","29","172476","0.0-18.0-11.0","03225022","wem/bandit_single","A32QJF67JMJFKX","gain","7","","74","J","0","img/none_selected_demo.jpg","1","0","0","0.8","0","true","0","0.8","0","80_20_practice","0.2","0","","","","","","","","","",""
"71","","bandit","30","174314","0.0-18.0-12.0","03225022","wem/bandit_single","A32QJF67JMJFKX","gain","7","","74","J","0","img/none_selected_demo.jpg","0","0","1","0.8","0","true","0","0.8","0","80_20_practice","0.2","0","","","","","","","","","",""
"188","","bandit","31","176269","0.0-18.0-13.0","03225022","wem/bandit_single","A32QJF67JMJFKX","gain","7","","74","J","0","img/none_selected_demo.jpg","1","0","0","0.8","0","true","0","0.8","0","80_20_practice","0.2","0","","","","","","","","","",""
"24","","bandit","32","178056","0.0-18.0-14.0","03225022","wem/bandit_single","A32QJF67JMJFKX","gain","7","","74","J","0","img/none_selected_demo.jpg","1","0","0","0.8","0","true","0","0.8","0","80_20_practice","0.2","0","","","","","","","","","",""
"70","","bandit","33","179893","0.0-18.0-15.0","03225022","wem/bandit_single","A32QJF67JMJFKX","gain","7","","74","J","0","img/none_selected_demo.jpg","1","0","0","0.8","0","true","0","0.8","0","80_20_practice","0.2","0","","","","","","","","","",""
"134","","bandit","34","181794","0.0-18.0-16.0","03225022","wem/bandit_single","A32QJF67JMJFKX","gain","7","","74","J","0","img/none_selected_demo.jpg","1","0","0","0.8","0","true","0","0.8","0","80_20_practice","0.2","0","","","","","","","","","",""
"75","","bandit","35","183627","0.0-18.0-17.0","03225022","wem/bandit_single","A32QJF67JMJFKX","gain","7","","74","J","0","img/none_selected_demo.jpg","1","0","0","0.8","0","true","0","0.8","0","80_20_practice","0.2","0","","","","","","","","","",""
"173","","bandit","36","185571","0.0-18.0-18.0","03225022","wem/bandit_single","A32QJF67JMJFKX","gain","7","","74","J","0","img/none_selected_demo.jpg","1","0","0","0.8","0","true","0","0.8","0","80_20_practice","0.2","0","","","","","","","","","",""
"1052","","bandit","37","188389","0.0-18.0-19.0","03225022","wem/bandit_single","A32QJF67JMJFKX","gain","7","","74","J","0","img/none_selected_demo.jpg","1","0","0","0.8","0","true","0","0.8","0","80_20_practice","0.2","0","","","","","","","","","",""
"5031","","text","38","193678","0.0-19.0","03225022","wem/bandit_single","A32QJF67JMJFKX","gain","7","32","","","","","","","","","","","","","","","","","","","","","","","","","",""
"1461","","bandit","39","196651","0.0-20.0-0.0","03225022","wem/bandit_single","A32QJF67JMJFKX","gain","7","","74","J","0","img/none_selected_demo.jpg","0","0","1","0","0","true","0","0","0","","0","0","","","","","","","","","",""
"6508","","text","40","203416","0.0-21.0","03225022","wem/bandit_single","A32QJF67JMJFKX","gain","7","32","","","","","","","","","","","","","","","","","","","","","","","","","",""
"2219","","text","41","205638","0.0-22.0","03225022","wem/bandit_single","A32QJF67JMJFKX","gain","7","32","","","","","","","","","","","","","","","","","","","","","","","","","",""
"2262","","text","42","207902","0.0-23.0","03225022","wem/bandit_single","A32QJF67JMJFKX","gain","7","32","","","","","","","","","","","","","","","","","","","","","","","","","",""
"4404","","text","43","212310","0.0-24.0","03225022","wem/bandit_single","A32QJF67JMJFKX","gain","7","32","","","","","","","","","","","","","","","","","","","","","","","","","",""
"5159","","text","44","217472","0.0-25.0","03225022","wem/bandit_single","A32QJF67JMJFKX","gain","7","32","","","","","","","","","","","","","","","","","","","","","","","","","",""
"2484","","text","45","219958","0.0-26.0","03225022","wem/bandit_single","A32QJF67JMJFKX","gain","7","32","","","","","","","","","","","","","","","","","","","","","","","","","",""
"4630","","text","46","224590","0.0-27.0","03225022","wem/bandit_single","A32QJF67JMJFKX","gain","7","32","","","","","","","","","","","","","","","","","","","","","","","","","",""
"2358","","text","47","226950","0.0-28.0","03225022","wem/bandit_single","A32QJF67JMJFKX","gain","7","32","","","","","","","","","","","","","","","","","","","","","","","","","",""
"8601","","text","48","235553","0.0-29.0","03225022","wem/bandit_single","A32QJF67JMJFKX","gain","7","32","","","","","","","","","","","","","","","","","","","","","","","","","",""
"2425","","text","49","237982","0.0-30.0","03225022","wem/bandit_single","A32QJF67JMJFKX","gain","7","32","","","","","","","","","","","","","","","","","","","","","","","","","",""
"4398","","text","50","242382","0.0-31.0","03225022","wem/bandit_single","A32QJF67JMJFKX","gain","7","32","","","","","","","","","","","","","","","","","","","","","","","","","",""
"877","","bandit","51","244774","0.0-32.0-0.0","03225022","wem/bandit_single","A32QJF67JMJFKX","gain","7","","72","H","0","img/none_selected.jpg","1","0","0","0.8","0","true","0","0.8","0","full_practice","0.2","0","0.6","0","0.2","0","","","","","",""
"78","","bandit","52","246616","0.0-32.0-1.0","03225022","wem/bandit_single","A32QJF67JMJFKX","gain","7","","72","H","0","img/none_selected.jpg","0","0","1","0.8","0","true","0","0.8","0","full_practice","0.2","0","0.6","0","0.2","0","","","","","",""
"54","","bandit","53","248438","0.0-32.0-2.0","03225022","wem/bandit_single","A32QJF67JMJFKX","gain","7","","74","J","1","","0","0","1","0.2","0","true","0","0.8","0","full_practice","0.2","0","0.6","0","0.2","0","","","","","",""
"54","","bandit","54","250259","0.0-32.0-3.0","03225022","wem/bandit_single","A32QJF67JMJFKX","gain","7","","74","J","1","","0","0","1","0.2","0","true","0","0.8","0","full_practice","0.2","0","0.6","0","0.2","0","","","","","",""
"72","","bandit","55","252102","0.0-32.0-4.0","03225022","wem/bandit_single","A32QJF67JMJFKX","gain","7","","75","K","2","","0","0","1","0.6","0","true","0","0.8","0","full_practice","0.2","0","0.6","0","0.2","0","","","","","",""
"213","","bandit","56","254084","0.0-32.0-5.0","03225022","wem/bandit_single","A32QJF67JMJFKX","gain","7","","72","H","0","img/none_selected.jpg","1","0","0","0.8","0","true","0","0.8","0","full_practice","0.2","0","0.6","0","0.2","0","","","","","",""
"33","","bandit","57","255884","0.0-32.0-6.0","03225022","wem/bandit_single","A32QJF67JMJFKX","gain","7","","72","H","0","img/none_selected.jpg","0","0","1","0.8","0","true","0","0.8","0","full_practice","0.2","0","0.6","0","0.2","0","","","","","",""
"2","","bandit","58","257654","0.0-32.0-7.0","03225022","wem/bandit_single","A32QJF67JMJFKX","gain","7","","72","H","0","img/none_selected.jpg","1","0","0","0.8","0","true","0","0.8","0","full_practice","0.2","0","0.6","0","0.2","0","","","","","",""
"518","","bandit","59","259940","0.0-32.0-8.0","03225022","wem/bandit_single","A32QJF67JMJFKX","gain","7","","72","H","0","img/none_selected.jpg","1","0","0","0.8","0","true","0","0.8","0","full_practice","0.2","0","0.6","0","0.2","0","","","","","",""
"64","","bandit","60","261772","0.0-32.0-9.0","03225022","wem/bandit_single","A32QJF67JMJFKX","gain","7","","72","H","0","img/none_selected.jpg","1","0","0","0.8","0","true","0","0.8","0","full_practice","0.2","0","0.6","0","0.2","0","","","","","",""
"278","","bandit","61","263820","0.0-32.0-10.0","03225022","wem/bandit_single","A32QJF67JMJFKX","gain","7","","72","H","0","img/none_selected.jpg","1","0","0","0.8","0","true","0","0.8","0","full_practice","0.2","0","0.6","0","0.2","0","","","","","",""
"71","","bandit","62","265657","0.0-32.0-11.0","03225022","wem/bandit_single","A32QJF67JMJFKX","gain","7","","72","H","0","img/none_selected.jpg","1","0","0","0.8","0","true","0","0.8","0","full_practice","0.2","0","0.6","0","0.2","0","","","","","",""
"67","","bandit","63","267492","0.0-32.0-12.0","03225022","wem/bandit_single","A32QJF67JMJFKX","gain","7","","72","H","0","img/none_selected.jpg","1","0","0","0.8","0","true","0","0.8","0","full_practice","0.2","0","0.6","0","0.2","0","","","","","",""
"24","","bandit","64","269285","0.0-32.0-13.0","03225022","wem/bandit_single","A32QJF67JMJFKX","gain","7","","72","H","0","img/none_selected.jpg","1","0","0","0.8","0","true","0","0.8","0","full_practice","0.2","0","0.6","0","0.2","0","","","","","",""
"335","","bandit","65","271388","0.0-32.0-14.0","03225022","wem/bandit_single","A32QJF67JMJFKX","gain","7","","72","H","0","img/none_selected.jpg","1","0","0","0.8","0","true","0","0.8","0","full_practice","0.2","0","0.6","0","0.2","0","","","","","",""
"49","","bandit","66","273203","0.0-32.0-15.0","03225022","wem/bandit_single","A32QJF67JMJFKX","gain","7","","72","H","0","img/none_selected.jpg","0","0","1","0.8","0","true","0","0.8","0","full_practice","0.2","0","0.6","0","0.2","0","","","","","",""
"55","","bandit","67","275026","0.0-32.0-16.0","03225022","wem/bandit_single","A32QJF67JMJFKX","gain","7","","72","H","0","img/none_selected.jpg","0","0","1","0.8","0","true","0","0.8","0","full_practice","0.2","0","0.6","0","0.2","0","","","","","",""
"162","","bandit","68","276952","0.0-32.0-17.0","03225022","wem/bandit_single","A32QJF67JMJFKX","gain","7","","74","J","1","","1","0","0","0.2","0","true","0","0.8","0","full_practice","0.2","0","0.6","0","0.2","0","","","","","",""
"82","","bandit","69","278798","0.0-32.0-18.0","03225022","wem/bandit_single","A32QJF67JMJFKX","gain","7","","74","J","1","","0","0","1","0.2","0","true","0","0.8","0","full_practice","0.2","0","0.6","0","0.2","0","","","","","",""
"44","","bandit","70","280610","0.0-32.0-19.0","03225022","wem/bandit_single","A32QJF67JMJFKX","gain","7","","74","J","1","","0","0","1","0.2","0","true","0","0.8","0","full_practice","0.2","0","0.6","0","0.2","0","","","","","",""
"1838","","text","71","282710","0.0-33.0","03225022","wem/bandit_single","A32QJF67JMJFKX","gain","7","32","","","","","","","","","","","","","","","","","","","","","","","","","",""
"8762","","text","72","292480","0.0-34.0","03225022","wem/bandit_single","A32QJF67JMJFKX","gain","7","32","","","","","","","","","","","","","","","","","","","","","","","","","",""
"6898","","text","73","299382","0.0-35.0","03225022","wem/bandit_single","A32QJF67JMJFKX","gain","7","32","","","","","","","","","","","","","","","","","","","","","","","","","",""
"4430","","text","74","303816","0.0-36.0","03225022","wem/bandit_single","A32QJF67JMJFKX","gain","7","32","","","","","","","","","","","","","","","","","","","","","","","","","",""
"4059","","text","75","307878","0.0-37.0","03225022","wem/bandit_single","A32QJF67JMJFKX","gain","7","32","","","","","","","","","","","","","","","","","","","","","","","","","",""
"1323","","bandit","76","310716","0.0-38.0-0.0","03225022","wem/bandit_single","A32QJF67JMJFKX","gain","7","","72","H","0","img/none_selected.jpg","0","0","1","0.05137684772","","false","1","0.05137684772","","main_expt","0.182860278","","0.2046929885","","0.4656663819","","","","","","",""
"103","","bandit","77","312588","0.0-39.0-0.0","03225022","wem/bandit_single","A32QJF67JMJFKX","gain","7","","72","H","0","img/none_selected.jpg","0","0","1","0.07150319997","","false","2","0.07150319997","","main_expt","0.1824128093","","0.1903203277","","0.4696156166","","","","","","",""
"64","","bandit","78","314420","0.0-40.0-0.0","03225022","wem/bandit_single","A32QJF67JMJFKX","gain","7","","74","J","1","","0","0","1","0.1671989933","","false","3","0.080703679","","main_expt","0.1671989933","","0.1806567389","","0.477042595","","","","","","",""
"57","","bandit","79","316244","0.0-41.0-0.0","03225022","wem/bandit_single","A32QJF67JMJFKX","gain","7","","74","J","1","","0","0","1","0.1769774761","","false","4","0.09206073837","","main_expt","0.1769774761","","0.1746643784","","0.4833388502","","","","","","",""
"71","","bandit","80","318081","0.0-42.0-0.0","03225022","wem/bandit_single","A32QJF67JMJFKX","gain","7","","75","K","2","","0","0","1","0.1575849224","","false","5","0.09846378213","","main_expt","0.1847579949","","0.1575849224","","0.4679643189","","","","","","",""
"89","","bandit","81","319940","0.0-43.0-0.0","03225022","wem/bandit_single","A32QJF67JMJFKX","gain","7","","75","K","2","","1","0","0","0.1848921601","","false","6","0.07982937149","","main_expt","0.2263389119","","0.1848921601","","0.4728114282","","","","","","",""
"47","","bandit","82","321756","0.0-44.0-0.0","03225022","wem/bandit_single","A32QJF67JMJFKX","gain","7","","75","K","2","","0","0","1","0.2090417599","","false","7","0.08361087011","","main_expt","0.233500047","","0.2090417599","","0.4763129956","","","","","","",""
"641","","bandit","83","324165","0.0-45.0-0.0","03225022","wem/bandit_single","A32QJF67JMJFKX","gain","7","","76","L","3","","1","0","0","0.4605171502","","false","8","0.1210475052","","main_expt","0.2213385325","","0.2340345007","","0.4605171502","","","","","","",""
"63","","bandit","84","325994","0.0-46.0-0.0","03225022","wem/bandit_single","A32QJF67JMJFKX","gain","7","","76","L","3","","0","0","1","0.457599345","","false","9","0.1023248189","","main_expt","0.216727727","","0.2388832632","","0.457599345","","","","","","",""
"559","","bandit","85","328326","0.0-47.0-0.0","03225022","wem/bandit_single","A32QJF67JMJFKX","gain","7","","76","L","3","","1","0","0","0.4514273669","","false","10","0.1311876697","","main_expt","0.1757193701","","0.2336568073","","0.4514273669","","","","","","",""
"73","","bandit","86","330171","0.0-48.0-0.0","03225022","wem/bandit_single","A32QJF67JMJFKX","gain","7","","76","L","3","","0","0","1","0.461109344","","false","11","0.1171839072","","main_expt","0.221687112","","0.2682397485","","0.461109344","","","","","","",""
"47","","bandit","87","331984","0.0-49.0-0.0","03225022","wem/bandit_single","A32QJF67JMJFKX","gain","7","","76","L","3","","0","0","1","0.4750360261","","false","12","0.09103905321","","main_expt","0.1693148256","","0.2855743842","","0.4750360261","","","","","","",""
"19","","bandit","88","333770","0.0-50.0-0.0","03225022","wem/bandit_single","A32QJF67JMJFKX","gain","7","","75","K","2","","0","0","1","0.2877368863","","false","13","0.08195125901","","main_expt","0.1861997022","","0.2877368863","","0.4882900813","","","","","","",""
"80","","bandit","89","335622","0.0-51.0-0.0","03225022","wem/bandit_single","A32QJF67JMJFKX","gain","7","","75","K","2","","1","0","0","0.2904717711","","false","14","0.1022478824","","main_expt","0.2056371894","","0.2904717711","","0.4836145896","","","","","","",""
"502","","bandit","90","337893","0.0-52.0-0.0","03225022","wem/bandit_single","A32QJF67JMJFKX","gain","7","","75","K","2","","0","0","1","0.3145527135","","false","15","0.1295923723","","main_expt","0.207651467","","0.3145527135","","0.4841526839","","","","","","",""
"68","","bandit","91","339729","0.0-53.0-0.0","03225022","wem/bandit_single","A32QJF67JMJFKX","gain","7","","75","K","2","","0","0","1","0.2919685568","","false","16","0.1259026636","","main_expt","0.264879833","","0.2919685568","","0.4733209008","","","","","","",""
"39","","bandit","92","341536","0.0-54.0-0.0","03225022","wem/bandit_single","A32QJF67JMJFKX","gain","7","","76","L","3","","1","0","0","0.4548629562","","false","17","0.08714849596","","main_expt","0.301226273","","0.2437915417","","0.4548629562","","","","","","",""
"31","","bandit","93","343335","0.0-55.0-0.0","03225022","wem/bandit_single","A32QJF67JMJFKX","gain","7","","76","L","3","","0","0","1","0.4423108412","","false","18","0.06082296625","","main_expt","0.3355017989","","0.2139729843","","0.4423108412","","","","","","",""
"45","","bandit","94","345147","0.0-56.0-0.0","03225022","wem/bandit_single","A32QJF67JMJFKX","gain","7","","76","L","3","","1","0","0","0.4510346454","","false","19","0.04376078701","","main_expt","0.4066928382","","0.2117718275","","0.4510346454","","","","","","",""
"34","","bandit","95","346952","0.0-57.0-0.0","03225022","wem/bandit_single","A32QJF67JMJFKX","gain","7","","76","L","3","","1","0","0","0.4522943673","","false","20","0.0431273538","","main_expt","0.4152799178","","0.2128214431","","0.4522943673","","","","","","",""
"2","","bandit","96","348726","0.0-58.0-0.0","03225022","wem/bandit_single","A32QJF67JMJFKX","gain","7","","76","L","3","","0","0","1","0.4213917452","","false","21","0.05700218709","","main_expt","0.4005545413","","0.2557511999","","0.4213917452","","","","","","",""
"388","","bandit","97","350882","0.0-59.0-0.0","03225022","wem/bandit_single","A32QJF67JMJFKX","gain","7","","76","L","3","","0","0","1","0.4055738921","","false","22","0.03008320558","","main_expt","0.4065945052","","0.2240556206","","0.4055738921","","","","","","",""
"177","","bandit","98","352827","0.0-60.0-0.0","03225022","wem/bandit_single","A32QJF67JMJFKX","gain","7","","74","J","1","","1","0","0","0.4396923884","","false","23","0.04675245401","","main_expt","0.4396923884","","0.1913455436","","0.4102744642","","","","","","",""
"46","","bandit","99","354641","0.0-61.0-0.0","03225022","wem/bandit_single","A32QJF67JMJFKX","gain","7","","74","J","1","","1","0","0","0.4414607804","","false","24","0.02664245213","","main_expt","0.4414607804","","0.1767964116","","0.4215519413","","","","","","",""
"19","","bandit","100","356431","0.0-62.0-0.0","03225022","wem/bandit_single","A32QJF67JMJFKX","gain","7","","74","J","1","","1","0","0","0.430597795","","false","25","0.02443183667","","main_expt","0.430597795","","0.1667721477","","0.4076768117","","","","","","",""
"39","","bandit","101","358238","0.0-63.0-0.0","03225022","wem/bandit_single","A32QJF67JMJFKX","gain","7","","74","J","1","","0","0","1","0.4049624372","","false","26","0.02765515704","","main_expt","0.4049624372","","0.132468293","","0.3563873355","","","","","","",""
"371","","bandit","102","360377","0.0-64.0-0.0","03225022","wem/bandit_single","A32QJF67JMJFKX","gain","7","","74","J","1","","0","0","1","0.3959859591","","false","27","0.05751586542","","main_expt","0.3959859591","","0.1283549716","","0.3305608977","","","","","","",""
"108","","bandit","103","362249","0.0-65.0-0.0","03225022","wem/bandit_single","A32QJF67JMJFKX","gain","7","","72","H","0","img/none_selected.jpg","0","0","1","0.1046410472","","false","28","0.1046410472","","main_expt","0.4316273603","","0.1218888314","","0.323916825","","","","","","",""
"80","","bandit","104","364100","0.0-66.0-0.0","03225022","wem/bandit_single","A32QJF67JMJFKX","gain","7","","74","J","1","","0","0","1","0.4618757987","","false","29","0.1174110135","","main_expt","0.4618757987","","0.08739650486","","0.3256975875","","","","","","",""
"61","","bandit","105","365932","0.0-67.0-0.0","03225022","wem/bandit_single","A32QJF67JMJFKX","gain","7","","72","H","0","img/none_selected.jpg","0","0","1","0.09344635718","","false","30","0.09344635718","","main_expt","0.4764599947","","0.1113113005","","0.3590663193","","","","","","",""
"61","","bandit","106","367764","0.0-68.0-0.0","03225022","wem/bandit_single","A32QJF67JMJFKX","gain","7","","75","K","2","","0","0","1","0.1234593762","","false","31","0.07228097062","","main_expt","0.4870567238","","0.1234593762","","0.2794303661","","","","","","",""
"101","","bandit","107","369629","0.0-69.0-0.0","03225022","wem/bandit_single","A32QJF67JMJFKX","gain","7","","76","L","3","","0","0","1","0.2725021833","","false","32","0.06660380695","","main_expt","0.4744541924","","0.1204693509","","0.2725021833","","","","","","",""
"55","","bandit","108","371450","0.0-70.0-0.0","03225022","wem/bandit_single","A32QJF67JMJFKX","gain","7","","75","K","2","","0","0","1","0.1525092538","","false","33","0.06161000393","","main_expt","0.4595636441","","0.1525092538","","0.2662358977","","","","","","",""
"63","","bandit","109","373284","0.0-71.0-0.0","03225022","wem/bandit_single","A32QJF67JMJFKX","gain","7","","76","L","3","","0","0","1","0.3062719381","","false","34","0.08245015188","","main_expt","0.4700794195","","0.0933794629","","0.3062719381","","","","","","",""
"133","","bandit","110","375186","0.0-72.0-0.0","03225022","wem/bandit_single","A32QJF67JMJFKX","gain","7","","74","J","1","","1","0","0","0.46481425","","false","35","0.08195488018","","main_expt","0.46481425","","0.06693018499","","0.3199342551","","","","","","",""
"40","","bandit","111","376997","0.0-73.0-0.0","03225022","wem/bandit_single","A32QJF67JMJFKX","gain","7","","74","J","1","","1","0","0","0.4518384169","","false","36","0.1004102013","","main_expt","0.4518384169","","0.09916465935","","0.3039619122","","","","","","",""
"85","","bandit","112","378853","0.0-74.0-0.0","03225022","wem/bandit_single","A32QJF67JMJFKX","gain","7","","74","J","1","","1","0","0","0.439581627","","false","37","0.1390326598","","main_expt","0.439581627","","0.08872434017","","0.2927636057","","","","","","",""
"53","","bandit","113","380676","0.0-75.0-0.0","03225022","wem/bandit_single","A32QJF67JMJFKX","gain","7","","74","J","1","","1","0","0","0.3994664239","","false","38","0.143322519","","main_expt","0.3994664239","","0.08103487055","","0.3513205482","","","","","","",""
"57","","bandit","114","382499","0.0-76.0-0.0","03225022","wem/bandit_single","A32QJF67JMJFKX","gain","7","","74","J","1","","1","0","0","0.399239641","","false","39","0.1439849427","","main_expt","0.399239641","","0.09262773223","","0.3199725693","","","","","","",""
"400","","bandit","115","384665","0.0-77.0-0.0","03225022","wem/bandit_single","A32QJF67JMJFKX","gain","7","","74","J","1","","0","0","1","0.3842971785","","false","40","0.1813186375","","main_expt","0.3842971785","","0.08276392867","","0.2899826696","","","","","","",""
"66","","bandit","116","386499","0.0-78.0-0.0","03225022","wem/bandit_single","A32QJF67JMJFKX","gain","7","","74","J","1","","1","0","0","0.3584077127","","false","41","0.182623784","","main_expt","0.3584077127","","0.07889170896","","0.2470457707","","","","","","",""
"87","","bandit","117","388355","0.0-79.0-0.0","03225022","wem/bandit_single","A32QJF67JMJFKX","gain","7","","74","J","1","","0","0","1","0.2940512223","","false","42","0.1310997782","","main_expt","0.2940512223","","0.1007082374","","0.2860815649","","","","","","",""
"40","","bandit","118","390165","0.0-80.0-0.0","03225022","wem/bandit_single","A32QJF67JMJFKX","gain","7","","74","J","1","","0","0","1","0.3274682868","","false","43","0.1211351308","","main_expt","0.3274682868","","0.04983151166","","0.3649324249","","","","","","",""
"148","","bandit","119","392083","0.0-81.0-0.0","03225022","wem/bandit_single","A32QJF67JMJFKX","gain","7","","72","H","0","img/none_selected.jpg","0","0","1","0.1032393721","","false","44","0.1032393721","","main_expt","0.3105097628","","0.06772206808","","0.3722884938","","","","","","",""
"40","","bandit","120","393891","0.0-82.0-0.0","03225022","wem/bandit_single","A32QJF67JMJFKX","gain","7","","74","J","1","","0","0","1","0.3253779088","","false","45","0.145243047","","main_expt","0.3253779088","","0.07082322934","","0.3589666793","","","","","","",""
"70","","bandit","121","395731","0.0-83.0-0.0","03225022","wem/bandit_single","A32QJF67JMJFKX","gain","7","","76","L","3","","0","0","1","0.309469461","","false","46","0.1871821161","","main_expt","0.2907447256","","0.08302100682","","0.309469461","","","","","","",""
"110","","bandit","122","397609","0.0-84.0-0.0","03225022","wem/bandit_single","A32QJF67JMJFKX","gain","7","","75","K","2","","0","0","1","0.04947507936","","false","47","0.1827431821","","main_expt","0.2922490699","","0.04947507936","","0.3486132663","","","","","","",""
"233","","bandit","123","399624","0.0-85.0-0.0","03225022","wem/bandit_single","A32QJF67JMJFKX","gain","7","","72","H","0","img/none_selected.jpg","0","0","1","0.1863443356","","false","48","0.1863443356","","main_expt","0.3012354267","","0.05970491685","","0.3613151755","","","","","","",""
"505","","bandit","124","401897","0.0-86.0-0.0","03225022","wem/bandit_single","A32QJF67JMJFKX","gain","7","","74","J","1","","1","0","0","0.3199255499","","false","49","0.2089920758","","main_expt","0.3199255499","","0.05846806591","","0.3810076255","","","","","","",""
"40","","bandit","125","403707","0.0-87.0-0.0","03225022","wem/bandit_single","A32QJF67JMJFKX","gain","7","","74","J","1","","0","0","1","0.3246792682","","false","50","0.2204805957","","main_expt","0.3246792682","","0.08078022322","","0.3528158806","","","","","","",""
"40","","bandit","126","405518","0.0-88.0-0.0","03225022","wem/bandit_single","A32QJF67JMJFKX","gain","7","","74","J","1","","0","0","1","0.3158487008","","false","51","0.2796788854","","main_expt","0.3158487008","","0.08366705542","","0.4127521961","","","","","","",""
"51","","bandit","127","407337","0.0-89.0-0.0","03225022","wem/bandit_single","A32QJF67JMJFKX","gain","7","","72","H","0","img/none_selected.jpg","1","0","0","0.2870992152","","false","52","0.2870992152","","main_expt","0.2764666405","","0.1365111474","","0.4034362436","","","","","","",""
"82","","bandit","128","409190","0.0-90.0-0.0","03225022","wem/bandit_single","A32QJF67JMJFKX","gain","7","","72","H","0","img/none_selected.jpg","0","0","1","0.3176469779","","false","53","0.3176469779","","main_expt","0.2740398937","","0.1238361543","","0.4268522392","","","","","","",""
"11","","bandit","129","410965","0.0-91.0-0.0","03225022","wem/bandit_single","A32QJF67JMJFKX","gain","7","","72","H","0","img/none_selected.jpg","0","0","1","0.3407727651","","false","54","0.3407727651","","main_expt","0.2499565254","","0.1150058699","","0.4471231168","","","","","","",""
"388","","bandit","130","413124","0.0-92.0-0.0","03225022","wem/bandit_single","A32QJF67JMJFKX","gain","7","","74","J","1","","0","0","1","0.221305586","","false","55","0.380871147","","main_expt","0.221305586","","0.1498695165","","0.4397300441","","","","","","",""
"213","","bandit","131","415107","0.0-93.0-0.0","03225022","wem/bandit_single","A32QJF67JMJFKX","gain","7","","75","K","2","","0","0","1","0.1559096332","","false","56","0.3614982187","","main_expt","0.2513729962","","0.1559096332","","0.4266514607","","","","","","",""
"53","","bandit","132","416935","0.0-94.0-0.0","03225022","wem/bandit_single","A32QJF67JMJFKX","gain","7","","75","K","2","","0","0","1","0.139260175","","false","57","0.3219973572","","main_expt","0.254621842","","0.139260175","","0.4351066669","","","","","","",""
"76","","bandit","133","418780","0.0-95.0-0.0","03225022","wem/bandit_single","A32QJF67JMJFKX","gain","7","","76","L","3","","0","0","1","0.4114765848","","false","58","0.3136466855","","main_expt","0.2911199408","","0.1101041774","","0.4114765848","","","","","","",""
"366","","bandit","134","420915","0.0-96.0-0.0","03225022","wem/bandit_single","A32QJF67JMJFKX","gain","7","","76","L","3","","0","0","1","0.4331866813","","false","59","0.3553654786","","main_expt","0.3260103257","","0.1619704935","","0.4331866813","","","","","","",""
"5","","bandit","135","422687","0.0-97.0-0.0","03225022","wem/bandit_single","A32QJF67JMJFKX","gain","7","","72","H","0","img/none_selected.jpg","0","0","1","0.302494743","","false","60","0.302494743","","main_expt","0.3801831719","","0.1023472493","","0.4452666195","","","","","","",""
"338","","bandit","136","424796","0.0-98.0-0.0","03225022","wem/bandit_single","A32QJF67JMJFKX","gain","7","","74","J","1","","0","0","1","0.4097171909","","false","61","0.3194951829","","main_expt","0.4097171909","","0.1659923055","","0.4533212266","","","","","","",""
"397","","bandit","137","426959","0.0-99.0-0.0","03225022","wem/bandit_single","A32QJF67JMJFKX","gain","7","","72","H","0","img/none_selected.jpg","0","0","1","0.3491175101","","false","62","0.3491175101","","main_expt","0.4297251169","","0.1773336283","","0.4546633602","","","","","","",""
"290","","bandit","138","429018","0.0-100.0-0.0","03225022","wem/bandit_single","A32QJF67JMJFKX","gain","7","","75","K","2","","0","0","1","0.1838898345","","false","63","0.3618657485","","main_expt","0.4523537282","","0.1838898345","","0.431915851","","","","","","",""
"97","","bandit","139","430879","0.0-101.0-0.0","03225022","wem/bandit_single","A32QJF67JMJFKX","gain","7","","75","K","2","","0","0","1","0.1535376321","","false","64","0.3331995431","","main_expt","0.4577822331","","0.1535376321","","0.4397857724","","","","","","",""
"31","","bandit","140","432679","0.0-102.0-0.0","03225022","wem/bandit_single","A32QJF67JMJFKX","gain","7","","74","J","1","","1","0","0","0.4366397349","","false","65","0.3222916502","","main_expt","0.4366397349","","0.1696059705","","0.3803141428","","","","","","",""
"82","","bandit","141","434528","0.0-103.0-0.0","03225022","wem/bandit_single","A32QJF67JMJFKX","gain","7","","74","J","1","","0","0","1","0.4223045317","","false","66","0.2935747005","","main_expt","0.4223045317","","0.1747776373","","0.4318665216","","","","","","",""
"65","","bandit","142","436362","0.0-104.0-0.0","03225022","wem/bandit_single","A32QJF67JMJFKX","gain","7","","72","H","0","img/none_selected.jpg","0","0","1","0.272098099","","false","67","0.272098099","","main_expt","0.453094409","","0.1880318686","","0.3783394243","","","","","","",""
"33","","bandit","143","438168","0.0-105.0-0.0","03225022","wem/bandit_single","A32QJF67JMJFKX","gain","7","","72","H","0","img/none_selected.jpg","1","0","0","0.2839543474","","false","68","0.2839543474","","main_expt","0.4441165928","","0.1703396733","","0.3424409758","","","","","","",""
"50","","bandit","144","439987","0.0-106.0-0.0","03225022","wem/bandit_single","A32QJF67JMJFKX","gain","7","","72","H","0","img/none_selected.jpg","0","0","1","0.3106529802","","false","69","0.3106529802","","main_expt","0.437102529","","0.2041307244","","0.3825588005","","","","","","",""
"39","","bandit","145","441797","0.0-107.0-0.0","03225022","wem/bandit_single","A32QJF67JMJFKX","gain","7","","72","H","0","img/none_selected.jpg","1","0","0","0.2152651325","","false","70","0.2152651325","","main_expt","0.463010405","","0.2380468473","","0.4019939479","","","","","","",""
"32","","bandit","146","443600","0.0-108.0-0.0","03225022","wem/bandit_single","A32QJF67JMJFKX","gain","7","","72","H","0","img/none_selected.jpg","0","0","1","0.2150247356","","false","71","0.2150247356","","main_expt","0.4511055106","","0.2540220497","","0.3995375499","","","","","","",""
"7","","bandit","147","445375","0.0-109.0-0.0","03225022","wem/bandit_single","A32QJF67JMJFKX","gain","7","","72","H","0","img/none_selected.jpg","0","0","1","0.2196699897","","false","72","0.2196699897","","main_expt","0.456238914","","0.2877519017","","0.3655493795","","","","","","",""
"69","","bandit","148","447211","0.0-110.0-0.0","03225022","wem/bandit_single","A32QJF67JMJFKX","gain","7","","72","H","0","img/none_selected.jpg","0","0","1","0.2086164273","","false","73","0.2086164273","","main_expt","0.4499554287","","0.3090267326","","0.3443296275","","","","","","",""
"71","","bandit","149","449054","0.0-111.0-0.0","03225022","wem/bandit_single","A32QJF67JMJFKX","gain","7","","76","L","3","","0","0","1","0.3647916216","","false","74","0.2226006448","","main_expt","0.4439780401","","0.3400901674","","0.3647916216","","","","","","",""
"42","","bandit","150","450867","0.0-112.0-0.0","03225022","wem/bandit_single","A32QJF67JMJFKX","gain","7","","76","L","3","","0","0","1","0.3531956798","","false","75","0.2015377479","","main_expt","0.4332341766","","0.3519214117","","0.3531956798","","","","","","",""
"78","","bandit","151","452711","0.0-113.0-0.0","03225022","wem/bandit_single","A32QJF67JMJFKX","gain","7","","75","K","2","","0","0","1","0.3621584499","","false","76","0.2614433548","","main_expt","0.4241516559","","0.3621584499","","0.3375826797","","","","","","",""
"59","","bandit","152","454538","0.0-114.0-0.0","03225022","wem/bandit_single","A32QJF67JMJFKX","gain","7","","75","K","2","","0","0","1","0.3919288513","","false","77","0.3216300101","","main_expt","0.404580079","","0.3919288513","","0.3389323042","","","","","","",""
"62","","bandit","153","456373","0.0-115.0-0.0","03225022","wem/bandit_single","A32QJF67JMJFKX","gain","7","","74","J","1","","0","0","1","0.4291019186","","false","78","0.3253900192","","main_expt","0.4291019186","","0.3733142104","","0.3633343286","","","","","","",""
"22","","bandit","154","458164","0.0-116.0-0.0","03225022","wem/bandit_single","A32QJF67JMJFKX","gain","7","","74","J","1","","0","0","1","0.4431072694","","false","79","0.3253799771","","main_expt","0.4431072694","","0.3594898906","","0.35510173","","","","","","",""
"40","","bandit","155","459974","0.0-117.0-0.0","03225022","wem/bandit_single","A32QJF67JMJFKX","gain","7","","72","H","0","img/none_selected.jpg","1","0","0","0.321449248","","false","80","0.321449248","","main_expt","0.4443251544","","0.3740263767","","0.3313699227","","","","","","",""
"364","","bandit","156","462108","0.0-118.0-0.0","03225022","wem/bandit_single","A32QJF67JMJFKX","gain","7","","72","H","0","img/none_selected.jpg","1","0","0","0.3644617874","","false","81","0.3644617874","","main_expt","0.4222806544","","0.4031190442","","0.3545786091","","","","","","",""
"62","","bandit","157","463938","0.0-119.0-0.0","03225022","wem/bandit_single","A32QJF67JMJFKX","gain","7","","72","H","0","img/none_selected.jpg","1","0","0","0.3646727683","","false","82","0.3646727683","","main_expt","0.4348184101","","0.397551472","","0.36958943","","","","","","",""
"19","","bandit","158","465726","0.0-120.0-0.0","03225022","wem/bandit_single","A32QJF67JMJFKX","gain","7","","72","H","0","img/none_selected.jpg","0","0","1","0.3823543101","","false","83","0.3823543101","","main_expt","0.4237956171","","0.4251589807","","0.3818301908","","","","","","",""
"36","","bandit","159","467532","0.0-121.0-0.0","03225022","wem/bandit_single","A32QJF67JMJFKX","gain","7","","72","H","0","img/none_selected.jpg","1","0","0","0.3927357351","","false","84","0.3927357351","","main_expt","0.4255820551","","0.406460911","","0.3841316884","","","","","","",""
"37","","bandit","160","469340","0.0-122.0-0.0","03225022","wem/bandit_single","A32QJF67JMJFKX","gain","7","","72","H","0","img/none_selected.jpg","0","0","1","0.3242792488","","false","85","0.3242792488","","main_expt","0.4407045426","","0.4190094225","","0.3769873451","","","","","","",""
"310","","bandit","161","471420","0.0-123.0-0.0","03225022","wem/bandit_single","A32QJF67JMJFKX","gain","7","","72","H","0","img/none_selected.jpg","1","0","0","0.3257651096","","false","86","0.3257651096","","main_expt","0.4276882268","","0.4006115864","","0.3624331431","","","","","","",""
"87","","bandit","162","473276","0.0-124.0-0.0","03225022","wem/bandit_single","A32QJF67JMJFKX","gain","7","","72","H","0","img/none_selected.jpg","0","0","1","0.3768973447","","false","87","0.3768973447","","main_expt","0.4430021271","","0.3761684651","","0.356636023","","","","","","",""
"63","","bandit","163","475107","0.0-125.0-0.0","03225022","wem/bandit_single","A32QJF67JMJFKX","gain","7","","72","H","0","img/none_selected.jpg","1","0","0","0.3333804566","","false","88","0.3333804566","","main_expt","0.4259892117","","0.3935355307","","0.392705536","","","","","","",""
"60","","bandit","164","476941","0.0-126.0-0.0","03225022","wem/bandit_single","A32QJF67JMJFKX","gain","7","","72","H","0","img/none_selected.jpg","0","0","1","0.3326985542","","false","89","0.3326985542","","main_expt","0.4451393147","","0.3870426381","","0.39579544","","","","","","",""
"41","","bandit","165","478751","0.0-127.0-0.0","03225022","wem/bandit_single","A32QJF67JMJFKX","gain","7","","72","H","0","img/none_selected.jpg","0","0","1","0.3392082427","","false","90","0.3392082427","","main_expt","0.4450202473","","0.3838573884","","0.3832348421","","","","","","",""
"42","","bandit","166","480565","0.0-128.0-0.0","03225022","wem/bandit_single","A32QJF67JMJFKX","gain","7","","72","H","0","img/none_selected.jpg","0","0","1","0.2686139101","","false","91","0.2686139101","","main_expt","0.428726471","","0.376063899","","0.4009824957","","","","","","",""
"31","","bandit","167","482364","0.0-129.0-0.0","03225022","wem/bandit_single","A32QJF67JMJFKX","gain","7","","74","J","1","","0","0","1","0.4207086611","","false","92","0.247120026","","main_expt","0.4207086611","","0.3877690924","","0.360902971","","","","","","",""
"116","","bandit","168","484248","0.0-130.0-0.0","03225022","wem/bandit_single","A32QJF67JMJFKX","gain","7","","75","K","2","","0","0","1","0.3832772702","","false","93","0.1945967668","","main_expt","0.4271109851","","0.3832772702","","0.4098322422","","","","","","",""
"55","","bandit","169","486077","0.0-131.0-0.0","03225022","wem/bandit_single","A32QJF67JMJFKX","gain","7","","76","L","3","","0","0","1","0.365685068","","false","94","0.2059940606","","main_expt","0.3988025755","","0.3569295009","","0.365685068","","","","","","",""
"1059","","bandit","170","488905","0.0-132.0-0.0","03225022","wem/bandit_single","A32QJF67JMJFKX","gain","7","","74","J","1","","0","0","1","0.3413505888","","false","95","0.2276463074","","main_expt","0.3413505888","","0.3462427099","","0.3246475432","","","","","","",""
"374","","bandit","171","491051","0.0-133.0-0.0","03225022","wem/bandit_single","A32QJF67JMJFKX","gain","7","","75","K","2","","0","0","1","0.2902370181","","false","96","0.3088064785","","main_expt","0.2791034264","","0.2902370181","","0.3155220288","","","","","","",""
"36","","bandit","172","492856","0.0-134.0-0.0","03225022","wem/bandit_single","A32QJF67JMJFKX","gain","7","","76","L","3","","1","0","0","0.2920368253","","false","97","0.3167474357","","main_expt","0.2300358144","","0.2679909325","","0.2920368253","","","","","","",""
"62","","bandit","173","494691","0.0-135.0-0.0","03225022","wem/bandit_single","A32QJF67JMJFKX","gain","7","","76","L","3","","1","0","0","0.3060047135","","false","98","0.3311058144","","main_expt","0.245913642","","0.1827708427","","0.3060047135","","","","","","",""
"70","","bandit","174","496531","0.0-136.0-0.0","03225022","wem/bandit_single","A32QJF67JMJFKX","gain","7","","76","L","3","","0","0","1","0.2834300817","","false","99","0.2831383079","","main_expt","0.1977736678","","0.1847148603","","0.2834300817","","","","","","",""
"116","","bandit","175","498416","0.0-137.0-0.0","03225022","wem/bandit_single","A32QJF67JMJFKX","gain","7","","76","L","3","","0","0","1","0.3094748938","","false","100","0.2697282324","","main_expt","0.2300987319","","0.230590463","","0.3094748938","","","","","","",""
"1","","bandit","176","500190","0.0-138.0-0.0","03225022","wem/bandit_single","A32QJF67JMJFKX","gain","7","","76","L","3","","0","0","1","0.2776834174","","false","101","0.2908511313","","main_expt","0.2375929523","","0.2036778932","","0.2776834174","","","","","","",""
"329","","bandit","177","502291","0.0-139.0-0.0","03225022","wem/bandit_single","A32QJF67JMJFKX","gain","7","","72","H","0","img/none_selected.jpg","1","0","0","0.3371086545","","false","102","0.3371086545","","main_expt","0.2034833152","","0.2146692458","","0.2649828438","","","","","","",""
"63","","bandit","178","504125","0.0-140.0-0.0","03225022","wem/bandit_single","A32QJF67JMJFKX","gain","7","","72","H","0","img/none_selected.jpg","0","0","1","0.2925399581","","false","103","0.2925399581","","main_expt","0.2510503681","","0.2194044235","","0.1977849252","","","","","","",""
"30","","bandit","179","505926","0.0-141.0-0.0","03225022","wem/bandit_single","A32QJF67JMJFKX","gain","7","","72","H","0","img/none_selected.jpg","1","0","0","0.229866195","","false","104","0.229866195","","main_expt","0.2563420723","","0.2869514305","","0.164180841","","","","","","",""
"56","","bandit","180","507754","0.0-142.0-0.0","03225022","wem/bandit_single","A32QJF67JMJFKX","gain","7","","72","H","0","img/none_selected.jpg","0","0","1","0.2786648232","","false","105","0.2786648232","","main_expt","0.2025228913","","0.2577924419","","0.1410880488","","","","","","",""
"30","","bandit","181","509556","0.0-143.0-0.0","03225022","wem/bandit_single","A32QJF67JMJFKX","gain","7","","72","H","0","img/none_selected.jpg","0","0","1","0.2907959635","","false","106","0.2907959635","","main_expt","0.2288818116","","0.2984789445","","0.2151151798","","","","","","",""
"43","","bandit","182","511372","0.0-144.0-0.0","03225022","wem/bandit_single","A32QJF67JMJFKX","gain","7","","72","H","0","img/none_selected.jpg","1","0","0","0.2934471614","","false","107","0.2934471614","","main_expt","0.2725684277","","0.2483059356","","0.2068678097","","","","","","",""
"70","","bandit","183","513212","0.0-145.0-0.0","03225022","wem/bandit_single","A32QJF67JMJFKX","gain","7","","72","H","0","img/none_selected.jpg","1","0","0","0.2761460559","","false","108","0.2761460559","","main_expt","0.2725367566","","0.2177203031","","0.1775779384","","","","","","",""
"21","","bandit","184","515005","0.0-146.0-0.0","03225022","wem/bandit_single","A32QJF67JMJFKX","gain","7","","72","H","0","img/none_selected.jpg","0","0","1","0.3154055318","","false","109","0.3154055318","","main_expt","0.2645412755","","0.2155336726","","0.1633907035","","","","","","",""
"51","","bandit","185","516828","0.0-147.0-0.0","03225022","wem/bandit_single","A32QJF67JMJFKX","gain","7","","72","H","0","img/none_selected.jpg","0","0","1","0.3375256398","","false","110","0.3375256398","","main_expt","0.2537238549","","0.2012134729","","0.1918139944","","","","","","",""
"11","","bandit","186","518612","0.0-148.0-0.0","03225022","wem/bandit_single","A32QJF67JMJFKX","gain","7","","72","H","0","img/none_selected.jpg","0","0","1","0.3575411602","","false","111","0.3575411602","","main_expt","0.2404930496","","0.1362677005","","0.1512725872","","","","","","",""
"39","","bandit","187","520423","0.0-149.0-0.0","03225022","wem/bandit_single","A32QJF67JMJFKX","gain","7","","74","J","1","","0","0","1","0.2031918028","","false","112","0.3357984678","","main_expt","0.2031918028","","0.1146466799","","0.1579322392","","","","","","",""
"88","","bandit","188","522282","0.0-150.0-0.0","03225022","wem/bandit_single","A32QJF67JMJFKX","gain","7","","75","K","2","","0","0","1","0.1503083978","","false","113","0.2950954247","","main_expt","0.2649243105","","0.1503083978","","0.1638150459","","","","","","",""
"14","","bandit","189","524066","0.0-151.0-0.0","03225022","wem/bandit_single","A32QJF67JMJFKX","gain","7","","76","L","3","","0","0","1","0.1913716077","","false","114","0.3242299597","","main_expt","0.2669290767","","0.1750780752","","0.1913716077","","","","","","",""
"73","","bandit","190","525906","0.0-152.0-0.0","03225022","wem/bandit_single","A32QJF67JMJFKX","gain","7","","72","H","0","img/none_selected.jpg","0","0","1","0.3224166769","","false","115","0.3224166769","","main_expt","0.2538219684","","0.1486636943","","0.1762938339","","","","","","",""
"507","","bandit","191","528188","0.0-153.0-0.0","03225022","wem/bandit_single","A32QJF67JMJFKX","gain","7","","74","J","1","","1","0","0","0.2987800907","","false","116","0.3512221687","","main_expt","0.2987800907","","0.149377163","","0.1696576366","","","","","","",""
"32","","bandit","192","529994","0.0-154.0-0.0","03225022","wem/bandit_single","A32QJF67JMJFKX","gain","7","","74","J","1","","0","0","1","0.2863147972","","false","117","0.3854596622","","main_expt","0.2863147972","","0.1255156769","","0.1743908607","","","","","","",""
"13","","bandit","193","531775","0.0-155.0-0.0","03225022","wem/bandit_single","A32QJF67JMJFKX","gain","7","","74","J","1","","0","0","1","0.2863485017","","false","118","0.3311459155","","main_expt","0.2863485017","","0.09405737873","","0.2187419408","","","","","","",""
"49","","bandit","194","533597","0.0-156.0-0.0","03225022","wem/bandit_single","A32QJF67JMJFKX","gain","7","","74","J","1","","0","0","1","0.2704451175","","false","119","0.3243143835","","main_expt","0.2704451175","","0.0580133569","","0.2602037773","","","","","","",""
"298","","bandit","195","535666","0.0-157.0-0.0","03225022","wem/bandit_single","A32QJF67JMJFKX","gain","7","","75","K","2","","0","0","1","0.04965982272","","false","120","0.3830596167","","main_expt","0.2545920365","","0.04965982272","","0.2665240463","","","","","","",""
"38","","bandit","196","537474","0.0-158.0-0.0","03225022","wem/bandit_single","A32QJF67JMJFKX","gain","7","","76","L","3","","0","0","1","0.2300357123","","false","121","0.4451194006","","main_expt","0.323502768","","0.05452098248","","0.2300357123","","","","","","",""
"189","","bandit","197","539432","0.0-159.0-0.0","03225022","wem/bandit_single","A32QJF67JMJFKX","gain","7","","72","H","0","img/none_selected.jpg","1","0","0","0.4636898934","","false","122","0.4636898934","","main_expt","0.3380353075","","0.0475995955","","0.2071140152","","","","","","",""
"33","","bandit","198","541235","0.0-160.0-0.0","03225022","wem/bandit_single","A32QJF67JMJFKX","gain","7","","72","H","0","img/none_selected.jpg","1","0","0","0.4384370655","","false","123","0.4384370655","","main_expt","0.341491638","","0.04799769062","","0.2590656513","","","","","","",""
"52","","bandit","199","543059","0.0-161.0-0.0","03225022","wem/bandit_single","A32QJF67JMJFKX","gain","7","","72","H","0","img/none_selected.jpg","1","0","0","0.456933673","","false","124","0.456933673","","main_expt","0.3269941981","","0.06454195205","","0.2492473134","","","","","","",""
"486","","bandit","200","545315","0.0-162.0-0.0","03225022","wem/bandit_single","A32QJF67JMJFKX","gain","7","","72","H","0","img/none_selected.jpg","1","0","0","0.4834692703","","false","125","0.4834692703","","main_expt","0.3263020805","","0.0570469748","","0.2569957816","","","","","","",""
"53","","bandit","201","547138","0.0-163.0-0.0","03225022","wem/bandit_single","A32QJF67JMJFKX","gain","7","","72","H","0","img/none_selected.jpg","0","0","1","0.4895912119","","false","126","0.4895912119","","main_expt","0.3377655475","","0.06214194377","","0.2715808503","","","","","","",""
"35","","bandit","202","548940","0.0-164.0-0.0","03225022","wem/bandit_single","A32QJF67JMJFKX","gain","7","","72","H","0","img/none_selected.jpg","0","0","1","0.4791977258","","false","127","0.4791977258","","main_expt","0.3489319456","","0.06219251386","","0.3260406689","","","","","","",""
"59","","bandit","203","550771","0.0-165.0-0.0","03225022","wem/bandit_single","A32QJF67JMJFKX","gain","7","","72","H","0","img/none_selected.jpg","0","0","1","0.4772399827","","false","128","0.4772399827","","main_expt","0.3450526125","","0.06192095676","","0.3487232841","","","","","","",""
"28","","bandit","204","552571","0.0-166.0-0.0","03225022","wem/bandit_single","A32QJF67JMJFKX","gain","7","","74","J","1","","0","0","1","0.3297424559","","false","129","0.4688955373","","main_expt","0.3297424559","","0.03846933599","","0.3601162145","","","","","","",""
"60","","bandit","205","554403","0.0-167.0-0.0","03225022","wem/bandit_single","A32QJF67JMJFKX","gain","7","","75","K","2","","0","0","1","0.02330960587","","false","130","0.4651179545","","main_expt","0.3731420779","","0.02330960587","","0.4185413006","","","","","","",""
"259","","bandit","206","556430","0.0-168.0-0.0","03225022","wem/bandit_single","A32QJF67JMJFKX","gain","7","","76","L","3","","0","0","1","0.4537663544","","false","131","0.4794739162","","main_expt","0.325638262","","0.03495479357","","0.4537663544","","","","","","",""
"27","","bandit","207","558228","0.0-169.0-0.0","03225022","wem/bandit_single","A32QJF67JMJFKX","gain","7","","72","H","0","img/none_selected.jpg","1","0","0","0.4679846252","","false","132","0.4679846252","","main_expt","0.3132782049","","0.02752519027","","0.4489861829","","","","","","",""
"45","","bandit","208","560044","0.0-170.0-0.0","03225022","wem/bandit_single","A32QJF67JMJFKX","gain","7","","72","H","0","img/none_selected.jpg","1","0","0","0.4636487781","","false","133","0.4636487781","","main_expt","0.3552481716","","0.03239645132","","0.4465240103","","","","","","",""
"67","","bandit","209","561884","0.0-171.0-0.0","03225022","wem/bandit_single","A32QJF67JMJFKX","gain","7","","72","H","0","img/none_selected.jpg","1","0","0","0.4578614037","","false","134","0.4578614037","","main_expt","0.3478795997","","0.02361228775","","0.4286255731","","","","","","",""
"58","","bandit","210","563716","0.0-172.0-0.0","03225022","wem/bandit_single","A32QJF67JMJFKX","gain","7","","72","H","0","img/none_selected.jpg","0","0","1","0.4339873336","","false","135","0.4339873336","","main_expt","0.3394088604","","0.01378345967","","0.3969320342","","","","","","",""
"61","","bandit","211","565545","0.0-173.0-0.0","03225022","wem/bandit_single","A32QJF67JMJFKX","gain","7","","72","H","0","img/none_selected.jpg","1","0","0","0.4091277288","","false","136","0.4091277288","","main_expt","0.3739095734","","0.01349892684","","0.3975573163","","","","","","",""
"141","","bandit","212","567460","0.0-174.0-0.0","03225022","wem/bandit_single","A32QJF67JMJFKX","gain","7","","72","H","0","img/none_selected.jpg","0","0","1","0.4024864596","","false","137","0.4024864596","","main_expt","0.3319731639","","0.01373747566","","0.4226438881","","","","","","",""
"75","","bandit","213","569308","0.0-175.0-0.0","03225022","wem/bandit_single","A32QJF67JMJFKX","gain","7","","72","H","0","img/none_selected.jpg","1","0","0","0.3793932322","","false","138","0.3793932322","","main_expt","0.3427854578","","0.009346923256","","0.383622376","","","","","","",""
"61","","bandit","214","571140","0.0-176.0-0.0","03225022","wem/bandit_single","A32QJF67JMJFKX","gain","7","","72","H","0","img/none_selected.jpg","0","0","1","0.3940691536","","false","139","0.3940691536","","main_expt","0.2804250852","","0.005947695369","","0.3892077266","","","","","","",""
"21","","bandit","215","572928","0.0-177.0-0.0","03225022","wem/bandit_single","A32QJF67JMJFKX","gain","7","","72","H","0","img/none_selected.jpg","0","0","1","0.3878174143","","false","140","0.3878174143","","main_expt","0.294489168","","0.003062149202","","0.3721285976","","","","","","",""
"20","","bandit","216","574724","0.0-178.0-0.0","03225022","wem/bandit_single","A32QJF67JMJFKX","gain","7","","72","H","0","img/none_selected.jpg","1","0","0","0.3671315422","","false","141","0.3671315422","","main_expt","0.2849233321","","0.003723800288","","0.403063379","","","","","","",""
"2","","bandit","217","576500","0.0-179.0-0.0","03225022","wem/bandit_single","A32QJF67JMJFKX","gain","7","","72","H","0","img/none_selected.jpg","0","0","1","0.338830911","","false","142","0.338830911","","main_expt","0.2605380125","","0.003048460602","","0.3916907223","","","","","","",""
"42","","bandit","218","578317","0.0-180.0-0.0","03225022","wem/bandit_single","A32QJF67JMJFKX","gain","7","","72","H","0","img/none_selected.jpg","0","0","1","0.2709557481","","false","143","0.2709557481","","main_expt","0.3030740536","","0.002664125267","","0.4212357341","","","","","","",""
"19","","bandit","219","580109","0.0-181.0-0.0","03225022","wem/bandit_single","A32QJF67JMJFKX","gain","7","","72","H","0","img/none_selected.jpg","0","0","1","0.249986241","","false","144","0.249986241","","main_expt","0.29766321","","0.0015633636","","0.3944164323","","","","","","",""
"396","","bandit","220","582275","0.0-182.0-0.0","03225022","wem/bandit_single","A32QJF67JMJFKX","gain","7","","74","J","1","","0","0","1","0.2862291296","","false","145","0.2694710106","","main_expt","0.2862291296","","0.002084593646","","0.4129391908","","","","","","",""
"10","","bandit","221","584055","0.0-183.0-0.0","03225022","wem/bandit_single","A32QJF67JMJFKX","gain","7","","75","K","2","","0","0","1","0.0008356934022","","false","146","0.3099728414","","main_expt","0.3151642481","","0.0008356934022","","0.4027876266","","","","","","",""
"63","","bandit","222","585890","0.0-184.0-0.0","03225022","wem/bandit_single","A32QJF67JMJFKX","gain","7","","76","L","3","","0","0","1","0.3906291495","","false","147","0.3010760093","","main_expt","0.3261334855","","0.00187417998","","0.3906291495","","","","","","",""
"268","","bandit","223","587931","0.0-185.0-0.0","03225022","wem/bandit_single","A32QJF67JMJFKX","gain","7","","72","H","0","img/none_selected.jpg","0","0","1","0.2861733563","","false","148","0.2861733563","","main_expt","0.3605999671","","0.001549413081","","0.3718958907","","","","","","",""
"66","","bandit","224","589771","0.0-186.0-0.0","03225022","wem/bandit_single","A32QJF67JMJFKX","gain","7","","74","J","1","","1","0","0","0.3848975894","","false","149","0.2613296644","","main_expt","0.3848975894","","0.002318569837","","0.3513552953","","","","","","",""
"51","","bandit","225","591592","0.0-187.0-0.0","03225022","wem/bandit_single","A32QJF67JMJFKX","gain","7","","74","J","1","","0","0","1","0.3680345664","","false","150","0.2955554784","","main_expt","0.3680345664","","0.002401941109","","0.3796712552","","","","","","",""
"54","","bandit","226","593421","0.0-188.0-0.0","03225022","wem/bandit_single","A32QJF67JMJFKX","gain","7","","74","J","1","","1","0","0","0.3517559312","","false","151","0.2928365899","","main_expt","0.3517559312","","0.002416650241","","0.4275550045","","","","","","",""
"97","","bandit","227","595293","0.0-189.0-0.0","03225022","wem/bandit_single","A32QJF67JMJFKX","gain","7","","74","J","1","","0","0","1","0.3963282571","","false","152","0.3000067833","","main_expt","0.3963282571","","0.002533271813","","0.4266807854","","","","","","",""
"65","","bandit","228","597131","0.0-190.0-0.0","03225022","wem/bandit_single","A32QJF67JMJFKX","gain","7","","74","J","1","","1","0","0","0.432842039","","false","153","0.2757802357","","main_expt","0.432842039","","0.00322942279","","0.4633151701","","","","","","",""
"36","","bandit","229","598939","0.0-191.0-0.0","03225022","wem/bandit_single","A32QJF67JMJFKX","gain","7","","74","J","1","","0","0","1","0.4134551824","","false","154","0.3252288772","","main_expt","0.4134551824","","0.003404333974","","0.4723469507","","","","","","",""
"50","","bandit","230","600763","0.0-192.0-0.0","03225022","wem/bandit_single","A32QJF67JMJFKX","gain","7","","74","J","1","","1","0","0","0.426737857","","false","155","0.2746928085","","main_expt","0.426737857","","0.008925030754","","0.4829251431","","","","","","",""
"31","","bandit","231","602569","0.0-193.0-0.0","03225022","wem/bandit_single","A32QJF67JMJFKX","gain","7","","74","J","1","","0","0","1","0.4289541051","","false","156","0.2881451241","","main_expt","0.4289541051","","0.005317619152","","0.4753947098","","","","","","",""
"56","","bandit","232","604396","0.0-194.0-0.0","03225022","wem/bandit_single","A32QJF67JMJFKX","gain","7","","74","J","1","","0","0","1","0.4593738684","","false","157","0.2861132768","","main_expt","0.4593738684","","0.002657446392","","0.4686295074","","","","","","",""
"9","","bandit","233","606177","0.0-195.0-0.0","03225022","wem/bandit_single","A32QJF67JMJFKX","gain","7","","74","J","1","","1","0","0","0.4716769587","","false","158","0.2382703247","","main_expt","0.4716769587","","0.005349678466","","0.4746137902","","","","","","",""
"61","","bandit","234","608017","0.0-196.0-0.0","03225022","wem/bandit_single","A32QJF67JMJFKX","gain","7","","74","J","1","","0","0","1","0.4566829936","","false","159","0.2650616746","","main_expt","0.4566829936","","0.00353293949","","0.4626257703","","","","","","",""
"46","","bandit","235","609833","0.0-197.0-0.0","03225022","wem/bandit_single","A32QJF67JMJFKX","gain","7","","74","J","1","","0","0","1","0.4684401337","","false","160","0.2841227011","","main_expt","0.4684401337","","0.004525880368","","0.4690497323","","","","","","",""
"46","","bandit","236","611652","0.0-198.0-0.0","03225022","wem/bandit_single","A32QJF67JMJFKX","gain","7","","74","J","1","","0","0","1","0.4327192474","","false","161","0.3103310899","","main_expt","0.4327192474","","0.00364468733","","0.4605728382","","","","","","",""
"3","","bandit","237","613425","0.0-199.0-0.0","03225022","wem/bandit_single","A32QJF67JMJFKX","gain","7","","74","J","1","","1","0","0","0.4158578039","","false","162","0.2990864795","","main_expt","0.4158578039","","0.004567203872","","0.4663204896","","","","","","",""
"96","","bandit","238","615293","0.0-200.0-0.0","03225022","wem/bandit_single","A32QJF67JMJFKX","gain","7","","74","J","1","","1","0","0","0.4206849782","","false","163","0.2650304997","","main_expt","0.4206849782","","0.003538815","","0.4626626357","","","","","","",""
"35","","bandit","239","617103","0.0-201.0-0.0","03225022","wem/bandit_single","A32QJF67JMJFKX","gain","7","","74","J","1","","1","0","0","0.4276923589","","false","164","0.2877519924","","main_expt","0.4276923589","","0.002896615325","","0.4672680551","","","","","","",""
"598","","bandit","240","619476","0.0-202.0-0.0","03225022","wem/bandit_single","A32QJF67JMJFKX","gain","7","","74","J","1","","0","0","1","0.4204466813","","false","165","0.2818109827","","main_expt","0.4204466813","","0.004500484281","","0.455015491","","","","","","",""
"64","","bandit","241","621312","0.0-203.0-0.0","03225022","wem/bandit_single","A32QJF67JMJFKX","gain","7","","74","J","1","","0","0","1","0.4229734844","","false","166","0.324785045","","main_expt","0.4229734844","","0.01017739848","","0.4201800218","","","","","","",""
"137","","bandit","242","623223","0.0-204.0-0.0","03225022","wem/bandit_single","A32QJF67JMJFKX","gain","7","","74","J","1","","1","0","0","0.4474449943","","false","167","0.3339304688","","main_expt","0.4474449943","","0.0129517719","","0.4430085171","","","","","","",""
"47","","bandit","243","625041","0.0-205.0-0.0","03225022","wem/bandit_single","A32QJF67JMJFKX","gain","7","","74","J","1","","0","0","1","0.4458086367","","false","168","0.3351003476","","main_expt","0.4458086367","","0.009045291763","","0.4526671473","","","","","","",""
"100","","bandit","244","626914","0.0-206.0-0.0","03225022","wem/bandit_single","A32QJF67JMJFKX","gain","7","","74","J","1","","1","0","0","0.4619433307","","false","169","0.3556935824","","main_expt","0.4619433307","","0.01553154223","","0.4477525289","","","","","","",""
"101","","bandit","245","628788","0.0-207.0-0.0","03225022","wem/bandit_single","A32QJF67JMJFKX","gain","7","","74","J","1","","0","0","1","0.4703570947","","false","170","0.3690608098","","main_expt","0.4703570947","","0.01787531072","","0.41154262","","","","","","",""
"346","","bandit","246","630909","0.0-208.0-0.0","03225022","wem/bandit_single","A32QJF67JMJFKX","gain","7","","74","J","1","","1","0","0","0.474742395","","false","171","0.3631266209","","main_expt","0.474742395","","0.01316551092","","0.37868858","","","","","","",""
"18","","bandit","247","632695","0.0-209.0-0.0","03225022","wem/bandit_single","A32QJF67JMJFKX","gain","7","","74","J","1","","0","0","1","0.4773845315","","false","172","0.3392191481","","main_expt","0.4773845315","","0.0172037691","","0.3971498268","","","","","","",""
"113","","bandit","248","634578","0.0-210.0-0.0","03225022","wem/bandit_single","A32QJF67JMJFKX","gain","7","","74","J","1","","1","0","0","0.4680058345","","false","173","0.2931772585","","main_expt","0.4680058345","","0.01427011775","","0.4319579383","","","","","","",""
"62","","bandit","249","636410","0.0-211.0-0.0","03225022","wem/bandit_single","A32QJF67JMJFKX","gain","7","","74","J","1","","0","0","1","0.4561145842","","false","174","0.2750831853","","main_expt","0.4561145842","","0.01057019218","","0.4174714043","","","","","","",""
"68","","bandit","250","638253","0.0-212.0-0.0","03225022","wem/bandit_single","A32QJF67JMJFKX","gain","7","","74","J","1","","0","0","1","0.472279608","","false","175","0.2997345097","","main_expt","0.472279608","","0.007255369755","","0.3846013355","","","","","","",""
"3","","bandit","251","640024","0.0-213.0-0.0","03225022","wem/bandit_single","A32QJF67JMJFKX","gain","7","","74","J","1","","1","0","0","0.4602447812","","false","176","0.3402413884","","main_expt","0.4602447812","","0.01305273867","","0.4019342833","","","","","","",""
"0","","bandit","252","641797","0.0-214.0-0.0","03225022","wem/bandit_single","A32QJF67JMJFKX","gain","7","","74","J","1","","0","0","1","0.4343313091","","false","177","0.3099882557","","main_expt","0.4343313091","","0.0133150908","","0.4211485366","","","","","","",""
"561","","bandit","253","644133","0.0-215.0-0.0","03225022","wem/bandit_single","A32QJF67JMJFKX","gain","7","","74","J","1","","0","0","1","0.4048428007","","false","178","0.2761175095","","main_expt","0.4048428007","","0.01259822705","","0.4133977621","","","","","","",""
"38","","bandit","254","645947","0.0-216.0-0.0","03225022","wem/bandit_single","A32QJF67JMJFKX","gain","7","","74","J","1","","1","0","0","0.3826353834","","false","179","0.3053987856","","main_expt","0.3826353834","","0.008971211221","","0.4395013083","","","","","","",""
"22","","bandit","255","647742","0.0-217.0-0.0","03225022","wem/bandit_single","A32QJF67JMJFKX","gain","7","","74","J","1","","1","0","0","0.3352628501","","false","180","0.291880519","","main_expt","0.3352628501","","0.01053614943","","0.4385200931","","","","","","",""
"90","","bandit","256","649606","0.0-218.0-0.0","03225022","wem/bandit_single","A32QJF67JMJFKX","gain","7","","74","J","1","","0","0","1","0.2990499081","","false","181","0.298429346","","main_expt","0.2990499081","","0.01184041186","","0.4225113135","","","","","","",""
"9","","bandit","257","651384","0.0-219.0-0.0","03225022","wem/bandit_single","A32QJF67JMJFKX","gain","7","","74","J","1","","1","0","0","0.3698835663","","false","182","0.3343264324","","main_expt","0.3698835663","","0.03042574256","","0.3723799893","","","","","","",""
"54","","bandit","258","653211","0.0-220.0-0.0","03225022","wem/bandit_single","A32QJF67JMJFKX","gain","7","","74","J","1","","1","0","0","0.3849917371","","false","183","0.2890729732","","main_expt","0.3849917371","","0.03286829004","","0.3790924375","","","","","","",""
"76","","bandit","259","655059","0.0-221.0-0.0","03225022","wem/bandit_single","A32QJF67JMJFKX","gain","7","","74","J","1","","0","0","1","0.3560661239","","false","184","0.1975841231","","main_expt","0.3560661239","","0.05565884368","","0.4122006093","","","","","","",""
"81","","bandit","260","656915","0.0-222.0-0.0","03225022","wem/bandit_single","A32QJF67JMJFKX","gain","7","","74","J","1","","0","0","1","0.3637043243","","false","185","0.213981158","","main_expt","0.3637043243","","0.05703602855","","0.3681720139","","","","","","",""
"38","","bandit","261","658737","0.0-223.0-0.0","03225022","wem/bandit_single","A32QJF67JMJFKX","gain","7","","74","J","1","","0","0","1","0.370254809","","false","186","0.1690135127","","main_expt","0.370254809","","0.08167625523","","0.3735732413","","","","","","",""
"48","","bandit","262","660558","0.0-224.0-0.0","03225022","wem/bandit_single","A32QJF67JMJFKX","gain","7","","74","J","1","","0","0","1","0.3451477914","","false","187","0.2606776113","","main_expt","0.3451477914","","0.08146612985","","0.3763431734","","","","","","",""
"65","","bandit","263","662392","0.0-225.0-0.0","03225022","wem/bandit_single","A32QJF67JMJFKX","gain","7","","74","J","1","","1","0","0","0.3939300048","","false","188","0.2431197375","","main_expt","0.3939300048","","0.09365986726","","0.3515668436","","","","","","",""
"62","","bandit","264","664228","0.0-226.0-0.0","03225022","wem/bandit_single","A32QJF67JMJFKX","gain","7","","74","J","1","","0","0","1","0.4136030152","","false","189","0.2308206277","","main_expt","0.4136030152","","0.09268069957","","0.3343836861","","","","","","",""
"125","","bandit","265","666129","0.0-227.0-0.0","03225022","wem/bandit_single","A32QJF67JMJFKX","gain","7","","74","J","1","","0","0","1","0.4261376259","","false","190","0.2025271702","","main_expt","0.4261376259","","0.08594859785","","0.2525345787","","","","","","",""
"49","","bandit","266","667956","0.0-228.0-0.0","03225022","wem/bandit_single","A32QJF67JMJFKX","gain","7","","74","J","1","","0","0","1","0.3908696756","","false","191","0.2751540988","","main_expt","0.3908696756","","0.08932588753","","0.2685183708","","","","","","",""
"59","","bandit","267","669788","0.0-229.0-0.0","03225022","wem/bandit_single","A32QJF67JMJFKX","gain","7","","74","J","1","","0","0","1","0.4106222578","","false","192","0.2569606715","","main_expt","0.4106222578","","0.1064261942","","0.2572514827","","","","","","",""
"37","","bandit","268","671599","0.0-230.0-0.0","03225022","wem/bandit_single","A32QJF67JMJFKX","gain","7","","75","K","2","","1","0","0","0.1536879749","","false","193","0.2874900681","","main_expt","0.4282135821","","0.1536879749","","0.1969756064","","","","","","",""
"52","","bandit","269","673423","0.0-231.0-0.0","03225022","wem/bandit_single","A32QJF67JMJFKX","gain","7","","75","K","2","","0","0","1","0.1389913839","","false","194","0.1735349233","","main_expt","0.4423695223","","0.1389913839","","0.2134952627","","","","","","",""
"89","","bandit","270","675287","0.0-232.0-0.0","03225022","wem/bandit_single","A32QJF67JMJFKX","gain","7","","75","K","2","","0","0","1","0.1439418744","","false","195","0.1922880567","","main_expt","0.4594299266","","0.1439418744","","0.1620875807","","","","","","",""
"288","","bandit","271","677348","0.0-233.0-0.0","03225022","wem/bandit_single","A32QJF67JMJFKX","gain","7","","75","K","2","","0","0","1","0.131143091","","false","196","0.180833075","","main_expt","0.4446405127","","0.131143091","","0.166822232","","","","","","",""
"216","","bandit","272","679338","0.0-234.0-0.0","03225022","wem/bandit_single","A32QJF67JMJFKX","gain","7","","74","J","1","","1","0","0","0.4559667881","","false","197","0.2213655201","","main_expt","0.4559667881","","0.1358316141","","0.1951417713","","","","","","",""
"47","","bandit","273","681160","0.0-235.0-0.0","03225022","wem/bandit_single","A32QJF67JMJFKX","gain","7","","74","J","1","","0","0","1","0.4760465659","","false","198","0.1886922679","","main_expt","0.4760465659","","0.1271866158","","0.1946571809","","","","","","",""
"70","","bandit","274","683005","0.0-236.0-0.0","03225022","wem/bandit_single","A32QJF67JMJFKX","gain","7","","74","J","1","","1","0","0","0.4682530898","","false","199","0.1960792333","","main_expt","0.4682530898","","0.1427164763","","0.125569753","","","","","","",""
"65","","bandit","275","684840","0.0-237.0-0.0","03225022","wem/bandit_single","A32QJF67JMJFKX","gain","7","","74","J","1","","0","0","1","0.4722721777","","false","200","0.2093645874","","main_expt","0.4722721777","","0.1465126473","","0.110010897","","","","","","",""
"3","","bandit","276","686619","0.0-238.0-0.0","03225022","wem/bandit_single","A32QJF67JMJFKX","gain","7","","74","J","1","","0","0","1","0.4739800601","","false","201","0.1673165995","","main_expt","0.4739800601","","0.1271257608","","0.1280762957","","","","","","",""
"346","","bandit","277","688737","0.0-239.0-0.0","03225022","wem/bandit_single","A32QJF67JMJFKX","gain","7","","74","J","1","","0","0","1","0.479726886","","false","202","0.2086438453","","main_expt","0.479726886","","0.08657179739","","0.1402913484","","","","","","",""
"38","","bandit","278","690551","0.0-240.0-0.0","03225022","wem/bandit_single","A32QJF67JMJFKX","gain","7","","74","J","1","","0","0","1","0.4642372742","","false","203","0.1973992815","","main_expt","0.4642372742","","0.09313456927","","0.2217412738","","","","","","",""
"306","","bandit","279","692643","0.0-241.0-0.0","03225022","wem/bandit_single","A32QJF67JMJFKX","gain","7","","74","J","1","","1","0","0","0.4560882558","","false","204","0.2256674954","","main_expt","0.4560882558","","0.1497906572","","0.2231628045","","","","","","",""
"88","","bandit","280","694510","0.0-242.0-0.0","03225022","wem/bandit_single","A32QJF67JMJFKX","gain","7","","74","J","1","","0","0","1","0.4525737262","","false","205","0.2163874892","","main_expt","0.4525737262","","0.1829644856","","0.2170181201","","","","","","",""
"352","","bandit","281","696629","0.0-243.0-0.0","03225022","wem/bandit_single","A32QJF67JMJFKX","gain","7","","74","J","1","","1","0","0","0.4550624295","","false","206","0.2197086186","","main_expt","0.4550624295","","0.1612057882","","0.2796725078","","","","","","",""
"50","","bandit","282","698451","0.0-244.0-0.0","03225022","wem/bandit_single","A32QJF67JMJFKX","gain","7","","74","J","1","","1","0","0","0.4723612306","","false","207","0.2065154411","","main_expt","0.4723612306","","0.1697938272","","0.2817680811","","","","","","",""
"33","","bandit","283","700259","0.0-245.0-0.0","03225022","wem/bandit_single","A32QJF67JMJFKX","gain","7","","74","J","1","","0","0","1","0.4766034411","","false","208","0.1685179651","","main_expt","0.4766034411","","0.1559958766","","0.2823403198","","","","","","",""
"56","","bandit","284","702091","0.0-246.0-0.0","03225022","wem/bandit_single","A32QJF67JMJFKX","gain","7","","74","J","1","","1","0","0","0.483515399","","false","209","0.138461816","","main_expt","0.483515399","","0.1446830505","","0.3618902866","","","","","","",""
"57","","bandit","285","703923","0.0-247.0-0.0","03225022","wem/bandit_single","A32QJF67JMJFKX","gain","7","","74","J","1","","1","0","0","0.4880418707","","false","210","0.1494322788","","main_expt","0.4880418707","","0.1231196185","","0.373554641","","","","","","",""
"67","","bandit","286","705766","0.0-248.0-0.0","03225022","wem/bandit_single","A32QJF67JMJFKX","gain","7","","74","J","1","","0","0","1","0.4802592994","","false","211","0.1799359977","","main_expt","0.4802592994","","0.1456244431","","0.4160488284","","","","","","",""
"29","","bandit","287","707572","0.0-249.0-0.0","03225022","wem/bandit_single","A32QJF67JMJFKX","gain","7","","74","J","1","","0","0","1","0.4738887763","","false","212","0.1810857181","","main_expt","0.4738887763","","0.1656867557","","0.381710399","","","","","","",""
"37","","bandit","288","709382","0.0-250.0-0.0","03225022","wem/bandit_single","A32QJF67JMJFKX","gain","7","","74","J","1","","0","0","1","0.4808850683","","false","213","0.1615137558","","main_expt","0.4808850683","","0.224977978","","0.3769148707","","","","","","",""
"48","","bandit","289","711203","0.0-251.0-0.0","03225022","wem/bandit_single","A32QJF67JMJFKX","gain","7","","74","J","1","","0","0","1","0.4825694391","","false","214","0.1650702933","","main_expt","0.4825694391","","0.307554285","","0.3476207329","","","","","","",""
"38","","bandit","290","713014","0.0-252.0-0.0","03225022","wem/bandit_single","A32QJF67JMJFKX","gain","7","","74","J","1","","0","0","1","0.4847107186","","false","215","0.1804791034","","main_expt","0.4847107186","","0.3638187162","","0.3089741626","","","","","","",""
"23","","bandit","291","714812","0.0-253.0-0.0","03225022","wem/bandit_single","A32QJF67JMJFKX","gain","7","","74","J","1","","0","0","1","0.4809007894","","false","216","0.1573161505","","main_expt","0.4809007894","","0.3543809852","","0.3674618518","","","","","","",""
"48","","bandit","292","716628","0.0-254.0-0.0","03225022","wem/bandit_single","A32QJF67JMJFKX","gain","7","","74","J","1","","0","0","1","0.4741770765","","false","217","0.1434716653","","main_expt","0.4741770765","","0.3301156576","","0.3283657719","","","","","","",""
"200","","bandit","293","718604","0.0-255.0-0.0","03225022","wem/bandit_single","A32QJF67JMJFKX","gain","7","","74","J","1","","1","0","0","0.4819245576","","false","218","0.1911838451","","main_expt","0.4819245576","","0.3132999057","","0.3302734852","","","","","","",""
"401","","bandit","294","720780","0.0-256.0-0.0","03225022","wem/bandit_single","A32QJF67JMJFKX","gain","7","","74","J","1","","1","0","0","0.4793241995","","false","219","0.1441129831","","main_expt","0.4793241995","","0.2205266592","","0.3554571327","","","","","","",""
"71","","bandit","295","722624","0.0-257.0-0.0","03225022","wem/bandit_single","A32QJF67JMJFKX","gain","7","","74","J","1","","1","0","0","0.4713672071","","false","220","0.1920309772","","main_expt","0.4713672071","","0.2167078271","","0.319330444","","","","","","",""
"117","","bandit","296","724516","0.0-258.0-0.0","03225022","wem/bandit_single","A32QJF67JMJFKX","gain","7","","74","J","1","","0","0","1","0.4728071858","","false","221","0.1770810464","","main_expt","0.4728071858","","0.2038989409","","0.3105046037","","","","","","",""
"26","","bandit","297","726313","0.0-259.0-0.0","03225022","wem/bandit_single","A32QJF67JMJFKX","gain","7","","74","J","1","","1","0","0","0.4742115633","","false","222","0.1726735039","","main_expt","0.4742115633","","0.18760722","","0.2971369975","","","","","","",""
"53","","bandit","298","728141","0.0-260.0-0.0","03225022","wem/bandit_single","A32QJF67JMJFKX","gain","7","","74","J","1","","1","0","0","0.4606319974","","false","223","0.1935596247","","main_expt","0.4606319974","","0.1794058889","","0.2924153056","","","","","","",""
"0","","bandit","299","729916","0.0-261.0-0.0","03225022","wem/bandit_single","A32QJF67JMJFKX","gain","7","","74","J","1","","0","0","1","0.4796626282","","false","224","0.184290804","","main_expt","0.4796626282","","0.1973287288","","0.3251713444","","","","","","",""
"248","","bandit","300","731936","0.0-262.0-0.0","03225022","wem/bandit_single","A32QJF67JMJFKX","gain","7","","74","J","1","","1","0","0","0.4770938662","","false","225","0.1182631535","","main_expt","0.4770938662","","0.1657141015","","0.3191667618","","","","","","",""
"324","","bandit","301","734031","0.0-263.0-0.0","03225022","wem/bandit_single","A32QJF67JMJFKX","gain","7","","74","J","1","","1","0","0","0.4753940461","","false","226","0.1243406576","","main_expt","0.4753940461","","0.1333985498","","0.3163975521","","","","","","",""
"5","","bandit","302","735808","0.0-264.0-0.0","03225022","wem/bandit_single","A32QJF67JMJFKX","gain","7","","74","J","1","","0","0","1","0.4692559414","","false","227","0.1887705619","","main_expt","0.4692559414","","0.1426718429","","0.3153023093","","","","","","",""
"220","","bandit","303","737798","0.0-265.0-0.0","03225022","wem/bandit_single","A32QJF67JMJFKX","gain","7","","74","J","1","","1","0","0","0.4549715312","","false","228","0.1594511678","","main_expt","0.4549715312","","0.1510234048","","0.252814401","","","","","","",""
"135","","bandit","304","739704","0.0-266.0-0.0","03225022","wem/bandit_single","A32QJF67JMJFKX","gain","7","","74","J","1","","1","0","0","0.4818432606","","false","229","0.1582092687","","main_expt","0.4818432606","","0.1786638104","","0.2830586582","","","","","","",""
"111","","bandit","305","741589","0.0-267.0-0.0","03225022","wem/bandit_single","A32QJF67JMJFKX","gain","7","","74","J","1","","0","0","1","0.4542350274","","false","230","0.149178519","","main_expt","0.4542350274","","0.1564383184","","0.2124451555","","","","","","",""
"46","","bandit","306","743408","0.0-268.0-0.0","03225022","wem/bandit_single","A32QJF67JMJFKX","gain","7","","74","J","1","","1","0","0","0.4646494747","","false","231","0.2063022429","","main_expt","0.4646494747","","0.1398607303","","0.1175217461","","","","","","",""
"1624","","bandit","307","746808","0.0-269.0-0.0","03225022","wem/bandit_single","A32QJF67JMJFKX","gain","7","","74","J","1","","0","0","1","0.4617677548","","false","232","0.2424934828","","main_expt","0.4617677548","","0.1323980205","","0.144677577","","","","","","",""
"48","","bandit","308","748631","0.0-270.0-0.0","03225022","wem/bandit_single","A32QJF67JMJFKX","gain","7","","74","J","1","","0","0","1","0.4535872836","","false","233","0.2404462099","","main_expt","0.4535872836","","0.1510374747","","0.1555092754","","","","","","",""
"180","","bandit","309","750587","0.0-271.0-0.0","03225022","wem/bandit_single","A32QJF67JMJFKX","gain","7","","74","J","1","","1","0","0","0.4297764401","","false","234","0.1830028502","","main_expt","0.4297764401","","0.133247495","","0.1250762939","","","","","","",""
"106","","bandit","310","752467","0.0-272.0-0.0","03225022","wem/bandit_single","A32QJF67JMJFKX","gain","7","","74","J","1","","1","0","0","0.4335441617","","false","235","0.2197419317","","main_expt","0.4335441617","","0.1666928205","","0.1094925358","","","","","","",""
"110","","bandit","311","754345","0.0-273.0-0.0","03225022","wem/bandit_single","A32QJF67JMJFKX","gain","7","","74","J","1","","1","0","0","0.4390497594","","false","236","0.2537285896","","main_expt","0.4390497594","","0.1772374327","","0.09099935704","","","","","","",""
"148","","bandit","312","756265","0.0-274.0-0.0","03225022","wem/bandit_single","A32QJF67JMJFKX","gain","7","","74","J","1","","1","0","0","0.4557250369","","false","237","0.2967198922","","main_expt","0.4557250369","","0.2093850131","","0.07445530481","","","","","","",""
"171","","bandit","313","758211","0.0-275.0-0.0","03225022","wem/bandit_single","A32QJF67JMJFKX","gain","7","","74","J","1","","1","0","0","0.4712934341","","false","238","0.2716881628","","main_expt","0.4712934341","","0.2323540058","","0.1160826651","","","","","","",""
"19","","bandit","314","760003","0.0-276.0-0.0","03225022","wem/bandit_single","A32QJF67JMJFKX","gain","7","","74","J","1","","0","0","1","0.4744109467","","false","239","0.2840113657","","main_expt","0.4744109467","","0.2527052166","","0.1935594103","","","","","","",""
"35","","bandit","315","761815","0.0-277.0-0.0","03225022","wem/bandit_single","A32QJF67JMJFKX","gain","7","","74","J","1","","1","0","0","0.4856904038","","false","240","0.3274134878","","main_expt","0.4856904038","","0.2429338356","","0.2305108235","","","","","","",""
"188","","bandit","316","763780","0.0-278.0-0.0","03225022","wem/bandit_single","A32QJF67JMJFKX","gain","7","","74","J","1","","0","0","1","0.474377245","","false","241","0.3106351565","","main_expt","0.474377245","","0.2422046893","","0.23744922","","","","","","",""
"175","","bandit","317","765732","0.0-279.0-0.0","03225022","wem/bandit_single","A32QJF67JMJFKX","gain","7","","74","J","1","","1","0","0","0.4699498903","","false","242","0.276301991","","main_expt","0.4699498903","","0.1974588069","","0.2644088126","","","","","","",""
"7","","bandit","318","767513","0.0-280.0-0.0","03225022","wem/bandit_single","A32QJF67JMJFKX","gain","7","","74","J","1","","0","0","1","0.4696131401","","false","243","0.2682550828","","main_expt","0.4696131401","","0.1697106736","","0.3029471314","","","","","","",""
"65","","bandit","319","769356","0.0-281.0-0.0","03225022","wem/bandit_single","A32QJF67JMJFKX","gain","7","","74","J","1","","0","0","1","0.4519085084","","false","244","0.2717267912","","main_expt","0.4519085084","","0.1495066821","","0.2869027424","","","","","","",""
"1152","","bandit","320","772284","0.0-282.0-0.0","03225022","wem/bandit_single","A32QJF67JMJFKX","gain","7","","74","J","1","","0","0","1","0.4620487724","","false","245","0.2480355477","","main_expt","0.4620487724","","0.1664551864","","0.2928347339","","","","","","",""
"56","","bandit","321","774115","0.0-283.0-0.0","03225022","wem/bandit_single","A32QJF67JMJFKX","gain","7","","74","J","1","","0","0","1","0.4553277256","","false","246","0.2978011657","","main_expt","0.4553277256","","0.1660340973","","0.2537870262","","","","","","",""
"39","","bandit","322","775932","0.0-284.0-0.0","03225022","wem/bandit_single","A32QJF67JMJFKX","gain","7","","74","J","1","","1","0","0","0.4470790686","","false","247","0.3183795364","","main_expt","0.4470790686","","0.2232834288","","0.220788829","","","","","","",""
"45","","bandit","323","777756","0.0-285.0-0.0","03225022","wem/bandit_single","A32QJF67JMJFKX","gain","7","","74","J","1","","0","0","1","0.4370243233","","false","248","0.3496285813","","main_expt","0.4370243233","","0.2337066106","","0.2260039815","","","","","","",""
"74","","bandit","324","779605","0.0-286.0-0.0","03225022","wem/bandit_single","A32QJF67JMJFKX","gain","7","","74","J","1","","0","0","1","0.4344986606","","false","249","0.3450691196","","main_expt","0.4344986606","","0.2555848542","","0.2536259712","","","","","","",""
"194","","bandit","325","781581","0.0-287.0-0.0","03225022","wem/bandit_single","A32QJF67JMJFKX","gain","7","","74","J","1","","0","0","1","0.4418367533","","false","250","0.3451339369","","main_expt","0.4418367533","","0.2423579198","","0.2748463286","","","","","","",""
"149","","bandit","326","783506","0.0-288.0-0.0","03225022","wem/bandit_single","A32QJF67JMJFKX","gain","7","","74","J","1","","1","0","0","0.4227475224","","false","251","0.3928119302","","main_expt","0.4227475224","","0.2275025436","","0.2623633266","","","","","","",""
"154","","bandit","327","785431","0.0-289.0-0.0","03225022","wem/bandit_single","A32QJF67JMJFKX","gain","7","","74","J","1","","1","0","0","0.423648384","","false","252","0.3926241496","","main_expt","0.423648384","","0.2868871138","","0.3173920108","","","","","","",""
"181","","bandit","328","787389","0.0-290.0-0.0","03225022","wem/bandit_single","A32QJF67JMJFKX","gain","7","","74","J","1","","1","0","0","0.4321428437","","false","253","0.4074069762","","main_expt","0.4321428437","","0.2719675916","","0.3172059241","","","","","","",""
"100","","bandit","329","789266","0.0-291.0-0.0","03225022","wem/bandit_single","A32QJF67JMJFKX","gain","7","","74","J","1","","1","0","0","0.4621147124","","false","254","0.3831412703","","main_expt","0.4621147124","","0.3118638267","","0.3200237469","","","","","","",""
"201","","bandit","330","791245","0.0-292.0-0.0","03225022","wem/bandit_single","A32QJF67JMJFKX","gain","7","","74","J","1","","0","0","1","0.4586218194","","false","255","0.3639457665","","main_expt","0.4586218194","","0.2103897122","","0.3358809316","","","","","","",""
"228","","bandit","331","793251","0.0-293.0-0.0","03225022","wem/bandit_single","A32QJF67JMJFKX","gain","7","","74","J","1","","1","0","0","0.4661438042","","false","256","0.3353936822","","main_expt","0.4661438042","","0.2053105091","","0.3288682213","","","","","","",""
"159","","bandit","332","795187","0.0-294.0-0.0","03225022","wem/bandit_single","A32QJF67JMJFKX","gain","7","","74","J","1","","0","0","1","0.4746145216","","false","257","0.3457786028","","main_expt","0.4746145216","","0.2101260802","","0.3298558235","","","","","","",""
"111","","bandit","333","797075","0.0-295.0-0.0","03225022","wem/bandit_single","A32QJF67JMJFKX","gain","7","","74","J","1","","0","0","1","0.479590246","","false","258","0.3336199161","","main_expt","0.479590246","","0.251470712","","0.3544886593","","","","","","",""
"114","","bandit","334","798966","0.0-296.0-0.0","03225022","wem/bandit_single","A32QJF67JMJFKX","gain","7","","74","J","1","","0","0","1","0.4543592645","","false","259","0.3182937175","","main_expt","0.4543592645","","0.2320991284","","0.3380036538","","","","","","",""
"156","","bandit","335","800899","0.0-297.0-0.0","03225022","wem/bandit_single","A32QJF67JMJFKX","gain","7","","74","J","1","","0","0","1","0.4591910344","","false","260","0.3004718715","","main_expt","0.4591910344","","0.2850429488","","0.2797544445","","","","","","",""
"136","","bandit","336","802814","0.0-298.0-0.0","03225022","wem/bandit_single","A32QJF67JMJFKX","gain","7","","74","J","1","","1","0","0","0.4416244086","","false","261","0.2969538951","","main_expt","0.4416244086","","0.3396488321","","0.2594239605","","","","","","",""
"139","","bandit","337","804731","0.0-299.0-0.0","03225022","wem/bandit_single","A32QJF67JMJFKX","gain","7","","74","J","1","","1","0","0","0.410126596","","false","262","0.336502974","","main_expt","0.410126596","","0.243241633","","0.2804023839","","","","","","",""
"126","","bandit","338","806628","0.0-300.0-0.0","03225022","wem/bandit_single","A32QJF67JMJFKX","gain","7","","74","J","1","","0","0","1","0.3852167719","","false","263","0.3417757729","","main_expt","0.3852167719","","0.221101122","","0.2526654216","","","","","","",""
"110","","bandit","339","808511","0.0-301.0-0.0","03225022","wem/bandit_single","A32QJF67JMJFKX","gain","7","","74","J","1","","0","0","1","0.4048243192","","false","264","0.3288238543","","main_expt","0.4048243192","","0.2475963948","","0.2262009497","","","","","","",""
"141","","bandit","340","810425","0.0-302.0-0.0","03225022","wem/bandit_single","A32QJF67JMJFKX","gain","7","","74","J","1","","0","0","1","0.3671025299","","false","265","0.2661945806","","main_expt","0.3671025299","","0.2472156829","","0.2111455706","","","","","","",""
"177","","bandit","341","812379","0.0-303.0-0.0","03225022","wem/bandit_single","A32QJF67JMJFKX","gain","7","","74","J","1","","1","0","0","0.366792141","","false","266","0.2831053071","","main_expt","0.366792141","","0.2257792125","","0.1816972253","","","","","","",""
"98","","bandit","342","814254","0.0-304.0-0.0","03225022","wem/bandit_single","A32QJF67JMJFKX","gain","7","","74","J","1","","1","0","0","0.3187551676","","false","267","0.2814616526","","main_expt","0.3187551676","","0.2434052149","","0.08996407949","","","","","","",""
"91","","bandit","343","816124","0.0-305.0-0.0","03225022","wem/bandit_single","A32QJF67JMJFKX","gain","7","","74","J","1","","0","0","1","0.2992927481","","false","268","0.2698532634","","main_expt","0.2992927481","","0.2472891614","","0.08316088703","","","","","","",""
"70","","bandit","344","817965","0.0-306.0-0.0","03225022","wem/bandit_single","A32QJF67JMJFKX","gain","7","","74","J","1","","0","0","1","0.3158706852","","false","269","0.332936287","","main_expt","0.3158706852","","0.2592343403","","0.132755096","","","","","","",""
"91","","bandit","345","819836","0.0-307.0-0.0","03225022","wem/bandit_single","A32QJF67JMJFKX","gain","7","","74","J","1","","0","0","1","0.3399881701","","false","270","0.3520051328","","main_expt","0.3399881701","","0.2626766442","","0.1295257529","","","","","","",""
"126","","bandit","346","821737","0.0-308.0-0.0","03225022","wem/bandit_single","A32QJF67JMJFKX","gain","7","","74","J","1","","0","0","1","0.3425846673","","false","271","0.319936882","","main_expt","0.3425846673","","0.2889536683","","0.1243547369","","","","","","",""
"80","","bandit","347","823596","0.0-309.0-0.0","03225022","wem/bandit_single","A32QJF67JMJFKX","gain","7","","74","J","1","","0","0","1","0.3661992365","","false","272","0.3526338178","","main_expt","0.3661992365","","0.3519527746","","0.1129401117","","","","","","",""
"79","","bandit","348","825450","0.0-310.0-0.0","03225022","wem/bandit_single","A32QJF67JMJFKX","gain","7","","74","J","1","","0","0","1","0.3548292996","","false","273","0.3661190652","","main_expt","0.3548292996","","0.3142239271","","0.07602588951","","","","","","",""
"56","","bandit","349","827285","0.0-311.0-0.0","03225022","wem/bandit_single","A32QJF67JMJFKX","gain","7","","74","J","1","","0","0","1","0.3015993901","","false","274","0.3531355024","","main_expt","0.3015993901","","0.2858465014","","0.08326080211","","","","","","",""
"41","","bandit","350","829109","0.0-312.0-0.0","03225022","wem/bandit_single","A32QJF67JMJFKX","gain","7","","74","J","1","","0","0","1","0.3074537736","","false","275","0.3710682781","","main_expt","0.3074537736","","0.2833142968","","0.1117875064","","","","","","",""
"71","","bandit","351","830954","0.0-313.0-0.0","03225022","wem/bandit_single","A32QJF67JMJFKX","gain","7","","74","J","1","","0","0","1","0.2995557441","","false","276","0.3039620657","","main_expt","0.2995557441","","0.303505508","","0.1087564456","","","","","","",""
"0","","bandit","352","832733","0.0-314.0-0.0","03225022","wem/bandit_single","A32QJF67JMJFKX","gain","7","","74","J","1","","0","0","1","0.3372524479","","false","277","0.3661174243","","main_expt","0.3372524479","","0.2503405658","","0.1402577261","","","","","","",""
"85","","bandit","353","834597","0.0-315.0-0.0","03225022","wem/bandit_single","A32QJF67JMJFKX","gain","7","","75","K","2","","1","0","0","0.2575241406","","false","278","0.3603903852","","main_expt","0.3941332117","","0.2575241406","","0.1639331241","","","","","","",""
"55","","bandit","354","836426","0.0-316.0-0.0","03225022","wem/bandit_single","A32QJF67JMJFKX","gain","7","","75","K","2","","0","0","1","0.2537993043","","false","279","0.3865241344","","main_expt","0.369807449","","0.2537993043","","0.08855821706","","","","","","",""
"15","","bandit","355","838218","0.0-317.0-0.0","03225022","wem/bandit_single","A32QJF67JMJFKX","gain","7","","75","K","2","","0","0","1","0.1734094061","","false","280","0.3941828848","","main_expt","0.3726167961","","0.1734094061","","0.1116659285","","","","","","",""
"15","","bandit","356","840011","0.0-318.0-0.0","03225022","wem/bandit_single","A32QJF67JMJFKX","gain","7","","75","K","2","","0","0","1","0.1846732939","","false","281","0.4060440919","","main_expt","0.3849966858","","0.1846732939","","0.1032088387","","","","","","",""
"1840","","bandit","357","843626","0.0-319.0-0.0","03225022","wem/bandit_single","A32QJF67JMJFKX","gain","7","","75","K","2","","1","0","0","0.1808782366","","false","282","0.3855255831","","main_expt","0.4081920515","","0.1808782366","","0.1449157137","","","","","","",""
"598","","bandit","358","846003","0.0-320.0-0.0","03225022","wem/bandit_single","A32QJF67JMJFKX","gain","7","","75","K","2","","0","0","1","0.1375342675","","false","283","0.3694157076","","main_expt","0.3930572229","","0.1375342675","","0.1649674285","","","","","","",""
"49","","bandit","359","847829","0.0-321.0-0.0","03225022","wem/bandit_single","A32QJF67JMJFKX","gain","7","","75","K","2","","0","0","1","0.1029306966","","false","284","0.4137550783","","main_expt","0.379410926","","0.1029306966","","0.1373277791","","","","","","",""
"300","","bandit","360","849905","0.0-322.0-0.0","03225022","wem/bandit_single","A32QJF67JMJFKX","gain","7","","75","K","2","","1","0","0","0.08821361919","","false","285","0.4268254387","","main_expt","0.3947179778","","0.08821361919","","0.1616488504","","","","","","",""
"9","","bandit","361","851689","0.0-323.0-0.0","03225022","wem/bandit_single","A32QJF67JMJFKX","gain","7","","75","K","2","","0","0","1","0.08321279743","","false","286","0.4115685589","","main_expt","0.4036344472","","0.08321279743","","0.1306737704","","","","","","",""
"458","","bandit","362","853923","0.0-324.0-0.0","03225022","wem/bandit_single","A32QJF67JMJFKX","gain","7","","75","K","2","","0","0","1","0.0595967864","","false","287","0.3828423493","","main_expt","0.4025981517","","0.0595967864","","0.2059275786","","","","","","",""
"32","","bandit","363","855731","0.0-325.0-0.0","03225022","wem/bandit_single","A32QJF67JMJFKX","gain","7","","74","J","1","","0","0","1","0.4183513528","","false","288","0.4121581376","","main_expt","0.4183513528","","0.06539189492","","0.1892738114","","","","","","",""
"246","","bandit","364","857755","0.0-326.0-0.0","03225022","wem/bandit_single","A32QJF67JMJFKX","gain","7","","72","H","0","img/none_selected.jpg","1","0","0","0.4227758831","","false","289","0.4227758831","","main_expt","0.4516793017","","0.06484578344","","0.1656659279","","","","","","",""
"135","","bandit","365","859670","0.0-327.0-0.0","03225022","wem/bandit_single","A32QJF67JMJFKX","gain","7","","72","H","0","img/none_selected.jpg","1","0","0","0.4149367164","","false","290","0.4149367164","","main_expt","0.4112115972","","0.06626982825","","0.1814252587","","","","","","",""
"115","","bandit","366","861564","0.0-328.0-0.0","03225022","wem/bandit_single","A32QJF67JMJFKX","gain","7","","72","H","0","img/none_selected.jpg","1","0","0","0.399757838","","false","291","0.399757838","","main_expt","0.4372982331","","0.1096348163","","0.2385479929","","","","","","",""
"171","","bandit","367","863516","0.0-329.0-0.0","03225022","wem/bandit_single","A32QJF67JMJFKX","gain","7","","72","H","0","img/none_selected.jpg","1","0","0","0.3846886596","","false","292","0.3846886596","","main_expt","0.4238416902","","0.1604398542","","0.2322046479","","","","","","",""
"190","","bandit","368","865484","0.0-330.0-0.0","03225022","wem/bandit_single","A32QJF67JMJFKX","gain","7","","72","H","0","img/none_selected.jpg","0","0","1","0.3364000065","","false","293","0.3364000065","","main_expt","0.4034354509","","0.1714651471","","0.223393304","","","","","","",""
"190","","bandit","369","867452","0.0-331.0-0.0","03225022","wem/bandit_single","A32QJF67JMJFKX","gain","7","","72","H","0","img/none_selected.jpg","1","0","0","0.3545739736","","false","294","0.3545739736","","main_expt","0.4093667064","","0.1378543876","","0.2290093083","","","","","","",""
"189","","bandit","370","869418","0.0-332.0-0.0","03225022","wem/bandit_single","A32QJF67JMJFKX","gain","7","","72","H","0","img/none_selected.jpg","0","0","1","0.2891777922","","false","295","0.2891777922","","main_expt","0.4294791191","","0.1243446737","","0.2875464899","","","","","","",""
"266","","bandit","371","871460","0.0-333.0-0.0","03225022","wem/bandit_single","A32QJF67JMJFKX","gain","7","","72","H","0","img/none_selected.jpg","0","0","1","0.2084544567","","false","296","0.2084544567","","main_expt","0.4289259587","","0.1831574145","","0.2880416719","","","","","","",""
"277","","bandit","372","873514","0.0-334.0-0.0","03225022","wem/bandit_single","A32QJF67JMJFKX","gain","7","","72","H","0","img/none_selected.jpg","0","0","1","0.2481546198","","false","297","0.2481546198","","main_expt","0.4073385017","","0.1645554297","","0.2144640116","","","","","","",""
"192","","bandit","373","875484","0.0-335.0-0.0","03225022","wem/bandit_single","A32QJF67JMJFKX","gain","7","","72","H","0","img/none_selected.jpg","1","0","0","0.2961938921","","false","298","0.2961938921","","main_expt","0.3914212946","","0.1424629524","","0.2150894671","","","","","","",""
