"rt","responses","trial_type","trial_index","time_elapsed","internal_node_id","subjID","study","MID","cond","drift","key_press","respCharCode","respKey","respChoiceNum","respChoice","gems","bombs","no_reward","GemPrChosen","BombPrChosen","practice","trial_counter","WinPr_0","LosePr_0","trial_label","WinPr_1","LosePr_1","WinPr_2","LosePr_2","WinPr_3","LosePr_3","Q0","Q1","Q2","gender","age","ethnicity"
"25572","{""Q0"":""A1BBJJHGM0ADN7""}","survey-text","0","25583","0.0-0.0","03730883","wem/bandit_single","A1BBJJHGM0ADN7","gain","6","","","","","","","","","","","","","","","","","","","","","","","","","","",""
"3520","","text","1","30107","0.0-1.0","03730883","wem/bandit_single","A1BBJJHGM0ADN7","gain","6","32","","","","","","","","","","","","","","","","","","","","","","","","","",""
"9528","","text","2","39640","0.0-2.0","03730883","wem/bandit_single","A1BBJJHGM0ADN7","gain","6","32","","","","","","","","","","","","","","","","","","","","","","","","","",""
"29129","","text","3","68774","0.0-3.0","03730883","wem/bandit_single","A1BBJJHGM0ADN7","gain","6","32","","","","","","","","","","","","","","","","","","","","","","","","","",""
"17534","","text","4","86317","0.0-4.0","03730883","wem/bandit_single","A1BBJJHGM0ADN7","gain","6","32","","","","","","","","","","","","","","","","","","","","","","","","","",""
"11050","","text","5","97375","0.0-5.0","03730883","wem/bandit_single","A1BBJJHGM0ADN7","gain","6","32","","","","","","","","","","","","","","","","","","","","","","","","","",""
"7469","","text","6","104853","0.0-6.0","03730883","wem/bandit_single","A1BBJJHGM0ADN7","gain","6","32","","","","","","","","","","","","","","","","","","","","","","","","","",""
"5433","","text","7","110294","0.0-7.0","03730883","wem/bandit_single","A1BBJJHGM0ADN7","gain","6","32","","","","","","","","","","","","","","","","","","","","","","","","","",""
"3168","","text","8","113470","0.0-8.0","03730883","wem/bandit_single","A1BBJJHGM0ADN7","gain","6","32","","","","","","","","","","","","","","","","","","","","","","","","","",""
"3355","","text","9","116830","0.0-9.0","03730883","wem/bandit_single","A1BBJJHGM0ADN7","gain","6","32","","","","","","","","","","","","","","","","","","","","","","","","","",""
"5446","","text","10","122280","0.0-10.0","03730883","wem/bandit_single","A1BBJJHGM0ADN7","gain","6","32","","","","","","","","","","","","","","","","","","","","","","","","","",""
"6108","","text","11","128394","0.0-11.0","03730883","wem/bandit_single","A1BBJJHGM0ADN7","gain","6","32","","","","","","","","","","","","","","","","","","","","","","","","","",""
"2237","","bandit","12","132149","0.0-12.0-0.0","03730883","wem/bandit_single","A1BBJJHGM0ADN7","gain","6","","74","J","0","img/none_selected_demo.jpg","0","0","1","0","0","true","0","0","0","","","","","","","","","","","","",""
"1672","","bandit","13","135615","0.0-13.0-0.0","03730883","wem/bandit_single","A1BBJJHGM0ADN7","gain","6","","75","K","0","img/none_selected_demo.jpg","0","0","1","0","0","true","0","0","0","","","","","","","","","","","","",""
"3275","","text","14","139157","0.0-14.0","03730883","wem/bandit_single","A1BBJJHGM0ADN7","gain","6","32","","","","","","","","","","","","","","","","","","","","","","","","","",""
"1984","","text","15","141146","0.0-15.0","03730883","wem/bandit_single","A1BBJJHGM0ADN7","gain","6","32","","","","","","","","","","","","","","","","","","","","","","","","","",""
"3946","","text","16","145095","0.0-16.0","03730883","wem/bandit_single","A1BBJJHGM0ADN7","gain","6","32","","","","","","","","","","","","","","","","","","","","","","","","","",""
"3768","","text","17","148868","0.0-17.0","03730883","wem/bandit_single","A1BBJJHGM0ADN7","gain","6","32","","","","","","","","","","","","","","","","","","","","","","","","","",""
"1764","","bandit","18","152159","0.0-18.0-0.0","03730883","wem/bandit_single","A1BBJJHGM0ADN7","gain","6","","74","J","0","img/none_selected_demo.jpg","1","0","0","0.8","0","true","0","0.8","0","80_20_practice","0.2","0","","","","","","","","","",""
"467","","bandit","19","154415","0.0-18.0-1.0","03730883","wem/bandit_single","A1BBJJHGM0ADN7","gain","6","","74","J","0","img/none_selected_demo.jpg","1","0","0","0.8","0","true","0","0.8","0","80_20_practice","0.2","0","","","","","","","","","",""
"142","","bandit","20","156329","0.0-18.0-2.0","03730883","wem/bandit_single","A1BBJJHGM0ADN7","gain","6","","74","J","0","img/none_selected_demo.jpg","1","0","0","0.8","0","true","0","0.8","0","80_20_practice","0.2","0","","","","","","","","","",""
"595","","bandit","21","158706","0.0-18.0-3.0","03730883","wem/bandit_single","A1BBJJHGM0ADN7","gain","6","","74","J","0","img/none_selected_demo.jpg","1","0","0","0.8","0","true","0","0.8","0","80_20_practice","0.2","0","","","","","","","","","",""
"309","","bandit","22","160790","0.0-18.0-4.0","03730883","wem/bandit_single","A1BBJJHGM0ADN7","gain","6","","74","J","0","img/none_selected_demo.jpg","1","0","0","0.8","0","true","0","0.8","0","80_20_practice","0.2","0","","","","","","","","","",""
"76","","bandit","23","162643","0.0-18.0-5.0","03730883","wem/bandit_single","A1BBJJHGM0ADN7","gain","6","","74","J","0","img/none_selected_demo.jpg","1","0","0","0.8","0","true","0","0.8","0","80_20_practice","0.2","0","","","","","","","","","",""
"55","","bandit","24","164492","0.0-18.0-6.0","03730883","wem/bandit_single","A1BBJJHGM0ADN7","gain","6","","74","J","0","img/none_selected_demo.jpg","1","0","0","0.8","0","true","0","0.8","0","80_20_practice","0.2","0","","","","","","","","","",""
"1","","bandit","25","166265","0.0-18.0-7.0","03730883","wem/bandit_single","A1BBJJHGM0ADN7","gain","6","","74","J","0","img/none_selected_demo.jpg","0","0","1","0.8","0","true","0","0.8","0","80_20_practice","0.2","0","","","","","","","","","",""
"252","","bandit","26","168291","0.0-18.0-8.0","03730883","wem/bandit_single","A1BBJJHGM0ADN7","gain","6","","75","K","1","","0","0","1","0.2","0","true","0","0.8","0","80_20_practice","0.2","0","","","","","","","","","",""
"17","","bandit","27","170086","0.0-18.0-9.0","03730883","wem/bandit_single","A1BBJJHGM0ADN7","gain","6","","74","J","0","img/none_selected_demo.jpg","1","0","0","0.8","0","true","0","0.8","0","80_20_practice","0.2","0","","","","","","","","","",""
"70","","bandit","28","171936","0.0-18.0-10.0","03730883","wem/bandit_single","A1BBJJHGM0ADN7","gain","6","","74","J","0","img/none_selected_demo.jpg","0","0","1","0.8","0","true","0","0.8","0","80_20_practice","0.2","0","","","","","","","","","",""
"58","","bandit","29","173760","0.0-18.0-11.0","03730883","wem/bandit_single","A1BBJJHGM0ADN7","gain","6","","74","J","0","img/none_selected_demo.jpg","1","0","0","0.8","0","true","0","0.8","0","80_20_practice","0.2","0","","","","","","","","","",""
"23","","bandit","30","175561","0.0-18.0-12.0","03730883","wem/bandit_single","A1BBJJHGM0ADN7","gain","6","","74","J","0","img/none_selected_demo.jpg","1","0","0","0.8","0","true","0","0.8","0","80_20_practice","0.2","0","","","","","","","","","",""
"170","","bandit","31","177522","0.0-18.0-13.0","03730883","wem/bandit_single","A1BBJJHGM0ADN7","gain","6","","74","J","0","img/none_selected_demo.jpg","0","0","1","0.8","0","true","0","0.8","0","80_20_practice","0.2","0","","","","","","","","","",""
"64","","bandit","32","179380","0.0-18.0-14.0","03730883","wem/bandit_single","A1BBJJHGM0ADN7","gain","6","","74","J","0","img/none_selected_demo.jpg","1","0","0","0.8","0","true","0","0.8","0","80_20_practice","0.2","0","","","","","","","","","",""
"7","","bandit","33","181158","0.0-18.0-15.0","03730883","wem/bandit_single","A1BBJJHGM0ADN7","gain","6","","74","J","0","img/none_selected_demo.jpg","1","0","0","0.8","0","true","0","0.8","0","80_20_practice","0.2","0","","","","","","","","","",""
"42","","bandit","34","182980","0.0-18.0-16.0","03730883","wem/bandit_single","A1BBJJHGM0ADN7","gain","6","","74","J","0","img/none_selected_demo.jpg","0","0","1","0.8","0","true","0","0.8","0","80_20_practice","0.2","0","","","","","","","","","",""
"657","","bandit","35","185419","0.0-18.0-17.0","03730883","wem/bandit_single","A1BBJJHGM0ADN7","gain","6","","74","J","0","img/none_selected_demo.jpg","1","0","0","0.8","0","true","0","0.8","0","80_20_practice","0.2","0","","","","","","","","","",""
"74","","bandit","36","187267","0.0-18.0-18.0","03730883","wem/bandit_single","A1BBJJHGM0ADN7","gain","6","","74","J","0","img/none_selected_demo.jpg","1","0","0","0.8","0","true","0","0.8","0","80_20_practice","0.2","0","","","","","","","","","",""
"99","","bandit","37","189137","0.0-18.0-19.0","03730883","wem/bandit_single","A1BBJJHGM0ADN7","gain","6","","74","J","0","img/none_selected_demo.jpg","1","0","0","0.8","0","true","0","0.8","0","80_20_practice","0.2","0","","","","","","","","","",""
"6800","","text","38","196205","0.0-19.0","03730883","wem/bandit_single","A1BBJJHGM0ADN7","gain","6","32","","","","","","","","","","","","","","","","","","","","","","","","","",""
"2145","","bandit","39","199888","0.0-20.0-0.0","03730883","wem/bandit_single","A1BBJJHGM0ADN7","gain","6","","74","J","0","img/none_selected_demo.jpg","0","0","1","0","0","true","0","0","0","","0","0","","","","","","","","","",""
"8184","","text","40","208330","0.0-21.0","03730883","wem/bandit_single","A1BBJJHGM0ADN7","gain","6","32","","","","","","","","","","","","","","","","","","","","","","","","","",""
"3492","","text","41","211826","0.0-22.0","03730883","wem/bandit_single","A1BBJJHGM0ADN7","gain","6","32","","","","","","","","","","","","","","","","","","","","","","","","","",""
"3397","","text","42","215229","0.0-23.0","03730883","wem/bandit_single","A1BBJJHGM0ADN7","gain","6","32","","","","","","","","","","","","","","","","","","","","","","","","","",""
"3360","","text","43","218594","0.0-24.0","03730883","wem/bandit_single","A1BBJJHGM0ADN7","gain","6","32","","","","","","","","","","","","","","","","","","","","","","","","","",""
"9079","","text","44","227679","0.0-25.0","03730883","wem/bandit_single","A1BBJJHGM0ADN7","gain","6","32","","","","","","","","","","","","","","","","","","","","","","","","","",""
"3938","","text","45","231622","0.0-26.0","03730883","wem/bandit_single","A1BBJJHGM0ADN7","gain","6","32","","","","","","","","","","","","","","","","","","","","","","","","","",""
"4918","","text","46","236546","0.0-27.0","03730883","wem/bandit_single","A1BBJJHGM0ADN7","gain","6","32","","","","","","","","","","","","","","","","","","","","","","","","","",""
"3339","","text","47","239891","0.0-28.0","03730883","wem/bandit_single","A1BBJJHGM0ADN7","gain","6","32","","","","","","","","","","","","","","","","","","","","","","","","","",""
"6347","","text","48","246244","0.0-29.0","03730883","wem/bandit_single","A1BBJJHGM0ADN7","gain","6","32","","","","","","","","","","","","","","","","","","","","","","","","","",""
"3545","","text","49","249793","0.0-30.0","03730883","wem/bandit_single","A1BBJJHGM0ADN7","gain","6","32","","","","","","","","","","","","","","","","","","","","","","","","","",""
"2305","","text","50","252103","0.0-31.0","03730883","wem/bandit_single","A1BBJJHGM0ADN7","gain","6","32","","","","","","","","","","","","","","","","","","","","","","","","","",""
"2185","","bandit","51","255826","0.0-32.0-0.0","03730883","wem/bandit_single","A1BBJJHGM0ADN7","gain","6","","72","H","0","img/none_selected.jpg","1","0","0","0.8","0","true","0","0.8","0","full_practice","0.2","0","0.6","0","0.2","0","","","","","",""
"1","","bandit","52","257592","0.0-32.0-1.0","03730883","wem/bandit_single","A1BBJJHGM0ADN7","gain","6","","72","H","0","img/none_selected.jpg","0","0","1","0.8","0","true","0","0.8","0","full_practice","0.2","0","0.6","0","0.2","0","","","","","",""
"1857","","bandit","53","261255","0.0-32.0-2.0","03730883","wem/bandit_single","A1BBJJHGM0ADN7","gain","6","","74","J","1","","0","0","1","0.2","0","true","0","0.8","0","full_practice","0.2","0","0.6","0","0.2","0","","","","","",""
"87","","bandit","54","263115","0.0-32.0-3.0","03730883","wem/bandit_single","A1BBJJHGM0ADN7","gain","6","","74","J","1","","0","0","1","0.2","0","true","0","0.8","0","full_practice","0.2","0","0.6","0","0.2","0","","","","","",""
"79","","bandit","55","264983","0.0-32.0-4.0","03730883","wem/bandit_single","A1BBJJHGM0ADN7","gain","6","","75","K","2","","1","0","0","0.6","0","true","0","0.8","0","full_practice","0.2","0","0.6","0","0.2","0","","","","","",""
"19","","bandit","56","266789","0.0-32.0-5.0","03730883","wem/bandit_single","A1BBJJHGM0ADN7","gain","6","","75","K","2","","1","0","0","0.6","0","true","0","0.8","0","full_practice","0.2","0","0.6","0","0.2","0","","","","","",""
"497","","bandit","57","269074","0.0-32.0-6.0","03730883","wem/bandit_single","A1BBJJHGM0ADN7","gain","6","","75","K","2","","0","0","1","0.6","0","true","0","0.8","0","full_practice","0.2","0","0.6","0","0.2","0","","","","","",""
"79","","bandit","58","270940","0.0-32.0-7.0","03730883","wem/bandit_single","A1BBJJHGM0ADN7","gain","6","","76","L","3","","1","0","0","0.2","0","true","0","0.8","0","full_practice","0.2","0","0.6","0","0.2","0","","","","","",""
"207","","bandit","59","272923","0.0-32.0-8.0","03730883","wem/bandit_single","A1BBJJHGM0ADN7","gain","6","","76","L","3","","0","0","1","0.2","0","true","0","0.8","0","full_practice","0.2","0","0.6","0","0.2","0","","","","","",""
"170","","bandit","60","274870","0.0-32.0-9.0","03730883","wem/bandit_single","A1BBJJHGM0ADN7","gain","6","","75","K","2","","1","0","0","0.6","0","true","0","0.8","0","full_practice","0.2","0","0.6","0","0.2","0","","","","","",""
"93","","bandit","61","276730","0.0-32.0-10.0","03730883","wem/bandit_single","A1BBJJHGM0ADN7","gain","6","","75","K","2","","1","0","0","0.6","0","true","0","0.8","0","full_practice","0.2","0","0.6","0","0.2","0","","","","","",""
"33","","bandit","62","278563","0.0-32.0-11.0","03730883","wem/bandit_single","A1BBJJHGM0ADN7","gain","6","","75","K","2","","1","0","0","0.6","0","true","0","0.8","0","full_practice","0.2","0","0.6","0","0.2","0","","","","","",""
"116","","bandit","63","280469","0.0-32.0-12.0","03730883","wem/bandit_single","A1BBJJHGM0ADN7","gain","6","","75","K","2","","0","0","1","0.6","0","true","0","0.8","0","full_practice","0.2","0","0.6","0","0.2","0","","","","","",""
"233","","bandit","64","282482","0.0-32.0-13.0","03730883","wem/bandit_single","A1BBJJHGM0ADN7","gain","6","","72","H","0","img/none_selected.jpg","1","0","0","0.8","0","true","0","0.8","0","full_practice","0.2","0","0.6","0","0.2","0","","","","","",""
"158","","bandit","65","284419","0.0-32.0-14.0","03730883","wem/bandit_single","A1BBJJHGM0ADN7","gain","6","","72","H","0","img/none_selected.jpg","1","0","0","0.8","0","true","0","0.8","0","full_practice","0.2","0","0.6","0","0.2","0","","","","","",""
"65","","bandit","66","286255","0.0-32.0-15.0","03730883","wem/bandit_single","A1BBJJHGM0ADN7","gain","6","","72","H","0","img/none_selected.jpg","1","0","0","0.8","0","true","0","0.8","0","full_practice","0.2","0","0.6","0","0.2","0","","","","","",""
"212","","bandit","67","288240","0.0-32.0-16.0","03730883","wem/bandit_single","A1BBJJHGM0ADN7","gain","6","","72","H","0","img/none_selected.jpg","1","0","0","0.8","0","true","0","0.8","0","full_practice","0.2","0","0.6","0","0.2","0","","","","","",""
"54","","bandit","68","290102","0.0-32.0-17.0","03730883","wem/bandit_single","A1BBJJHGM0ADN7","gain","6","","72","H","0","img/none_selected.jpg","1","0","0","0.8","0","true","0","0.8","0","full_practice","0.2","0","0.6","0","0.2","0","","","","","",""
"389","","bandit","69","292273","0.0-32.0-18.0","03730883","wem/bandit_single","A1BBJJHGM0ADN7","gain","6","","72","H","0","img/none_selected.jpg","1","0","0","0.8","0","true","0","0.8","0","full_practice","0.2","0","0.6","0","0.2","0","","","","","",""
"139","","bandit","70","294206","0.0-32.0-19.0","03730883","wem/bandit_single","A1BBJJHGM0ADN7","gain","6","","72","H","0","img/none_selected.jpg","1","0","0","0.8","0","true","0","0.8","0","full_practice","0.2","0","0.6","0","0.2","0","","","","","",""
"3493","","text","71","297966","0.0-33.0","03730883","wem/bandit_single","A1BBJJHGM0ADN7","gain","6","32","","","","","","","","","","","","","","","","","","","","","","","","","",""
"10279","","text","72","309263","0.0-34.0","03730883","wem/bandit_single","A1BBJJHGM0ADN7","gain","6","32","","","","","","","","","","","","","","","","","","","","","","","","","",""
"7921","","text","73","317191","0.0-35.0","03730883","wem/bandit_single","A1BBJJHGM0ADN7","gain","6","32","","","","","","","","","","","","","","","","","","","","","","","","","",""
"11328","","text","74","328527","0.0-36.0","03730883","wem/bandit_single","A1BBJJHGM0ADN7","gain","6","32","","","","","","","","","","","","","","","","","","","","","","","","","",""
"5804","","text","75","334339","0.0-37.0","03730883","wem/bandit_single","A1BBJJHGM0ADN7","gain","6","32","","","","","","","","","","","","","","","","","","","","","","","","","",""
"1711","","bandit","76","337575","0.0-38.0-0.0","03730883","wem/bandit_single","A1BBJJHGM0ADN7","gain","6","","72","H","0","img/none_selected.jpg","0","0","1","0.1142009487","","false","1","0.1142009487","","main_expt","0.1623639982","","0.3785571591","","0.1940838181","","","","","","",""
"91","","bandit","77","339454","0.0-39.0-0.0","03730883","wem/bandit_single","A1BBJJHGM0ADN7","gain","6","","72","H","0","img/none_selected.jpg","0","0","1","0.09165924831","","false","2","0.09165924831","","main_expt","0.1864124343","","0.3894156921","","0.2410489397","","","","","","",""
"375","","bandit","78","341607","0.0-40.0-0.0","03730883","wem/bandit_single","A1BBJJHGM0ADN7","gain","6","","74","J","1","","0","0","1","0.1494323563","","false","3","0.1174954382","","main_expt","0.1494323563","","0.4125386255","","0.2645422736","","","","","","",""
"64","","bandit","79","343450","0.0-41.0-0.0","03730883","wem/bandit_single","A1BBJJHGM0ADN7","gain","6","","74","J","1","","1","0","0","0.1266436655","","false","4","0.1426329369","","main_expt","0.1266436655","","0.3990363537","","0.1984909652","","","","","","",""
"26","","bandit","80","345245","0.0-42.0-0.0","03730883","wem/bandit_single","A1BBJJHGM0ADN7","gain","6","","74","J","1","","0","0","1","0.1476492511","","false","5","0.1503595054","","main_expt","0.1476492511","","0.454435597","","0.1239860826","","","","","","",""
"241","","bandit","81","347266","0.0-43.0-0.0","03730883","wem/bandit_single","A1BBJJHGM0ADN7","gain","6","","75","K","2","","1","0","0","0.4583077461","","false","6","0.1646450236","","main_expt","0.1525625276","","0.4583077461","","0.06805906468","","","","","","",""
"16","","bandit","82","349059","0.0-44.0-0.0","03730883","wem/bandit_single","A1BBJJHGM0ADN7","gain","6","","75","K","2","","0","0","1","0.4617786505","","false","7","0.2031930874","","main_expt","0.1856713893","","0.4617786505","","0.05890971721","","","","","","",""
"193","","bandit","83","351036","0.0-45.0-0.0","03730883","wem/bandit_single","A1BBJJHGM0ADN7","gain","6","","76","L","3","","0","0","1","0.0832196585","","false","8","0.181996894","","main_expt","0.2108076934","","0.475168559","","0.0832196585","","","","","","",""
"243","","bandit","84","353051","0.0-46.0-0.0","03730883","wem/bandit_single","A1BBJJHGM0ADN7","gain","6","","75","K","2","","1","0","0","0.458325554","","false","9","0.1673845292","","main_expt","0.1956497028","","0.458325554","","0.1325638406","","","","","","",""
"47","","bandit","85","354879","0.0-47.0-0.0","03730883","wem/bandit_single","A1BBJJHGM0ADN7","gain","6","","75","K","2","","0","0","1","0.4316924572","","false","10","0.2328473308","","main_expt","0.1582923175","","0.4316924572","","0.1196898321","","","","","","",""
"170","","bandit","86","356823","0.0-48.0-0.0","03730883","wem/bandit_single","A1BBJJHGM0ADN7","gain","6","","74","J","1","","0","0","1","0.167734997","","false","11","0.20589494","","main_expt","0.167734997","","0.3756511011","","0.1103103944","","","","","","",""
"104","","bandit","87","358718","0.0-49.0-0.0","03730883","wem/bandit_single","A1BBJJHGM0ADN7","gain","6","","74","J","1","","1","0","0","0.2150601968","","false","12","0.2246944015","","main_expt","0.2150601968","","0.3549088727","","0.06819125589","","","","","","",""
"73","","bandit","88","360569","0.0-50.0-0.0","03730883","wem/bandit_single","A1BBJJHGM0ADN7","gain","6","","75","K","2","","0","0","1","0.3455803359","","false","13","0.2613447163","","main_expt","0.252216208","","0.3455803359","","0.07076675629","","","","","","",""
"27","","bandit","89","362385","0.0-51.0-0.0","03730883","wem/bandit_single","A1BBJJHGM0ADN7","gain","6","","74","J","1","","0","0","1","0.2184022087","","false","14","0.212655478","","main_expt","0.2184022087","","0.3809937316","","0.09241451512","","","","","","",""
"201","","bandit","90","364352","0.0-52.0-0.0","03730883","wem/bandit_single","A1BBJJHGM0ADN7","gain","6","","72","H","0","img/none_selected.jpg","1","0","0","0.1679070286","","false","15","0.1679070286","","main_expt","0.210005203","","0.3479508526","","0.07205700739","","","","","","",""
"144","","bandit","91","366311","0.0-53.0-0.0","03730883","wem/bandit_single","A1BBJJHGM0ADN7","gain","6","","72","H","0","img/none_selected.jpg","1","0","0","0.1774383452","","false","16","0.1774383452","","main_expt","0.2402495983","","0.3287514515","","0.04760190598","","","","","","",""
"246","","bandit","92","368343","0.0-54.0-0.0","03730883","wem/bandit_single","A1BBJJHGM0ADN7","gain","6","","72","H","0","img/none_selected.jpg","0","0","1","0.1562672395","","false","17","0.1562672395","","main_expt","0.2766196603","","0.4008698656","","0.03958098904","","","","","","",""
"57","","bandit","93","370187","0.0-55.0-0.0","03730883","wem/bandit_single","A1BBJJHGM0ADN7","gain","6","","74","J","1","","0","0","1","0.3193638145","","false","18","0.1407597156","","main_expt","0.3193638145","","0.3845126264","","0.03128671198","","","","","","",""
"251","","bandit","94","372213","0.0-56.0-0.0","03730883","wem/bandit_single","A1BBJJHGM0ADN7","gain","6","","75","K","2","","0","0","1","0.3979941068","","false","19","0.1310890834","","main_expt","0.2953318626","","0.3979941068","","0.04453616628","","","","","","",""
"64","","bandit","95","374066","0.0-57.0-0.0","03730883","wem/bandit_single","A1BBJJHGM0ADN7","gain","6","","76","L","3","","0","0","1","0.04596917346","","false","20","0.1317163977","","main_expt","0.3007143328","","0.3920029867","","0.04596917346","","","","","","",""
"227","","bandit","96","376064","0.0-58.0-0.0","03730883","wem/bandit_single","A1BBJJHGM0ADN7","gain","6","","76","L","3","","0","0","1","0.04297504417","","false","21","0.1752537558","","main_expt","0.3105995928","","0.4057752261","","0.04297504417","","","","","","",""
"45","","bandit","97","377876","0.0-59.0-0.0","03730883","wem/bandit_single","A1BBJJHGM0ADN7","gain","6","","75","K","2","","1","0","0","0.4072420822","","false","22","0.2064983175","","main_expt","0.3742057862","","0.4072420822","","0.04739698515","","","","","","",""
"126","","bandit","98","379782","0.0-60.0-0.0","03730883","wem/bandit_single","A1BBJJHGM0ADN7","gain","6","","75","K","2","","0","0","1","0.3798298113","","false","23","0.216691321","","main_expt","0.3439758112","","0.3798298113","","0.08003173613","","","","","","",""
"244","","bandit","99","381792","0.0-61.0-0.0","03730883","wem/bandit_single","A1BBJJHGM0ADN7","gain","6","","72","H","0","img/none_selected.jpg","0","0","1","0.2342773894","","false","24","0.2342773894","","main_expt","0.3549138733","","0.3329856024","","0.09868307827","","","","","","",""
"46","","bandit","100","383613","0.0-62.0-0.0","03730883","wem/bandit_single","A1BBJJHGM0ADN7","gain","6","","74","J","1","","0","0","1","0.3811330683","","false","25","0.2378870173","","main_expt","0.3811330683","","0.3337381726","","0.07950464875","","","","","","",""
"78","","bandit","101","385474","0.0-63.0-0.0","03730883","wem/bandit_single","A1BBJJHGM0ADN7","gain","6","","75","K","2","","0","0","1","0.3650510818","","false","26","0.2555438901","","main_expt","0.3131907418","","0.3650510818","","0.09697268327","","","","","","",""
"114","","bandit","102","387360","0.0-64.0-0.0","03730883","wem/bandit_single","A1BBJJHGM0ADN7","gain","6","","74","J","1","","1","0","0","0.3210571327","","false","27","0.2487754609","","main_expt","0.3210571327","","0.3930286133","","0.09831328215","","","","","","",""
"61","","bandit","103","389201","0.0-65.0-0.0","03730883","wem/bandit_single","A1BBJJHGM0ADN7","gain","6","","74","J","1","","0","0","1","0.3350138966","","false","28","0.2023297646","","main_expt","0.3350138966","","0.3849328395","","0.08798585883","","","","","","",""
"33","","bandit","104","391066","0.0-66.0-0.0","03730883","wem/bandit_single","A1BBJJHGM0ADN7","gain","6","","75","K","2","","1","0","0","0.3635333449","","false","29","0.1824385616","","main_expt","0.3491704597","","0.3635333449","","0.1001400419","","","","","","",""
"39","","bandit","105","392880","0.0-67.0-0.0","03730883","wem/bandit_single","A1BBJJHGM0ADN7","gain","6","","75","K","2","","1","0","0","0.3870800473","","false","30","0.2108935763","","main_expt","0.3515390533","","0.3870800473","","0.100360092","","","","","","",""
"410","","bandit","106","395061","0.0-68.0-0.0","03730883","wem/bandit_single","A1BBJJHGM0ADN7","gain","6","","75","K","2","","1","0","0","0.407818568","","false","31","0.2212072473","","main_expt","0.3116189274","","0.407818568","","0.1235489826","","","","","","",""
"116","","bandit","107","396962","0.0-69.0-0.0","03730883","wem/bandit_single","A1BBJJHGM0ADN7","gain","6","","75","K","2","","0","0","1","0.4365503818","","false","32","0.2349080289","","main_expt","0.2923613921","","0.4365503818","","0.0999088058","","","","","","",""
"114","","bandit","108","398864","0.0-70.0-0.0","03730883","wem/bandit_single","A1BBJJHGM0ADN7","gain","6","","74","J","1","","0","0","1","0.2833872006","","false","33","0.2233211346","","main_expt","0.2833872006","","0.438397095","","0.1229353218","","","","","","",""
"0","","bandit","109","400649","0.0-71.0-0.0","03730883","wem/bandit_single","A1BBJJHGM0ADN7","gain","6","","72","H","0","img/none_selected.jpg","1","0","0","0.2328620384","","false","34","0.2328620384","","main_expt","0.251012165","","0.4225996483","","0.1174339591","","","","","","",""
"163","","bandit","110","402649","0.0-72.0-0.0","03730883","wem/bandit_single","A1BBJJHGM0ADN7","gain","6","","75","K","2","","0","0","1","0.3719427837","","false","35","0.2442853791","","main_expt","0.2150204629","","0.3719427837","","0.08922948311","","","","","","",""
"158","","bandit","111","404585","0.0-73.0-0.0","03730883","wem/bandit_single","A1BBJJHGM0ADN7","gain","6","","76","L","3","","0","0","1","0.1065429935","","false","36","0.2536962779","","main_expt","0.2003821391","","0.3643608465","","0.1065429935","","","","","","",""
"206","","bandit","112","406570","0.0-74.0-0.0","03730883","wem/bandit_single","A1BBJJHGM0ADN7","gain","6","","72","H","0","img/none_selected.jpg","0","0","1","0.1968410568","","false","37","0.1968410568","","main_expt","0.1584744983","","0.3951734682","","0.119331244","","","","","","",""
"107","","bandit","113","408448","0.0-75.0-0.0","03730883","wem/bandit_single","A1BBJJHGM0ADN7","gain","6","","75","K","2","","0","0","1","0.4106313244","","false","38","0.1903576104","","main_expt","0.1107345946","","0.4106313244","","0.1140529394","","","","","","",""
"27","","bandit","114","410265","0.0-76.0-0.0","03730883","wem/bandit_single","A1BBJJHGM0ADN7","gain","6","","74","J","1","","1","0","0","0.1922112034","","false","39","0.2094560733","","main_expt","0.1922112034","","0.385877281","","0.1377706652","","","","","","",""
"86","","bandit","115","412127","0.0-77.0-0.0","03730883","wem/bandit_single","A1BBJJHGM0ADN7","gain","6","","74","J","1","","1","0","0","0.202991566","","false","40","0.2157952434","","main_expt","0.202991566","","0.3814638094","","0.1686011578","","","","","","",""
"45","","bandit","116","413938","0.0-78.0-0.0","03730883","wem/bandit_single","A1BBJJHGM0ADN7","gain","6","","74","J","1","","1","0","0","0.257249123","","false","41","0.1982376225","","main_expt","0.257249123","","0.3569976603","","0.1640814413","","","","","","",""
"215","","bandit","117","415943","0.0-79.0-0.0","03730883","wem/bandit_single","A1BBJJHGM0ADN7","gain","6","","74","J","1","","0","0","1","0.3139605103","","false","42","0.1815133425","","main_expt","0.3139605103","","0.3254656301","","0.1444461896","","","","","","",""
"185","","bandit","118","417905","0.0-80.0-0.0","03730883","wem/bandit_single","A1BBJJHGM0ADN7","gain","6","","75","K","2","","0","0","1","0.3061667188","","false","43","0.1804658283","","main_expt","0.2859416922","","0.3061667188","","0.1466097136","","","","","","",""
"185","","bandit","119","419884","0.0-81.0-0.0","03730883","wem/bandit_single","A1BBJJHGM0ADN7","gain","6","","75","K","2","","1","0","0","0.3247162798","","false","44","0.1453808853","","main_expt","0.2344477797","","0.3247162798","","0.1701376127","","","","","","",""
"95","","bandit","120","421756","0.0-82.0-0.0","03730883","wem/bandit_single","A1BBJJHGM0ADN7","gain","6","","75","K","2","","0","0","1","0.3464274235","","false","45","0.1975985391","","main_expt","0.25278305","","0.3464274235","","0.2382164817","","","","","","",""
"145","","bandit","121","423688","0.0-83.0-0.0","03730883","wem/bandit_single","A1BBJJHGM0ADN7","gain","6","","72","H","0","img/none_selected.jpg","0","0","1","0.2099331931","","false","46","0.2099331931","","main_expt","0.2447001663","","0.2853596265","","0.2817064876","","","","","","",""
"121","","bandit","122","425584","0.0-84.0-0.0","03730883","wem/bandit_single","A1BBJJHGM0ADN7","gain","6","","74","J","1","","1","0","0","0.2439886488","","false","47","0.2373708448","","main_expt","0.2439886488","","0.2781892211","","0.3449614965","","","","","","",""
"186","","bandit","123","427557","0.0-85.0-0.0","03730883","wem/bandit_single","A1BBJJHGM0ADN7","gain","6","","74","J","1","","0","0","1","0.3453423138","","false","48","0.2929879582","","main_expt","0.3453423138","","0.2802769371","","0.2846403666","","","","","","",""
"1","","bandit","124","429345","0.0-86.0-0.0","03730883","wem/bandit_single","A1BBJJHGM0ADN7","gain","6","","75","K","2","","1","0","0","0.3162769287","","false","49","0.2643709298","","main_expt","0.3208634608","","0.3162769287","","0.3292227521","","","","","","",""
"45","","bandit","125","431172","0.0-87.0-0.0","03730883","wem/bandit_single","A1BBJJHGM0ADN7","gain","6","","75","K","2","","0","0","1","0.2524095143","","false","50","0.2666646559","","main_expt","0.2600740437","","0.2524095143","","0.270904054","","","","","","",""
"162","","bandit","126","433120","0.0-88.0-0.0","03730883","wem/bandit_single","A1BBJJHGM0ADN7","gain","6","","74","J","1","","0","0","1","0.2451527442","","false","51","0.2550538978","","main_expt","0.2451527442","","0.2630113652","","0.2503066232","","","","","","",""
"75","","bandit","127","434985","0.0-89.0-0.0","03730883","wem/bandit_single","A1BBJJHGM0ADN7","gain","6","","72","H","0","img/none_selected.jpg","0","0","1","0.3235330097","","false","52","0.3235330097","","main_expt","0.1882651979","","0.2707742251","","0.2405173112","","","","","","",""
"113","","bandit","128","436881","0.0-90.0-0.0","03730883","wem/bandit_single","A1BBJJHGM0ADN7","gain","6","","76","L","3","","0","0","1","0.2966352861","","false","53","0.347433539","","main_expt","0.1930778153","","0.2150274285","","0.2966352861","","","","","","",""
"118","","bandit","129","438773","0.0-91.0-0.0","03730883","wem/bandit_single","A1BBJJHGM0ADN7","gain","6","","75","K","2","","0","0","1","0.2326572497","","false","54","0.3368202787","","main_expt","0.2216955806","","0.2326572497","","0.2887198369","","","","","","",""
"128","","bandit","130","440678","0.0-92.0-0.0","03730883","wem/bandit_single","A1BBJJHGM0ADN7","gain","6","","74","J","1","","0","0","1","0.2422165651","","false","55","0.3503124627","","main_expt","0.2422165651","","0.2134399586","","0.2801160178","","","","","","",""
"6","","bandit","131","442471","0.0-93.0-0.0","03730883","wem/bandit_single","A1BBJJHGM0ADN7","gain","6","","75","K","2","","1","0","0","0.2394891912","","false","56","0.368841946","","main_expt","0.228979269","","0.2394891912","","0.3022415889","","","","","","",""
"163","","bandit","132","444412","0.0-94.0-0.0","03730883","wem/bandit_single","A1BBJJHGM0ADN7","gain","6","","75","K","2","","1","0","0","0.2942469327","","false","57","0.3883837061","","main_expt","0.243325051","","0.2942469327","","0.3300995428","","","","","","",""
"169","","bandit","133","446360","0.0-95.0-0.0","03730883","wem/bandit_single","A1BBJJHGM0ADN7","gain","6","","75","K","2","","0","0","1","0.369295693","","false","58","0.4116863428","","main_expt","0.2326991071","","0.369295693","","0.3393984951","","","","","","",""
"90","","bandit","134","448236","0.0-96.0-0.0","03730883","wem/bandit_single","A1BBJJHGM0ADN7","gain","6","","72","H","0","img/none_selected.jpg","1","0","0","0.3980375199","","false","59","0.3980375199","","main_expt","0.2480349675","","0.3663837161","","0.3592245678","","","","","","",""
"12","","bandit","135","450029","0.0-97.0-0.0","03730883","wem/bandit_single","A1BBJJHGM0ADN7","gain","6","","72","H","0","img/none_selected.jpg","0","0","1","0.3849919156","","false","60","0.3849919156","","main_expt","0.2591134247","","0.3578669063","","0.3431938453","","","","","","",""
"136","","bandit","136","451929","0.0-98.0-0.0","03730883","wem/bandit_single","A1BBJJHGM0ADN7","gain","6","","75","K","2","","0","0","1","0.3901807011","","false","61","0.3822359719","","main_expt","0.2828027123","","0.3901807011","","0.3622980041","","","","","","",""
"26","","bandit","137","453748","0.0-99.0-0.0","03730883","wem/bandit_single","A1BBJJHGM0ADN7","gain","6","","75","K","2","","1","0","0","0.4199484271","","false","62","0.3356955782","","main_expt","0.2645717152","","0.4199484271","","0.3898917795","","","","","","",""
"119","","bandit","138","455657","0.0-100.0-0.0","03730883","wem/bandit_single","A1BBJJHGM0ADN7","gain","6","","75","K","2","","0","0","1","0.431710707","","false","63","0.2961333539","","main_expt","0.3164731366","","0.431710707","","0.3730814422","","","","","","",""
"195","","bandit","139","457623","0.0-101.0-0.0","03730883","wem/bandit_single","A1BBJJHGM0ADN7","gain","6","","72","H","0","img/none_selected.jpg","0","0","1","0.3332154777","","false","64","0.3332154777","","main_expt","0.3549458842","","0.4302834116","","0.359514794","","","","","","",""
"96","","bandit","140","459509","0.0-102.0-0.0","03730883","wem/bandit_single","A1BBJJHGM0ADN7","gain","6","","75","K","2","","1","0","0","0.3985691748","","false","65","0.35785358","","main_expt","0.288515421","","0.3985691748","","0.3114607296","","","","","","",""
"6","","bandit","141","461334","0.0-103.0-0.0","03730883","wem/bandit_single","A1BBJJHGM0ADN7","gain","6","","75","K","2","","1","0","0","0.4041176093","","false","66","0.406057841","","main_expt","0.3011993237","","0.4041176093","","0.2942291023","","","","","","",""
"0","","bandit","142","463154","0.0-104.0-0.0","03730883","wem/bandit_single","A1BBJJHGM0ADN7","gain","6","","75","K","2","","0","0","1","0.4007812862","","false","67","0.4196038874","","main_expt","0.345072876","","0.4007812862","","0.3320533568","","","","","","",""
"69","","bandit","143","465004","0.0-105.0-0.0","03730883","wem/bandit_single","A1BBJJHGM0ADN7","gain","6","","74","J","1","","0","0","1","0.3196529892","","false","68","0.3890604874","","main_expt","0.3196529892","","0.4294162969","","0.3600975808","","","","","","",""
"63","","bandit","144","466855","0.0-106.0-0.0","03730883","wem/bandit_single","A1BBJJHGM0ADN7","gain","6","","74","J","1","","0","0","1","0.3649702463","","false","69","0.4084138829","","main_expt","0.3649702463","","0.3767619451","","0.2872110667","","","","","","",""
"92","","bandit","145","468746","0.0-107.0-0.0","03730883","wem/bandit_single","A1BBJJHGM0ADN7","gain","6","","76","L","3","","1","0","0","0.295141158","","false","70","0.3468887804","","main_expt","0.356932825","","0.3777248691","","0.295141158","","","","","","",""
"146","","bandit","146","470668","0.0-108.0-0.0","03730883","wem/bandit_single","A1BBJJHGM0ADN7","gain","6","","76","L","3","","1","0","0","0.3206647592","","false","71","0.341524862","","main_expt","0.3835678776","","0.3795242786","","0.3206647592","","","","","","",""
"81","","bandit","147","472559","0.0-109.0-0.0","03730883","wem/bandit_single","A1BBJJHGM0ADN7","gain","6","","76","L","3","","0","0","1","0.3264000429","","false","72","0.3749246652","","main_expt","0.4212385026","","0.3665841139","","0.3264000429","","","","","","",""
"118","","bandit","148","474463","0.0-110.0-0.0","03730883","wem/bandit_single","A1BBJJHGM0ADN7","gain","6","","75","K","2","","0","0","1","0.3651794524","","false","73","0.3871824506","","main_expt","0.4261424303","","0.3651794524","","0.333972891","","","","","","",""
"37","","bandit","149","476279","0.0-111.0-0.0","03730883","wem/bandit_single","A1BBJJHGM0ADN7","gain","6","","72","H","0","img/none_selected.jpg","0","0","1","0.3721906724","","false","74","0.3721906724","","main_expt","0.3977974162","","0.3550305672","","0.3616968722","","","","","","",""
"96","","bandit","150","478152","0.0-112.0-0.0","03730883","wem/bandit_single","A1BBJJHGM0ADN7","gain","6","","76","L","3","","1","0","0","0.3975057441","","false","75","0.3111946895","","main_expt","0.4267201321","","0.2927321298","","0.3975057441","","","","","","",""
"15","","bandit","151","479944","0.0-113.0-0.0","03730883","wem/bandit_single","A1BBJJHGM0ADN7","gain","6","","76","L","3","","0","0","1","0.3807363423","","false","76","0.3336428477","","main_expt","0.4263250047","","0.2842047713","","0.3807363423","","","","","","",""
"84","","bandit","152","481808","0.0-114.0-0.0","03730883","wem/bandit_single","A1BBJJHGM0ADN7","gain","6","","72","H","0","img/none_selected.jpg","0","0","1","0.2972108807","","false","77","0.2972108807","","main_expt","0.4081139898","","0.291961298","","0.394346207","","","","","","",""
"43","","bandit","153","483624","0.0-115.0-0.0","03730883","wem/bandit_single","A1BBJJHGM0ADN7","gain","6","","76","L","3","","1","0","0","0.4130135997","","false","78","0.3500338334","","main_expt","0.4081745619","","0.2772504781","","0.4130135997","","","","","","",""
"104","","bandit","154","485514","0.0-116.0-0.0","03730883","wem/bandit_single","A1BBJJHGM0ADN7","gain","6","","76","L","3","","1","0","0","0.388257836","","false","79","0.3382579744","","main_expt","0.4210543479","","0.2910266255","","0.388257836","","","","","","",""
"122","","bandit","155","487411","0.0-117.0-0.0","03730883","wem/bandit_single","A1BBJJHGM0ADN7","gain","6","","76","L","3","","0","0","1","0.402189785","","false","80","0.2848378437","","main_expt","0.4173400146","","0.3236474027","","0.402189785","","","","","","",""
"130","","bandit","156","489314","0.0-118.0-0.0","03730883","wem/bandit_single","A1BBJJHGM0ADN7","gain","6","","76","L","3","","0","0","1","0.4188164015","","false","81","0.2824957966","","main_expt","0.3876294662","","0.3171491255","","0.4188164015","","","","","","",""
"111","","bandit","157","491189","0.0-119.0-0.0","03730883","wem/bandit_single","A1BBJJHGM0ADN7","gain","6","","75","K","2","","0","0","1","0.3253049084","","false","82","0.2921189703","","main_expt","0.3960397656","","0.3253049084","","0.3923487362","","","","","","",""
"28","","bandit","158","493001","0.0-120.0-0.0","03730883","wem/bandit_single","A1BBJJHGM0ADN7","gain","6","","75","K","2","","1","0","0","0.2650825447","","false","83","0.346808059","","main_expt","0.4048972575","","0.2650825447","","0.3765831671","","","","","","",""
"7","","bandit","159","494786","0.0-121.0-0.0","03730883","wem/bandit_single","A1BBJJHGM0ADN7","gain","6","","75","K","2","","1","0","0","0.2860936523","","false","84","0.3142369957","","main_expt","0.4261464595","","0.2860936523","","0.3744655151","","","","","","",""
"33","","bandit","160","496595","0.0-122.0-0.0","03730883","wem/bandit_single","A1BBJJHGM0ADN7","gain","6","","75","K","2","","0","0","1","0.2965161573","","false","85","0.3336664699","","main_expt","0.4252889048","","0.2965161573","","0.4097897279","","","","","","",""
"118","","bandit","161","498490","0.0-123.0-0.0","03730883","wem/bandit_single","A1BBJJHGM0ADN7","gain","6","","76","L","3","","0","0","1","0.4365994201","","false","86","0.3487181938","","main_expt","0.4234238012","","0.2718920201","","0.4365994201","","","","","","",""
"316","","bandit","162","500575","0.0-124.0-0.0","03730883","wem/bandit_single","A1BBJJHGM0ADN7","gain","6","","74","J","1","","1","0","0","0.4493325849","","false","87","0.3595256023","","main_expt","0.4493325849","","0.2663647104","","0.4485753971","","","","","","",""
"202","","bandit","163","502550","0.0-125.0-0.0","03730883","wem/bandit_single","A1BBJJHGM0ADN7","gain","6","","74","J","1","","1","0","0","0.4618336953","","false","88","0.3633435887","","main_expt","0.4618336953","","0.2505207396","","0.4682155013","","","","","","",""
"46","","bandit","164","504356","0.0-126.0-0.0","03730883","wem/bandit_single","A1BBJJHGM0ADN7","gain","6","","74","J","1","","0","0","1","0.470357169","","false","89","0.3301577903","","main_expt","0.470357169","","0.2380326514","","0.455546077","","","","","","",""
"127","","bandit","165","506275","0.0-127.0-0.0","03730883","wem/bandit_single","A1BBJJHGM0ADN7","gain","6","","76","L","3","","0","0","1","0.4648286352","","false","90","0.2983975746","","main_expt","0.4756012524","","0.2825572521","","0.4648286352","","","","","","",""
"81","","bandit","166","508132","0.0-128.0-0.0","03730883","wem/bandit_single","A1BBJJHGM0ADN7","gain","6","","74","J","1","","0","0","1","0.4661355378","","false","91","0.2708507867","","main_expt","0.4661355378","","0.3629334232","","0.4597569826","","","","","","",""
"82","","bandit","167","509990","0.0-129.0-0.0","03730883","wem/bandit_single","A1BBJJHGM0ADN7","gain","6","","75","K","2","","1","0","0","0.4318733099","","false","92","0.2025174094","","main_expt","0.4640816948","","0.4318733099","","0.4636055165","","","","","","",""
"146","","bandit","168","511907","0.0-130.0-0.0","03730883","wem/bandit_single","A1BBJJHGM0ADN7","gain","6","","75","K","2","","0","0","1","0.4354989634","","false","93","0.1991535532","","main_expt","0.4745032584","","0.4354989634","","0.4344757896","","","","","","",""
"7","","bandit","169","513691","0.0-131.0-0.0","03730883","wem/bandit_single","A1BBJJHGM0ADN7","gain","6","","72","H","0","img/none_selected.jpg","1","0","0","0.2072674268","","false","94","0.2072674268","","main_expt","0.4713826624","","0.4569950804","","0.4540573516","","","","","","",""
"297","","bandit","170","515820","0.0-132.0-0.0","03730883","wem/bandit_single","A1BBJJHGM0ADN7","gain","6","","72","H","0","img/none_selected.jpg","0","0","1","0.2139910976","","false","95","0.2139910976","","main_expt","0.4518091014","","0.4626037768","","0.467393544","","","","","","",""
"128","","bandit","171","517729","0.0-133.0-0.0","03730883","wem/bandit_single","A1BBJJHGM0ADN7","gain","6","","72","H","0","img/none_selected.jpg","0","0","1","0.1714021876","","false","96","0.1714021876","","main_expt","0.4610288074","","0.4632162831","","0.4523779492","","","","","","",""
"84","","bandit","172","519594","0.0-134.0-0.0","03730883","wem/bandit_single","A1BBJJHGM0ADN7","gain","6","","76","L","3","","1","0","0","0.4734298584","","false","97","0.1776734449","","main_expt","0.4610411697","","0.4574348148","","0.4734298584","","","","","","",""
"74","","bandit","173","521441","0.0-135.0-0.0","03730883","wem/bandit_single","A1BBJJHGM0ADN7","gain","6","","76","L","3","","0","0","1","0.4822123269","","false","98","0.2143852757","","main_expt","0.4658458747","","0.4551488225","","0.4822123269","","","","","","",""
"212","","bandit","174","523447","0.0-136.0-0.0","03730883","wem/bandit_single","A1BBJJHGM0ADN7","gain","6","","75","K","2","","1","0","0","0.4604873832","","false","99","0.2341872784","","main_expt","0.4372748216","","0.4604873832","","0.4829706494","","","","","","",""
"57","","bandit","175","525337","0.0-137.0-0.0","03730883","wem/bandit_single","A1BBJJHGM0ADN7","gain","6","","75","K","2","","1","0","0","0.4364445071","","false","100","0.2835639283","","main_expt","0.4237986198","","0.4364445071","","0.4918551361","","","","","","",""
"66","","bandit","176","527171","0.0-138.0-0.0","03730883","wem/bandit_single","A1BBJJHGM0ADN7","gain","6","","75","K","2","","1","0","0","0.4152010141","","false","101","0.3342764243","","main_expt","0.4239408107","","0.4152010141","","0.4891782125","","","","","","",""
"127","","bandit","177","529068","0.0-139.0-0.0","03730883","wem/bandit_single","A1BBJJHGM0ADN7","gain","6","","76","L","3","","0","0","1","0.484620563","","false","102","0.3693598309","","main_expt","0.4482877494","","0.4463558977","","0.484620563","","","","","","",""
"103","","bandit","178","530963","0.0-140.0-0.0","03730883","wem/bandit_single","A1BBJJHGM0ADN7","gain","6","","75","K","2","","1","0","0","0.4519222506","","false","103","0.3465782007","","main_expt","0.4319618448","","0.4519222506","","0.4880888492","","","","","","",""
"148","","bandit","179","532903","0.0-141.0-0.0","03730883","wem/bandit_single","A1BBJJHGM0ADN7","gain","6","","75","K","2","","0","0","1","0.44950272","","false","104","0.356437927","","main_expt","0.3989131432","","0.44950272","","0.4862983338","","","","","","",""
"92","","bandit","180","534766","0.0-142.0-0.0","03730883","wem/bandit_single","A1BBJJHGM0ADN7","gain","6","","75","K","2","","0","0","1","0.4631277203","","false","105","0.349556789","","main_expt","0.3718051273","","0.4631277203","","0.4761426531","","","","","","",""
"101","","bandit","181","536642","0.0-143.0-0.0","03730883","wem/bandit_single","A1BBJJHGM0ADN7","gain","6","","72","H","0","img/none_selected.jpg","0","0","1","0.3368343046","","false","106","0.3368343046","","main_expt","0.3820213715","","0.4761070442","","0.4724420891","","","","","","",""
"162","","bandit","182","538588","0.0-144.0-0.0","03730883","wem/bandit_single","A1BBJJHGM0ADN7","gain","6","","72","H","0","img/none_selected.jpg","0","0","1","0.3492990444","","false","107","0.3492990444","","main_expt","0.3903902173","","0.4574049266","","0.4544285192","","","","","","",""
"52","","bandit","183","540424","0.0-145.0-0.0","03730883","wem/bandit_single","A1BBJJHGM0ADN7","gain","6","","76","L","3","","0","0","1","0.4489506099","","false","108","0.3657086014","","main_expt","0.424383047","","0.4342229458","","0.4489506099","","","","","","",""
"153","","bandit","184","542416","0.0-146.0-0.0","03730883","wem/bandit_single","A1BBJJHGM0ADN7","gain","6","","76","L","3","","1","0","0","0.4357570441","","false","109","0.3473329542","","main_expt","0.3732822228","","0.4437976733","","0.4357570441","","","","","","",""
"67","","bandit","185","544281","0.0-147.0-0.0","03730883","wem/bandit_single","A1BBJJHGM0ADN7","gain","6","","76","L","3","","0","0","1","0.4243789051","","false","110","0.3937482981","","main_expt","0.3545846445","","0.4131704669","","0.4243789051","","","","","","",""
"151","","bandit","186","546212","0.0-148.0-0.0","03730883","wem/bandit_single","A1BBJJHGM0ADN7","gain","6","","75","K","2","","0","0","1","0.3849612216","","false","111","0.4067223002","","main_expt","0.2861948885","","0.3849612216","","0.4235572131","","","","","","",""
"151","","bandit","187","548139","0.0-149.0-0.0","03730883","wem/bandit_single","A1BBJJHGM0ADN7","gain","6","","75","K","2","","0","0","1","0.4197473064","","false","112","0.3791461054","","main_expt","0.3148935151","","0.4197473064","","0.4216330179","","","","","","",""
"42","","bandit","188","549991","0.0-150.0-0.0","03730883","wem/bandit_single","A1BBJJHGM0ADN7","gain","6","","74","J","1","","0","0","1","0.310891148","","false","113","0.3697872407","","main_expt","0.310891148","","0.4477672952","","0.3981229654","","","","","","",""
"276","","bandit","189","552044","0.0-151.0-0.0","03730883","wem/bandit_single","A1BBJJHGM0ADN7","gain","6","","74","J","1","","0","0","1","0.3312817134","","false","114","0.3542284497","","main_expt","0.3312817134","","0.4347577032","","0.4051483532","","","","","","",""
"107","","bandit","190","553919","0.0-152.0-0.0","03730883","wem/bandit_single","A1BBJJHGM0ADN7","gain","6","","76","L","3","","0","0","1","0.3664587937","","false","115","0.3424252445","","main_expt","0.3328181623","","0.4123529648","","0.3664587937","","","","","","",""
"147","","bandit","191","555856","0.0-153.0-0.0","03730883","wem/bandit_single","A1BBJJHGM0ADN7","gain","6","","76","L","3","","0","0","1","0.3815824605","","false","116","0.3364913945","","main_expt","0.282168926","","0.4374051313","","0.3815824605","","","","","","",""
"66","","bandit","192","557714","0.0-154.0-0.0","03730883","wem/bandit_single","A1BBJJHGM0ADN7","gain","6","","76","L","3","","0","0","1","0.3718524962","","false","117","0.3607093693","","main_expt","0.3282440564","","0.4336999329","","0.3718524962","","","","","","",""
"144","","bandit","193","559638","0.0-155.0-0.0","03730883","wem/bandit_single","A1BBJJHGM0ADN7","gain","6","","76","L","3","","0","0","1","0.3228128462","","false","118","0.3651530194","","main_expt","0.3735758205","","0.4609057125","","0.3228128462","","","","","","",""
"118","","bandit","194","561528","0.0-156.0-0.0","03730883","wem/bandit_single","A1BBJJHGM0ADN7","gain","6","","72","H","0","img/none_selected.jpg","0","0","1","0.391691743","","false","119","0.391691743","","main_expt","0.4085136599","","0.4644995027","","0.3303119184","","","","","","",""
"189","","bandit","195","563491","0.0-157.0-0.0","03730883","wem/bandit_single","A1BBJJHGM0ADN7","gain","6","","72","H","0","img/none_selected.jpg","0","0","1","0.3892352466","","false","120","0.3892352466","","main_expt","0.4152109264","","0.4699288035","","0.3566896217","","","","","","",""
"203","","bandit","196","565491","0.0-158.0-0.0","03730883","wem/bandit_single","A1BBJJHGM0ADN7","gain","6","","72","H","0","img/none_selected.jpg","0","0","1","0.4119078466","","false","121","0.4119078466","","main_expt","0.4362055741","","0.48416914","","0.3938610898","","","","","","",""
"167","","bandit","197","567434","0.0-159.0-0.0","03730883","wem/bandit_single","A1BBJJHGM0ADN7","gain","6","","74","J","1","","0","0","1","0.4381361327","","false","122","0.3864510994","","main_expt","0.4381361327","","0.4744752566","","0.3846692282","","","","","","",""
"158","","bandit","198","569369","0.0-160.0-0.0","03730883","wem/bandit_single","A1BBJJHGM0ADN7","gain","6","","74","J","1","","0","0","1","0.4266523018","","false","123","0.3206095238","","main_expt","0.4266523018","","0.4770694964","","0.3479888462","","","","","","",""
"79","","bandit","199","571240","0.0-161.0-0.0","03730883","wem/bandit_single","A1BBJJHGM0ADN7","gain","6","","74","J","1","","1","0","0","0.3976500929","","false","124","0.3004639257","","main_expt","0.3976500929","","0.4882663864","","0.3446564944","","","","","","",""
"72","","bandit","200","573159","0.0-162.0-0.0","03730883","wem/bandit_single","A1BBJJHGM0ADN7","gain","6","","74","J","1","","0","0","1","0.4004048686","","false","125","0.2718713493","","main_expt","0.4004048686","","0.4867438878","","0.3742116014","","","","","","",""
"1","","bandit","201","574932","0.0-163.0-0.0","03730883","wem/bandit_single","A1BBJJHGM0ADN7","gain","6","","75","K","2","","1","0","0","0.4859509926","","false","126","0.312825386","","main_expt","0.3978852423","","0.4859509926","","0.3522130289","","","","","","",""
"11","","bandit","202","576724","0.0-164.0-0.0","03730883","wem/bandit_single","A1BBJJHGM0ADN7","gain","6","","75","K","2","","0","0","1","0.4910312391","","false","127","0.2929193121","","main_expt","0.4164913371","","0.4910312391","","0.4136983804","","","","","","",""
"21","","bandit","203","578539","0.0-165.0-0.0","03730883","wem/bandit_single","A1BBJJHGM0ADN7","gain","6","","75","K","2","","1","0","0","0.4916106826","","false","128","0.3483635392","","main_expt","0.4273270633","","0.4916106826","","0.3740150402","","","","","","",""
"102","","bandit","204","580411","0.0-166.0-0.0","03730883","wem/bandit_single","A1BBJJHGM0ADN7","gain","6","","75","K","2","","1","0","0","0.4774596984","","false","129","0.3180783589","","main_expt","0.4403517336","","0.4774596984","","0.3561584853","","","","","","",""
"68","","bandit","205","582253","0.0-167.0-0.0","03730883","wem/bandit_single","A1BBJJHGM0ADN7","gain","6","","75","K","2","","0","0","1","0.4792113904","","false","130","0.332672873","","main_expt","0.436469863","","0.4792113904","","0.3781611856","","","","","","",""
"121","","bandit","206","584158","0.0-168.0-0.0","03730883","wem/bandit_single","A1BBJJHGM0ADN7","gain","6","","76","L","3","","0","0","1","0.3972118802","","false","131","0.3172252399","","main_expt","0.467157068","","0.4761250173","","0.3972118802","","","","","","",""
"80","","bandit","207","586014","0.0-169.0-0.0","03730883","wem/bandit_single","A1BBJJHGM0ADN7","gain","6","","76","L","3","","0","0","1","0.3951630556","","false","132","0.2808852702","","main_expt","0.4747764211","","0.4782449011","","0.3951630556","","","","","","",""
"670","","bandit","208","588455","0.0-170.0-0.0","03730883","wem/bandit_single","A1BBJJHGM0ADN7","gain","6","","74","J","1","","1","0","0","0.4662147581","","false","133","0.2846237695","","main_expt","0.4662147581","","0.4789501527","","0.3918056992","","","","","","",""
"154","","bandit","209","590404","0.0-171.0-0.0","03730883","wem/bandit_single","A1BBJJHGM0ADN7","gain","6","","74","J","1","","0","0","1","0.4711951182","","false","134","0.3115497245","","main_expt","0.4711951182","","0.4821877595","","0.395342783","","","","","","",""
"94","","bandit","210","592272","0.0-172.0-0.0","03730883","wem/bandit_single","A1BBJJHGM0ADN7","gain","6","","75","K","2","","1","0","0","0.4863767518","","false","135","0.3413582918","","main_expt","0.4540730246","","0.4863767518","","0.3867762939","","","","","","",""
"88","","bandit","211","594149","0.0-173.0-0.0","03730883","wem/bandit_single","A1BBJJHGM0ADN7","gain","6","","75","K","2","","0","0","1","0.4887786445","","false","136","0.316763081","","main_expt","0.4412688847","","0.4887786445","","0.3929594686","","","","","","",""
"181","","bandit","212","596103","0.0-174.0-0.0","03730883","wem/bandit_single","A1BBJJHGM0ADN7","gain","6","","74","J","1","","1","0","0","0.4585130214","","false","137","0.2585559296","","main_expt","0.4585130214","","0.4896902137","","0.3067223256","","","","","","",""
"46","","bandit","213","597922","0.0-175.0-0.0","03730883","wem/bandit_single","A1BBJJHGM0ADN7","gain","6","","76","L","3","","0","0","1","0.3444805877","","false","138","0.2320291273","","main_expt","0.4413786145","","0.4754525561","","0.3444805877","","","","","","",""
"94","","bandit","214","599796","0.0-176.0-0.0","03730883","wem/bandit_single","A1BBJJHGM0ADN7","gain","6","","74","J","1","","0","0","1","0.4235974169","","false","139","0.2705305451","","main_expt","0.4235974169","","0.4525902595","","0.4025185773","","","","","","",""
"72","","bandit","215","601667","0.0-177.0-0.0","03730883","wem/bandit_single","A1BBJJHGM0ADN7","gain","6","","75","K","2","","1","0","0","0.474141966","","false","140","0.2115164241","","main_expt","0.3993595144","","0.474141966","","0.4000290511","","","","","","",""
"170","","bandit","216","603623","0.0-178.0-0.0","03730883","wem/bandit_single","A1BBJJHGM0ADN7","gain","6","","75","K","2","","1","0","0","0.4642583801","","false","141","0.2166269704","","main_expt","0.3845482665","","0.4642583801","","0.4052231698","","","","","","",""
"23","","bandit","217","605437","0.0-179.0-0.0","03730883","wem/bandit_single","A1BBJJHGM0ADN7","gain","6","","75","K","2","","0","0","1","0.4713728632","","false","142","0.2477117994","","main_expt","0.3636407915","","0.4713728632","","0.3881257509","","","","","","",""
"97","","bandit","218","607316","0.0-180.0-0.0","03730883","wem/bandit_single","A1BBJJHGM0ADN7","gain","6","","74","J","1","","0","0","1","0.3360879677","","false","143","0.2347168821","","main_expt","0.3360879677","","0.4714731714","","0.4101759482","","","","","","",""
"52","","bandit","219","609144","0.0-181.0-0.0","03730883","wem/bandit_single","A1BBJJHGM0ADN7","gain","6","","76","L","3","","1","0","0","0.4100488723","","false","144","0.190213181","","main_expt","0.2886719504","","0.4777196865","","0.4100488723","","","","","","",""
"73","","bandit","220","611003","0.0-182.0-0.0","03730883","wem/bandit_single","A1BBJJHGM0ADN7","gain","6","","76","L","3","","0","0","1","0.4294240464","","false","145","0.2873677543","","main_expt","0.2607344777","","0.467438704","","0.4294240464","","","","","","",""
"48","","bandit","221","612835","0.0-183.0-0.0","03730883","wem/bandit_single","A1BBJJHGM0ADN7","gain","6","","75","K","2","","0","0","1","0.4764572222","","false","146","0.3434581746","","main_expt","0.261523257","","0.4764572222","","0.4447984025","","","","","","",""
"216","","bandit","222","614835","0.0-184.0-0.0","03730883","wem/bandit_single","A1BBJJHGM0ADN7","gain","6","","74","J","1","","1","0","0","0.2768268543","","false","147","0.3677167414","","main_expt","0.2768268543","","0.4670163239","","0.4339083406","","","","","","",""
"18","","bandit","223","616634","0.0-185.0-0.0","03730883","wem/bandit_single","A1BBJJHGM0ADN7","gain","6","","74","J","1","","0","0","1","0.2822793125","","false","148","0.378672096","","main_expt","0.2822793125","","0.4762727371","","0.4200875786","","","","","","",""
"181","","bandit","224","618599","0.0-186.0-0.0","03730883","wem/bandit_single","A1BBJJHGM0ADN7","gain","6","","74","J","1","","1","0","0","0.3100291085","","false","149","0.3447579657","","main_expt","0.3100291085","","0.4763998188","","0.4370731276","","","","","","",""
"31","","bandit","225","620416","0.0-187.0-0.0","03730883","wem/bandit_single","A1BBJJHGM0ADN7","gain","6","","74","J","1","","0","0","1","0.3473977335","","false","150","0.3225325285","","main_expt","0.3473977335","","0.4534074178","","0.4606741766","","","","","","",""
"94","","bandit","226","622305","0.0-188.0-0.0","03730883","wem/bandit_single","A1BBJJHGM0ADN7","gain","6","","75","K","2","","1","0","0","0.4518750411","","false","151","0.2971371866","","main_expt","0.3755194153","","0.4518750411","","0.4831185644","","","","","","",""
"139","","bandit","227","624235","0.0-189.0-0.0","03730883","wem/bandit_single","A1BBJJHGM0ADN7","gain","6","","75","K","2","","0","0","1","0.4724220712","","false","152","0.2436525959","","main_expt","0.3931135366","","0.4724220712","","0.489350082","","","","","","",""
"96","","bandit","228","626128","0.0-190.0-0.0","03730883","wem/bandit_single","A1BBJJHGM0ADN7","gain","6","","74","J","1","","0","0","1","0.3704791656","","false","153","0.2745817176","","main_expt","0.3704791656","","0.4655138208","","0.4874668037","","","","","","",""
"833","","bandit","229","628743","0.0-191.0-0.0","03730883","wem/bandit_single","A1BBJJHGM0ADN7","gain","6","","74","J","1","","1","0","0","0.3918087328","","false","154","0.2354012901","","main_expt","0.3918087328","","0.466892577","","0.4906252114","","","","","","",""
"63","","bandit","230","630609","0.0-192.0-0.0","03730883","wem/bandit_single","A1BBJJHGM0ADN7","gain","6","","74","J","1","","0","0","1","0.3629162862","","false","155","0.2125693007","","main_expt","0.3629162862","","0.4696525674","","0.4807331657","","","","","","",""
"1319","","bandit","231","633724","0.0-193.0-0.0","03730883","wem/bandit_single","A1BBJJHGM0ADN7","gain","6","","75","K","2","","1","0","0","0.4798639378","","false","156","0.2344806361","","main_expt","0.3329402669","","0.4798639378","","0.4886913858","","","","","","",""
"547","","bandit","232","636053","0.0-194.0-0.0","03730883","wem/bandit_single","A1BBJJHGM0ADN7","gain","6","","75","K","2","","0","0","1","0.4706110477","","false","157","0.1314384861","","main_expt","0.2681960896","","0.4706110477","","0.4791259403","","","","","","",""
"271","","bandit","233","638111","0.0-195.0-0.0","03730883","wem/bandit_single","A1BBJJHGM0ADN7","gain","6","","76","L","3","","0","0","1","0.4733263956","","false","158","0.181857365","","main_expt","0.2540197996","","0.4469873257","","0.4733263956","","","","","","",""
"1874","","bandit","234","641779","0.0-196.0-0.0","03730883","wem/bandit_single","A1BBJJHGM0ADN7","gain","6","","75","K","2","","0","0","1","0.4239904196","","false","159","0.158015958","","main_expt","0.2609952623","","0.4239904196","","0.4815819336","","","","","","",""
"187","","bandit","235","643738","0.0-197.0-0.0","03730883","wem/bandit_single","A1BBJJHGM0ADN7","gain","6","","75","K","2","","1","0","0","0.4459131135","","false","160","0.141078422","","main_expt","0.2023108268","","0.4459131135","","0.4721468952","","","","","","",""
"215","","bandit","236","645738","0.0-198.0-0.0","03730883","wem/bandit_single","A1BBJJHGM0ADN7","gain","6","","75","K","2","","0","0","1","0.4186734055","","false","161","0.1347361735","","main_expt","0.2500661268","","0.4186734055","","0.4711146003","","","","","","",""
"21","","bandit","237","647553","0.0-199.0-0.0","03730883","wem/bandit_single","A1BBJJHGM0ADN7","gain","6","","74","J","1","","0","0","1","0.2540596089","","false","162","0.09535719087","","main_expt","0.2540596089","","0.3857154427","","0.4712261849","","","","","","",""
"24","","bandit","238","649381","0.0-200.0-0.0","03730883","wem/bandit_single","A1BBJJHGM0ADN7","gain","6","","72","H","0","img/none_selected.jpg","0","0","1","0.08326456225","","false","163","0.08326456225","","main_expt","0.2601053227","","0.4174701589","","0.4845321786","","","","","","",""
"1481","","bandit","239","652637","0.0-201.0-0.0","03730883","wem/bandit_single","A1BBJJHGM0ADN7","gain","6","","72","H","0","img/none_selected.jpg","0","0","1","0.09053498257","","false","164","0.09053498257","","main_expt","0.2541421927","","0.3890878976","","0.4759389929","","","","","","",""
"186","","bandit","240","654614","0.0-202.0-0.0","03730883","wem/bandit_single","A1BBJJHGM0ADN7","gain","6","","72","H","0","img/none_selected.jpg","0","0","1","0.08506048778","","false","165","0.08506048778","","main_expt","0.2481661974","","0.4138915172","","0.4720948066","","","","","","",""
"504","","bandit","241","656889","0.0-203.0-0.0","03730883","wem/bandit_single","A1BBJJHGM0ADN7","gain","6","","74","J","1","","0","0","1","0.2774316831","","false","166","0.1313511463","","main_expt","0.2774316831","","0.3965001983","","0.4785392204","","","","","","",""
"428","","bandit","242","659106","0.0-204.0-0.0","03730883","wem/bandit_single","A1BBJJHGM0ADN7","gain","6","","74","J","1","","0","0","1","0.2487678046","","false","167","0.1176964862","","main_expt","0.2487678046","","0.3565429409","","0.4807372421","","","","","","",""
"152","","bandit","243","661030","0.0-205.0-0.0","03730883","wem/bandit_single","A1BBJJHGM0ADN7","gain","6","","75","K","2","","1","0","0","0.3697134737","","false","168","0.08442850793","","main_expt","0.3058486258","","0.3697134737","","0.4679921472","","","","","","",""
"139","","bandit","244","662943","0.0-206.0-0.0","03730883","wem/bandit_single","A1BBJJHGM0ADN7","gain","6","","75","K","2","","0","0","1","0.3754926497","","false","169","0.08508452716","","main_expt","0.3196595105","","0.3754926497","","0.4504326489","","","","","","",""
"163","","bandit","245","664903","0.0-207.0-0.0","03730883","wem/bandit_single","A1BBJJHGM0ADN7","gain","6","","75","K","2","","0","0","1","0.3688606114","","false","170","0.06647736925","","main_expt","0.2675331271","","0.3688606114","","0.4575738232","","","","","","",""
"80","","bandit","246","666756","0.0-208.0-0.0","03730883","wem/bandit_single","A1BBJJHGM0ADN7","gain","6","","74","J","1","","0","0","1","0.2898788388","","false","171","0.05048422731","","main_expt","0.2898788388","","0.3548436987","","0.4515033555","","","","","","",""
"515","","bandit","247","669095","0.0-209.0-0.0","03730883","wem/bandit_single","A1BBJJHGM0ADN7","gain","6","","76","L","3","","1","0","0","0.4804896953","","false","172","0.05782489063","","main_expt","0.3066863737","","0.3789739593","","0.4804896953","","","","","","",""
"141","","bandit","248","671018","0.0-210.0-0.0","03730883","wem/bandit_single","A1BBJJHGM0ADN7","gain","6","","76","L","3","","0","0","1","0.4915792717","","false","173","0.05297704283","","main_expt","0.2694007619","","0.361488512","","0.4915792717","","","","","","",""
"9","","bandit","249","672810","0.0-211.0-0.0","03730883","wem/bandit_single","A1BBJJHGM0ADN7","gain","6","","74","J","1","","1","0","0","0.2754062015","","false","174","0.05353397103","","main_expt","0.2754062015","","0.3460135238","","0.4861742571","","","","","","",""
"161","","bandit","250","674765","0.0-212.0-0.0","03730883","wem/bandit_single","A1BBJJHGM0ADN7","gain","6","","75","K","2","","0","0","1","0.3522158256","","false","175","0.03778759003","","main_expt","0.296446081","","0.3522158256","","0.4817940596","","","","","","",""
"184","","bandit","251","676739","0.0-213.0-0.0","03730883","wem/bandit_single","A1BBJJHGM0ADN7","gain","6","","74","J","1","","1","0","0","0.3058710094","","false","176","0.02527008277","","main_expt","0.3058710094","","0.2998164985","","0.4757066075","","","","","","",""
"30","","bandit","252","678540","0.0-214.0-0.0","03730883","wem/bandit_single","A1BBJJHGM0ADN7","gain","6","","74","J","1","","1","0","0","0.2349503117","","false","177","0.03305249037","","main_expt","0.2349503117","","0.2523084086","","0.4781570811","","","","","","",""
"103","","bandit","253","680428","0.0-215.0-0.0","03730883","wem/bandit_single","A1BBJJHGM0ADN7","gain","6","","74","J","1","","1","0","0","0.2619038699","","false","178","0.03386287722","","main_expt","0.2619038699","","0.304071788","","0.4800614517","","","","","","",""
"9","","bandit","254","682229","0.0-216.0-0.0","03730883","wem/bandit_single","A1BBJJHGM0ADN7","gain","6","","74","J","1","","0","0","1","0.2830684205","","false","179","0.04065763291","","main_expt","0.2830684205","","0.2871062198","","0.4829502963","","","","","","",""
"150","","bandit","255","684173","0.0-217.0-0.0","03730883","wem/bandit_single","A1BBJJHGM0ADN7","gain","6","","75","K","2","","1","0","0","0.2266659288","","false","180","0.05743716857","","main_expt","0.3534450431","","0.2266659288","","0.4858173281","","","","","","",""
"84","","bandit","256","686036","0.0-218.0-0.0","03730883","wem/bandit_single","A1BBJJHGM0ADN7","gain","6","","75","K","2","","0","0","1","0.221928096","","false","181","0.04418568229","","main_expt","0.3212605574","","0.221928096","","0.4744777914","","","","","","",""
"520","","bandit","257","688341","0.0-219.0-0.0","03730883","wem/bandit_single","A1BBJJHGM0ADN7","gain","6","","75","K","2","","0","0","1","0.2300829386","","false","182","0.08176319179","","main_expt","0.3315430587","","0.2300829386","","0.4845259409","","","","","","",""
"62","","bandit","258","690189","0.0-220.0-0.0","03730883","wem/bandit_single","A1BBJJHGM0ADN7","gain","6","","72","H","0","img/none_selected.jpg","0","0","1","0.127405614","","false","183","0.127405614","","main_expt","0.3284942609","","0.236046558","","0.481953826","","","","","","",""
"1311","","bandit","259","693285","0.0-221.0-0.0","03730883","wem/bandit_single","A1BBJJHGM0ADN7","gain","6","","72","H","0","img/none_selected.jpg","0","0","1","0.08615736955","","false","184","0.08615736955","","main_expt","0.3122619856","","0.2923178249","","0.4855041368","","","","","","",""
"98","","bandit","260","695166","0.0-222.0-0.0","03730883","wem/bandit_single","A1BBJJHGM0ADN7","gain","6","","76","L","3","","1","0","0","0.4698046591","","false","185","0.1184297318","","main_expt","0.2923416166","","0.2808840613","","0.4698046591","","","","","","",""
"0","","bandit","261","696957","0.0-223.0-0.0","03730883","wem/bandit_single","A1BBJJHGM0ADN7","gain","6","","76","L","3","","1","0","0","0.4595088788","","false","186","0.1909222977","","main_expt","0.2743414945","","0.2016881086","","0.4595088788","","","","","","",""
"151","","bandit","262","698933","0.0-224.0-0.0","03730883","wem/bandit_single","A1BBJJHGM0ADN7","gain","6","","76","L","3","","1","0","0","0.4646501277","","false","187","0.156943311","","main_expt","0.3313242874","","0.2403842116","","0.4646501277","","","","","","",""
"165","","bandit","263","700893","0.0-225.0-0.0","03730883","wem/bandit_single","A1BBJJHGM0ADN7","gain","6","","76","L","3","","0","0","1","0.4587354039","","false","188","0.139104156","","main_expt","0.3665806697","","0.2559443775","","0.4587354039","","","","","","",""
"32","","bandit","264","702697","0.0-226.0-0.0","03730883","wem/bandit_single","A1BBJJHGM0ADN7","gain","6","","75","K","2","","1","0","0","0.2450962267","","false","189","0.1984961232","","main_expt","0.3982105691","","0.2450962267","","0.4433819168","","","","","","",""
"152","","bandit","265","704623","0.0-227.0-0.0","03730883","wem/bandit_single","A1BBJJHGM0ADN7","gain","6","","75","K","2","","0","0","1","0.2520413598","","false","190","0.3152507924","","main_expt","0.4063069195","","0.2520413598","","0.441597313","","","","","","",""
"15","","bandit","266","706441","0.0-228.0-0.0","03730883","wem/bandit_single","A1BBJJHGM0ADN7","gain","6","","76","L","3","","1","0","0","0.4447050695","","false","191","0.34868685","","main_expt","0.4073058099","","0.3069822625","","0.4447050695","","","","","","",""
"96","","bandit","267","708321","0.0-229.0-0.0","03730883","wem/bandit_single","A1BBJJHGM0ADN7","gain","6","","76","L","3","","0","0","1","0.3903647542","","false","192","0.3244392246","","main_expt","0.3597632315","","0.269658105","","0.3903647542","","","","","","",""
"15","","bandit","268","710110","0.0-230.0-0.0","03730883","wem/bandit_single","A1BBJJHGM0ADN7","gain","6","","72","H","0","img/none_selected.jpg","0","0","1","0.3077199203","","false","193","0.3077199203","","main_expt","0.3512918873","","0.2337652902","","0.37796371","","","","","","",""
"60","","bandit","269","711949","0.0-231.0-0.0","03730883","wem/bandit_single","A1BBJJHGM0ADN7","gain","6","","75","K","2","","0","0","1","0.232364398","","false","194","0.3089314305","","main_expt","0.2959519196","","0.232364398","","0.4130200877","","","","","","",""
"213","","bandit","270","713954","0.0-232.0-0.0","03730883","wem/bandit_single","A1BBJJHGM0ADN7","gain","6","","74","J","1","","0","0","1","0.335494982","","false","195","0.2747286701","","main_expt","0.335494982","","0.3001816851","","0.4247195967","","","","","","",""
"125","","bandit","271","715869","0.0-233.0-0.0","03730883","wem/bandit_single","A1BBJJHGM0ADN7","gain","6","","74","J","1","","0","0","1","0.349715921","","false","196","0.234477082","","main_expt","0.349715921","","0.3408234979","","0.4243543636","","","","","","",""
"97","","bandit","272","717743","0.0-234.0-0.0","03730883","wem/bandit_single","A1BBJJHGM0ADN7","gain","6","","75","K","2","","1","0","0","0.3048500693","","false","197","0.2134381397","","main_expt","0.301359959","","0.3048500693","","0.3856928417","","","","","","",""
"128","","bandit","273","719693","0.0-235.0-0.0","03730883","wem/bandit_single","A1BBJJHGM0ADN7","gain","6","","75","K","2","","0","0","1","0.320222978","","false","198","0.1732682886","","main_expt","0.2948231879","","0.320222978","","0.3619593125","","","","","","",""
"62","","bandit","274","721548","0.0-236.0-0.0","03730883","wem/bandit_single","A1BBJJHGM0ADN7","gain","6","","76","L","3","","0","0","1","0.367752629","","false","199","0.1702760897","","main_expt","0.2739130918","","0.3267381451","","0.367752629","","","","","","",""
"82","","bandit","275","723413","0.0-237.0-0.0","03730883","wem/bandit_single","A1BBJJHGM0ADN7","gain","6","","75","K","2","","0","0","1","0.3471124056","","false","200","0.1149890083","","main_expt","0.2519174554","","0.3471124056","","0.3243939248","","","","","","",""
"147","","bandit","276","725351","0.0-238.0-0.0","03730883","wem/bandit_single","A1BBJJHGM0ADN7","gain","6","","76","L","3","","0","0","1","0.309205964","","false","201","0.1378425817","","main_expt","0.2607800984","","0.377370495","","0.309205964","","","","","","",""
"176","","bandit","277","727312","0.0-239.0-0.0","03730883","wem/bandit_single","A1BBJJHGM0ADN7","gain","6","","72","H","0","img/none_selected.jpg","0","0","1","0.1351165101","","false","202","0.1351165101","","main_expt","0.2144757733","","0.4118986778","","0.2762714965","","","","","","",""
"81","","bandit","278","729172","0.0-240.0-0.0","03730883","wem/bandit_single","A1BBJJHGM0ADN7","gain","6","","74","J","1","","0","0","1","0.3006883459","","false","203","0.105254576","","main_expt","0.3006883459","","0.4232074982","","0.296808735","","","","","","",""
"105","","bandit","279","731061","0.0-241.0-0.0","03730883","wem/bandit_single","A1BBJJHGM0ADN7","gain","6","","75","K","2","","1","0","0","0.422672589","","false","204","0.09939331469","","main_expt","0.3059688055","","0.422672589","","0.3198559136","","","","","","",""
"125","","bandit","280","732973","0.0-242.0-0.0","03730883","wem/bandit_single","A1BBJJHGM0ADN7","gain","6","","75","K","2","","0","0","1","0.4290364806","","false","205","0.1099723927","","main_expt","0.2810212056","","0.4290364806","","0.3814451683","","","","","","",""
"10","","bandit","281","734758","0.0-243.0-0.0","03730883","wem/bandit_single","A1BBJJHGM0ADN7","gain","6","","76","L","3","","1","0","0","0.3836436308","","false","206","0.1203356594","","main_expt","0.2427537705","","0.4412489094","","0.3836436308","","","","","","",""
"16","","bandit","282","736550","0.0-244.0-0.0","03730883","wem/bandit_single","A1BBJJHGM0ADN7","gain","6","","76","L","3","","0","0","1","0.3943212714","","false","207","0.1887874267","","main_expt","0.2312113295","","0.461161346","","0.3943212714","","","","","","",""
"89","","bandit","283","738440","0.0-245.0-0.0","03730883","wem/bandit_single","A1BBJJHGM0ADN7","gain","6","","75","K","2","","1","0","0","0.4749000037","","false","208","0.1570662604","","main_expt","0.2502246517","","0.4749000037","","0.4100076043","","","","","","",""
"95","","bandit","284","740328","0.0-246.0-0.0","03730883","wem/bandit_single","A1BBJJHGM0ADN7","gain","6","","75","K","2","","1","0","0","0.4677638209","","false","209","0.2050570797","","main_expt","0.2378747501","","0.4677638209","","0.4207901851","","","","","","",""
"220","","bandit","285","742353","0.0-247.0-0.0","03730883","wem/bandit_single","A1BBJJHGM0ADN7","gain","6","","76","L","3","","0","0","1","0.4261573075","","false","210","0.1803355731","","main_expt","0.2323826376","","0.4507398287","","0.4261573075","","","","","","",""
"68","","bandit","286","744215","0.0-248.0-0.0","03730883","wem/bandit_single","A1BBJJHGM0ADN7","gain","6","","75","K","2","","0","0","1","0.4275102647","","false","211","0.2066302241","","main_expt","0.2346446126","","0.4275102647","","0.3677002177","","","","","","",""
"19","","bandit","287","746023","0.0-249.0-0.0","03730883","wem/bandit_single","A1BBJJHGM0ADN7","gain","6","","75","K","2","","1","0","0","0.4147803006","","false","212","0.2190460355","","main_expt","0.2017096022","","0.4147803006","","0.4030871251","","","","","","",""
"158","","bandit","288","747962","0.0-250.0-0.0","03730883","wem/bandit_single","A1BBJJHGM0ADN7","gain","6","","75","K","2","","1","0","0","0.4119553225","","false","213","0.2433731683","","main_expt","0.2149770465","","0.4119553225","","0.3616850983","","","","","","",""
"96","","bandit","289","749846","0.0-251.0-0.0","03730883","wem/bandit_single","A1BBJJHGM0ADN7","gain","6","","75","K","2","","1","0","0","0.4097086646","","false","214","0.2355486522","","main_expt","0.2323699387","","0.4097086646","","0.3380837625","","","","","","",""
"28","","bandit","290","751675","0.0-252.0-0.0","03730883","wem/bandit_single","A1BBJJHGM0ADN7","gain","6","","75","K","2","","0","0","1","0.4553079268","","false","215","0.2493822419","","main_expt","0.1880023584","","0.4553079268","","0.3788103814","","","","","","",""
"173","","bandit","291","753649","0.0-253.0-0.0","03730883","wem/bandit_single","A1BBJJHGM0ADN7","gain","6","","75","K","2","","0","0","1","0.4360341733","","false","216","0.2455091026","","main_expt","0.2305078945","","0.4360341733","","0.3844600678","","","","","","",""
"8","","bandit","292","755438","0.0-254.0-0.0","03730883","wem/bandit_single","A1BBJJHGM0ADN7","gain","6","","75","K","2","","1","0","0","0.4337093526","","false","217","0.193913996","","main_expt","0.2042922501","","0.4337093526","","0.3747540642","","","","","","",""
"21","","bandit","293","757240","0.0-255.0-0.0","03730883","wem/bandit_single","A1BBJJHGM0ADN7","gain","6","","75","K","2","","0","0","1","0.4646024675","","false","218","0.2375794361","","main_expt","0.1827914188","","0.4646024675","","0.373903774","","","","","","",""
"75","","bandit","294","759118","0.0-256.0-0.0","03730883","wem/bandit_single","A1BBJJHGM0ADN7","gain","6","","75","K","2","","0","0","1","0.4630893692","","false","219","0.2477723709","","main_expt","0.2630445196","","0.4630893692","","0.3735380413","","","","","","",""
"17","","bandit","295","760911","0.0-257.0-0.0","03730883","wem/bandit_single","A1BBJJHGM0ADN7","gain","6","","75","K","2","","0","0","1","0.4683356487","","false","220","0.2543503475","","main_expt","0.311946342","","0.4683356487","","0.383917491","","","","","","",""
"93","","bandit","296","762821","0.0-258.0-0.0","03730883","wem/bandit_single","A1BBJJHGM0ADN7","gain","6","","75","K","2","","0","0","1","0.4682635517","","false","221","0.2776519347","","main_expt","0.2972788283","","0.4682635517","","0.3479973737","","","","","","",""
"8","","bandit","297","764605","0.0-259.0-0.0","03730883","wem/bandit_single","A1BBJJHGM0ADN7","gain","6","","76","L","3","","0","0","1","0.3845595158","","false","222","0.2291835432","","main_expt","0.3550400804","","0.4771668828","","0.3845595158","","","","","","",""
"42","","bandit","298","766429","0.0-260.0-0.0","03730883","wem/bandit_single","A1BBJJHGM0ADN7","gain","6","","76","L","3","","1","0","0","0.368723436","","false","223","0.2266132179","","main_expt","0.3246239653","","0.4773959318","","0.368723436","","","","","","",""
"61","","bandit","299","768292","0.0-261.0-0.0","03730883","wem/bandit_single","A1BBJJHGM0ADN7","gain","6","","76","L","3","","1","0","0","0.3566991655","","false","224","0.2124948974","","main_expt","0.351266899","","0.4567335023","","0.3566991655","","","","","","",""
"35","","bandit","300","770106","0.0-262.0-0.0","03730883","wem/bandit_single","A1BBJJHGM0ADN7","gain","6","","76","L","3","","1","0","0","0.3557331736","","false","225","0.2168010387","","main_expt","0.3617362435","","0.4545703871","","0.3557331736","","","","","","",""
"97","","bandit","301","771987","0.0-263.0-0.0","03730883","wem/bandit_single","A1BBJJHGM0ADN7","gain","6","","76","L","3","","1","0","0","0.3620904828","","false","226","0.2286352314","","main_expt","0.3625162538","","0.4563055184","","0.3620904828","","","","","","",""
"37","","bandit","302","773809","0.0-264.0-0.0","03730883","wem/bandit_single","A1BBJJHGM0ADN7","gain","6","","76","L","3","","1","0","0","0.3794330306","","false","227","0.2349833204","","main_expt","0.3638477037","","0.4414344485","","0.3794330306","","","","","","",""
"144","","bandit","303","775734","0.0-265.0-0.0","03730883","wem/bandit_single","A1BBJJHGM0ADN7","gain","6","","76","L","3","","1","0","0","0.3480060926","","false","228","0.2376541641","","main_expt","0.321865515","","0.4509897562","","0.3480060926","","","","","","",""
"94","","bandit","304","777623","0.0-266.0-0.0","03730883","wem/bandit_single","A1BBJJHGM0ADN7","gain","6","","76","L","3","","0","0","1","0.3197951212","","false","229","0.2141250471","","main_expt","0.2574970425","","0.4355264455","","0.3197951212","","","","","","",""
"8","","bandit","305","779409","0.0-267.0-0.0","03730883","wem/bandit_single","A1BBJJHGM0ADN7","gain","6","","75","K","2","","1","0","0","0.4393215817","","false","230","0.1986478114","","main_expt","0.3167366343","","0.4393215817","","0.2360623461","","","","","","",""
"28","","bandit","306","781260","0.0-268.0-0.0","03730883","wem/bandit_single","A1BBJJHGM0ADN7","gain","6","","75","K","2","","0","0","1","0.426442838","","false","231","0.1632677176","","main_expt","0.359889087","","0.426442838","","0.228441671","","","","","","",""
"170","","bandit","307","783234","0.0-269.0-0.0","03730883","wem/bandit_single","A1BBJJHGM0ADN7","gain","6","","76","L","3","","0","0","1","0.2233622879","","false","232","0.1437929512","","main_expt","0.3765691143","","0.4455015341","","0.2233622879","","","","","","",""
"81","","bandit","308","785095","0.0-270.0-0.0","03730883","wem/bandit_single","A1BBJJHGM0ADN7","gain","6","","76","L","3","","0","0","1","0.1782647691","","false","233","0.2490618922","","main_expt","0.351320345","","0.4370113712","","0.1782647691","","","","","","",""
"21","","bandit","309","786906","0.0-271.0-0.0","03730883","wem/bandit_single","A1BBJJHGM0ADN7","gain","6","","75","K","2","","1","0","0","0.4228056097","","false","234","0.2811602772","","main_expt","0.2997083133","","0.4228056097","","0.1971530904","","","","","","",""
"42","","bandit","310","788738","0.0-272.0-0.0","03730883","wem/bandit_single","A1BBJJHGM0ADN7","gain","6","","75","K","2","","1","0","0","0.4176536857","","false","235","0.332316849","","main_expt","0.3526624454","","0.4176536857","","0.2109348075","","","","","","",""
"80","","bandit","311","790604","0.0-273.0-0.0","03730883","wem/bandit_single","A1BBJJHGM0ADN7","gain","6","","75","K","2","","0","0","1","0.419442654","","false","236","0.3059905229","","main_expt","0.3050627859","","0.419442654","","0.1891579582","","","","","","",""
"154","","bandit","312","792546","0.0-274.0-0.0","03730883","wem/bandit_single","A1BBJJHGM0ADN7","gain","6","","72","H","0","img/none_selected.jpg","0","0","1","0.3058344165","","false","237","0.3058344165","","main_expt","0.312969263","","0.4082659589","","0.1278978542","","","","","","",""
"45","","bandit","313","794369","0.0-275.0-0.0","03730883","wem/bandit_single","A1BBJJHGM0ADN7","gain","6","","74","J","1","","0","0","1","0.380225341","","false","238","0.2931512536","","main_expt","0.380225341","","0.4108407801","","0.1509653188","","","","","","",""
"23","","bandit","314","796189","0.0-276.0-0.0","03730883","wem/bandit_single","A1BBJJHGM0ADN7","gain","6","","74","J","1","","0","0","1","0.3657076542","","false","239","0.2922133777","","main_expt","0.3657076542","","0.4378360478","","0.1919733462","","","","","","",""
"106","","bandit","315","798074","0.0-277.0-0.0","03730883","wem/bandit_single","A1BBJJHGM0ADN7","gain","6","","75","K","2","","1","0","0","0.4467030129","","false","240","0.3452033359","","main_expt","0.3815359164","","0.4467030129","","0.1751407906","","","","","","",""
"145","","bandit","316","800003","0.0-278.0-0.0","03730883","wem/bandit_single","A1BBJJHGM0ADN7","gain","6","","75","K","2","","0","0","1","0.4705393647","","false","241","0.3682897549","","main_expt","0.3251101936","","0.4705393647","","0.1759125222","","","","","","",""
"151","","bandit","317","801942","0.0-279.0-0.0","03730883","wem/bandit_single","A1BBJJHGM0ADN7","gain","6","","75","K","2","","0","0","1","0.4610792938","","false","242","0.3628947189","","main_expt","0.3212185421","","0.4610792938","","0.2137068054","","","","","","",""
"30","","bandit","318","803749","0.0-280.0-0.0","03730883","wem/bandit_single","A1BBJJHGM0ADN7","gain","6","","76","L","3","","0","0","1","0.2179170348","","false","243","0.3766569032","","main_expt","0.3270030252","","0.4437729889","","0.2179170348","","","","","","",""
"150","","bandit","319","805690","0.0-281.0-0.0","03730883","wem/bandit_single","A1BBJJHGM0ADN7","gain","6","","76","L","3","","0","0","1","0.2426329099","","false","244","0.377991886","","main_expt","0.309973419","","0.4199869792","","0.2426329099","","","","","","",""
"53","","bandit","320","807535","0.0-282.0-0.0","03730883","wem/bandit_single","A1BBJJHGM0ADN7","gain","6","","76","L","3","","0","0","1","0.2351694379","","false","245","0.304751896","","main_expt","0.3342881273","","0.4183767379","","0.2351694379","","","","","","",""
"38","","bandit","321","809392","0.0-283.0-0.0","03730883","wem/bandit_single","A1BBJJHGM0ADN7","gain","6","","75","K","2","","0","0","1","0.4292136751","","false","246","0.3348187262","","main_expt","0.3149240913","","0.4292136751","","0.2111663312","","","","","","",""
"149","","bandit","322","811323","0.0-284.0-0.0","03730883","wem/bandit_single","A1BBJJHGM0ADN7","gain","6","","75","K","2","","1","0","0","0.4577956797","","false","247","0.3307987246","","main_expt","0.296458043","","0.4577956797","","0.1899020887","","","","","","",""
"26","","bandit","323","813135","0.0-285.0-0.0","03730883","wem/bandit_single","A1BBJJHGM0ADN7","gain","6","","75","K","2","","1","0","0","0.4586239927","","false","248","0.3774544282","","main_expt","0.3038576119","","0.4586239927","","0.2151484255","","","","","","",""
"7","","bandit","324","814920","0.0-286.0-0.0","03730883","wem/bandit_single","A1BBJJHGM0ADN7","gain","6","","75","K","2","","1","0","0","0.4709187109","","false","249","0.3553688181","","main_expt","0.3383832125","","0.4709187109","","0.2454548658","","","","","","",""
"157","","bandit","325","816851","0.0-287.0-0.0","03730883","wem/bandit_single","A1BBJJHGM0ADN7","gain","6","","75","K","2","","0","0","1","0.4742496359","","false","250","0.3209961504","","main_expt","0.3505221498","","0.4742496359","","0.1973527755","","","","","","",""
"72","","bandit","326","818704","0.0-288.0-0.0","03730883","wem/bandit_single","A1BBJJHGM0ADN7","gain","6","","76","L","3","","0","0","1","0.2459600056","","false","251","0.2938420796","","main_expt","0.3439557404","","0.4684276702","","0.2459600056","","","","","","",""
"90","","bandit","327","820634","0.0-289.0-0.0","03730883","wem/bandit_single","A1BBJJHGM0ADN7","gain","6","","76","L","3","","1","0","0","0.2361341643","","false","252","0.2377141092","","main_expt","0.3394881367","","0.465775704","","0.2361341643","","","","","","",""
"136","","bandit","328","822557","0.0-290.0-0.0","03730883","wem/bandit_single","A1BBJJHGM0ADN7","gain","6","","76","L","3","","0","0","1","0.2263014677","","false","253","0.28098189","","main_expt","0.3195186677","","0.4739398589","","0.2263014677","","","","","","",""
"154","","bandit","329","824509","0.0-291.0-0.0","03730883","wem/bandit_single","A1BBJJHGM0ADN7","gain","6","","75","K","2","","0","0","1","0.4709597483","","false","254","0.36168886","","main_expt","0.3607388593","","0.4709597483","","0.2384195691","","","","","","",""
"119","","bandit","330","826415","0.0-292.0-0.0","03730883","wem/bandit_single","A1BBJJHGM0ADN7","gain","6","","76","L","3","","0","0","1","0.2186709452","","false","255","0.3196270919","","main_expt","0.3801942793","","0.468651231","","0.2186709452","","","","","","",""
"101","","bandit","331","828306","0.0-293.0-0.0","03730883","wem/bandit_single","A1BBJJHGM0ADN7","gain","6","","75","K","2","","1","0","0","0.4837462493","","false","256","0.3201998045","","main_expt","0.2987962353","","0.4837462493","","0.1625458568","","","","","","",""
"161","","bandit","332","830240","0.0-294.0-0.0","03730883","wem/bandit_single","A1BBJJHGM0ADN7","gain","6","","75","K","2","","0","0","1","0.4842399178","","false","257","0.3576002339","","main_expt","0.272571782","","0.4842399178","","0.159361747","","","","","","",""
"172","","bandit","333","832205","0.0-295.0-0.0","03730883","wem/bandit_single","A1BBJJHGM0ADN7","gain","6","","72","H","0","img/none_selected.jpg","0","0","1","0.3715220428","","false","258","0.3715220428","","main_expt","0.2593204486","","0.4878873921","","0.1556255119","","","","","","",""
"164","","bandit","334","834150","0.0-296.0-0.0","03730883","wem/bandit_single","A1BBJJHGM0ADN7","gain","6","","74","J","1","","1","0","0","0.2951424317","","false","259","0.3730860303","","main_expt","0.2951424317","","0.4869160663","","0.1256368346","","","","","","",""
"125","","bandit","335","836061","0.0-297.0-0.0","03730883","wem/bandit_single","A1BBJJHGM0ADN7","gain","6","","74","J","1","","0","0","1","0.2369093976","","false","260","0.3724964978","","main_expt","0.2369093976","","0.4912834456","","0.1449854444","","","","","","",""
"142","","bandit","336","838006","0.0-298.0-0.0","03730883","wem/bandit_single","A1BBJJHGM0ADN7","gain","6","","74","J","1","","0","0","1","0.2234433316","","false","261","0.3574286068","","main_expt","0.2234433316","","0.4907072989","","0.1647157085","","","","","","",""
"32","","bandit","337","839814","0.0-299.0-0.0","03730883","wem/bandit_single","A1BBJJHGM0ADN7","gain","6","","72","H","0","img/none_selected.jpg","0","0","1","0.4204463107","","false","262","0.4204463107","","main_expt","0.215626833","","0.4904114062","","0.1586541082","","","","","","",""
"70","","bandit","338","841673","0.0-300.0-0.0","03730883","wem/bandit_single","A1BBJJHGM0ADN7","gain","6","","76","L","3","","1","0","0","0.1683870388","","false","263","0.4244263348","","main_expt","0.2227197798","","0.4900075499","","0.1683870388","","","","","","",""
"61","","bandit","339","843508","0.0-301.0-0.0","03730883","wem/bandit_single","A1BBJJHGM0ADN7","gain","6","","76","L","3","","0","0","1","0.2205087037","","false","264","0.4217668892","","main_expt","0.2113558788","","0.4922230388","","0.2205087037","","","","","","",""
"86","","bandit","340","845367","0.0-302.0-0.0","03730883","wem/bandit_single","A1BBJJHGM0ADN7","gain","6","","76","L","3","","0","0","1","0.1554736059","","false","265","0.3908218086","","main_expt","0.1814287308","","0.4892111554","","0.1554736059","","","","","","",""
"45","","bandit","341","847196","0.0-303.0-0.0","03730883","wem/bandit_single","A1BBJJHGM0ADN7","gain","6","","75","K","2","","1","0","0","0.4894097466","","false","266","0.350583855","","main_expt","0.2579261203","","0.4894097466","","0.1556775797","","","","","","",""
"8","","bandit","342","849000","0.0-304.0-0.0","03730883","wem/bandit_single","A1BBJJHGM0ADN7","gain","6","","75","K","2","","1","0","0","0.4898547377","","false","267","0.2971845499","","main_expt","0.3033521226","","0.4898547377","","0.1732223335","","","","","","",""
"20","","bandit","343","850792","0.0-305.0-0.0","03730883","wem/bandit_single","A1BBJJHGM0ADN7","gain","6","","75","K","2","","1","0","0","0.4960714099","","false","268","0.3271935382","","main_expt","0.2697057224","","0.4960714099","","0.1670192172","","","","","","",""
"48","","bandit","344","852632","0.0-306.0-0.0","03730883","wem/bandit_single","A1BBJJHGM0ADN7","gain","6","","75","K","2","","1","0","0","0.4951393121","","false","269","0.2912245063","","main_expt","0.3075876552","","0.4951393121","","0.1666577124","","","","","","",""
"27","","bandit","345","854435","0.0-307.0-0.0","03730883","wem/bandit_single","A1BBJJHGM0ADN7","gain","6","","75","K","2","","1","0","0","0.4903783272","","false","270","0.3007980493","","main_expt","0.3437361696","","0.4903783272","","0.1133531577","","","","","","",""
"107","","bandit","346","856318","0.0-308.0-0.0","03730883","wem/bandit_single","A1BBJJHGM0ADN7","gain","6","","75","K","2","","0","0","1","0.4932948231","","false","271","0.3025875308","","main_expt","0.2596534978","","0.4932948231","","0.1453503833","","","","","","",""
"185","","bandit","347","858275","0.0-309.0-0.0","03730883","wem/bandit_single","A1BBJJHGM0ADN7","gain","6","","74","J","1","","0","0","1","0.2680739133","","false","272","0.2608882705","","main_expt","0.2680739133","","0.4950636705","","0.1542373291","","","","","","",""
"49","","bandit","348","860111","0.0-310.0-0.0","03730883","wem/bandit_single","A1BBJJHGM0ADN7","gain","6","","75","K","2","","0","0","1","0.4866982898","","false","273","0.2985246063","","main_expt","0.2287209558","","0.4866982898","","0.1312836042","","","","","","",""
"68","","bandit","349","861977","0.0-311.0-0.0","03730883","wem/bandit_single","A1BBJJHGM0ADN7","gain","6","","74","J","1","","0","0","1","0.2659047846","","false","274","0.296104213","","main_expt","0.2659047846","","0.4654226264","","0.1616535947","","","","","","",""
"92","","bandit","350","863854","0.0-312.0-0.0","03730883","wem/bandit_single","A1BBJJHGM0ADN7","gain","6","","75","K","2","","0","0","1","0.4633702838","","false","275","0.2897414639","","main_expt","0.2303642271","","0.4633702838","","0.163822666","","","","","","",""
"17","","bandit","351","865663","0.0-313.0-0.0","03730883","wem/bandit_single","A1BBJJHGM0ADN7","gain","6","","76","L","3","","0","0","1","0.1500588852","","false","276","0.296822441","","main_expt","0.2631654739","","0.4741710053","","0.1500588852","","","","","","",""
"110","","bandit","352","867557","0.0-314.0-0.0","03730883","wem/bandit_single","A1BBJJHGM0ADN7","gain","6","","76","L","3","","1","0","0","0.1975700973","","false","277","0.2769528726","","main_expt","0.2660527836","","0.4821206929","","0.1975700973","","","","","","",""
"120","","bandit","353","869452","0.0-315.0-0.0","03730883","wem/bandit_single","A1BBJJHGM0ADN7","gain","6","","76","L","3","","0","0","1","0.1355298524","","false","278","0.3356585436","","main_expt","0.2869547209","","0.4704549119","","0.1355298524","","","","","","",""
"341","","bandit","354","871578","0.0-316.0-0.0","03730883","wem/bandit_single","A1BBJJHGM0ADN7","gain","6","","75","K","2","","0","0","1","0.4749598821","","false","279","0.3222384225","","main_expt","0.3594721793","","0.4749598821","","0.1437345226","","","","","","",""
"171","","bandit","355","873538","0.0-317.0-0.0","03730883","wem/bandit_single","A1BBJJHGM0ADN7","gain","6","","76","L","3","","0","0","1","0.126787642","","false","280","0.27346357","","main_expt","0.3903699723","","0.4385317488","","0.126787642","","","","","","",""
"326","","bandit","356","875638","0.0-318.0-0.0","03730883","wem/bandit_single","A1BBJJHGM0ADN7","gain","6","","75","K","2","","1","0","0","0.4397970497","","false","281","0.3633072925","","main_expt","0.4583904318","","0.4397970497","","0.1765789866","","","","","","",""
"216","","bandit","357","877648","0.0-319.0-0.0","03730883","wem/bandit_single","A1BBJJHGM0ADN7","gain","6","","75","K","2","","1","0","0","0.4485424667","","false","282","0.3269934488","","main_expt","0.4689346609","","0.4485424667","","0.1659157347","","","","","","",""
"3","","bandit","358","879429","0.0-320.0-0.0","03730883","wem/bandit_single","A1BBJJHGM0ADN7","gain","6","","75","K","2","","0","0","1","0.4460930912","","false","283","0.324321327","","main_expt","0.460541741","","0.4460930912","","0.1876778028","","","","","","",""
"206","","bandit","359","881429","0.0-321.0-0.0","03730883","wem/bandit_single","A1BBJJHGM0ADN7","gain","6","","75","K","2","","0","0","1","0.46041158","","false","284","0.2677217275","","main_expt","0.4485703909","","0.46041158","","0.2072959333","","","","","","",""
"165","","bandit","360","883393","0.0-322.0-0.0","03730883","wem/bandit_single","A1BBJJHGM0ADN7","gain","6","","76","L","3","","0","0","1","0.2171876524","","false","285","0.2832280908","","main_expt","0.4493749552","","0.4722631388","","0.2171876524","","","","","","",""
"25","","bandit","361","885214","0.0-323.0-0.0","03730883","wem/bandit_single","A1BBJJHGM0ADN7","gain","6","","75","K","2","","0","0","1","0.4710864859","","false","286","0.3338799161","","main_expt","0.4223312446","","0.4710864859","","0.224404947","","","","","","",""
"40","","bandit","362","887047","0.0-324.0-0.0","03730883","wem/bandit_single","A1BBJJHGM0ADN7","gain","6","","75","K","2","","1","0","0","0.4400158941","","false","287","0.3484096991","","main_expt","0.457140216","","0.4400158941","","0.2249093708","","","","","","",""
"99","","bandit","363","888925","0.0-325.0-0.0","03730883","wem/bandit_single","A1BBJJHGM0ADN7","gain","6","","76","L","3","","0","0","1","0.2219747159","","false","288","0.3215301514","","main_expt","0.4411377771","","0.4036546776","","0.2219747159","","","","","","",""
"116","","bandit","364","890865","0.0-326.0-0.0","03730883","wem/bandit_single","A1BBJJHGM0ADN7","gain","6","","75","K","2","","1","0","0","0.4324218596","","false","289","0.2965974011","","main_expt","0.4501271696","","0.4324218596","","0.2183007497","","","","","","",""
"45","","bandit","365","892688","0.0-327.0-0.0","03730883","wem/bandit_single","A1BBJJHGM0ADN7","gain","6","","75","K","2","","0","0","1","0.4536473803","","false","290","0.2926361454","","main_expt","0.4436507911","","0.4536473803","","0.2481136515","","","","","","",""
"133","","bandit","366","894594","0.0-328.0-0.0","03730883","wem/bandit_single","A1BBJJHGM0ADN7","gain","6","","74","J","1","","1","0","0","0.4381939672","","false","291","0.243163711","","main_expt","0.4381939672","","0.4634661847","","0.2972088317","","","","","","",""
"130","","bandit","367","896565","0.0-329.0-0.0","03730883","wem/bandit_single","A1BBJJHGM0ADN7","gain","6","","74","J","1","","0","0","1","0.4101305143","","false","292","0.2064952975","","main_expt","0.4101305143","","0.4609966616","","0.2998647236","","","","","","",""
"94","","bandit","368","898453","0.0-330.0-0.0","03730883","wem/bandit_single","A1BBJJHGM0ADN7","gain","6","","72","H","0","img/none_selected.jpg","1","0","0","0.2099334792","","false","293","0.2099334792","","main_expt","0.4297915702","","0.4648618971","","0.2861810992","","","","","","",""
"92","","bandit","369","900313","0.0-331.0-0.0","03730883","wem/bandit_single","A1BBJJHGM0ADN7","gain","6","","72","H","0","img/none_selected.jpg","1","0","0","0.2507358833","","false","294","0.2507358833","","main_expt","0.4537219743","","0.4582487824","","0.345484004","","","","","","",""
"124","","bandit","370","902211","0.0-332.0-0.0","03730883","wem/bandit_single","A1BBJJHGM0ADN7","gain","6","","72","H","0","img/none_selected.jpg","0","0","1","0.2494268831","","false","295","0.2494268831","","main_expt","0.4694953972","","0.4482247061","","0.3251772281","","","","","","",""
"19","","bandit","371","904040","0.0-333.0-0.0","03730883","wem/bandit_single","A1BBJJHGM0ADN7","gain","6","","74","J","1","","0","0","1","0.4880383038","","false","296","0.2867080039","","main_expt","0.4880383038","","0.42326912","","0.2953905587","","","","","","",""
"164","","bandit","372","905990","0.0-334.0-0.0","03730883","wem/bandit_single","A1BBJJHGM0ADN7","gain","6","","72","H","0","img/none_selected.jpg","0","0","1","0.2983387387","","false","297","0.2983387387","","main_expt","0.4916251568","","0.4151021773","","0.2717848064","","","","","","",""
"85","","bandit","373","907853","0.0-335.0-0.0","03730883","wem/bandit_single","A1BBJJHGM0ADN7","gain","6","","75","K","2","","1","0","0","0.4270228344","","false","298","0.2982690602","","main_expt","0.4921476303","","0.4270228344","","0.2682571213","","","","","","",""
"139","","bandit","374","909798","0.0-336.0-0.0","03730883","wem/bandit_single","A1BBJJHGM0ADN7","gain","6","","75","K","2","","0","0","1","0.4168509428","","false","299","0.2955511463","","main_expt","0.4800884689","","0.4168509428","","0.2400439073","","","","","","",""
"59","","bandit","375","911639","0.0-337.0-0.0","03730883","wem/bandit_single","A1BBJJHGM0ADN7","gain","6","","76","L","3","","0","0","1","0.2494994512","","false","300","0.3236523504","","main_expt","0.4882901572","","0.414464059","","0.2494994512","","","","","","",""
"78","","bandit","376","913492","0.0-338.0-0.0","03730883","wem/bandit_single","A1BBJJHGM0ADN7","gain","6","","76","L","3","","0","0","1","0.2511279273","","false","301","0.2926345705","","main_expt","0.4849478036","","0.423631951","","0.2511279273","","","","","","",""
