"rt","responses","trial_type","trial_index","time_elapsed","internal_node_id","subjID","study","MID","cond","drift","key_press","respCharCode","respKey","respChoiceNum","respChoice","gems","bombs","no_reward","GemPrChosen","BombPrChosen","practice","trial_counter","WinPr_0","LosePr_0","trial_label","WinPr_1","LosePr_1","WinPr_2","LosePr_2","WinPr_3","LosePr_3","Q0","Q1","Q2","gender","age","ethnicity"
"5070","{""Q0"":""A39EBLPHUIPAFH""}","survey-text","0","5080","0.0-0.0","05070743","wem/bandit_single","A39EBLPHUIPAFH","pain","2","","","","","","","","","","","","","","","","","","","","","","","","","","",""
"2181","","text","1","8268","0.0-1.0","05070743","wem/bandit_single","A39EBLPHUIPAFH","pain","2","32","","","","","","","","","","","","","","","","","","","","","","","","","",""
"407","","text","2","8679","0.0-2.0","05070743","wem/bandit_single","A39EBLPHUIPAFH","pain","2","32","","","","","","","","","","","","","","","","","","","","","","","","","",""
"391","","text","3","9073","0.0-3.0","05070743","wem/bandit_single","A39EBLPHUIPAFH","pain","2","32","","","","","","","","","","","","","","","","","","","","","","","","","",""
"366","","text","4","9443","0.0-4.0","05070743","wem/bandit_single","A39EBLPHUIPAFH","pain","2","32","","","","","","","","","","","","","","","","","","","","","","","","","",""
"1261","","text","5","10706","0.0-5.0","05070743","wem/bandit_single","A39EBLPHUIPAFH","pain","2","32","","","","","","","","","","","","","","","","","","","","","","","","","",""
"539","","text","6","11248","0.0-6.0","05070743","wem/bandit_single","A39EBLPHUIPAFH","pain","2","32","","","","","","","","","","","","","","","","","","","","","","","","","",""
"7699","","text","7","18949","0.0-7.0","05070743","wem/bandit_single","A39EBLPHUIPAFH","pain","2","32","","","","","","","","","","","","","","","","","","","","","","","","","",""
"1796","","text","8","20749","0.0-8.0","05070743","wem/bandit_single","A39EBLPHUIPAFH","pain","2","32","","","","","","","","","","","","","","","","","","","","","","","","","",""
"1371","","text","9","22123","0.0-9.0","05070743","wem/bandit_single","A39EBLPHUIPAFH","pain","2","32","","","","","","","","","","","","","","","","","","","","","","","","","",""
"2753","","text","10","24879","0.0-10.0","05070743","wem/bandit_single","A39EBLPHUIPAFH","pain","2","32","","","","","","","","","","","","","","","","","","","","","","","","","",""
"1205","","text","11","26087","0.0-11.0","05070743","wem/bandit_single","A39EBLPHUIPAFH","pain","2","32","","","","","","","","","","","","","","","","","","","","","","","","","",""
"3882","","bandit","12","31481","0.0-12.0-0.0","05070743","wem/bandit_single","A39EBLPHUIPAFH","pain","2","","74","J","0","img/none_selected_demo.jpg","0","0","1","0","0","true","0","0","0","","","","","","","","","","","","",""
"3118","","bandit","13","36362","0.0-13.0-0.0","05070743","wem/bandit_single","A39EBLPHUIPAFH","pain","2","","75","K","0","img/none_selected_demo.jpg","0","0","1","0","0","true","0","0","0","","","","","","","","","","","","",""
"2128","","text","14","38743","0.0-14.0","05070743","wem/bandit_single","A39EBLPHUIPAFH","pain","2","32","","","","","","","","","","","","","","","","","","","","","","","","","",""
"1780","","text","15","40525","0.0-15.0","05070743","wem/bandit_single","A39EBLPHUIPAFH","pain","2","32","","","","","","","","","","","","","","","","","","","","","","","","","",""
"882","","text","16","41409","0.0-16.0","05070743","wem/bandit_single","A39EBLPHUIPAFH","pain","2","32","","","","","","","","","","","","","","","","","","","","","","","","","",""
"712","","text","17","42124","0.0-17.0","05070743","wem/bandit_single","A39EBLPHUIPAFH","pain","2","32","","","","","","","","","","","","","","","","","","","","","","","","","",""
"4519","","bandit","18","48150","0.0-18.0-0.0","05070743","wem/bandit_single","A39EBLPHUIPAFH","pain","2","","74","J","0","img/none_selected_demo.jpg","0","0","1","0","0.8","true","0","0","0.8","80_20_practice","0","0.2","","","","","","","","","",""
"1794","","bandit","19","51702","0.0-18.0-1.0","05070743","wem/bandit_single","A39EBLPHUIPAFH","pain","2","","75","K","1","","0","0","1","0","0.2","true","0","0","0.8","80_20_practice","0","0.2","","","","","","","","","",""
"7455","","bandit","20","60920","0.0-18.0-2.0","05070743","wem/bandit_single","A39EBLPHUIPAFH","pain","2","","74","J","0","img/none_selected_demo.jpg","0","0","1","0","0.8","true","0","0","0.8","80_20_practice","0","0.2","","","","","","","","","",""
"894","","bandit","21","63571","0.0-18.0-3.0","05070743","wem/bandit_single","A39EBLPHUIPAFH","pain","2","","74","J","0","img/none_selected_demo.jpg","0","0","1","0","0.8","true","0","0","0.8","80_20_practice","0","0.2","","","","","","","","","",""
"557","","bandit","22","65886","0.0-18.0-4.0","05070743","wem/bandit_single","A39EBLPHUIPAFH","pain","2","","75","K","1","","0","0","1","0","0.2","true","0","0","0.8","80_20_practice","0","0.2","","","","","","","","","",""
"132","","bandit","23","67774","0.0-18.0-5.0","05070743","wem/bandit_single","A39EBLPHUIPAFH","pain","2","","75","K","1","","0","0","1","0","0.2","true","0","0","0.8","80_20_practice","0","0.2","","","","","","","","","",""
"1096","","bandit","24","70629","0.0-18.0-6.0","05070743","wem/bandit_single","A39EBLPHUIPAFH","pain","2","","75","K","1","","0","0","1","0","0.2","true","0","0","0.8","80_20_practice","0","0.2","","","","","","","","","",""
"353","","bandit","25","72742","0.0-18.0-7.0","05070743","wem/bandit_single","A39EBLPHUIPAFH","pain","2","","74","J","0","img/none_selected_demo.jpg","0","1","0","0","0.8","true","0","0","0.8","80_20_practice","0","0.2","","","","","","","","","",""
"852","","bandit","26","75351","0.0-18.0-8.0","05070743","wem/bandit_single","A39EBLPHUIPAFH","pain","2","","74","J","0","img/none_selected_demo.jpg","0","1","0","0","0.8","true","0","0","0.8","80_20_practice","0","0.2","","","","","","","","","",""
"202","","bandit","27","77310","0.0-18.0-9.0","05070743","wem/bandit_single","A39EBLPHUIPAFH","pain","2","","74","J","0","img/none_selected_demo.jpg","0","0","1","0","0.8","true","0","0","0.8","80_20_practice","0","0.2","","","","","","","","","",""
"185","","bandit","28","79255","0.0-18.0-10.0","05070743","wem/bandit_single","A39EBLPHUIPAFH","pain","2","","75","K","1","","0","0","1","0","0.2","true","0","0","0.8","80_20_practice","0","0.2","","","","","","","","","",""
"3802","","bandit","29","84815","0.0-18.0-11.0","05070743","wem/bandit_single","A39EBLPHUIPAFH","pain","2","","74","J","0","img/none_selected_demo.jpg","0","0","1","0","0.8","true","0","0","0.8","80_20_practice","0","0.2","","","","","","","","","",""
"827","","bandit","30","87401","0.0-18.0-12.0","05070743","wem/bandit_single","A39EBLPHUIPAFH","pain","2","","74","J","0","img/none_selected_demo.jpg","0","1","0","0","0.8","true","0","0","0.8","80_20_practice","0","0.2","","","","","","","","","",""
"285","","bandit","31","89441","0.0-18.0-13.0","05070743","wem/bandit_single","A39EBLPHUIPAFH","pain","2","","74","J","0","img/none_selected_demo.jpg","0","1","0","0","0.8","true","0","0","0.8","80_20_practice","0","0.2","","","","","","","","","",""
"217","","bandit","32","91419","0.0-18.0-14.0","05070743","wem/bandit_single","A39EBLPHUIPAFH","pain","2","","74","J","0","img/none_selected_demo.jpg","0","0","1","0","0.8","true","0","0","0.8","80_20_practice","0","0.2","","","","","","","","","",""
"540","","bandit","33","93717","0.0-18.0-15.0","05070743","wem/bandit_single","A39EBLPHUIPAFH","pain","2","","75","K","1","","0","0","1","0","0.2","true","0","0","0.8","80_20_practice","0","0.2","","","","","","","","","",""
"225","","bandit","34","95697","0.0-18.0-16.0","05070743","wem/bandit_single","A39EBLPHUIPAFH","pain","2","","74","J","0","img/none_selected_demo.jpg","0","1","0","0","0.8","true","0","0","0.8","80_20_practice","0","0.2","","","","","","","","","",""
"332","","bandit","35","97787","0.0-18.0-17.0","05070743","wem/bandit_single","A39EBLPHUIPAFH","pain","2","","74","J","0","img/none_selected_demo.jpg","0","0","1","0","0.8","true","0","0","0.8","80_20_practice","0","0.2","","","","","","","","","",""
"737","","bandit","36","100283","0.0-18.0-18.0","05070743","wem/bandit_single","A39EBLPHUIPAFH","pain","2","","75","K","1","","0","0","1","0","0.2","true","0","0","0.8","80_20_practice","0","0.2","","","","","","","","","",""
"2180","","bandit","37","104222","0.0-18.0-19.0","05070743","wem/bandit_single","A39EBLPHUIPAFH","pain","2","","74","J","0","img/none_selected_demo.jpg","0","1","0","0","0.8","true","0","0","0.8","80_20_practice","0","0.2","","","","","","","","","",""
"9049","","text","38","113526","0.0-19.0","05070743","wem/bandit_single","A39EBLPHUIPAFH","pain","2","32","","","","","","","","","","","","","","","","","","","","","","","","","",""
"4229","","bandit","39","119261","0.0-20.0-0.0","05070743","wem/bandit_single","A39EBLPHUIPAFH","pain","2","","74","J","0","img/none_selected_demo.jpg","0","0","1","0","0","true","0","0","0","","0","0","","","","","","","","","",""
"6162","","text","40","125679","0.0-21.0","05070743","wem/bandit_single","A39EBLPHUIPAFH","pain","2","32","","","","","","","","","","","","","","","","","","","","","","","","","",""
"2108","","text","41","127790","0.0-22.0","05070743","wem/bandit_single","A39EBLPHUIPAFH","pain","2","32","","","","","","","","","","","","","","","","","","","","","","","","","",""
"884","","text","42","128678","0.0-23.0","05070743","wem/bandit_single","A39EBLPHUIPAFH","pain","2","32","","","","","","","","","","","","","","","","","","","","","","","","","",""
"1081","","text","43","129763","0.0-24.0","05070743","wem/bandit_single","A39EBLPHUIPAFH","pain","2","32","","","","","","","","","","","","","","","","","","","","","","","","","",""
"954","","text","44","130719","0.0-25.0","05070743","wem/bandit_single","A39EBLPHUIPAFH","pain","2","32","","","","","","","","","","","","","","","","","","","","","","","","","",""
"870","","text","45","131592","0.0-26.0","05070743","wem/bandit_single","A39EBLPHUIPAFH","pain","2","32","","","","","","","","","","","","","","","","","","","","","","","","","",""
"895","","text","46","132491","0.0-27.0","05070743","wem/bandit_single","A39EBLPHUIPAFH","pain","2","32","","","","","","","","","","","","","","","","","","","","","","","","","",""
"815","","text","47","133309","0.0-28.0","05070743","wem/bandit_single","A39EBLPHUIPAFH","pain","2","32","","","","","","","","","","","","","","","","","","","","","","","","","",""
"615","","text","48","133928","0.0-29.0","05070743","wem/bandit_single","A39EBLPHUIPAFH","pain","2","32","","","","","","","","","","","","","","","","","","","","","","","","","",""
"1085","","text","49","135016","0.0-30.0","05070743","wem/bandit_single","A39EBLPHUIPAFH","pain","2","32","","","","","","","","","","","","","","","","","","","","","","","","","",""
"2490","","text","50","137509","0.0-31.0","05070743","wem/bandit_single","A39EBLPHUIPAFH","pain","2","32","","","","","","","","","","","","","","","","","","","","","","","","","",""
"2645","","bandit","51","141660","0.0-32.0-0.0","05070743","wem/bandit_single","A39EBLPHUIPAFH","pain","2","","72","H","0","img/none_selected.jpg","0","1","0","0","0.8","true","0","0","0.8","full_practice","0","0.2","0","0.6","0","0.2","","","","","",""
"5026","","bandit","52","148445","0.0-32.0-1.0","05070743","wem/bandit_single","A39EBLPHUIPAFH","pain","2","","74","J","1","","0","0","1","0","0.2","true","0","0","0.8","full_practice","0","0.2","0","0.6","0","0.2","","","","","",""
"347","","bandit","53","150553","0.0-32.0-2.0","05070743","wem/bandit_single","A39EBLPHUIPAFH","pain","2","","75","K","2","","0","1","0","0","0.6","true","0","0","0.8","full_practice","0","0.2","0","0.6","0","0.2","","","","","",""
"679","","bandit","54","152992","0.0-32.0-3.0","05070743","wem/bandit_single","A39EBLPHUIPAFH","pain","2","","76","L","3","","0","1","0","0","0.2","true","0","0","0.8","full_practice","0","0.2","0","0.6","0","0.2","","","","","",""
"59","","bandit","55","154811","0.0-32.0-4.0","05070743","wem/bandit_single","A39EBLPHUIPAFH","pain","2","","76","L","3","","0","0","1","0","0.2","true","0","0","0.8","full_practice","0","0.2","0","0.6","0","0.2","","","","","",""
"1992","","bandit","56","158561","0.0-32.0-5.0","05070743","wem/bandit_single","A39EBLPHUIPAFH","pain","2","","75","K","2","","0","1","0","0","0.6","true","0","0","0.8","full_practice","0","0.2","0","0.6","0","0.2","","","","","",""
"361","","bandit","57","160683","0.0-32.0-6.0","05070743","wem/bandit_single","A39EBLPHUIPAFH","pain","2","","75","K","2","","0","0","1","0","0.6","true","0","0","0.8","full_practice","0","0.2","0","0.6","0","0.2","","","","","",""
"834","","bandit","58","163278","0.0-32.0-7.0","05070743","wem/bandit_single","A39EBLPHUIPAFH","pain","2","","72","H","0","img/none_selected.jpg","0","0","1","0","0.8","true","0","0","0.8","full_practice","0","0.2","0","0.6","0","0.2","","","","","",""
"2000","","bandit","59","167037","0.0-32.0-8.0","05070743","wem/bandit_single","A39EBLPHUIPAFH","pain","2","","74","J","1","","0","0","1","0","0.2","true","0","0","0.8","full_practice","0","0.2","0","0.6","0","0.2","","","","","",""
"641","","bandit","60","169437","0.0-32.0-9.0","05070743","wem/bandit_single","A39EBLPHUIPAFH","pain","2","","75","K","2","","0","1","0","0","0.6","true","0","0","0.8","full_practice","0","0.2","0","0.6","0","0.2","","","","","",""
"270","","bandit","61","171467","0.0-32.0-10.0","05070743","wem/bandit_single","A39EBLPHUIPAFH","pain","2","","75","K","2","","0","1","0","0","0.6","true","0","0","0.8","full_practice","0","0.2","0","0.6","0","0.2","","","","","",""
"216","","bandit","62","173441","0.0-32.0-11.0","05070743","wem/bandit_single","A39EBLPHUIPAFH","pain","2","","75","K","2","","0","0","1","0","0.6","true","0","0","0.8","full_practice","0","0.2","0","0.6","0","0.2","","","","","",""
"241","","bandit","63","175442","0.0-32.0-12.0","05070743","wem/bandit_single","A39EBLPHUIPAFH","pain","2","","76","L","3","","0","0","1","0","0.2","true","0","0","0.8","full_practice","0","0.2","0","0.6","0","0.2","","","","","",""
"1436","","bandit","64","178638","0.0-32.0-13.0","05070743","wem/bandit_single","A39EBLPHUIPAFH","pain","2","","76","L","3","","0","0","1","0","0.2","true","0","0","0.8","full_practice","0","0.2","0","0.6","0","0.2","","","","","",""
"194","","bandit","65","180593","0.0-32.0-14.0","05070743","wem/bandit_single","A39EBLPHUIPAFH","pain","2","","75","K","2","","0","1","0","0","0.6","true","0","0","0.8","full_practice","0","0.2","0","0.6","0","0.2","","","","","",""
"489","","bandit","66","182841","0.0-32.0-15.0","05070743","wem/bandit_single","A39EBLPHUIPAFH","pain","2","","75","K","2","","0","1","0","0","0.6","true","0","0","0.8","full_practice","0","0.2","0","0.6","0","0.2","","","","","",""
"324","","bandit","67","184924","0.0-32.0-16.0","05070743","wem/bandit_single","A39EBLPHUIPAFH","pain","2","","75","K","2","","0","0","1","0","0.6","true","0","0","0.8","full_practice","0","0.2","0","0.6","0","0.2","","","","","",""
"177","","bandit","68","186859","0.0-32.0-17.0","05070743","wem/bandit_single","A39EBLPHUIPAFH","pain","2","","76","L","3","","0","1","0","0","0.2","true","0","0","0.8","full_practice","0","0.2","0","0.6","0","0.2","","","","","",""
"246","","bandit","69","188864","0.0-32.0-18.0","05070743","wem/bandit_single","A39EBLPHUIPAFH","pain","2","","76","L","3","","0","1","0","0","0.2","true","0","0","0.8","full_practice","0","0.2","0","0.6","0","0.2","","","","","",""
"246","","bandit","70","190869","0.0-32.0-19.0","05070743","wem/bandit_single","A39EBLPHUIPAFH","pain","2","","76","L","3","","0","0","1","0","0.2","true","0","0","0.8","full_practice","0","0.2","0","0.6","0","0.2","","","","","",""
"5845","","text","71","196975","0.0-33.0","05070743","wem/bandit_single","A39EBLPHUIPAFH","pain","2","32","","","","","","","","","","","","","","","","","","","","","","","","","",""
"2079","","text","72","200059","0.0-34.0","05070743","wem/bandit_single","A39EBLPHUIPAFH","pain","2","32","","","","","","","","","","","","","","","","","","","","","","","","","",""
"704","","text","73","200768","0.0-35.0","05070743","wem/bandit_single","A39EBLPHUIPAFH","pain","2","32","","","","","","","","","","","","","","","","","","","","","","","","","",""
"686","","text","74","201458","0.0-36.0","05070743","wem/bandit_single","A39EBLPHUIPAFH","pain","2","32","","","","","","","","","","","","","","","","","","","","","","","","","",""
"1747","","text","75","203210","0.0-37.0","05070743","wem/bandit_single","A39EBLPHUIPAFH","pain","2","32","","","","","","","","","","","","","","","","","","","","","","","","","",""
"2499","","bandit","76","207218","0.0-38.0-0.0","05070743","wem/bandit_single","A39EBLPHUIPAFH","pain","2","","74","J","1","","0","1","0","","0.03692567881","false","1","","0.1473353724","main_expt","","0.03692567881","","0.1196507759","","0.1047922924","","","","","",""
"231","","bandit","77","209206","0.0-39.0-0.0","05070743","wem/bandit_single","A39EBLPHUIPAFH","pain","2","","74","J","1","","0","0","1","","0.0535834513","false","2","","0.1471364572","main_expt","","0.0535834513","","0.1434551849","","0.09232691068","","","","","",""
"377","","bandit","78","211339","0.0-40.0-0.0","05070743","wem/bandit_single","A39EBLPHUIPAFH","pain","2","","75","K","2","","0","1","0","","0.1966750378","false","3","","0.1792173289","main_expt","","0.06455495551","","0.1966750378","","0.07878604621","","","","","",""
"174","","bandit","79","213271","0.0-41.0-0.0","05070743","wem/bandit_single","A39EBLPHUIPAFH","pain","2","","75","K","2","","0","0","1","","0.1731728381","false","4","","0.2089457512","main_expt","","0.1075220519","","0.1731728381","","0.06180226224","","","","","",""
"284","","bandit","80","215315","0.0-42.0-0.0","05070743","wem/bandit_single","A39EBLPHUIPAFH","pain","2","","74","J","1","","0","0","1","","0.1459974634","false","5","","0.2627176439","main_expt","","0.1459974634","","0.151671232","","0.05657605877","","","","","",""
"879","","bandit","81","217952","0.0-43.0-0.0","05070743","wem/bandit_single","A39EBLPHUIPAFH","pain","2","","76","L","3","","0","1","0","","0.03926223851","false","6","","0.2052823447","main_expt","","0.1119865757","","0.2201434377","","0.03926223851","","","","","",""
"462","","bandit","82","220171","0.0-44.0-0.0","05070743","wem/bandit_single","A39EBLPHUIPAFH","pain","2","","76","L","3","","0","0","1","","0.02952185798","false","7","","0.2424381104","main_expt","","0.1135710889","","0.1924323999","","0.02952185798","","","","","",""
"1408","","bandit","83","223342","0.0-45.0-0.0","05070743","wem/bandit_single","A39EBLPHUIPAFH","pain","2","","75","K","2","","0","0","1","","0.187431757","false","8","","0.2324683495","main_expt","","0.148696524","","0.187431757","","0.01847757052","","","","","",""
"1390","","bandit","84","226491","0.0-46.0-0.0","05070743","wem/bandit_single","A39EBLPHUIPAFH","pain","2","","74","J","1","","0","0","1","","0.1181121295","false","9","","0.2440295668","main_expt","","0.1181121295","","0.197470847","","0.02695314055","","","","","",""
"539","","bandit","85","228788","0.0-47.0-0.0","05070743","wem/bandit_single","A39EBLPHUIPAFH","pain","2","","72","H","0","img/none_selected.jpg","0","0","1","","0.2465422232","false","10","","0.2465422232","main_expt","","0.1082266346","","0.2298270047","","0.02234311218","","","","","",""
"785","","bandit","86","231333","0.0-48.0-0.0","05070743","wem/bandit_single","A39EBLPHUIPAFH","pain","2","","76","L","3","","0","1","0","","0.04960883058","false","11","","0.1529972956","main_expt","","0.1102162287","","0.2124937163","","0.04960883058","","","","","",""
"822","","bandit","87","233916","0.0-49.0-0.0","05070743","wem/bandit_single","A39EBLPHUIPAFH","pain","2","","76","L","3","","0","0","1","","0.06086541187","false","12","","0.1827224572","main_expt","","0.1420736562","","0.2043121782","","0.06086541187","","","","","",""
"65","","bandit","88","235738","0.0-50.0-0.0","05070743","wem/bandit_single","A39EBLPHUIPAFH","pain","2","","75","K","2","","0","0","1","","0.2122729008","false","13","","0.1973099221","main_expt","","0.1582971975","","0.2122729008","","0.06603274732","","","","","",""
"976","","bandit","89","238474","0.0-51.0-0.0","05070743","wem/bandit_single","A39EBLPHUIPAFH","pain","2","","76","L","3","","0","0","1","","0.06952645267","false","14","","0.2002936143","main_expt","","0.1278364912","","0.1748916548","","0.06952645267","","","","","",""
"708","","bandit","90","240940","0.0-52.0-0.0","05070743","wem/bandit_single","A39EBLPHUIPAFH","pain","2","","74","J","1","","0","0","1","","0.1389591295","false","15","","0.2100222876","main_expt","","0.1389591295","","0.1598041939","","0.06705093019","","","","","",""
"471","","bandit","91","243171","0.0-53.0-0.0","05070743","wem/bandit_single","A39EBLPHUIPAFH","pain","2","","72","H","0","img/none_selected.jpg","0","0","1","","0.192095419","false","16","","0.192095419","main_expt","","0.1087507618","","0.1496559895","","0.08739136862","","","","","",""
"454","","bandit","92","245383","0.0-54.0-0.0","05070743","wem/bandit_single","A39EBLPHUIPAFH","pain","2","","76","L","3","","0","0","1","","0.0633177824","false","17","","0.2057363858","main_expt","","0.1591778588","","0.1855105105","","0.0633177824","","","","","",""
"1750","","bandit","93","248890","0.0-55.0-0.0","05070743","wem/bandit_single","A39EBLPHUIPAFH","pain","2","","75","K","2","","0","0","1","","0.180786103","false","18","","0.2142317849","main_expt","","0.1612769879","","0.180786103","","0.05969087175","","","","","",""
"1116","","bandit","94","251765","0.0-56.0-0.0","05070743","wem/bandit_single","A39EBLPHUIPAFH","pain","2","","74","J","1","","0","0","1","","0.1706614454","false","19","","0.2416868574","main_expt","","0.1706614454","","0.1867551017","","0.08316546351","","","","","",""
"277","","bandit","95","253800","0.0-57.0-0.0","05070743","wem/bandit_single","A39EBLPHUIPAFH","pain","2","","72","H","0","img/none_selected.jpg","0","1","0","","0.2556662882","false","20","","0.2556662882","main_expt","","0.2173206475","","0.2414580321","","0.08506169859","","","","","",""
"1648","","bandit","96","257207","0.0-58.0-0.0","05070743","wem/bandit_single","A39EBLPHUIPAFH","pain","2","","72","H","0","img/none_selected.jpg","0","1","0","","0.2484624222","false","21","","0.2484624222","main_expt","","0.2297715145","","0.2552731096","","0.08337624199","","","","","",""
"202","","bandit","97","259168","0.0-59.0-0.0","05070743","wem/bandit_single","A39EBLPHUIPAFH","pain","2","","72","H","0","img/none_selected.jpg","0","0","1","","0.3180013331","false","22","","0.3180013331","main_expt","","0.2893552095","","0.2706059063","","0.09400888178","","","","","",""
"930","","bandit","98","261855","0.0-60.0-0.0","05070743","wem/bandit_single","A39EBLPHUIPAFH","pain","2","","76","L","3","","0","0","1","","0.08373077729","false","23","","0.3018869565","main_expt","","0.1756353462","","0.2240124609","","0.08373077729","","","","","",""
"210","","bandit","99","263823","0.0-61.0-0.0","05070743","wem/bandit_single","A39EBLPHUIPAFH","pain","2","","75","K","2","","0","0","1","","0.2337623096","false","24","","0.3479913718","main_expt","","0.144307289","","0.2337623096","","0.07394888686","","","","","",""
"374","","bandit","100","265956","0.0-62.0-0.0","05070743","wem/bandit_single","A39EBLPHUIPAFH","pain","2","","74","J","1","","0","0","1","","0.1103761204","false","25","","0.3851600672","main_expt","","0.1103761204","","0.1992837424","","0.1177231478","","","","","",""
"283","","bandit","101","267998","0.0-63.0-0.0","05070743","wem/bandit_single","A39EBLPHUIPAFH","pain","2","","72","H","0","img/none_selected.jpg","0","1","0","","0.3771699284","false","26","","0.3771699284","main_expt","","0.09313295331","","0.2273902023","","0.1137187285","","","","","",""
"220","","bandit","102","269981","0.0-64.0-0.0","05070743","wem/bandit_single","A39EBLPHUIPAFH","pain","2","","72","H","0","img/none_selected.jpg","0","1","0","","0.3284072512","false","27","","0.3284072512","main_expt","","0.07841862492","","0.2020281611","","0.1380279251","","","","","",""
"173","","bandit","103","271913","0.0-65.0-0.0","05070743","wem/bandit_single","A39EBLPHUIPAFH","pain","2","","72","H","0","img/none_selected.jpg","0","0","1","","0.3708797381","false","28","","0.3708797381","main_expt","","0.0635621653","","0.2121805601","","0.1926536066","","","","","",""
"1277","","bandit","104","274949","0.0-66.0-0.0","05070743","wem/bandit_single","A39EBLPHUIPAFH","pain","2","","72","H","0","img/none_selected.jpg","0","0","1","","0.3630760189","false","29","","0.3630760189","main_expt","","0.04349452081","","0.1986823058","","0.1919064193","","","","","",""
"224","","bandit","105","276932","0.0-67.0-0.0","05070743","wem/bandit_single","A39EBLPHUIPAFH","pain","2","","74","J","1","","0","0","1","","0.06175929786","false","30","","0.3414786107","main_expt","","0.06175929786","","0.2674628916","","0.1767437005","","","","","",""
"340","","bandit","106","279032","0.0-68.0-0.0","05070743","wem/bandit_single","A39EBLPHUIPAFH","pain","2","","74","J","1","","0","0","1","","0.06380111671","false","31","","0.3536929226","main_expt","","0.06380111671","","0.2862820789","","0.2417082081","","","","","",""
"511","","bandit","107","281302","0.0-69.0-0.0","05070743","wem/bandit_single","A39EBLPHUIPAFH","pain","2","","75","K","2","","0","0","1","","0.2895619367","false","32","","0.3238646006","main_expt","","0.08507033619","","0.2895619367","","0.2312742115","","","","","",""
"314","","bandit","108","283376","0.0-70.0-0.0","05070743","wem/bandit_single","A39EBLPHUIPAFH","pain","2","","76","L","3","","0","0","1","","0.2247834387","false","33","","0.3018803865","main_expt","","0.1242974044","","0.312502841","","0.2247834387","","","","","",""
"148","","bandit","109","285283","0.0-71.0-0.0","05070743","wem/bandit_single","A39EBLPHUIPAFH","pain","2","","76","L","3","","0","0","1","","0.1192543008","false","34","","0.2551449341","main_expt","","0.158311101","","0.2830864838","","0.1192543008","","","","","",""
"993","","bandit","110","288034","0.0-72.0-0.0","05070743","wem/bandit_single","A39EBLPHUIPAFH","pain","2","","75","K","2","","0","0","1","","0.2489219385","false","35","","0.3200580053","main_expt","","0.1293969191","","0.2489219385","","0.1336327135","","","","","",""
"146","","bandit","111","289939","0.0-73.0-0.0","05070743","wem/bandit_single","A39EBLPHUIPAFH","pain","2","","74","J","1","","0","1","0","","0.1800853883","false","36","","0.3241899647","main_expt","","0.1800853883","","0.2090346537","","0.09851205292","","","","","",""
"196","","bandit","112","291897","0.0-74.0-0.0","05070743","wem/bandit_single","A39EBLPHUIPAFH","pain","2","","74","J","1","","0","0","1","","0.1025448258","false","37","","0.3029113802","main_expt","","0.1025448258","","0.210385238","","0.05943694951","","","","","",""
"261","","bandit","113","293917","0.0-75.0-0.0","05070743","wem/bandit_single","A39EBLPHUIPAFH","pain","2","","72","H","0","img/none_selected.jpg","0","0","1","","0.2958592888","false","38","","0.2958592888","main_expt","","0.1604021245","","0.162227856","","0.06217728149","","","","","",""
"211","","bandit","114","295887","0.0-76.0-0.0","05070743","wem/bandit_single","A39EBLPHUIPAFH","pain","2","","72","H","0","img/none_selected.jpg","0","0","1","","0.2941945884","false","39","","0.2941945884","main_expt","","0.1336531769","","0.1444893634","","0.08902833973","","","","","",""
"114","","bandit","115","297762","0.0-77.0-0.0","05070743","wem/bandit_single","A39EBLPHUIPAFH","pain","2","","74","J","1","","0","0","1","","0.1356889635","false","40","","0.2784490849","main_expt","","0.1356889635","","0.1340169349","","0.1098655825","","","","","",""
"118","","bandit","116","299640","0.0-78.0-0.0","05070743","wem/bandit_single","A39EBLPHUIPAFH","pain","2","","75","K","2","","0","0","1","","0.1019114547","false","41","","0.2943099773","main_expt","","0.1434276379","","0.1019114547","","0.125718056","","","","","",""
"2","","bandit","117","301406","0.0-79.0-0.0","05070743","wem/bandit_single","A39EBLPHUIPAFH","pain","2","","76","L","3","","0","0","1","","0.07668278466","false","42","","0.2502187242","main_expt","","0.1432973755","","0.07379386716","","0.07668278466","","","","","",""
"29","","bandit","118","303198","0.0-80.0-0.0","05070743","wem/bandit_single","A39EBLPHUIPAFH","pain","2","","75","K","2","","0","0","1","","0.08186566242","false","43","","0.2691097515","main_expt","","0.1605884153","","0.08186566242","","0.08403116819","","","","","",""
"242","","bandit","119","305199","0.0-81.0-0.0","05070743","wem/bandit_single","A39EBLPHUIPAFH","pain","2","","74","J","1","","0","0","1","","0.1396132557","false","44","","0.2601206974","main_expt","","0.1396132557","","0.08692603594","","0.08258467284","","","","","",""
"326","","bandit","120","307284","0.0-82.0-0.0","05070743","wem/bandit_single","A39EBLPHUIPAFH","pain","2","","72","H","0","img/none_selected.jpg","0","1","0","","0.3222012474","false","45","","0.3222012474","main_expt","","0.2250933593","","0.1212470101","","0.07253936928","","","","","",""
"168","","bandit","121","309214","0.0-83.0-0.0","05070743","wem/bandit_single","A39EBLPHUIPAFH","pain","2","","72","H","0","img/none_selected.jpg","0","0","1","","0.3060845752","false","46","","0.3060845752","main_expt","","0.1826421925","","0.134661007","","0.05374479905","","","","","",""
"487","","bandit","122","311462","0.0-84.0-0.0","05070743","wem/bandit_single","A39EBLPHUIPAFH","pain","2","","72","H","0","img/none_selected.jpg","0","1","0","","0.290950603","false","47","","0.290950603","main_expt","","0.1706758886","","0.1377890551","","0.06764850751","","","","","",""
"259","","bandit","123","313484","0.0-85.0-0.0","05070743","wem/bandit_single","A39EBLPHUIPAFH","pain","2","","72","H","0","img/none_selected.jpg","0","0","1","","0.329307254","false","48","","0.329307254","main_expt","","0.1686178854","","0.1325860966","","0.05656727153","","","","","",""
"2584","","bandit","124","317830","0.0-86.0-0.0","05070743","wem/bandit_single","A39EBLPHUIPAFH","pain","2","","74","J","1","","0","0","1","","0.1822379713","false","49","","0.405044281","main_expt","","0.1822379713","","0.1231750139","","0.08131597157","","","","","",""
"304","","bandit","125","319892","0.0-87.0-0.0","05070743","wem/bandit_single","A39EBLPHUIPAFH","pain","2","","75","K","2","","0","0","1","","0.1565964086","false","50","","0.4121919591","main_expt","","0.2513484478","","0.1565964086","","0.08274267654","","","","","",""
"330","","bandit","126","321984","0.0-88.0-0.0","05070743","wem/bandit_single","A39EBLPHUIPAFH","pain","2","","76","L","3","","0","0","1","","0.1154896937","false","51","","0.4271607293","main_expt","","0.2812942615","","0.1464659706","","0.1154896937","","","","","",""
"2227","","bandit","127","325972","0.0-89.0-0.0","05070743","wem/bandit_single","A39EBLPHUIPAFH","pain","2","","72","H","0","img/none_selected.jpg","0","1","0","","0.4249516559","false","52","","0.4249516559","main_expt","","0.2224049931","","0.1196909414","","0.07649260985","","","","","",""
"173","","bandit","128","327903","0.0-90.0-0.0","05070743","wem/bandit_single","A39EBLPHUIPAFH","pain","2","","72","H","0","img/none_selected.jpg","0","0","1","","0.414238899","false","53","","0.414238899","main_expt","","0.2135714686","","0.1578713891","","0.06211708307","","","","","",""
"247","","bandit","129","329912","0.0-91.0-0.0","05070743","wem/bandit_single","A39EBLPHUIPAFH","pain","2","","74","J","1","","0","1","0","","0.2471494284","false","54","","0.4404827494","main_expt","","0.2471494284","","0.1420893662","","0.05122165179","","","","","",""
"2480","","bandit","130","334154","0.0-92.0-0.0","05070743","wem/bandit_single","A39EBLPHUIPAFH","pain","2","","72","H","0","img/none_selected.jpg","0","1","0","","0.4258944343","false","55","","0.4258944343","main_expt","","0.26732004","","0.1255118638","","0.05779626682","","","","","",""
"472","","bandit","131","336388","0.0-93.0-0.0","05070743","wem/bandit_single","A39EBLPHUIPAFH","pain","2","","74","J","1","","0","0","1","","0.258853447","false","56","","0.4058732664","main_expt","","0.258853447","","0.1040792381","","0.06578325953","","","","","",""
"211","","bandit","132","338361","0.0-94.0-0.0","05070743","wem/bandit_single","A39EBLPHUIPAFH","pain","2","","72","H","0","img/none_selected.jpg","0","1","0","","0.4269212616","false","57","","0.4269212616","main_expt","","0.247757255","","0.1058118143","","0.07487929626","","","","","",""
"398","","bandit","133","340522","0.0-95.0-0.0","05070743","wem/bandit_single","A39EBLPHUIPAFH","pain","2","","72","H","0","img/none_selected.jpg","0","1","0","","0.4120073189","false","58","","0.4120073189","main_expt","","0.2380046022","","0.08107820888","","0.05601765109","","","","","",""
"227","","bandit","134","342508","0.0-96.0-0.0","05070743","wem/bandit_single","A39EBLPHUIPAFH","pain","2","","72","H","0","img/none_selected.jpg","0","1","0","","0.367464959","false","59","","0.367464959","main_expt","","0.273239949","","0.115954585","","0.07158824907","","","","","",""
"231","","bandit","135","344502","0.0-97.0-0.0","05070743","wem/bandit_single","A39EBLPHUIPAFH","pain","2","","72","H","0","img/none_selected.jpg","0","1","0","","0.3113576115","false","60","","0.3113576115","main_expt","","0.314936794","","0.190529156","","0.1021813758","","","","","",""
"170","","bandit","136","346433","0.0-98.0-0.0","05070743","wem/bandit_single","A39EBLPHUIPAFH","pain","2","","72","H","0","img/none_selected.jpg","0","0","1","","0.3217665369","false","61","","0.3217665369","main_expt","","0.3361315769","","0.2024767933","","0.1422244628","","","","","",""
"214","","bandit","137","348408","0.0-99.0-0.0","05070743","wem/bandit_single","A39EBLPHUIPAFH","pain","2","","74","J","1","","0","0","1","","0.3012470308","false","62","","0.3396020841","main_expt","","0.3012470308","","0.1478811465","","0.1543762338","","","","","",""
"158","","bandit","138","350329","0.0-100.0-0.0","05070743","wem/bandit_single","A39EBLPHUIPAFH","pain","2","","75","K","2","","0","0","1","","0.1472080331","false","63","","0.3326008901","main_expt","","0.3035933772","","0.1472080331","","0.1957871903","","","","","",""
"214","","bandit","139","352306","0.0-101.0-0.0","05070743","wem/bandit_single","A39EBLPHUIPAFH","pain","2","","76","L","3","","0","0","1","","0.1998827037","false","64","","0.2759567044","main_expt","","0.3061864711","","0.1523556625","","0.1998827037","","","","","",""
"403","","bandit","140","354475","0.0-102.0-0.0","05070743","wem/bandit_single","A39EBLPHUIPAFH","pain","2","","72","H","0","img/none_selected.jpg","0","1","0","","0.330340259","false","65","","0.330340259","main_expt","","0.2795045379","","0.1640586258","","0.2229124218","","","","","",""
"771","","bandit","141","357006","0.0-103.0-0.0","05070743","wem/bandit_single","A39EBLPHUIPAFH","pain","2","","72","H","0","img/none_selected.jpg","0","0","1","","0.394496842","false","66","","0.394496842","main_expt","","0.2624990872","","0.1559289375","","0.2821528041","","","","","",""
"272","","bandit","142","359039","0.0-104.0-0.0","05070743","wem/bandit_single","A39EBLPHUIPAFH","pain","2","","74","J","1","","0","0","1","","0.2316809648","false","67","","0.3780229448","main_expt","","0.2316809648","","0.09042099393","","0.2228434199","","","","","",""
"177","","bandit","143","360978","0.0-105.0-0.0","05070743","wem/bandit_single","A39EBLPHUIPAFH","pain","2","","75","K","2","","0","1","0","","0.08874767337","false","68","","0.313258317","main_expt","","0.2266776066","","0.08874767337","","0.2039549584","","","","","",""
"414","","bandit","144","363157","0.0-106.0-0.0","05070743","wem/bandit_single","A39EBLPHUIPAFH","pain","2","","76","L","3","","0","0","1","","0.1998164138","false","69","","0.3466590849","main_expt","","0.1734363374","","0.09103688118","","0.1998164138","","","","","",""
"457","","bandit","145","365377","0.0-107.0-0.0","05070743","wem/bandit_single","A39EBLPHUIPAFH","pain","2","","72","H","0","img/none_selected.jpg","0","0","1","","0.3389702644","false","70","","0.3389702644","main_expt","","0.1469163378","","0.139461016","","0.1936545157","","","","","",""
"285","","bandit","146","367423","0.0-108.0-0.0","05070743","wem/bandit_single","A39EBLPHUIPAFH","pain","2","","75","K","2","","0","0","1","","0.1269809057","false","71","","0.3037518088","main_expt","","0.1903103683","","0.1269809057","","0.1875420319","","","","","",""
"1696","","bandit","147","370884","0.0-109.0-0.0","05070743","wem/bandit_single","A39EBLPHUIPAFH","pain","2","","74","J","1","","0","0","1","","0.2364630875","false","72","","0.3007282465","main_expt","","0.2364630875","","0.1541032278","","0.2275961541","","","","","",""
"682","","bandit","148","373330","0.0-110.0-0.0","05070743","wem/bandit_single","A39EBLPHUIPAFH","pain","2","","76","L","3","","0","0","1","","0.2485431464","false","73","","0.2796446257","main_expt","","0.2715971604","","0.1618198783","","0.2485431464","","","","","",""
"371","","bandit","149","375463","0.0-111.0-0.0","05070743","wem/bandit_single","A39EBLPHUIPAFH","pain","2","","72","H","0","img/none_selected.jpg","0","0","1","","0.2729876577","false","74","","0.2729876577","main_expt","","0.2716254876","","0.1428156761","","0.2394527842","","","","","",""
"144","","bandit","150","377370","0.0-112.0-0.0","05070743","wem/bandit_single","A39EBLPHUIPAFH","pain","2","","74","J","1","","0","0","1","","0.2998540279","false","75","","0.2067723694","main_expt","","0.2998540279","","0.1312504708","","0.2074684787","","","","","",""
"97","","bandit","151","379228","0.0-113.0-0.0","05070743","wem/bandit_single","A39EBLPHUIPAFH","pain","2","","75","K","2","","0","0","1","","0.1002429729","false","76","","0.2130899639","main_expt","","0.3195890579","","0.1002429729","","0.178133335","","","","","",""
"160","","bandit","152","381151","0.0-114.0-0.0","05070743","wem/bandit_single","A39EBLPHUIPAFH","pain","2","","76","L","3","","0","0","1","","0.1788248706","false","77","","0.2109525889","main_expt","","0.2856322382","","0.07543037954","","0.1788248706","","","","","",""
"573","","bandit","153","383486","0.0-115.0-0.0","05070743","wem/bandit_single","A39EBLPHUIPAFH","pain","2","","76","L","3","","0","0","1","","0.1530293784","false","78","","0.1884332626","main_expt","","0.2919105172","","0.1153668935","","0.1530293784","","","","","",""
"124","","bandit","154","385372","0.0-116.0-0.0","05070743","wem/bandit_single","A39EBLPHUIPAFH","pain","2","","75","K","2","","0","1","0","","0.07716777456","false","79","","0.1883433777","main_expt","","0.2567181874","","0.07716777456","","0.1593806387","","","","","",""
"984","","bandit","155","388119","0.0-117.0-0.0","05070743","wem/bandit_single","A39EBLPHUIPAFH","pain","2","","75","K","2","","0","0","1","","0.08058819474","false","80","","0.1998795799","main_expt","","0.3200023444","","0.08058819474","","0.1428411119","","","","","",""
"734","","bandit","156","390616","0.0-118.0-0.0","05070743","wem/bandit_single","A39EBLPHUIPAFH","pain","2","","74","J","1","","0","0","1","","0.3117755618","false","81","","0.1651756375","main_expt","","0.3117755618","","0.09856946308","","0.1982686668","","","","","",""
"1589","","bandit","157","393968","0.0-119.0-0.0","05070743","wem/bandit_single","A39EBLPHUIPAFH","pain","2","","72","H","0","img/none_selected.jpg","0","0","1","","0.2235829688","false","82","","0.2235829688","main_expt","","0.3379160562","","0.1000946235","","0.2291501313","","","","","",""
"2418","","bandit","158","398146","0.0-120.0-0.0","05070743","wem/bandit_single","A39EBLPHUIPAFH","pain","2","","76","L","3","","0","0","1","","0.2259362275","false","83","","0.2456561592","main_expt","","0.3620865136","","0.06687408093","","0.2259362275","","","","","",""
"99","","bandit","159","400007","0.0-121.0-0.0","05070743","wem/bandit_single","A39EBLPHUIPAFH","pain","2","","75","K","2","","0","0","1","","0.06463964557","false","84","","0.2790354554","main_expt","","0.3904685548","","0.06463964557","","0.1733031115","","","","","",""
"2192","","bandit","160","403960","0.0-122.0-0.0","05070743","wem/bandit_single","A39EBLPHUIPAFH","pain","2","","74","J","1","","0","0","1","","0.4201611698","false","85","","0.2389339959","main_expt","","0.4201611698","","0.09044174456","","0.1577379057","","","","","",""
"172","","bandit","161","405892","0.0-123.0-0.0","05070743","wem/bandit_single","A39EBLPHUIPAFH","pain","2","","72","H","0","img/none_selected.jpg","0","1","0","","0.2905830411","false","86","","0.2905830411","main_expt","","0.4544588035","","0.07242924321","","0.1646880331","","","","","",""
"307","","bandit","162","407960","0.0-124.0-0.0","05070743","wem/bandit_single","A39EBLPHUIPAFH","pain","2","","72","H","0","img/none_selected.jpg","0","0","1","","0.3336128518","false","87","","0.3336128518","main_expt","","0.4444110865","","0.06356931104","","0.157008097","","","","","",""
"270","","bandit","163","409990","0.0-125.0-0.0","05070743","wem/bandit_single","A39EBLPHUIPAFH","pain","2","","74","J","1","","0","0","1","","0.4276611285","false","88","","0.3720796031","main_expt","","0.4276611285","","0.08819972964","","0.14663069","","","","","",""
"1448","","bandit","164","413201","0.0-126.0-0.0","05070743","wem/bandit_single","A39EBLPHUIPAFH","pain","2","","75","K","2","","0","0","1","","0.09388884115","false","89","","0.3383028484","main_expt","","0.395063318","","0.09388884115","","0.1510377787","","","","","",""
"501","","bandit","165","415466","0.0-127.0-0.0","05070743","wem/bandit_single","A39EBLPHUIPAFH","pain","2","","76","L","3","","0","0","1","","0.1600185234","false","90","","0.3550100304","main_expt","","0.3790569413","","0.1265583984","","0.1600185234","","","","","",""
"138","","bandit","166","417367","0.0-128.0-0.0","05070743","wem/bandit_single","A39EBLPHUIPAFH","pain","2","","76","L","3","","0","0","1","","0.1618321768","false","91","","0.4198742783","main_expt","","0.3763017738","","0.09433033469","","0.1618321768","","","","","",""
"211","","bandit","167","419338","0.0-129.0-0.0","05070743","wem/bandit_single","A39EBLPHUIPAFH","pain","2","","75","K","2","","0","0","1","","0.05111462501","false","92","","0.4522920775","main_expt","","0.3829045729","","0.05111462501","","0.1408839615","","","","","",""
"146","","bandit","168","421247","0.0-130.0-0.0","05070743","wem/bandit_single","A39EBLPHUIPAFH","pain","2","","74","J","1","","0","1","0","","0.4155552038","false","93","","0.4572096334","main_expt","","0.4155552038","","0.05378689714","","0.1675332925","","","","","",""
"2925","","bandit","169","425936","0.0-131.0-0.0","05070743","wem/bandit_single","A39EBLPHUIPAFH","pain","2","","74","J","1","","0","0","1","","0.3964247486","false","94","","0.457248447","main_expt","","0.3964247486","","0.04385487208","","0.2154783406","","","","","",""
"201","","bandit","170","427900","0.0-132.0-0.0","05070743","wem/bandit_single","A39EBLPHUIPAFH","pain","2","","72","H","0","img/none_selected.jpg","0","1","0","","0.4284600246","false","95","","0.4284600246","main_expt","","0.4028729744","","0.02374316345","","0.2434825378","","","","","",""
"242","","bandit","171","429905","0.0-133.0-0.0","05070743","wem/bandit_single","A39EBLPHUIPAFH","pain","2","","72","H","0","img/none_selected.jpg","0","0","1","","0.4213934208","false","96","","0.4213934208","main_expt","","0.3937220057","","0.01119532444","","0.300751002","","","","","",""
"211","","bandit","172","431880","0.0-134.0-0.0","05070743","wem/bandit_single","A39EBLPHUIPAFH","pain","2","","74","J","1","","0","1","0","","0.3951408858","false","97","","0.4093218277","main_expt","","0.3951408858","","0.01205949719","","0.2390268827","","","","","",""
"259","","bandit","173","433902","0.0-135.0-0.0","05070743","wem/bandit_single","A39EBLPHUIPAFH","pain","2","","72","H","0","img/none_selected.jpg","0","0","1","","0.4011771953","false","98","","0.4011771953","main_expt","","0.3872505806","","0.02530753644","","0.1872158766","","","","","",""
"262","","bandit","174","435928","0.0-136.0-0.0","05070743","wem/bandit_single","A39EBLPHUIPAFH","pain","2","","74","J","1","","0","1","0","","0.3237376228","false","99","","0.4319140629","main_expt","","0.3237376228","","0.02318317113","","0.2281726053","","","","","",""
"199","","bandit","175","437890","0.0-137.0-0.0","05070743","wem/bandit_single","A39EBLPHUIPAFH","pain","2","","74","J","1","","0","0","1","","0.3840854176","false","100","","0.4388591553","main_expt","","0.3840854176","","0.01577819671","","0.2322026393","","","","","",""
"189","","bandit","176","439843","0.0-138.0-0.0","05070743","wem/bandit_single","A39EBLPHUIPAFH","pain","2","","72","H","0","img/none_selected.jpg","0","1","0","","0.4405661836","false","101","","0.4405661836","main_expt","","0.4043087267","","0.03767304301","","0.2675158553","","","","","",""
"1704","","bandit","177","443310","0.0-139.0-0.0","05070743","wem/bandit_single","A39EBLPHUIPAFH","pain","2","","72","H","0","img/none_selected.jpg","0","0","1","","0.4155134761","false","102","","0.4155134761","main_expt","","0.423372456","","0.03003558128","","0.2334450153","","","","","",""
"348","","bandit","178","445421","0.0-140.0-0.0","05070743","wem/bandit_single","A39EBLPHUIPAFH","pain","2","","74","J","1","","0","0","1","","0.4305794097","false","103","","0.4079284656","main_expt","","0.4305794097","","0.04748945294","","0.2546104349","","","","","",""
"471","","bandit","179","447655","0.0-141.0-0.0","05070743","wem/bandit_single","A39EBLPHUIPAFH","pain","2","","75","K","2","","0","0","1","","0.06674284653","false","104","","0.3827156199","main_expt","","0.4515631957","","0.06674284653","","0.2657782481","","","","","",""
"1015","","bandit","180","450434","0.0-142.0-0.0","05070743","wem/bandit_single","A39EBLPHUIPAFH","pain","2","","76","L","3","","0","0","1","","0.2397797145","false","105","","0.3892206975","main_expt","","0.454723383","","0.0806059128","","0.2397797145","","","","","",""
"892","","bandit","181","453090","0.0-143.0-0.0","05070743","wem/bandit_single","A39EBLPHUIPAFH","pain","2","","75","K","2","","0","0","1","","0.1147522423","false","106","","0.3499671591","main_expt","","0.4487898282","","0.1147522423","","0.1744994936","","","","","",""
"180","","bandit","182","455035","0.0-144.0-0.0","05070743","wem/bandit_single","A39EBLPHUIPAFH","pain","2","","74","J","1","","0","1","0","","0.4300484018","false","107","","0.3378870415","main_expt","","0.4300484018","","0.1225979079","","0.2004436591","","","","","",""
"333","","bandit","183","457131","0.0-145.0-0.0","05070743","wem/bandit_single","A39EBLPHUIPAFH","pain","2","","72","H","0","img/none_selected.jpg","0","0","1","","0.3206855754","false","108","","0.3206855754","main_expt","","0.4056187414","","0.1808232933","","0.1781349215","","","","","",""
"817","","bandit","184","459711","0.0-146.0-0.0","05070743","wem/bandit_single","A39EBLPHUIPAFH","pain","2","","74","J","1","","0","0","1","","0.4145536126","false","109","","0.3412252333","main_expt","","0.4145536126","","0.2004688742","","0.1603989886","","","","","",""
"1305","","bandit","185","462779","0.0-147.0-0.0","05070743","wem/bandit_single","A39EBLPHUIPAFH","pain","2","","75","K","2","","0","1","0","","0.2261403934","false","110","","0.3650365033","main_expt","","0.3897928763","","0.2261403934","","0.1300992081","","","","","",""
"469","","bandit","186","465011","0.0-148.0-0.0","05070743","wem/bandit_single","A39EBLPHUIPAFH","pain","2","","76","L","3","","0","0","1","","0.1740321776","false","111","","0.341048274","main_expt","","0.4150540561","","0.1612973213","","0.1740321776","","","","","",""
"180","","bandit","187","466954","0.0-149.0-0.0","05070743","wem/bandit_single","A39EBLPHUIPAFH","pain","2","","75","K","2","","0","0","1","","0.1655724556","false","112","","0.3254027875","main_expt","","0.4394636757","","0.1655724556","","0.2444477537","","","","","",""
"128","","bandit","188","468847","0.0-150.0-0.0","05070743","wem/bandit_single","A39EBLPHUIPAFH","pain","2","","74","J","1","","0","1","0","","0.4301961846","false","113","","0.308059901","main_expt","","0.4301961846","","0.1319876284","","0.2195244909","","","","","",""
"140","","bandit","189","470755","0.0-151.0-0.0","05070743","wem/bandit_single","A39EBLPHUIPAFH","pain","2","","74","J","1","","0","1","0","","0.4497687286","false","114","","0.3238695313","main_expt","","0.4497687286","","0.1147934267","","0.2719971232","","","","","",""
"85","","bandit","190","472606","0.0-152.0-0.0","05070743","wem/bandit_single","A39EBLPHUIPAFH","pain","2","","74","J","1","","0","0","1","","0.4448888627","false","115","","0.3315084933","main_expt","","0.4448888627","","0.1301750396","","0.2447677414","","","","","",""
"211","","bandit","191","474582","0.0-153.0-0.0","05070743","wem/bandit_single","A39EBLPHUIPAFH","pain","2","","72","H","0","img/none_selected.jpg","0","0","1","","0.3234657333","false","116","","0.3234657333","main_expt","","0.3905844751","","0.130185029","","0.2296513069","","","","","",""
"201","","bandit","192","476545","0.0-154.0-0.0","05070743","wem/bandit_single","A39EBLPHUIPAFH","pain","2","","72","H","0","img/none_selected.jpg","0","0","1","","0.300593156","false","117","","0.300593156","main_expt","","0.424359093","","0.1548944576","","0.2151266314","","","","","",""
"171","","bandit","193","478479","0.0-155.0-0.0","05070743","wem/bandit_single","A39EBLPHUIPAFH","pain","2","","74","J","1","","0","0","1","","0.4121010571","false","118","","0.3585138177","main_expt","","0.4121010571","","0.172903741","","0.1311834018","","","","","",""
"253","","bandit","194","480495","0.0-156.0-0.0","05070743","wem/bandit_single","A39EBLPHUIPAFH","pain","2","","75","K","2","","0","0","1","","0.1707570171","false","119","","0.3062020697","main_expt","","0.4117558181","","0.1707570171","","0.1190099868","","","","","",""
"233","","bandit","195","482493","0.0-157.0-0.0","05070743","wem/bandit_single","A39EBLPHUIPAFH","pain","2","","76","L","3","","0","0","1","","0.1117686876","false","120","","0.3312553157","main_expt","","0.4275669698","","0.1870802187","","0.1117686876","","","","","",""
"174","","bandit","196","484431","0.0-158.0-0.0","05070743","wem/bandit_single","A39EBLPHUIPAFH","pain","2","","75","K","2","","0","0","1","","0.1870161021","false","121","","0.3892509988","main_expt","","0.4428986123","","0.1870161021","","0.1415869423","","","","","",""
"554","","bandit","197","486750","0.0-159.0-0.0","05070743","wem/bandit_single","A39EBLPHUIPAFH","pain","2","","74","J","1","","0","1","0","","0.4376246318","false","122","","0.4330036483","main_expt","","0.4376246318","","0.1926804843","","0.1398412585","","","","","",""
"101","","bandit","198","488616","0.0-160.0-0.0","05070743","wem/bandit_single","A39EBLPHUIPAFH","pain","2","","74","J","1","","0","0","1","","0.4153394585","false","123","","0.4555957022","main_expt","","0.4153394585","","0.2057615037","","0.1163210087","","","","","",""
"2025","","bandit","199","492406","0.0-161.0-0.0","05070743","wem/bandit_single","A39EBLPHUIPAFH","pain","2","","72","H","0","img/none_selected.jpg","0","1","0","","0.4565029776","false","124","","0.4565029776","main_expt","","0.4203389285","","0.2639565913","","0.07344578178","","","","","",""
"310","","bandit","200","494482","0.0-162.0-0.0","05070743","wem/bandit_single","A39EBLPHUIPAFH","pain","2","","72","H","0","img/none_selected.jpg","0","1","0","","0.4511527373","false","125","","0.4511527373","main_expt","","0.3710029205","","0.3672341475","","0.08752025541","","","","","",""
"227","","bandit","201","496473","0.0-163.0-0.0","05070743","wem/bandit_single","A39EBLPHUIPAFH","pain","2","","72","H","0","img/none_selected.jpg","0","0","1","","0.4426171603","false","126","","0.4426171603","main_expt","","0.3465273485","","0.3606148775","","0.1064058914","","","","","",""
"292","","bandit","202","498529","0.0-164.0-0.0","05070743","wem/bandit_single","A39EBLPHUIPAFH","pain","2","","74","J","1","","0","1","0","","0.4106613481","false","127","","0.4259104728","main_expt","","0.4106613481","","0.4079700646","","0.1103525866","","","","","",""
"172","","bandit","203","500465","0.0-165.0-0.0","05070743","wem/bandit_single","A39EBLPHUIPAFH","pain","2","","74","J","1","","0","0","1","","0.4377707947","false","128","","0.4543754413","main_expt","","0.4377707947","","0.4204919645","","0.1060480298","","","","","",""
"321","","bandit","204","502548","0.0-166.0-0.0","05070743","wem/bandit_single","A39EBLPHUIPAFH","pain","2","","75","K","2","","0","0","1","","0.4040923387","false","129","","0.4587533269","main_expt","","0.4481781661","","0.4040923387","","0.1332603285","","","","","",""
"852","","bandit","205","505163","0.0-167.0-0.0","05070743","wem/bandit_single","A39EBLPHUIPAFH","pain","2","","76","L","3","","0","0","1","","0.09182468565","false","130","","0.4618517855","main_expt","","0.4301237728","","0.3906791758","","0.09182468565","","","","","",""
"242","","bandit","206","507168","0.0-168.0-0.0","05070743","wem/bandit_single","A39EBLPHUIPAFH","pain","2","","75","K","2","","0","1","0","","0.380553204","false","131","","0.4622878414","main_expt","","0.4457858875","","0.380553204","","0.09388333002","","","","","",""
"444","","bandit","207","509378","0.0-169.0-0.0","05070743","wem/bandit_single","A39EBLPHUIPAFH","pain","2","","75","K","2","","0","1","0","","0.4000467043","false","132","","0.4624711794","main_expt","","0.4732894157","","0.4000467043","","0.07277513685","","","","","",""
"367","","bandit","208","511508","0.0-170.0-0.0","05070743","wem/bandit_single","A39EBLPHUIPAFH","pain","2","","74","J","1","","0","0","1","","0.4607838047","false","133","","0.4794526202","main_expt","","0.4607838047","","0.3929100345","","0.1108266248","","","","","",""
"1002","","bandit","209","514272","0.0-171.0-0.0","05070743","wem/bandit_single","A39EBLPHUIPAFH","pain","2","","75","K","2","","0","0","1","","0.4009617203","false","134","","0.481632873","main_expt","","0.4663808264","","0.4009617203","","0.1466671782","","","","","",""
"1497","","bandit","210","517533","0.0-172.0-0.0","05070743","wem/bandit_single","A39EBLPHUIPAFH","pain","2","","72","H","0","img/none_selected.jpg","0","1","0","","0.4667599148","false","135","","0.4667599148","main_expt","","0.4625615306","","0.3859426802","","0.1625995743","","","","","",""
"493","","bandit","211","519793","0.0-173.0-0.0","05070743","wem/bandit_single","A39EBLPHUIPAFH","pain","2","","72","H","0","img/none_selected.jpg","0","1","0","","0.4468402508","false","136","","0.4468402508","main_expt","","0.4629143089","","0.4089350186","","0.1555673637","","","","","",""
"159","","bandit","212","521717","0.0-174.0-0.0","05070743","wem/bandit_single","A39EBLPHUIPAFH","pain","2","","72","H","0","img/none_selected.jpg","0","0","1","","0.4331537256","false","137","","0.4331537256","main_expt","","0.4644074349","","0.4009707033","","0.1395554881","","","","","",""
"233","","bandit","213","523712","0.0-175.0-0.0","05070743","wem/bandit_single","A39EBLPHUIPAFH","pain","2","","74","J","1","","0","1","0","","0.4741213624","false","138","","0.4578477473","main_expt","","0.4741213624","","0.4116224971","","0.1387442451","","","","","",""
"192","","bandit","214","525669","0.0-176.0-0.0","05070743","wem/bandit_single","A39EBLPHUIPAFH","pain","2","","74","J","1","","0","1","0","","0.4736492243","false","139","","0.464919911","main_expt","","0.4736492243","","0.4129411324","","0.1693780048","","","","","",""
"157","","bandit","215","527590","0.0-177.0-0.0","05070743","wem/bandit_single","A39EBLPHUIPAFH","pain","2","","74","J","1","","0","0","1","","0.4752570035","false","140","","0.4614371154","main_expt","","0.4752570035","","0.4494235083","","0.1753437518","","","","","",""
"206","","bandit","216","529561","0.0-178.0-0.0","05070743","wem/bandit_single","A39EBLPHUIPAFH","pain","2","","75","K","2","","0","1","0","","0.4453484197","false","141","","0.4747872093","main_expt","","0.4857055712","","0.4453484197","","0.2288512635","","","","","",""
"173","","bandit","217","531499","0.0-179.0-0.0","05070743","wem/bandit_single","A39EBLPHUIPAFH","pain","2","","75","K","2","","0","0","1","","0.4604546146","false","142","","0.4513335087","main_expt","","0.4792724089","","0.4604546146","","0.2579513082","","","","","",""
"513","","bandit","218","533779","0.0-180.0-0.0","05070743","wem/bandit_single","A39EBLPHUIPAFH","pain","2","","76","L","3","","0","0","1","","0.21432658","false","143","","0.4198830698","main_expt","","0.48057755","","0.4826245684","","0.21432658","","","","","",""
"191","","bandit","219","535735","0.0-181.0-0.0","05070743","wem/bandit_single","A39EBLPHUIPAFH","pain","2","","75","K","2","","0","1","0","","0.4890981767","false","144","","0.3673231636","main_expt","","0.4777600445","","0.4890981767","","0.1938021535","","","","","",""
"246","","bandit","220","537746","0.0-182.0-0.0","05070743","wem/bandit_single","A39EBLPHUIPAFH","pain","2","","75","K","2","","0","1","0","","0.4680822138","false","145","","0.3772368795","main_expt","","0.4735071841","","0.4680822138","","0.206497324","","","","","",""
"134","","bandit","221","539643","0.0-183.0-0.0","05070743","wem/bandit_single","A39EBLPHUIPAFH","pain","2","","75","K","2","","0","1","0","","0.4660155258","false","146","","0.3767069828","main_expt","","0.4598241197","","0.4660155258","","0.1857351915","","","","","",""
"170","","bandit","222","541580","0.0-184.0-0.0","05070743","wem/bandit_single","A39EBLPHUIPAFH","pain","2","","75","K","2","","0","0","1","","0.4723880167","false","147","","0.4039806626","main_expt","","0.4279993213","","0.4723880167","","0.1046475439","","","","","",""
"216","","bandit","223","543560","0.0-185.0-0.0","05070743","wem/bandit_single","A39EBLPHUIPAFH","pain","2","","74","J","1","","0","1","0","","0.4422782314","false","148","","0.4178396587","main_expt","","0.4422782314","","0.4692947112","","0.1098111678","","","","","",""
"222","","bandit","224","545547","0.0-186.0-0.0","05070743","wem/bandit_single","A39EBLPHUIPAFH","pain","2","","74","J","1","","0","0","1","","0.4514785706","false","149","","0.3932004216","main_expt","","0.4514785706","","0.4702562614","","0.1221971929","","","","","",""
"996","","bandit","225","548309","0.0-187.0-0.0","05070743","wem/bandit_single","A39EBLPHUIPAFH","pain","2","","75","K","2","","0","0","1","","0.4714094479","false","150","","0.4103897693","main_expt","","0.4189864991","","0.4714094479","","0.1354034315","","","","","",""
"328","","bandit","226","550403","0.0-188.0-0.0","05070743","wem/bandit_single","A39EBLPHUIPAFH","pain","2","","74","J","1","","0","0","1","","0.4389233528","false","151","","0.4122179041","main_expt","","0.4389233528","","0.4761401221","","0.1041822367","","","","","",""
"393","","bandit","227","552560","0.0-189.0-0.0","05070743","wem/bandit_single","A39EBLPHUIPAFH","pain","2","","72","H","0","img/none_selected.jpg","0","0","1","","0.3952463752","false","152","","0.3952463752","main_expt","","0.4244236929","","0.4697737123","","0.09038071171","","","","","",""
"1296","","bandit","228","555621","0.0-190.0-0.0","05070743","wem/bandit_single","A39EBLPHUIPAFH","pain","2","","76","L","3","","0","0","1","","0.08460578514","false","153","","0.3877384472","main_expt","","0.4476471014","","0.446753433","","0.08460578514","","","","","",""
"449","","bandit","229","557837","0.0-191.0-0.0","05070743","wem/bandit_single","A39EBLPHUIPAFH","pain","2","","75","K","2","","0","1","0","","0.4588815304","false","154","","0.3551427127","main_expt","","0.4505336387","","0.4588815304","","0.06957086972","","","","","",""
"526","","bandit","230","560127","0.0-192.0-0.0","05070743","wem/bandit_single","A39EBLPHUIPAFH","pain","2","","75","K","2","","0","0","1","","0.4483664475","false","155","","0.3027898514","main_expt","","0.466992112","","0.4483664475","","0.07570805595","","","","","",""
"587","","bandit","231","562480","0.0-193.0-0.0","05070743","wem/bandit_single","A39EBLPHUIPAFH","pain","2","","74","J","1","","0","1","0","","0.4383448919","false","156","","0.3245978035","main_expt","","0.4383448919","","0.4383670719","","0.1010055374","","","","","",""
"614","","bandit","232","564860","0.0-194.0-0.0","05070743","wem/bandit_single","A39EBLPHUIPAFH","pain","2","","74","J","1","","0","1","0","","0.4181306447","false","157","","0.3293821827","main_expt","","0.4181306447","","0.42990192","","0.09959580587","","","","","",""
"320","","bandit","233","566944","0.0-195.0-0.0","05070743","wem/bandit_single","A39EBLPHUIPAFH","pain","2","","74","J","1","","0","0","1","","0.4322591637","false","158","","0.3053991167","main_expt","","0.4322591637","","0.4112902825","","0.09130540219","","","","","",""
"196","","bandit","234","568905","0.0-196.0-0.0","05070743","wem/bandit_single","A39EBLPHUIPAFH","pain","2","","75","K","2","","0","1","0","","0.4085113589","false","159","","0.3475565739","main_expt","","0.4129829621","","0.4085113589","","0.07080299429","","","","","",""
"370","","bandit","235","571040","0.0-197.0-0.0","05070743","wem/bandit_single","A39EBLPHUIPAFH","pain","2","","75","K","2","","0","1","0","","0.4079314082","false","160","","0.327393219","main_expt","","0.4094933958","","0.4079314082","","0.05017383151","","","","","",""
"158","","bandit","236","572963","0.0-198.0-0.0","05070743","wem/bandit_single","A39EBLPHUIPAFH","pain","2","","75","K","2","","0","0","1","","0.3631501835","false","161","","0.303429729","main_expt","","0.404058003","","0.3631501835","","0.03820476969","","","","","",""
"254","","bandit","237","574983","0.0-199.0-0.0","05070743","wem/bandit_single","A39EBLPHUIPAFH","pain","2","","74","J","1","","0","0","1","","0.3846726044","false","162","","0.3079210788","main_expt","","0.3846726044","","0.3470346279","","0.02512507724","","","","","",""
"197","","bandit","238","576945","0.0-200.0-0.0","05070743","wem/bandit_single","A39EBLPHUIPAFH","pain","2","","75","K","2","","0","1","0","","0.372656257","false","163","","0.3004483846","main_expt","","0.4016559577","","0.372656257","","0.03932379445","","","","","",""
"384","","bandit","239","579097","0.0-201.0-0.0","05070743","wem/bandit_single","A39EBLPHUIPAFH","pain","2","","75","K","2","","0","0","1","","0.3802753243","false","164","","0.2886014424","main_expt","","0.3566256613","","0.3802753243","","0.01829840099","","","","","",""
"291","","bandit","240","581153","0.0-202.0-0.0","05070743","wem/bandit_single","A39EBLPHUIPAFH","pain","2","","74","J","1","","0","1","0","","0.3509524146","false","165","","0.2088325088","main_expt","","0.3509524146","","0.3881672334","","0.02415252971","","","","","",""
"1637","","bandit","241","584554","0.0-203.0-0.0","05070743","wem/bandit_single","A39EBLPHUIPAFH","pain","2","","75","K","2","","0","1","0","","0.359536632","false","166","","0.2160195985","main_expt","","0.2773632025","","0.359536632","","0.02185778449","","","","","",""
"80","","bandit","242","586401","0.0-204.0-0.0","05070743","wem/bandit_single","A39EBLPHUIPAFH","pain","2","","75","K","2","","0","0","1","","0.3693034809","false","167","","0.1836534764","main_expt","","0.3022689801","","0.3693034809","","0.02761124673","","","","","",""
"283","","bandit","243","588451","0.0-205.0-0.0","05070743","wem/bandit_single","A39EBLPHUIPAFH","pain","2","","74","J","1","","0","0","1","","0.2937690027","false","168","","0.1701024481","main_expt","","0.2937690027","","0.3449050916","","0.02160611799","","","","","",""
"817","","bandit","244","591035","0.0-206.0-0.0","05070743","wem/bandit_single","A39EBLPHUIPAFH","pain","2","","74","J","1","","0","0","1","","0.2488586406","false","169","","0.1896079261","main_expt","","0.2488586406","","0.3515710367","","0.02113437328","","","","","",""
"2620","","bandit","245","595420","0.0-207.0-0.0","05070743","wem/bandit_single","A39EBLPHUIPAFH","pain","2","","75","K","2","","0","0","1","","0.3233833909","false","170","","0.2377789273","main_expt","","0.2112819205","","0.3233833909","","0.01292956957","","","","","",""
"864","","bandit","246","598048","0.0-208.0-0.0","05070743","wem/bandit_single","A39EBLPHUIPAFH","pain","2","","76","L","3","","0","0","1","","0.01989811998","false","171","","0.2640247014","main_expt","","0.2217900108","","0.2468086364","","0.01989811998","","","","","",""
"829","","bandit","247","600643","0.0-209.0-0.0","05070743","wem/bandit_single","A39EBLPHUIPAFH","pain","2","","75","K","2","","0","0","1","","0.3408906282","false","172","","0.2055846389","main_expt","","0.2387596097","","0.3408906282","","0.0296351857","","","","","",""
"168","","bandit","248","602577","0.0-210.0-0.0","05070743","wem/bandit_single","A39EBLPHUIPAFH","pain","2","","74","J","1","","0","0","1","","0.2602125502","false","173","","0.2438181894","main_expt","","0.2602125502","","0.3252944763","","0.03540771295","","","","","",""
"189","","bandit","249","604532","0.0-211.0-0.0","05070743","wem/bandit_single","A39EBLPHUIPAFH","pain","2","","72","H","0","img/none_selected.jpg","0","0","1","","0.2733147352","false","174","","0.2733147352","main_expt","","0.2202846771","","0.3200904142","","0.03725130304","","","","","",""
"586","","bandit","250","606886","0.0-212.0-0.0","05070743","wem/bandit_single","A39EBLPHUIPAFH","pain","2","","74","J","1","","0","1","0","","0.233285157","false","175","","0.2767671147","main_expt","","0.233285157","","0.3622659173","","0.03242602151","","","","","",""
"195","","bandit","251","608846","0.0-213.0-0.0","05070743","wem/bandit_single","A39EBLPHUIPAFH","pain","2","","74","J","1","","0","1","0","","0.2264555061","false","176","","0.2195478827","main_expt","","0.2264555061","","0.2937007374","","0.04697917163","","","","","",""
"212","","bandit","252","610826","0.0-214.0-0.0","05070743","wem/bandit_single","A39EBLPHUIPAFH","pain","2","","74","J","1","","0","0","1","","0.241841845","false","177","","0.1515864758","main_expt","","0.241841845","","0.2513366018","","0.04124559051","","","","","",""
"253","","bandit","253","612844","0.0-215.0-0.0","05070743","wem/bandit_single","A39EBLPHUIPAFH","pain","2","","75","K","2","","0","0","1","","0.3159509921","false","178","","0.1618037694","main_expt","","0.2423953475","","0.3159509921","","0.06205026603","","","","","",""
"271","","bandit","254","614884","0.0-216.0-0.0","05070743","wem/bandit_single","A39EBLPHUIPAFH","pain","2","","74","J","1","","0","0","1","","0.2523089652","false","179","","0.1653326191","main_expt","","0.2523089652","","0.2899582247","","0.08412795639","","","","","",""
"1272","","bandit","255","617921","0.0-217.0-0.0","05070743","wem/bandit_single","A39EBLPHUIPAFH","pain","2","","76","L","3","","0","0","1","","0.1304099397","false","180","","0.1751853148","main_expt","","0.2223981335","","0.3371390753","","0.1304099397","","","","","",""
"260","","bandit","256","619949","0.0-218.0-0.0","05070743","wem/bandit_single","A39EBLPHUIPAFH","pain","2","","76","L","3","","0","1","0","","0.1801801058","false","181","","0.211978586","main_expt","","0.2319473409","","0.3365963609","","0.1801801058","","","","","",""
"258","","bandit","257","621970","0.0-219.0-0.0","05070743","wem/bandit_single","A39EBLPHUIPAFH","pain","2","","76","L","3","","0","0","1","","0.1951504204","false","182","","0.2323199139","main_expt","","0.2338578761","","0.2643366398","","0.1951504204","","","","","",""
"27","","bandit","258","623766","0.0-220.0-0.0","05070743","wem/bandit_single","A39EBLPHUIPAFH","pain","2","","75","K","2","","0","0","1","","0.2464000872","false","183","","0.2252803731","main_expt","","0.265472663","","0.2464000872","","0.2330781564","","","","","",""
"455","","bandit","259","625985","0.0-221.0-0.0","05070743","wem/bandit_single","A39EBLPHUIPAFH","pain","2","","74","J","1","","0","0","1","","0.2826161147","false","184","","0.1614269484","main_expt","","0.2826161147","","0.3039071009","","0.2711395555","","","","","",""
"192","","bandit","260","627943","0.0-222.0-0.0","05070743","wem/bandit_single","A39EBLPHUIPAFH","pain","2","","72","H","0","img/none_selected.jpg","0","0","1","","0.1636939604","false","185","","0.1636939604","main_expt","","0.2542525597","","0.3100879913","","0.2182249031","","","","","",""
"262","","bandit","261","629970","0.0-223.0-0.0","05070743","wem/bandit_single","A39EBLPHUIPAFH","pain","2","","72","H","0","img/none_selected.jpg","0","0","1","","0.1744134641","false","186","","0.1744134641","main_expt","","0.260460085","","0.28505789","","0.2609412602","","","","","",""
"1314","","bandit","262","633051","0.0-224.0-0.0","05070743","wem/bandit_single","A39EBLPHUIPAFH","pain","2","","74","J","1","","0","0","1","","0.2119714508","false","187","","0.1955069844","main_expt","","0.2119714508","","0.2698122055","","0.2242136054","","","","","",""
"323","","bandit","263","635140","0.0-225.0-0.0","05070743","wem/bandit_single","A39EBLPHUIPAFH","pain","2","","75","K","2","","0","0","1","","0.2270240414","false","188","","0.2289740151","main_expt","","0.1887053186","","0.2270240414","","0.2404864381","","","","","",""
"679","","bandit","264","637585","0.0-226.0-0.0","05070743","wem/bandit_single","A39EBLPHUIPAFH","pain","2","","76","L","3","","0","0","1","","0.2177927796","false","189","","0.2495887903","main_expt","","0.1944753942","","0.2182158859","","0.2177927796","","","","","",""
"2343","","bandit","265","641694","0.0-227.0-0.0","05070743","wem/bandit_single","A39EBLPHUIPAFH","pain","2","","75","K","2","","0","0","1","","0.2445882628","false","190","","0.2815424982","main_expt","","0.2163673671","","0.2445882628","","0.2445379922","","","","","",""
"659","","bandit","266","644117","0.0-228.0-0.0","05070743","wem/bandit_single","A39EBLPHUIPAFH","pain","2","","76","L","3","","0","1","0","","0.2910265903","false","191","","0.2401402076","main_expt","","0.2584180811","","0.2733302752","","0.2910265903","","","","","",""
"157","","bandit","267","646040","0.0-229.0-0.0","05070743","wem/bandit_single","A39EBLPHUIPAFH","pain","2","","76","L","3","","0","1","0","","0.3095983682","false","192","","0.2510809658","main_expt","","0.2555063139","","0.2776932955","","0.3095983682","","","","","",""
"144","","bandit","268","647952","0.0-230.0-0.0","05070743","wem/bandit_single","A39EBLPHUIPAFH","pain","2","","76","L","3","","0","1","0","","0.3217156539","false","193","","0.2875405407","main_expt","","0.2694863875","","0.3335190616","","0.3217156539","","","","","",""
"163","","bandit","269","649880","0.0-231.0-0.0","05070743","wem/bandit_single","A39EBLPHUIPAFH","pain","2","","76","L","3","","0","1","0","","0.278878796","false","194","","0.2183543786","main_expt","","0.2894821148","","0.3308991278","","0.278878796","","","","","",""
"141","","bandit","270","651786","0.0-232.0-0.0","05070743","wem/bandit_single","A39EBLPHUIPAFH","pain","2","","76","L","3","","0","0","1","","0.2738334973","false","195","","0.2626349305","main_expt","","0.3028339589","","0.3676749275","","0.2738334973","","","","","",""
"965","","bandit","271","654517","0.0-233.0-0.0","05070743","wem/bandit_single","A39EBLPHUIPAFH","pain","2","","75","K","2","","0","0","1","","0.3523241719","false","196","","0.2046446137","main_expt","","0.3051171059","","0.3523241719","","0.2494818112","","","","","",""
"235","","bandit","272","656518","0.0-234.0-0.0","05070743","wem/bandit_single","A39EBLPHUIPAFH","pain","2","","76","L","3","","0","1","0","","0.2620473779","false","197","","0.2122082762","main_expt","","0.2901305303","","0.3874168703","","0.2620473779","","","","","",""
"194","","bandit","273","658479","0.0-235.0-0.0","05070743","wem/bandit_single","A39EBLPHUIPAFH","pain","2","","76","L","3","","0","0","1","","0.3153682745","false","198","","0.1962120249","main_expt","","0.2403600488","","0.4072223947","","0.3153682745","","","","","",""
"271","","bandit","274","660520","0.0-236.0-0.0","05070743","wem/bandit_single","A39EBLPHUIPAFH","pain","2","","76","L","3","","0","0","1","","0.2424407548","false","199","","0.1840541487","main_expt","","0.2034733728","","0.4284861426","","0.2424407548","","","","","",""
"217","","bandit","275","662503","0.0-237.0-0.0","05070743","wem/bandit_single","A39EBLPHUIPAFH","pain","2","","75","K","2","","0","0","1","","0.4181746593","false","200","","0.1575563837","main_expt","","0.2193557146","","0.4181746593","","0.2692586032","","","","","",""
"216","","bandit","276","664487","0.0-238.0-0.0","05070743","wem/bandit_single","A39EBLPHUIPAFH","pain","2","","76","L","3","","0","0","1","","0.2605377594","false","201","","0.138860739","main_expt","","0.2412650678","","0.4134190678","","0.2605377594","","","","","",""
"358","","bandit","277","666612","0.0-239.0-0.0","05070743","wem/bandit_single","A39EBLPHUIPAFH","pain","2","","75","K","2","","0","0","1","","0.4255663607","false","202","","0.1216759056","main_expt","","0.2106041824","","0.4255663607","","0.2372211354","","","","","",""
"258","","bandit","278","668636","0.0-240.0-0.0","05070743","wem/bandit_single","A39EBLPHUIPAFH","pain","2","","74","J","1","","0","0","1","","0.2182463191","false","203","","0.1085797693","main_expt","","0.2182463191","","0.4267176133","","0.20896917","","","","","",""
"217","","bandit","279","670622","0.0-241.0-0.0","05070743","wem/bandit_single","A39EBLPHUIPAFH","pain","2","","72","H","0","img/none_selected.jpg","0","0","1","","0.08750272662","false","204","","0.08750272662","main_expt","","0.2060997213","","0.460819217","","0.2277156902","","","","","",""
"483","","bandit","280","672871","0.0-242.0-0.0","05070743","wem/bandit_single","A39EBLPHUIPAFH","pain","2","","72","H","0","img/none_selected.jpg","0","0","1","","0.1119911725","false","205","","0.1119911725","main_expt","","0.2179237498","","0.4797370756","","0.2096017385","","","","","",""
"131","","bandit","281","674768","0.0-243.0-0.0","05070743","wem/bandit_single","A39EBLPHUIPAFH","pain","2","","74","J","1","","0","0","1","","0.194566176","false","206","","0.105166696","main_expt","","0.194566176","","0.4850202511","","0.2293009918","","","","","",""
"157","","bandit","282","676690","0.0-244.0-0.0","05070743","wem/bandit_single","A39EBLPHUIPAFH","pain","2","","75","K","2","","0","1","0","","0.4588339162","false","207","","0.07428909222","main_expt","","0.2540459421","","0.4588339162","","0.2613461541","","","","","",""
"170","","bandit","283","678626","0.0-245.0-0.0","05070743","wem/bandit_single","A39EBLPHUIPAFH","pain","2","","75","K","2","","0","0","1","","0.4704498371","false","208","","0.08415887516","main_expt","","0.2165425212","","0.4704498371","","0.2921374763","","","","","",""
"381","","bandit","284","680776","0.0-246.0-0.0","05070743","wem/bandit_single","A39EBLPHUIPAFH","pain","2","","76","L","3","","0","0","1","","0.2679345114","false","209","","0.05558253146","main_expt","","0.1808740619","","0.4498430745","","0.2679345114","","","","","",""
"252","","bandit","285","682795","0.0-247.0-0.0","05070743","wem/bandit_single","A39EBLPHUIPAFH","pain","2","","76","L","3","","0","0","1","","0.2356021564","false","210","","0.04914985493","main_expt","","0.2298827717","","0.4463117693","","0.2356021564","","","","","",""
"203","","bandit","286","684763","0.0-248.0-0.0","05070743","wem/bandit_single","A39EBLPHUIPAFH","pain","2","","75","K","2","","0","1","0","","0.422163821","false","211","","0.03798033643","main_expt","","0.2533880575","","0.422163821","","0.2152320876","","","","","",""
"137","","bandit","287","686668","0.0-249.0-0.0","05070743","wem/bandit_single","A39EBLPHUIPAFH","pain","2","","75","K","2","","0","0","1","","0.3852039581","false","212","","0.03974322714","main_expt","","0.2771241442","","0.3852039581","","0.2216595069","","","","","",""
"319","","bandit","288","688756","0.0-250.0-0.0","05070743","wem/bandit_single","A39EBLPHUIPAFH","pain","2","","75","K","2","","0","1","0","","0.3822954745","false","213","","0.02384455773","main_expt","","0.3010302337","","0.3822954745","","0.2150176613","","","","","",""
"95","","bandit","289","690619","0.0-251.0-0.0","05070743","wem/bandit_single","A39EBLPHUIPAFH","pain","2","","75","K","2","","0","1","0","","0.3608549874","false","214","","0.03216660231","main_expt","","0.3409008015","","0.3608549874","","0.1772129937","","","","","",""
"1125","","bandit","290","693510","0.0-252.0-0.0","05070743","wem/bandit_single","A39EBLPHUIPAFH","pain","2","","75","K","2","","0","0","1","","0.3621739951","false","215","","0.03095464101","main_expt","","0.3227810677","","0.3621739951","","0.1584975441","","","","","",""
"1010","","bandit","291","696289","0.0-253.0-0.0","05070743","wem/bandit_single","A39EBLPHUIPAFH","pain","2","","75","K","2","","0","0","1","","0.3733564142","false","216","","0.04011500866","main_expt","","0.3636386285","","0.3733564142","","0.1256434713","","","","","",""
"79","","bandit","292","698136","0.0-254.0-0.0","05070743","wem/bandit_single","A39EBLPHUIPAFH","pain","2","","76","L","3","","0","0","1","","0.1601534085","false","217","","0.02351309264","main_expt","","0.3649758886","","0.3856473275","","0.1601534085","","","","","",""
"4925","","bandit","293","704829","0.0-255.0-0.0","05070743","wem/bandit_single","A39EBLPHUIPAFH","pain","2","","72","H","0","img/none_selected.jpg","0","0","1","","0.01650540734","false","218","","0.01650540734","main_expt","","0.3641131336","","0.3645608201","","0.1514518834","","","","","",""
"363","","bandit","294","706960","0.0-256.0-0.0","05070743","wem/bandit_single","A39EBLPHUIPAFH","pain","2","","72","H","0","img/none_selected.jpg","0","0","1","","0.03577324375","false","219","","0.03577324375","main_expt","","0.341156599","","0.3851453746","","0.2415223947","","","","","",""
"111","","bandit","295","708839","0.0-257.0-0.0","05070743","wem/bandit_single","A39EBLPHUIPAFH","pain","2","","74","J","1","","0","1","0","","0.266049218","false","220","","0.03655385126","main_expt","","0.266049218","","0.4075423229","","0.2248182851","","","","","",""
"115","","bandit","296","710721","0.0-258.0-0.0","05070743","wem/bandit_single","A39EBLPHUIPAFH","pain","2","","74","J","1","","0","0","1","","0.2359154628","false","221","","0.03282050992","main_expt","","0.2359154628","","0.4083347012","","0.2588925836","","","","","",""
"63","","bandit","297","712554","0.0-259.0-0.0","05070743","wem/bandit_single","A39EBLPHUIPAFH","pain","2","","74","J","1","","0","1","0","","0.2640726019","false","222","","0.02558717114","main_expt","","0.2640726019","","0.4083223781","","0.2025188389","","","","","",""
"104","","bandit","298","714425","0.0-260.0-0.0","05070743","wem/bandit_single","A39EBLPHUIPAFH","pain","2","","74","J","1","","0","0","1","","0.1860418506","false","223","","0.04788205671","main_expt","","0.1860418506","","0.4240474742","","0.1609755914","","","","","",""
"132","","bandit","299","716323","0.0-261.0-0.0","05070743","wem/bandit_single","A39EBLPHUIPAFH","pain","2","","74","J","1","","0","1","0","","0.151875944","false","224","","0.05498715651","main_expt","","0.151875944","","0.4346876605","","0.2316748255","","","","","",""
"91","","bandit","300","718181","0.0-262.0-0.0","05070743","wem/bandit_single","A39EBLPHUIPAFH","pain","2","","74","J","1","","0","0","1","","0.1209973656","false","225","","0.056476577","main_expt","","0.1209973656","","0.4541072866","","0.1605893144","","","","","",""
"854","","bandit","301","720801","0.0-263.0-0.0","05070743","wem/bandit_single","A39EBLPHUIPAFH","pain","2","","74","J","1","","0","0","1","","0.1503457952","false","226","","0.06361054401","main_expt","","0.1503457952","","0.4239515892","","0.1389366963","","","","","",""
"211","","bandit","302","722782","0.0-264.0-0.0","05070743","wem/bandit_single","A39EBLPHUIPAFH","pain","2","","75","K","2","","0","1","0","","0.4122914309","false","227","","0.03819722012","main_expt","","0.1784166707","","0.4122914309","","0.09987042713","","","","","",""
"177","","bandit","303","724725","0.0-265.0-0.0","05070743","wem/bandit_single","A39EBLPHUIPAFH","pain","2","","75","K","2","","0","0","1","","0.4022765074","false","228","","0.03706892342","main_expt","","0.1729157366","","0.4022765074","","0.1511988136","","","","","",""
"136","","bandit","304","726627","0.0-266.0-0.0","05070743","wem/bandit_single","A39EBLPHUIPAFH","pain","2","","74","J","1","","0","1","0","","0.2035050609","false","229","","0.05619366589","main_expt","","0.2035050609","","0.3991813765","","0.1165125066","","","","","",""
"210","","bandit","305","728605","0.0-267.0-0.0","05070743","wem/bandit_single","A39EBLPHUIPAFH","pain","2","","75","K","2","","0","1","0","","0.3771825363","false","230","","0.02398835026","main_expt","","0.1677195288","","0.3771825363","","0.09058018373","","","","","",""
"399","","bandit","306","730773","0.0-268.0-0.0","05070743","wem/bandit_single","A39EBLPHUIPAFH","pain","2","","74","J","1","","0","0","1","","0.1568417205","false","231","","0.01087418165","main_expt","","0.1568417205","","0.4081115595","","0.1254599363","","","","","",""
"200","","bandit","307","732738","0.0-269.0-0.0","05070743","wem/bandit_single","A39EBLPHUIPAFH","pain","2","","75","K","2","","0","1","0","","0.4227202023","false","232","","0.005667282796","main_expt","","0.1733774055","","0.4227202023","","0.09699218641","","","","","",""
"201","","bandit","308","734710","0.0-270.0-0.0","05070743","wem/bandit_single","A39EBLPHUIPAFH","pain","2","","75","K","2","","0","1","0","","0.4267606383","false","233","","0.00711790457","main_expt","","0.2318808439","","0.4267606383","","0.07122003092","","","","","",""
"1320","","bandit","309","737798","0.0-271.0-0.0","05070743","wem/bandit_single","A39EBLPHUIPAFH","pain","2","","75","K","2","","0","0","1","","0.4076790224","false","234","","0.01087448681","main_expt","","0.2728484722","","0.4076790224","","0.07078025717","","","","","",""
"157","","bandit","310","739723","0.0-272.0-0.0","05070743","wem/bandit_single","A39EBLPHUIPAFH","pain","2","","74","J","1","","0","0","1","","0.230842538","false","235","","0.008183852991","main_expt","","0.230842538","","0.3750136452","","0.04546889639","","","","","",""
"750","","bandit","311","742240","0.0-273.0-0.0","05070743","wem/bandit_single","A39EBLPHUIPAFH","pain","2","","76","L","3","","0","0","1","","0.07949547843","false","236","","0.00957014591","main_expt","","0.2565969246","","0.3579900966","","0.07949547843","","","","","",""
"610","","bandit","312","744618","0.0-274.0-0.0","05070743","wem/bandit_single","A39EBLPHUIPAFH","pain","2","","72","H","0","img/none_selected.jpg","0","0","1","","0.02345003211","false","237","","0.02345003211","main_expt","","0.2661079812","","0.3685919787","","0.06498208703","","","","","",""
"116","","bandit","313","746502","0.0-275.0-0.0","05070743","wem/bandit_single","A39EBLPHUIPAFH","pain","2","","74","J","1","","0","0","1","","0.3192940022","false","238","","0.02056264696","main_expt","","0.3192940022","","0.3220789964","","0.07283675032","","","","","",""
"130","","bandit","314","748400","0.0-276.0-0.0","05070743","wem/bandit_single","A39EBLPHUIPAFH","pain","2","","75","K","2","","0","0","1","","0.3059519391","false","239","","0.02436326326","main_expt","","0.3150738333","","0.3059519391","","0.08723568047","","","","","",""
"147","","bandit","315","750317","0.0-277.0-0.0","05070743","wem/bandit_single","A39EBLPHUIPAFH","pain","2","","76","L","3","","0","0","1","","0.06404566497","false","240","","0.0242835944","main_expt","","0.3008600842","","0.3168560559","","0.06404566497","","","","","",""
"196","","bandit","316","752284","0.0-278.0-0.0","05070743","wem/bandit_single","A39EBLPHUIPAFH","pain","2","","75","K","2","","0","1","0","","0.269391424","false","241","","0.02652021178","main_expt","","0.2677087501","","0.269391424","","0.05187051438","","","","","",""
"231","","bandit","317","754282","0.0-279.0-0.0","05070743","wem/bandit_single","A39EBLPHUIPAFH","pain","2","","75","K","2","","0","0","1","","0.2061132751","false","242","","0.0264543433","main_expt","","0.2645585527","","0.2061132751","","0.04056120823","","","","","",""
"226","","bandit","318","756280","0.0-280.0-0.0","05070743","wem/bandit_single","A39EBLPHUIPAFH","pain","2","","75","K","2","","0","0","1","","0.1996760118","false","243","","0.02176476481","main_expt","","0.2793098336","","0.1996760118","","0.02806248696","","","","","",""
"233","","bandit","319","758281","0.0-281.0-0.0","05070743","wem/bandit_single","A39EBLPHUIPAFH","pain","2","","74","J","1","","0","0","1","","0.285685864","false","244","","0.01301534777","main_expt","","0.285685864","","0.1719334629","","0.04063524207","","","","","",""
"224","","bandit","320","760275","0.0-282.0-0.0","05070743","wem/bandit_single","A39EBLPHUIPAFH","pain","2","","72","H","0","img/none_selected.jpg","0","0","1","","0.02332936253","false","245","","0.02332936253","main_expt","","0.2792363563","","0.2264626889","","0.03258124644","","","","","",""
"285","","bandit","321","762330","0.0-283.0-0.0","05070743","wem/bandit_single","A39EBLPHUIPAFH","pain","2","","74","J","1","","0","0","1","","0.2721020884","false","246","","0.02379131239","main_expt","","0.2721020884","","0.2097999869","","0.034431304","","","","","",""
"189","","bandit","322","764288","0.0-284.0-0.0","05070743","wem/bandit_single","A39EBLPHUIPAFH","pain","2","","75","K","2","","0","1","0","","0.2190078117","false","247","","0.02988301985","main_expt","","0.2784836582","","0.2190078117","","0.0335896152","","","","","",""
"122","","bandit","323","766178","0.0-285.0-0.0","05070743","wem/bandit_single","A39EBLPHUIPAFH","pain","2","","75","K","2","","0","0","1","","0.214739415","false","248","","0.04121629219","main_expt","","0.2155360038","","0.214739415","","0.0373608022","","","","","",""
"7","","bandit","324","767955","0.0-286.0-0.0","05070743","wem/bandit_single","A39EBLPHUIPAFH","pain","2","","75","K","2","","0","1","0","","0.2361668487","false","249","","0.03081548873","main_expt","","0.2182269439","","0.2361668487","","0.04629433077","","","","","",""
"180","","bandit","325","769906","0.0-287.0-0.0","05070743","wem/bandit_single","A39EBLPHUIPAFH","pain","2","","75","K","2","","0","0","1","","0.2730147117","false","250","","0.02831669856","main_expt","","0.2794373206","","0.2730147117","","0.04794370872","","","","","",""
"168","","bandit","326","771841","0.0-288.0-0.0","05070743","wem/bandit_single","A39EBLPHUIPAFH","pain","2","","75","K","2","","0","0","1","","0.2591269664","false","251","","0.02600870455","main_expt","","0.2925698281","","0.2591269664","","0.06568157066","","","","","",""
"213","","bandit","327","773822","0.0-289.0-0.0","05070743","wem/bandit_single","A39EBLPHUIPAFH","pain","2","","76","L","3","","0","1","0","","0.07567030371","false","252","","0.02705961599","main_expt","","0.2727886948","","0.3091321407","","0.07567030371","","","","","",""
"417","","bandit","328","776011","0.0-290.0-0.0","05070743","wem/bandit_single","A39EBLPHUIPAFH","pain","2","","76","L","3","","0","0","1","","0.06628052114","false","253","","0.01805963102","main_expt","","0.2470803404","","0.2284010385","","0.06628052114","","","","","",""
"870","","bandit","329","778650","0.0-291.0-0.0","05070743","wem/bandit_single","A39EBLPHUIPAFH","pain","2","","75","K","2","","0","1","0","","0.2452739286","false","254","","0.01631706542","main_expt","","0.3366881304","","0.2452739286","","0.08321976201","","","","","",""
"308","","bandit","330","780728","0.0-292.0-0.0","05070743","wem/bandit_single","A39EBLPHUIPAFH","pain","2","","75","K","2","","0","1","0","","0.2769296881","false","255","","0.01966147099","main_expt","","0.3781216995","","0.2769296881","","0.1379446817","","","","","",""
"137","","bandit","331","782634","0.0-293.0-0.0","05070743","wem/bandit_single","A39EBLPHUIPAFH","pain","2","","75","K","2","","0","0","1","","0.222598086","false","256","","0.02801527349","main_expt","","0.3565974786","","0.222598086","","0.1104053019","","","","","",""
"32","","bandit","332","784434","0.0-294.0-0.0","05070743","wem/bandit_single","A39EBLPHUIPAFH","pain","2","","76","L","3","","0","0","1","","0.110095483","false","257","","0.02393064904","main_expt","","0.3668333327","","0.2497605863","","0.110095483","","","","","",""
"225","","bandit","333","786429","0.0-295.0-0.0","05070743","wem/bandit_single","A39EBLPHUIPAFH","pain","2","","75","K","2","","0","0","1","","0.248028097","false","258","","0.01715644076","main_expt","","0.3978392262","","0.248028097","","0.09250214804","","","","","",""
"204","","bandit","334","788400","0.0-296.0-0.0","05070743","wem/bandit_single","A39EBLPHUIPAFH","pain","2","","74","J","1","","0","0","1","","0.3892622443","false","259","","0.01812234738","main_expt","","0.3892622443","","0.210079309","","0.1288972452","","","","","",""
"211","","bandit","335","790379","0.0-297.0-0.0","05070743","wem/bandit_single","A39EBLPHUIPAFH","pain","2","","72","H","0","img/none_selected.jpg","0","0","1","","0.01699252537","false","260","","0.01699252537","main_expt","","0.3787635018","","0.1785868889","","0.127844668","","","","","",""
"305","","bandit","336","792453","0.0-298.0-0.0","05070743","wem/bandit_single","A39EBLPHUIPAFH","pain","2","","75","K","2","","0","1","0","","0.1855690742","false","261","","0.02027773674","main_expt","","0.4151771386","","0.1855690742","","0.1408125104","","","","","",""
"158","","bandit","337","794383","0.0-299.0-0.0","05070743","wem/bandit_single","A39EBLPHUIPAFH","pain","2","","75","K","2","","0","0","1","","0.2454672077","false","262","","0.008159173947","main_expt","","0.4184001904","","0.2454672077","","0.1423762304","","","","","",""
"193","","bandit","338","796346","0.0-300.0-0.0","05070743","wem/bandit_single","A39EBLPHUIPAFH","pain","2","","76","L","3","","0","0","1","","0.1237094287","false","263","","0.00730364875","main_expt","","0.4397427278","","0.2423041147","","0.1237094287","","","","","",""
"71","","bandit","339","798190","0.0-301.0-0.0","05070743","wem/bandit_single","A39EBLPHUIPAFH","pain","2","","76","L","3","","0","0","1","","0.1110826985","false","264","","0.008891010149","main_expt","","0.4308816061","","0.2771483686","","0.1110826985","","","","","",""
"148","","bandit","340","800106","0.0-302.0-0.0","05070743","wem/bandit_single","A39EBLPHUIPAFH","pain","2","","75","K","2","","0","1","0","","0.2066329382","false","265","","0.009434589262","main_expt","","0.4310956018","","0.2066329382","","0.09816719149","","","","","",""
"110","","bandit","341","801984","0.0-303.0-0.0","05070743","wem/bandit_single","A39EBLPHUIPAFH","pain","2","","75","K","2","","0","0","1","","0.1954640054","false","266","","0.009503255165","main_expt","","0.4462346174","","0.1954640054","","0.1313615454","","","","","",""
"90","","bandit","342","803847","0.0-304.0-0.0","05070743","wem/bandit_single","A39EBLPHUIPAFH","pain","2","","75","K","2","","0","0","1","","0.132533774","false","267","","0.01294763698","main_expt","","0.4649068607","","0.132533774","","0.1039649444","","","","","",""
"145","","bandit","343","805761","0.0-305.0-0.0","05070743","wem/bandit_single","A39EBLPHUIPAFH","pain","2","","75","K","2","","0","0","1","","0.1212355483","false","268","","0.01002763249","main_expt","","0.4499385749","","0.1212355483","","0.0758663636","","","","","",""
"336","","bandit","344","807867","0.0-306.0-0.0","05070743","wem/bandit_single","A39EBLPHUIPAFH","pain","2","","74","J","1","","0","0","1","","0.4702815535","false","269","","0.009339874814","main_expt","","0.4702815535","","0.1363236216","","0.08641939852","","","","","",""
"108","","bandit","345","809745","0.0-307.0-0.0","05070743","wem/bandit_single","A39EBLPHUIPAFH","pain","2","","74","J","1","","0","0","1","","0.4738293899","false","270","","0.0101894737","main_expt","","0.4738293899","","0.1061923246","","0.08694739741","","","","","",""
"716","","bandit","346","812230","0.0-308.0-0.0","05070743","wem/bandit_single","A39EBLPHUIPAFH","pain","2","","72","H","0","img/none_selected.jpg","0","0","1","","0.0101062795","false","271","","0.0101062795","main_expt","","0.4552130477","","0.09682021381","","0.07507278363","","","","","",""
"2782","","bandit","347","816783","0.0-309.0-0.0","05070743","wem/bandit_single","A39EBLPHUIPAFH","pain","2","","76","L","3","","0","0","1","","0.09002305832","false","272","","0.009276773287","main_expt","","0.4571227508","","0.0728164368","","0.09002305832","","","","","",""
"1448","","bandit","348","820000","0.0-310.0-0.0","05070743","wem/bandit_single","A39EBLPHUIPAFH","pain","2","","75","K","2","","0","0","1","","0.1026255411","false","273","","0.0113492324","main_expt","","0.4262778794","","0.1026255411","","0.07941117108","","","","","",""
"424","","bandit","349","822193","0.0-311.0-0.0","05070743","wem/bandit_single","A39EBLPHUIPAFH","pain","2","","75","K","2","","0","0","1","","0.08683802548","false","274","","0.005483919941","main_expt","","0.4017895895","","0.08683802548","","0.09301171309","","","","","",""
"385","","bandit","350","824349","0.0-312.0-0.0","05070743","wem/bandit_single","A39EBLPHUIPAFH","pain","2","","74","J","1","","0","0","1","","0.4017548056","false","275","","0.00462874381","main_expt","","0.4017548056","","0.08250982893","","0.1012072593","","","","","",""
"277","","bandit","351","826394","0.0-313.0-0.0","05070743","wem/bandit_single","A39EBLPHUIPAFH","pain","2","","72","H","0","img/none_selected.jpg","0","0","1","","0.009610611089","false","276","","0.009610611089","main_expt","","0.4072561249","","0.06031930624","","0.1230964009","","","","","",""
"1425","","bandit","352","829589","0.0-314.0-0.0","05070743","wem/bandit_single","A39EBLPHUIPAFH","pain","2","","76","L","3","","0","0","1","","0.1320105939","false","277","","0.01319252808","main_expt","","0.3248287115","","0.07169075363","","0.1320105939","","","","","",""
"226","","bandit","353","831582","0.0-315.0-0.0","05070743","wem/bandit_single","A39EBLPHUIPAFH","pain","2","","76","L","3","","0","0","1","","0.100271112","false","278","","0.008560453299","main_expt","","0.2954662343","","0.119525529","","0.100271112","","","","","",""
"188","","bandit","354","833538","0.0-316.0-0.0","05070743","wem/bandit_single","A39EBLPHUIPAFH","pain","2","","75","K","2","","0","0","1","","0.05136608794","false","279","","0.02270234009","main_expt","","0.3430788315","","0.05136608794","","0.0752783975","","","","","",""
"419","","bandit","355","835728","0.0-317.0-0.0","05070743","wem/bandit_single","A39EBLPHUIPAFH","pain","2","","75","K","2","","0","0","1","","0.06692305053","false","280","","0.01842994591","main_expt","","0.298888987","","0.06692305053","","0.04609407158","","","","","",""
"172","","bandit","356","837669","0.0-318.0-0.0","05070743","wem/bandit_single","A39EBLPHUIPAFH","pain","2","","74","J","1","","0","0","1","","0.317374049","false","281","","0.01750385803","main_expt","","0.317374049","","0.08594942048","","0.05874754036","","","","","",""
"754","","bandit","357","840190","0.0-319.0-0.0","05070743","wem/bandit_single","A39EBLPHUIPAFH","pain","2","","72","H","0","img/none_selected.jpg","0","0","1","","0.01075771148","false","282","","0.01075771148","main_expt","","0.2905756231","","0.08562343316","","0.05911354127","","","","","",""
"584","","bandit","358","842545","0.0-320.0-0.0","05070743","wem/bandit_single","A39EBLPHUIPAFH","pain","2","","74","J","1","","0","0","1","","0.335540713","false","283","","0.009487342711","main_expt","","0.335540713","","0.06507866554","","0.0444902615","","","","","",""
"235","","bandit","359","844549","0.0-321.0-0.0","05070743","wem/bandit_single","A39EBLPHUIPAFH","pain","2","","75","K","2","","0","0","1","","0.05738126215","false","284","","0.01035814212","main_expt","","0.3569674754","","0.05738126215","","0.03666520406","","","","","",""
"194","","bandit","360","846510","0.0-322.0-0.0","05070743","wem/bandit_single","A39EBLPHUIPAFH","pain","2","","76","L","3","","0","0","1","","0.02451873239","false","285","","0.01056818013","main_expt","","0.4068019922","","0.06337296056","","0.02451873239","","","","","",""
"2851","","bandit","361","851132","0.0-323.0-0.0","05070743","wem/bandit_single","A39EBLPHUIPAFH","pain","2","","75","K","2","","0","0","1","","0.04649068967","false","286","","0.007821227136","main_expt","","0.432978486","","0.04649068967","","0.02877547985","","","","","",""
"150","","bandit","362","853055","0.0-324.0-0.0","05070743","wem/bandit_single","A39EBLPHUIPAFH","pain","2","","74","J","1","","0","0","1","","0.4213006965","false","287","","0.01039042452","main_expt","","0.4213006965","","0.04946639224","","0.03331393821","","","","","",""
"231","","bandit","363","855053","0.0-325.0-0.0","05070743","wem/bandit_single","A39EBLPHUIPAFH","pain","2","","72","H","0","img/none_selected.jpg","0","0","1","","0.02141961277","false","288","","0.02141961277","main_expt","","0.4094413186","","0.03962947871","","0.02363643209","","","","","",""
"884","","bandit","364","857710","0.0-326.0-0.0","05070743","wem/bandit_single","A39EBLPHUIPAFH","pain","2","","76","L","3","","0","0","1","","0.0366455232","false","289","","0.02062414181","main_expt","","0.3731302572","","0.05295486238","","0.0366455232","","","","","",""
"209","","bandit","365","859687","0.0-327.0-0.0","05070743","wem/bandit_single","A39EBLPHUIPAFH","pain","2","","75","K","2","","0","1","0","","0.06311332932","false","290","","0.01411690602","main_expt","","0.4076032329","","0.06311332932","","0.04887184979","","","","","",""
"944","","bandit","366","862398","0.0-328.0-0.0","05070743","wem/bandit_single","A39EBLPHUIPAFH","pain","2","","75","K","2","","0","0","1","","0.07741633782","false","291","","0.03188260643","main_expt","","0.4134699565","","0.07741633782","","0.03783642248","","","","","",""
"334","","bandit","367","864503","0.0-329.0-0.0","05070743","wem/bandit_single","A39EBLPHUIPAFH","pain","2","","76","L","3","","0","0","1","","0.07820299584","false","292","","0.03429620073","main_expt","","0.3827884258","","0.09064252153","","0.07820299584","","","","","",""
"511","","bandit","368","866784","0.0-330.0-0.0","05070743","wem/bandit_single","A39EBLPHUIPAFH","pain","2","","75","K","2","","0","0","1","","0.07659126906","false","293","","0.030392347","main_expt","","0.4162015812","","0.07659126906","","0.07060894185","","","","","",""
"107","","bandit","369","868660","0.0-331.0-0.0","05070743","wem/bandit_single","A39EBLPHUIPAFH","pain","2","","74","J","1","","0","0","1","","0.447674372","false","294","","0.04782046051","main_expt","","0.447674372","","0.08042624432","","0.1051632986","","","","","",""
"208","","bandit","370","870641","0.0-332.0-0.0","05070743","wem/bandit_single","A39EBLPHUIPAFH","pain","2","","72","H","0","img/none_selected.jpg","0","0","1","","0.06309063339","false","295","","0.06309063339","main_expt","","0.4402126752","","0.1216640212","","0.06624019153","","","","","",""
"1955","","bandit","371","874364","0.0-333.0-0.0","05070743","wem/bandit_single","A39EBLPHUIPAFH","pain","2","","75","K","2","","0","0","1","","0.1058257345","false","296","","0.09511663338","main_expt","","0.4378891161","","0.1058257345","","0.07088700909","","","","","",""
"545","","bandit","372","876681","0.0-334.0-0.0","05070743","wem/bandit_single","A39EBLPHUIPAFH","pain","2","","76","L","3","","0","0","1","","0.0529580871","false","297","","0.07325770628","main_expt","","0.468153315","","0.1101311263","","0.0529580871","","","","","",""
"708","","bandit","373","879159","0.0-335.0-0.0","05070743","wem/bandit_single","A39EBLPHUIPAFH","pain","2","","74","J","1","","0","0","1","","0.4538992283","false","298","","0.06352452747","main_expt","","0.4538992283","","0.1117004815","","0.04256970448","","","","","",""
"611","","bandit","374","881541","0.0-336.0-0.0","05070743","wem/bandit_single","A39EBLPHUIPAFH","pain","2","","72","H","0","img/none_selected.jpg","0","0","1","","0.09466520998","false","299","","0.09466520998","main_expt","","0.4653276232","","0.1201211159","","0.02772245328","","","","","",""
