"rt","responses","trial_type","trial_index","time_elapsed","internal_node_id","subjID","study","MID","cond","drift","key_press","respCharCode","respKey","respChoiceNum","respChoice","gems","bombs","no_reward","GemPrChosen","BombPrChosen","practice","trial_counter","WinPr_0","LosePr_0","trial_label","WinPr_1","LosePr_1","WinPr_2","LosePr_2","WinPr_3","LosePr_3","Q0","Q1","Q2","gender","age","ethnicity"
"4285","{""Q0"":""A1W4Q0E00VP6VD""}","survey-text","0","4294","0.0-0.0","06048030","wem/bandit_single","A1W4Q0E00VP6VD","pain","1","","","","","","","","","","","","","","","","","","","","","","","","","","",""
"1807","","text","1","7106","0.0-1.0","06048030","wem/bandit_single","A1W4Q0E00VP6VD","pain","1","32","","","","","","","","","","","","","","","","","","","","","","","","","",""
"2742","","text","2","9850","0.0-2.0","06048030","wem/bandit_single","A1W4Q0E00VP6VD","pain","1","32","","","","","","","","","","","","","","","","","","","","","","","","","",""
"29731","","text","3","39581","0.0-3.0","06048030","wem/bandit_single","A1W4Q0E00VP6VD","pain","1","32","","","","","","","","","","","","","","","","","","","","","","","","","",""
"17924","","text","4","57507","0.0-4.0","06048030","wem/bandit_single","A1W4Q0E00VP6VD","pain","1","32","","","","","","","","","","","","","","","","","","","","","","","","","",""
"7265","","text","5","64773","0.0-5.0","06048030","wem/bandit_single","A1W4Q0E00VP6VD","pain","1","32","","","","","","","","","","","","","","","","","","","","","","","","","",""
"1388","","text","6","66162","0.0-6.0","06048030","wem/bandit_single","A1W4Q0E00VP6VD","pain","1","32","","","","","","","","","","","","","","","","","","","","","","","","","",""
"1910","","text","7","68074","0.0-7.0","06048030","wem/bandit_single","A1W4Q0E00VP6VD","pain","1","32","","","","","","","","","","","","","","","","","","","","","","","","","",""
"3539","","text","8","71613","0.0-8.0","06048030","wem/bandit_single","A1W4Q0E00VP6VD","pain","1","32","","","","","","","","","","","","","","","","","","","","","","","","","",""
"1525","","text","9","73141","0.0-9.0","06048030","wem/bandit_single","A1W4Q0E00VP6VD","pain","1","32","","","","","","","","","","","","","","","","","","","","","","","","","",""
"2372","","text","10","75516","0.0-10.0","06048030","wem/bandit_single","A1W4Q0E00VP6VD","pain","1","32","","","","","","","","","","","","","","","","","","","","","","","","","",""
"4254","","text","11","79772","0.0-11.0","06048030","wem/bandit_single","A1W4Q0E00VP6VD","pain","1","32","","","","","","","","","","","","","","","","","","","","","","","","","",""
"1110","","bandit","12","82392","0.0-12.0-0.0","06048030","wem/bandit_single","A1W4Q0E00VP6VD","pain","1","","74","J","0","img/none_selected_demo.jpg","0","0","1","0","0","true","0","0","0","","","","","","","","","","","","",""
"770","","bandit","13","84919","0.0-13.0-0.0","06048030","wem/bandit_single","A1W4Q0E00VP6VD","pain","1","","75","K","0","img/none_selected_demo.jpg","0","0","1","0","0","true","0","0","0","","","","","","","","","","","","",""
"2186","","text","14","87358","0.0-14.0","06048030","wem/bandit_single","A1W4Q0E00VP6VD","pain","1","32","","","","","","","","","","","","","","","","","","","","","","","","","",""
"605","","text","15","87966","0.0-15.0","06048030","wem/bandit_single","A1W4Q0E00VP6VD","pain","1","32","","","","","","","","","","","","","","","","","","","","","","","","","",""
"1192","","text","16","89160","0.0-16.0","06048030","wem/bandit_single","A1W4Q0E00VP6VD","pain","1","32","","","","","","","","","","","","","","","","","","","","","","","","","",""
"571","","text","17","89732","0.0-17.0","06048030","wem/bandit_single","A1W4Q0E00VP6VD","pain","1","32","","","","","","","","","","","","","","","","","","","","","","","","","",""
"915","","bandit","18","92151","0.0-18.0-0.0","06048030","wem/bandit_single","A1W4Q0E00VP6VD","pain","1","","74","J","0","img/none_selected_demo.jpg","0","1","0","0","0.8","true","0","0","0.8","80_20_practice","0","0.2","","","","","","","","","",""
"260","","bandit","19","94166","0.0-18.0-1.0","06048030","wem/bandit_single","A1W4Q0E00VP6VD","pain","1","","74","J","0","img/none_selected_demo.jpg","0","0","1","0","0.8","true","0","0","0.8","80_20_practice","0","0.2","","","","","","","","","",""
"561","","bandit","20","96481","0.0-18.0-2.0","06048030","wem/bandit_single","A1W4Q0E00VP6VD","pain","1","","75","K","1","","0","0","1","0","0.2","true","0","0","0.8","80_20_practice","0","0.2","","","","","","","","","",""
"2029","","bandit","21","100268","0.0-18.0-3.0","06048030","wem/bandit_single","A1W4Q0E00VP6VD","pain","1","","74","J","0","img/none_selected_demo.jpg","0","1","0","0","0.8","true","0","0","0.8","80_20_practice","0","0.2","","","","","","","","","",""
"204","","bandit","22","102229","0.0-18.0-4.0","06048030","wem/bandit_single","A1W4Q0E00VP6VD","pain","1","","74","J","0","img/none_selected_demo.jpg","0","1","0","0","0.8","true","0","0","0.8","80_20_practice","0","0.2","","","","","","","","","",""
"68","","bandit","23","104051","0.0-18.0-5.0","06048030","wem/bandit_single","A1W4Q0E00VP6VD","pain","1","","74","J","0","img/none_selected_demo.jpg","0","1","0","0","0.8","true","0","0","0.8","80_20_practice","0","0.2","","","","","","","","","",""
"228","","bandit","24","106032","0.0-18.0-6.0","06048030","wem/bandit_single","A1W4Q0E00VP6VD","pain","1","","74","J","0","img/none_selected_demo.jpg","0","0","1","0","0.8","true","0","0","0.8","80_20_practice","0","0.2","","","","","","","","","",""
"507","","bandit","25","108294","0.0-18.0-7.0","06048030","wem/bandit_single","A1W4Q0E00VP6VD","pain","1","","74","J","0","img/none_selected_demo.jpg","0","0","1","0","0.8","true","0","0","0.8","80_20_practice","0","0.2","","","","","","","","","",""
"158","","bandit","26","110207","0.0-18.0-8.0","06048030","wem/bandit_single","A1W4Q0E00VP6VD","pain","1","","75","K","1","","0","0","1","0","0.2","true","0","0","0.8","80_20_practice","0","0.2","","","","","","","","","",""
"232","","bandit","27","112194","0.0-18.0-9.0","06048030","wem/bandit_single","A1W4Q0E00VP6VD","pain","1","","75","K","1","","0","0","1","0","0.2","true","0","0","0.8","80_20_practice","0","0.2","","","","","","","","","",""
"95","","bandit","28","114045","0.0-18.0-10.0","06048030","wem/bandit_single","A1W4Q0E00VP6VD","pain","1","","75","K","1","","0","0","1","0","0.2","true","0","0","0.8","80_20_practice","0","0.2","","","","","","","","","",""
"130","","bandit","29","115930","0.0-18.0-11.0","06048030","wem/bandit_single","A1W4Q0E00VP6VD","pain","1","","75","K","1","","0","0","1","0","0.2","true","0","0","0.8","80_20_practice","0","0.2","","","","","","","","","",""
"1800","","bandit","30","119487","0.0-18.0-12.0","06048030","wem/bandit_single","A1W4Q0E00VP6VD","pain","1","","74","J","0","img/none_selected_demo.jpg","0","0","1","0","0.8","true","0","0","0.8","80_20_practice","0","0.2","","","","","","","","","",""
"59","","bandit","31","121303","0.0-18.0-13.0","06048030","wem/bandit_single","A1W4Q0E00VP6VD","pain","1","","74","J","0","img/none_selected_demo.jpg","0","0","1","0","0.8","true","0","0","0.8","80_20_practice","0","0.2","","","","","","","","","",""
"143","","bandit","32","123206","0.0-18.0-14.0","06048030","wem/bandit_single","A1W4Q0E00VP6VD","pain","1","","74","J","0","img/none_selected_demo.jpg","0","0","1","0","0.8","true","0","0","0.8","80_20_practice","0","0.2","","","","","","","","","",""
"2454","","bandit","33","127417","0.0-18.0-15.0","06048030","wem/bandit_single","A1W4Q0E00VP6VD","pain","1","","74","J","0","img/none_selected_demo.jpg","0","1","0","0","0.8","true","0","0","0.8","80_20_practice","0","0.2","","","","","","","","","",""
"788","","bandit","34","129961","0.0-18.0-16.0","06048030","wem/bandit_single","A1W4Q0E00VP6VD","pain","1","","75","K","1","","0","1","0","0","0.2","true","0","0","0.8","80_20_practice","0","0.2","","","","","","","","","",""
"2882","","bandit","35","134599","0.0-18.0-17.0","06048030","wem/bandit_single","A1W4Q0E00VP6VD","pain","1","","74","J","0","img/none_selected_demo.jpg","0","1","0","0","0.8","true","0","0","0.8","80_20_practice","0","0.2","","","","","","","","","",""
"122","","bandit","36","136477","0.0-18.0-18.0","06048030","wem/bandit_single","A1W4Q0E00VP6VD","pain","1","","74","J","0","img/none_selected_demo.jpg","0","1","0","0","0.8","true","0","0","0.8","80_20_practice","0","0.2","","","","","","","","","",""
"366","","bandit","37","138600","0.0-18.0-19.0","06048030","wem/bandit_single","A1W4Q0E00VP6VD","pain","1","","74","J","0","img/none_selected_demo.jpg","0","1","0","0","0.8","true","0","0","0.8","80_20_practice","0","0.2","","","","","","","","","",""
"3656","","text","38","142509","0.0-19.0","06048030","wem/bandit_single","A1W4Q0E00VP6VD","pain","1","32","","","","","","","","","","","","","","","","","","","","","","","","","",""
"2098","","bandit","39","146111","0.0-20.0-0.0","06048030","wem/bandit_single","A1W4Q0E00VP6VD","pain","1","","74","J","0","img/none_selected_demo.jpg","0","0","1","0","0","true","0","0","0","","0","0","","","","","","","","","",""
"6787","","text","40","153152","0.0-21.0","06048030","wem/bandit_single","A1W4Q0E00VP6VD","pain","1","32","","","","","","","","","","","","","","","","","","","","","","","","","",""
"2718","","text","41","155873","0.0-22.0","06048030","wem/bandit_single","A1W4Q0E00VP6VD","pain","1","32","","","","","","","","","","","","","","","","","","","","","","","","","",""
"324","","text","42","156198","0.0-23.0","06048030","wem/bandit_single","A1W4Q0E00VP6VD","pain","1","32","","","","","","","","","","","","","","","","","","","","","","","","","",""
"216","","text","43","156415","0.0-24.0","06048030","wem/bandit_single","A1W4Q0E00VP6VD","pain","1","32","","","","","","","","","","","","","","","","","","","","","","","","","",""
"357","","text","44","156774","0.0-25.0","06048030","wem/bandit_single","A1W4Q0E00VP6VD","pain","1","32","","","","","","","","","","","","","","","","","","","","","","","","","",""
"745","","text","45","157522","0.0-26.0","06048030","wem/bandit_single","A1W4Q0E00VP6VD","pain","1","32","","","","","","","","","","","","","","","","","","","","","","","","","",""
"868","","text","46","158392","0.0-27.0","06048030","wem/bandit_single","A1W4Q0E00VP6VD","pain","1","32","","","","","","","","","","","","","","","","","","","","","","","","","",""
"806","","text","47","159200","0.0-28.0","06048030","wem/bandit_single","A1W4Q0E00VP6VD","pain","1","32","","","","","","","","","","","","","","","","","","","","","","","","","",""
"2074","","text","48","161278","0.0-29.0","06048030","wem/bandit_single","A1W4Q0E00VP6VD","pain","1","32","","","","","","","","","","","","","","","","","","","","","","","","","",""
"359","","text","49","161641","0.0-30.0","06048030","wem/bandit_single","A1W4Q0E00VP6VD","pain","1","32","","","","","","","","","","","","","","","","","","","","","","","","","",""
"1231","","text","50","162874","0.0-31.0","06048030","wem/bandit_single","A1W4Q0E00VP6VD","pain","1","32","","","","","","","","","","","","","","","","","","","","","","","","","",""
"788","","bandit","51","165166","0.0-32.0-0.0","06048030","wem/bandit_single","A1W4Q0E00VP6VD","pain","1","","76","L","3","","0","1","0","0","0.2","true","0","0","0.8","full_practice","0","0.2","0","0.6","0","0.2","","","","","",""
"515","","bandit","52","167435","0.0-32.0-1.0","06048030","wem/bandit_single","A1W4Q0E00VP6VD","pain","1","","72","H","0","img/none_selected.jpg","0","1","0","0","0.8","true","0","0","0.8","full_practice","0","0.2","0","0.6","0","0.2","","","","","",""
"0","","bandit","53","169191","0.0-32.0-2.0","06048030","wem/bandit_single","A1W4Q0E00VP6VD","pain","1","","74","J","1","","0","0","1","0","0.2","true","0","0","0.8","full_practice","0","0.2","0","0.6","0","0.2","","","","","",""
"2","","bandit","54","170950","0.0-32.0-3.0","06048030","wem/bandit_single","A1W4Q0E00VP6VD","pain","1","","74","J","1","","0","0","1","0","0.2","true","0","0","0.8","full_practice","0","0.2","0","0.6","0","0.2","","","","","",""
"168","","bandit","55","172874","0.0-32.0-4.0","06048030","wem/bandit_single","A1W4Q0E00VP6VD","pain","1","","74","J","1","","0","0","1","0","0.2","true","0","0","0.8","full_practice","0","0.2","0","0.6","0","0.2","","","","","",""
"133","","bandit","56","174765","0.0-32.0-5.0","06048030","wem/bandit_single","A1W4Q0E00VP6VD","pain","1","","74","J","1","","0","0","1","0","0.2","true","0","0","0.8","full_practice","0","0.2","0","0.6","0","0.2","","","","","",""
"15","","bandit","57","176534","0.0-32.0-6.0","06048030","wem/bandit_single","A1W4Q0E00VP6VD","pain","1","","76","L","3","","0","0","1","0","0.2","true","0","0","0.8","full_practice","0","0.2","0","0.6","0","0.2","","","","","",""
"10","","bandit","58","178299","0.0-32.0-7.0","06048030","wem/bandit_single","A1W4Q0E00VP6VD","pain","1","","76","L","3","","0","1","0","0","0.2","true","0","0","0.8","full_practice","0","0.2","0","0.6","0","0.2","","","","","",""
"800","","bandit","59","180858","0.0-32.0-8.0","06048030","wem/bandit_single","A1W4Q0E00VP6VD","pain","1","","74","J","1","","0","0","1","0","0.2","true","0","0","0.8","full_practice","0","0.2","0","0.6","0","0.2","","","","","",""
"1211","","bandit","60","183825","0.0-32.0-9.0","06048030","wem/bandit_single","A1W4Q0E00VP6VD","pain","1","","74","J","1","","0","0","1","0","0.2","true","0","0","0.8","full_practice","0","0.2","0","0.6","0","0.2","","","","","",""
"757","","bandit","61","186339","0.0-32.0-10.0","06048030","wem/bandit_single","A1W4Q0E00VP6VD","pain","1","","76","L","3","","0","0","1","0","0.2","true","0","0","0.8","full_practice","0","0.2","0","0.6","0","0.2","","","","","",""
"305","","bandit","62","188398","0.0-32.0-11.0","06048030","wem/bandit_single","A1W4Q0E00VP6VD","pain","1","","76","L","3","","0","1","0","0","0.2","true","0","0","0.8","full_practice","0","0.2","0","0.6","0","0.2","","","","","",""
"122","","bandit","63","190278","0.0-32.0-12.0","06048030","wem/bandit_single","A1W4Q0E00VP6VD","pain","1","","72","H","0","img/none_selected.jpg","0","1","0","0","0.8","true","0","0","0.8","full_practice","0","0.2","0","0.6","0","0.2","","","","","",""
"2478","","bandit","64","194511","0.0-32.0-13.0","06048030","wem/bandit_single","A1W4Q0E00VP6VD","pain","1","","72","H","0","img/none_selected.jpg","0","1","0","0","0.8","true","0","0","0.8","full_practice","0","0.2","0","0.6","0","0.2","","","","","",""
"4090","","bandit","65","200358","0.0-32.0-14.0","06048030","wem/bandit_single","A1W4Q0E00VP6VD","pain","1","","72","H","0","img/none_selected.jpg","0","1","0","0","0.8","true","0","0","0.8","full_practice","0","0.2","0","0.6","0","0.2","","","","","",""
"10","","bandit","66","202125","0.0-32.0-15.0","06048030","wem/bandit_single","A1W4Q0E00VP6VD","pain","1","","76","L","3","","0","0","1","0","0.2","true","0","0","0.8","full_practice","0","0.2","0","0.6","0","0.2","","","","","",""
"256","","bandit","67","204138","0.0-32.0-16.0","06048030","wem/bandit_single","A1W4Q0E00VP6VD","pain","1","","75","K","2","","0","1","0","0","0.6","true","0","0","0.8","full_practice","0","0.2","0","0.6","0","0.2","","","","","",""
"2236","","bandit","68","208133","0.0-32.0-17.0","06048030","wem/bandit_single","A1W4Q0E00VP6VD","pain","1","","74","J","1","","0","0","1","0","0.2","true","0","0","0.8","full_practice","0","0.2","0","0.6","0","0.2","","","","","",""
"1109","","bandit","69","210999","0.0-32.0-18.0","06048030","wem/bandit_single","A1W4Q0E00VP6VD","pain","1","","74","J","1","","0","1","0","0","0.2","true","0","0","0.8","full_practice","0","0.2","0","0.6","0","0.2","","","","","",""
"4474","","bandit","70","217233","0.0-32.0-19.0","06048030","wem/bandit_single","A1W4Q0E00VP6VD","pain","1","","75","K","2","","0","1","0","0","0.6","true","0","0","0.8","full_practice","0","0.2","0","0.6","0","0.2","","","","","",""
"1924","","text","71","219414","0.0-33.0","06048030","wem/bandit_single","A1W4Q0E00VP6VD","pain","1","32","","","","","","","","","","","","","","","","","","","","","","","","","",""
"438","","text","72","220856","0.0-34.0","06048030","wem/bandit_single","A1W4Q0E00VP6VD","pain","1","32","","","","","","","","","","","","","","","","","","","","","","","","","",""
"339","","text","73","221197","0.0-35.0","06048030","wem/bandit_single","A1W4Q0E00VP6VD","pain","1","32","","","","","","","","","","","","","","","","","","","","","","","","","",""
"189","","text","74","221389","0.0-36.0","06048030","wem/bandit_single","A1W4Q0E00VP6VD","pain","1","32","","","","","","","","","","","","","","","","","","","","","","","","","",""
"196","","text","75","221588","0.0-37.0","06048030","wem/bandit_single","A1W4Q0E00VP6VD","pain","1","32","","","","","","","","","","","","","","","","","","","","","","","","","",""
"733","","bandit","76","223828","0.0-38.0-0.0","06048030","wem/bandit_single","A1W4Q0E00VP6VD","pain","1","","72","H","0","img/none_selected.jpg","0","1","0","","0.1765468105","false","1","","0.1765468105","main_expt","","0.04371116513","","0.1079408374","","0.433486002","","","","","",""
"290","","bandit","77","225874","0.0-39.0-0.0","06048030","wem/bandit_single","A1W4Q0E00VP6VD","pain","1","","75","K","2","","0","0","1","","0.1605706499","false","2","","0.1569258514","main_expt","","0.0204546363","","0.1605706499","","0.4446307222","","","","","",""
"129","","bandit","78","227759","0.0-40.0-0.0","06048030","wem/bandit_single","A1W4Q0E00VP6VD","pain","1","","74","J","1","","0","0","1","","0.02109221713","false","3","","0.1639246388","main_expt","","0.02109221713","","0.1829447669","","0.4522438858","","","","","",""
"115","","bandit","79","229629","0.0-41.0-0.0","06048030","wem/bandit_single","A1W4Q0E00VP6VD","pain","1","","75","K","2","","0","0","1","","0.1756642407","false","4","","0.2130332657","main_expt","","0.04448829896","","0.1756642407","","0.4330109471","","","","","",""
"32","","bandit","80","231416","0.0-42.0-0.0","06048030","wem/bandit_single","A1W4Q0E00VP6VD","pain","1","","76","L","3","","0","0","1","","0.4678508314","false","5","","0.1939577492","main_expt","","0.03824555068","","0.1349544936","","0.4678508314","","","","","",""
"445","","bandit","81","233620","0.0-43.0-0.0","06048030","wem/bandit_single","A1W4Q0E00VP6VD","pain","1","","74","J","1","","0","0","1","","0.03028715703","false","6","","0.2419857306","main_expt","","0.03028715703","","0.1356037804","","0.4644602632","","","","","",""
"953","","bandit","82","236330","0.0-44.0-0.0","06048030","wem/bandit_single","A1W4Q0E00VP6VD","pain","1","","74","J","1","","0","0","1","","0.0280090558","false","7","","0.2437977828","main_expt","","0.0280090558","","0.1731738011","","0.4575746565","","","","","",""
"157","","bandit","83","238242","0.0-45.0-0.0","06048030","wem/bandit_single","A1W4Q0E00VP6VD","pain","1","","76","L","3","","0","0","1","","0.4508833002","false","8","","0.2910779813","main_expt","","0.01994926529","","0.1697830552","","0.4508833002","","","","","",""
"1374","","bandit","84","241373","0.0-46.0-0.0","06048030","wem/bandit_single","A1W4Q0E00VP6VD","pain","1","","76","L","3","","0","0","1","","0.446295775","false","9","","0.3043628405","main_expt","","0.02255652904","","0.1792782501","","0.446295775","","","","","",""
"1315","","bandit","85","244446","0.0-47.0-0.0","06048030","wem/bandit_single","A1W4Q0E00VP6VD","pain","1","","76","L","3","","0","0","1","","0.4564580261","false","10","","0.3568141906","main_expt","","0.02794315976","","0.1705688187","","0.4564580261","","","","","",""
"358","","bandit","86","246564","0.0-48.0-0.0","06048030","wem/bandit_single","A1W4Q0E00VP6VD","pain","1","","76","L","3","","0","0","1","","0.4233437492","false","11","","0.3439843329","main_expt","","0.02289966844","","0.1974022207","","0.4233437492","","","","","",""
"365","","bandit","87","248688","0.0-49.0-0.0","06048030","wem/bandit_single","A1W4Q0E00VP6VD","pain","1","","74","J","1","","0","0","1","","0.01510656417","false","12","","0.2959247237","main_expt","","0.01510656417","","0.1753487428","","0.4129107721","","","","","",""
"128","","bandit","88","250575","0.0-50.0-0.0","06048030","wem/bandit_single","A1W4Q0E00VP6VD","pain","1","","74","J","1","","0","0","1","","0.01475809492","false","13","","0.2711511111","main_expt","","0.01475809492","","0.1858973774","","0.4188058581","","","","","",""
"189","","bandit","89","252519","0.0-51.0-0.0","06048030","wem/bandit_single","A1W4Q0E00VP6VD","pain","1","","74","J","1","","0","0","1","","0.00909265887","false","14","","0.2351285692","main_expt","","0.00909265887","","0.1873997244","","0.4542155744","","","","","",""
"631","","bandit","90","254907","0.0-52.0-0.0","06048030","wem/bandit_single","A1W4Q0E00VP6VD","pain","1","","72","H","0","img/none_selected.jpg","0","0","1","","0.3299180318","false","15","","0.3299180318","main_expt","","0.004683339805","","0.2079034381","","0.4436127815","","","","","",""
"426","","bandit","91","257091","0.0-53.0-0.0","06048030","wem/bandit_single","A1W4Q0E00VP6VD","pain","1","","76","L","3","","0","1","0","","0.4255220112","false","16","","0.3382291528","main_expt","","0.007493295572","","0.2116662278","","0.4255220112","","","","","",""
"64","","bandit","92","258910","0.0-54.0-0.0","06048030","wem/bandit_single","A1W4Q0E00VP6VD","pain","1","","75","K","2","","0","1","0","","0.2460799228","false","17","","0.3890963744","main_expt","","0.009835384986","","0.2460799228","","0.4221090449","","","","","",""
"55","","bandit","93","260721","0.0-55.0-0.0","06048030","wem/bandit_single","A1W4Q0E00VP6VD","pain","1","","72","H","0","img/none_selected.jpg","0","1","0","","0.3102907615","false","18","","0.3102907615","main_expt","","0.01282838009","","0.2725156425","","0.4157246332","","","","","",""
"527","","bandit","94","263007","0.0-56.0-0.0","06048030","wem/bandit_single","A1W4Q0E00VP6VD","pain","1","","76","L","3","","0","0","1","","0.4000612909","false","19","","0.2734902963","main_expt","","0.03935122736","","0.319312936","","0.4000612909","","","","","",""
"304","","bandit","95","265065","0.0-57.0-0.0","06048030","wem/bandit_single","A1W4Q0E00VP6VD","pain","1","","72","H","0","img/none_selected.jpg","0","0","1","","0.2157414593","false","20","","0.2157414593","main_expt","","0.03712672215","","0.3449168397","","0.4116546581","","","","","",""
"215","","bandit","96","267037","0.0-58.0-0.0","06048030","wem/bandit_single","A1W4Q0E00VP6VD","pain","1","","75","K","2","","0","1","0","","0.2668327531","false","21","","0.2148325275","main_expt","","0.02631596187","","0.2668327531","","0.4276829816","","","","","",""
"245","","bandit","97","269038","0.0-59.0-0.0","06048030","wem/bandit_single","A1W4Q0E00VP6VD","pain","1","","74","J","1","","0","1","0","","0.0338100911","false","22","","0.1819582271","main_expt","","0.0338100911","","0.2786929748","","0.3861543943","","","","","",""
"389","","bandit","98","271192","0.0-60.0-0.0","06048030","wem/bandit_single","A1W4Q0E00VP6VD","pain","1","","72","H","0","img/none_selected.jpg","0","0","1","","0.1776669961","false","23","","0.1776669961","main_expt","","0.06132921526","","0.2012253143","","0.3815006395","","","","","",""
"31","","bandit","99","272978","0.0-61.0-0.0","06048030","wem/bandit_single","A1W4Q0E00VP6VD","pain","1","","76","L","3","","0","0","1","","0.4063144844","false","24","","0.2595803745","main_expt","","0.06546003458","","0.1363446769","","0.4063144844","","","","","",""
"1265","","bandit","100","276000","0.0-62.0-0.0","06048030","wem/bandit_single","A1W4Q0E00VP6VD","pain","1","","76","L","3","","0","0","1","","0.3218764758","false","25","","0.2184946748","main_expt","","0.08327489459","","0.1395957504","","0.3218764758","","","","","",""
"304","","bandit","101","278059","0.0-63.0-0.0","06048030","wem/bandit_single","A1W4Q0E00VP6VD","pain","1","","72","H","0","img/none_selected.jpg","0","1","0","","0.2382025465","false","26","","0.2382025465","main_expt","","0.06117167893","","0.1095431569","","0.3190898414","","","","","",""
"734","","bandit","102","280548","0.0-64.0-0.0","06048030","wem/bandit_single","A1W4Q0E00VP6VD","pain","1","","74","J","1","","0","0","1","","0.03494965278","false","27","","0.2249508913","main_expt","","0.03494965278","","0.1290148999","","0.361309168","","","","","",""
"941","","bandit","103","283247","0.0-65.0-0.0","06048030","wem/bandit_single","A1W4Q0E00VP6VD","pain","1","","75","K","2","","0","0","1","","0.09304199486","false","28","","0.2388683754","main_expt","","0.02964638986","","0.09304199486","","0.3247985582","","","","","",""
"82","","bandit","104","285087","0.0-66.0-0.0","06048030","wem/bandit_single","A1W4Q0E00VP6VD","pain","1","","74","J","1","","0","0","1","","0.03498116837","false","29","","0.238121012","main_expt","","0.03498116837","","0.1042487788","","0.3358989687","","","","","",""
"1939","","bandit","105","288781","0.0-67.0-0.0","06048030","wem/bandit_single","A1W4Q0E00VP6VD","pain","1","","72","H","0","img/none_selected.jpg","0","0","1","","0.2995264376","false","30","","0.2995264376","main_expt","","0.04244048525","","0.1177759499","","0.3833706669","","","","","",""
"798","","bandit","106","291338","0.0-68.0-0.0","06048030","wem/bandit_single","A1W4Q0E00VP6VD","pain","1","","76","L","3","","0","0","1","","0.365606812","false","31","","0.2738636663","main_expt","","0.06152315655","","0.1177925617","","0.365606812","","","","","",""
"503","","bandit","107","293595","0.0-69.0-0.0","06048030","wem/bandit_single","A1W4Q0E00VP6VD","pain","1","","75","K","2","","0","0","1","","0.08495919706","false","32","","0.3185168498","main_expt","","0.04890303061","","0.08495919706","","0.3376656117","","","","","",""
"622","","bandit","108","295976","0.0-70.0-0.0","06048030","wem/bandit_single","A1W4Q0E00VP6VD","pain","1","","74","J","1","","0","0","1","","0.06913310411","false","33","","0.3160257618","main_expt","","0.06913310411","","0.09918690981","","0.3632929272","","","","","",""
"113","","bandit","109","297844","0.0-71.0-0.0","06048030","wem/bandit_single","A1W4Q0E00VP6VD","pain","1","","72","H","0","img/none_selected.jpg","0","0","1","","0.3411570355","false","34","","0.3411570355","main_expt","","0.07311713639","","0.1267106232","","0.4008603673","","","","","",""
"158","","bandit","110","299759","0.0-72.0-0.0","06048030","wem/bandit_single","A1W4Q0E00VP6VD","pain","1","","75","K","2","","0","0","1","","0.1076928618","false","35","","0.3190481916","main_expt","","0.08374615962","","0.1076928618","","0.4024879816","","","","","",""
"833","","bandit","111","302348","0.0-73.0-0.0","06048030","wem/bandit_single","A1W4Q0E00VP6VD","pain","1","","76","L","3","","0","1","0","","0.3740303516","false","36","","0.3264142162","main_expt","","0.08182693844","","0.1298816773","","0.3740303516","","","","","",""
"373","","bandit","112","304478","0.0-74.0-0.0","06048030","wem/bandit_single","A1W4Q0E00VP6VD","pain","1","","75","K","2","","0","0","1","","0.1459487567","false","37","","0.3198880486","main_expt","","0.1343371601","","0.1459487567","","0.3728306432","","","","","",""
"1092","","bandit","113","307329","0.0-75.0-0.0","06048030","wem/bandit_single","A1W4Q0E00VP6VD","pain","1","","72","H","0","img/none_selected.jpg","0","1","0","","0.3683112265","false","38","","0.3683112265","main_expt","","0.155986589","","0.1339045699","","0.3805434418","","","","","",""
"132","","bandit","114","309218","0.0-76.0-0.0","06048030","wem/bandit_single","A1W4Q0E00VP6VD","pain","1","","74","J","1","","0","0","1","","0.1477757124","false","39","","0.3427238384","main_expt","","0.1477757124","","0.1345127174","","0.3969568822","","","","","",""
"120","","bandit","115","311097","0.0-77.0-0.0","06048030","wem/bandit_single","A1W4Q0E00VP6VD","pain","1","","72","H","0","img/none_selected.jpg","0","0","1","","0.3218453083","false","40","","0.3218453083","main_expt","","0.1673850924","","0.1283460502","","0.3988554294","","","","","",""
"256","","bandit","116","313110","0.0-78.0-0.0","06048030","wem/bandit_single","A1W4Q0E00VP6VD","pain","1","","76","L","3","","0","0","1","","0.4510691137","false","41","","0.3085515908","main_expt","","0.1798739011","","0.120913883","","0.4510691137","","","","","",""
"21","","bandit","117","314890","0.0-79.0-0.0","06048030","wem/bandit_single","A1W4Q0E00VP6VD","pain","1","","72","H","0","img/none_selected.jpg","0","0","1","","0.3072415044","false","42","","0.3072415044","main_expt","","0.1559165864","","0.1045942129","","0.4575220824","","","","","",""
"282","","bandit","118","316930","0.0-80.0-0.0","06048030","wem/bandit_single","A1W4Q0E00VP6VD","pain","1","","75","K","2","","0","0","1","","0.09432917568","false","43","","0.272500382","main_expt","","0.1058033922","","0.09432917568","","0.4425049573","","","","","",""
"1024","","bandit","119","319711","0.0-81.0-0.0","06048030","wem/bandit_single","A1W4Q0E00VP6VD","pain","1","","75","K","2","","0","0","1","","0.07221407183","false","44","","0.2865836788","main_expt","","0.08489334424","","0.07221407183","","0.4232077065","","","","","",""
"595","","bandit","120","322067","0.0-82.0-0.0","06048030","wem/bandit_single","A1W4Q0E00VP6VD","pain","1","","74","J","1","","0","0","1","","0.05905190464","false","45","","0.2991622886","main_expt","","0.05905190464","","0.05666738762","","0.4098430077","","","","","",""
"652","","bandit","121","324474","0.0-83.0-0.0","06048030","wem/bandit_single","A1W4Q0E00VP6VD","pain","1","","74","J","1","","0","0","1","","0.06331323714","false","46","","0.2531917612","main_expt","","0.06331323714","","0.03432969329","","0.4038708701","","","","","",""
"591","","bandit","122","326824","0.0-84.0-0.0","06048030","wem/bandit_single","A1W4Q0E00VP6VD","pain","1","","76","L","3","","0","1","0","","0.4162646915","false","47","","0.174020607","main_expt","","0.05657329797","","0.03955917442","","0.4162646915","","","","","",""
"286","","bandit","123","328867","0.0-85.0-0.0","06048030","wem/bandit_single","A1W4Q0E00VP6VD","pain","1","","75","K","2","","0","0","1","","0.02792503423","false","48","","0.1890064997","main_expt","","0.04718629669","","0.02792503423","","0.4188900116","","","","","",""
"1459","","bandit","124","332085","0.0-86.0-0.0","06048030","wem/bandit_single","A1W4Q0E00VP6VD","pain","1","","72","H","0","img/none_selected.jpg","0","0","1","","0.218442061","false","49","","0.218442061","main_expt","","0.03289244517","","0.03726959289","","0.4566014176","","","","","",""
"117","","bandit","125","333960","0.0-87.0-0.0","06048030","wem/bandit_single","A1W4Q0E00VP6VD","pain","1","","72","H","0","img/none_selected.jpg","0","0","1","","0.1635183119","false","50","","0.1635183119","main_expt","","0.03266450512","","0.03358305353","","0.4447058567","","","","","",""
"726","","bandit","126","336443","0.0-88.0-0.0","06048030","wem/bandit_single","A1W4Q0E00VP6VD","pain","1","","76","L","3","","0","1","0","","0.4304926469","false","51","","0.1366577914","main_expt","","0.03026904774","","0.03344521258","","0.4304926469","","","","","",""
"359","","bandit","127","338560","0.0-89.0-0.0","06048030","wem/bandit_single","A1W4Q0E00VP6VD","pain","1","","72","H","0","img/none_selected.jpg","0","0","1","","0.1797398031","false","52","","0.1797398031","main_expt","","0.03251993274","","0.04269272659","","0.4221781581","","","","","",""
"81","","bandit","128","340403","0.0-90.0-0.0","06048030","wem/bandit_single","A1W4Q0E00VP6VD","pain","1","","74","J","1","","0","0","1","","0.03960602941","false","53","","0.2893410322","main_expt","","0.03960602941","","0.023815337","","0.3687481665","","","","","",""
"384","","bandit","129","342544","0.0-91.0-0.0","06048030","wem/bandit_single","A1W4Q0E00VP6VD","pain","1","","72","H","0","img/none_selected.jpg","0","0","1","","0.2985665456","false","54","","0.2985665456","main_expt","","0.05707063203","","0.02455785224","","0.3458934235","","","","","",""
"139","","bandit","130","344440","0.0-92.0-0.0","06048030","wem/bandit_single","A1W4Q0E00VP6VD","pain","1","","75","K","2","","0","0","1","","0.03998391886","false","55","","0.3336948264","main_expt","","0.04044117434","","0.03998391886","","0.4042580408","","","","","",""
"151","","bandit","131","346356","0.0-93.0-0.0","06048030","wem/bandit_single","A1W4Q0E00VP6VD","pain","1","","72","H","0","img/none_selected.jpg","0","0","1","","0.282194417","false","56","","0.282194417","main_expt","","0.05627119328","","0.06538112884","","0.4471112694","","","","","",""
"1622","","bandit","132","349735","0.0-94.0-0.0","06048030","wem/bandit_single","A1W4Q0E00VP6VD","pain","1","","72","H","0","img/none_selected.jpg","0","1","0","","0.3239389597","false","57","","0.3239389597","main_expt","","0.06172895681","","0.08662171517","","0.4640351361","","","","","",""
"7075","","bandit","133","358567","0.0-95.0-0.0","06048030","wem/bandit_single","A1W4Q0E00VP6VD","pain","1","","72","H","0","img/none_selected.jpg","0","0","1","","0.3114288274","false","58","","0.3114288274","main_expt","","0.0708730922","","0.08191290536","","0.4654795878","","","","","",""
"4065","","bandit","134","364389","0.0-96.0-0.0","06048030","wem/bandit_single","A1W4Q0E00VP6VD","pain","1","","76","L","3","","0","1","0","","0.477644797","false","59","","0.3090129124","main_expt","","0.06307994893","","0.06359390603","","0.477644797","","","","","",""
"6067","","bandit","135","372215","0.0-97.0-0.0","06048030","wem/bandit_single","A1W4Q0E00VP6VD","pain","1","","72","H","0","img/none_selected.jpg","0","0","1","","0.3273240357","false","60","","0.3273240357","main_expt","","0.06865221942","","0.1113565871","","0.4637057102","","","","","",""
"465","","bandit","136","374435","0.0-98.0-0.0","06048030","wem/bandit_single","A1W4Q0E00VP6VD","pain","1","","75","K","2","","0","0","1","","0.1224908949","false","61","","0.333760802","main_expt","","0.04710261487","","0.1224908949","","0.4575353452","","","","","",""
"5798","","bandit","137","381991","0.0-99.0-0.0","06048030","wem/bandit_single","A1W4Q0E00VP6VD","pain","1","","72","H","0","img/none_selected.jpg","0","0","1","","0.3721083552","false","62","","0.3721083552","main_expt","","0.04180279512","","0.1011510181","","0.4511824808","","","","","",""
"18","","bandit","138","383768","0.0-100.0-0.0","06048030","wem/bandit_single","A1W4Q0E00VP6VD","pain","1","","76","L","3","","0","0","1","","0.4522744543","false","63","","0.3366911892","main_expt","","0.04669584184","","0.1241823521","","0.4522744543","","","","","",""
"777","","bandit","139","386303","0.0-101.0-0.0","06048030","wem/bandit_single","A1W4Q0E00VP6VD","pain","1","","75","K","2","","0","0","1","","0.1277445844","false","64","","0.352845708","main_expt","","0.04699929359","","0.1277445844","","0.4534383651","","","","","",""
"64","","bandit","140","388129","0.0-102.0-0.0","06048030","wem/bandit_single","A1W4Q0E00VP6VD","pain","1","","74","J","1","","0","0","1","","0.06422912444","false","65","","0.3797865956","main_expt","","0.06422912444","","0.1594820305","","0.4578128414","","","","","",""
"764","","bandit","141","390649","0.0-103.0-0.0","06048030","wem/bandit_single","A1W4Q0E00VP6VD","pain","1","","76","L","3","","0","1","0","","0.4675149648","false","66","","0.3776123686","main_expt","","0.09107067683","","0.1902728197","","0.4675149648","","","","","",""
"929","","bandit","142","393336","0.0-104.0-0.0","06048030","wem/bandit_single","A1W4Q0E00VP6VD","pain","1","","76","L","3","","0","1","0","","0.4801185054","false","67","","0.3520302909","main_expt","","0.1295134299","","0.1915604568","","0.4801185054","","","","","",""
"68","","bandit","143","395163","0.0-105.0-0.0","06048030","wem/bandit_single","A1W4Q0E00VP6VD","pain","1","","72","H","0","img/none_selected.jpg","0","0","1","","0.3563070861","false","68","","0.3563070861","main_expt","","0.1501953896","","0.2292904293","","0.4853911876","","","","","",""
"2647","","bandit","144","399567","0.0-106.0-0.0","06048030","wem/bandit_single","A1W4Q0E00VP6VD","pain","1","","72","H","0","img/none_selected.jpg","0","0","1","","0.3773129781","false","69","","0.3773129781","main_expt","","0.2120393587","","0.2982444272","","0.45952887","","","","","",""
"451","","bandit","145","401775","0.0-107.0-0.0","06048030","wem/bandit_single","A1W4Q0E00VP6VD","pain","1","","76","L","3","","0","0","1","","0.4519788387","false","70","","0.3620092878","main_expt","","0.2046372205","","0.2038928517","","0.4519788387","","","","","",""
"1532","","bandit","146","405064","0.0-108.0-0.0","06048030","wem/bandit_single","A1W4Q0E00VP6VD","pain","1","","76","L","3","","0","0","1","","0.4644284496","false","71","","0.3689610789","main_expt","","0.1711657315","","0.2470144531","","0.4644284496","","","","","",""
"1256","","bandit","147","408077","0.0-109.0-0.0","06048030","wem/bandit_single","A1W4Q0E00VP6VD","pain","1","","72","H","0","img/none_selected.jpg","0","0","1","","0.335535794","false","72","","0.335535794","main_expt","","0.1804367846","","0.2339224101","","0.4275080271","","","","","",""
"724","","bandit","148","410572","0.0-110.0-0.0","06048030","wem/bandit_single","A1W4Q0E00VP6VD","pain","1","","72","H","0","img/none_selected.jpg","0","1","0","","0.3669127126","false","73","","0.3669127126","main_expt","","0.1582310148","","0.198403553","","0.4333248441","","","","","",""
"911","","bandit","149","413245","0.0-111.0-0.0","06048030","wem/bandit_single","A1W4Q0E00VP6VD","pain","1","","76","L","3","","0","1","0","","0.4272577829","false","74","","0.3360165716","main_expt","","0.1300952354","","0.2162510441","","0.4272577829","","","","","",""
"72","","bandit","150","415075","0.0-112.0-0.0","06048030","wem/bandit_single","A1W4Q0E00VP6VD","pain","1","","75","K","2","","0","0","1","","0.2467290531","false","75","","0.3379177146","main_expt","","0.1414689969","","0.2467290531","","0.353629049","","","","","",""
"1246","","bandit","151","418082","0.0-113.0-0.0","06048030","wem/bandit_single","A1W4Q0E00VP6VD","pain","1","","75","K","2","","0","0","1","","0.2199510863","false","76","","0.3489784935","main_expt","","0.1315789974","","0.2199510863","","0.3526453175","","","","","",""
"5","","bandit","152","419844","0.0-114.0-0.0","06048030","wem/bandit_single","A1W4Q0E00VP6VD","pain","1","","72","H","0","img/none_selected.jpg","0","0","1","","0.2843927136","false","77","","0.2843927136","main_expt","","0.1054244057","","0.1600424727","","0.397337216","","","","","",""
"438","","bandit","153","422040","0.0-115.0-0.0","06048030","wem/bandit_single","A1W4Q0E00VP6VD","pain","1","","72","H","0","img/none_selected.jpg","0","0","1","","0.2585585406","false","78","","0.2585585406","main_expt","","0.1028875903","","0.1366877547","","0.3747850168","","","","","",""
"268","","bandit","154","424069","0.0-116.0-0.0","06048030","wem/bandit_single","A1W4Q0E00VP6VD","pain","1","","72","H","0","img/none_selected.jpg","0","1","0","","0.2211992803","false","79","","0.2211992803","main_expt","","0.1010795136","","0.1608027171","","0.3500135026","","","","","",""
"253","","bandit","155","426082","0.0-117.0-0.0","06048030","wem/bandit_single","A1W4Q0E00VP6VD","pain","1","","76","L","3","","0","1","0","","0.3362224365","false","80","","0.1670678668","main_expt","","0.09661145037","","0.2004121585","","0.3362224365","","","","","",""
"430","","bandit","156","428266","0.0-118.0-0.0","06048030","wem/bandit_single","A1W4Q0E00VP6VD","pain","1","","75","K","2","","0","0","1","","0.2100463009","false","81","","0.1536487801","main_expt","","0.06079528701","","0.2100463009","","0.3626400229","","","","","",""
"29","","bandit","157","430053","0.0-119.0-0.0","06048030","wem/bandit_single","A1W4Q0E00VP6VD","pain","1","","72","H","0","img/none_selected.jpg","0","1","0","","0.164055667","false","82","","0.164055667","main_expt","","0.0561923849","","0.2313995655","","0.3433004166","","","","","",""
"1646","","bandit","158","433456","0.0-120.0-0.0","06048030","wem/bandit_single","A1W4Q0E00VP6VD","pain","1","","72","H","0","img/none_selected.jpg","0","0","1","","0.1795096781","false","83","","0.1795096781","main_expt","","0.05471979201","","0.1805974068","","0.3564809269","","","","","",""
"1079","","bandit","159","436298","0.0-121.0-0.0","06048030","wem/bandit_single","A1W4Q0E00VP6VD","pain","1","","72","H","0","img/none_selected.jpg","0","0","1","","0.1568762326","false","84","","0.1568762326","main_expt","","0.04961315052","","0.1351257884","","0.3403656385","","","","","",""
"662","","bandit","160","438720","0.0-122.0-0.0","06048030","wem/bandit_single","A1W4Q0E00VP6VD","pain","1","","72","H","0","img/none_selected.jpg","0","1","0","","0.1857208284","false","85","","0.1857208284","main_expt","","0.05195310968","","0.1372280885","","0.3009252634","","","","","",""
"3415","","bandit","161","443894","0.0-123.0-0.0","06048030","wem/bandit_single","A1W4Q0E00VP6VD","pain","1","","72","H","0","img/none_selected.jpg","0","1","0","","0.2180329602","false","86","","0.2180329602","main_expt","","0.05385113756","","0.1685840628","","0.3067316121","","","","","",""
"26","","bandit","162","445680","0.0-124.0-0.0","06048030","wem/bandit_single","A1W4Q0E00VP6VD","pain","1","","75","K","2","","0","0","1","","0.1654340797","false","87","","0.1893737279","main_expt","","0.08202519069","","0.1654340797","","0.3073916088","","","","","",""
"693","","bandit","163","448131","0.0-125.0-0.0","06048030","wem/bandit_single","A1W4Q0E00VP6VD","pain","1","","72","H","0","img/none_selected.jpg","0","1","0","","0.2309201776","false","88","","0.2309201776","main_expt","","0.04873944257","","0.1870328522","","0.301504441","","","","","",""
"1183","","bandit","164","451072","0.0-126.0-0.0","06048030","wem/bandit_single","A1W4Q0E00VP6VD","pain","1","","72","H","0","img/none_selected.jpg","0","0","1","","0.2368651839","false","89","","0.2368651839","main_expt","","0.05553778571","","0.1786415591","","0.3324072184","","","","","",""
"1249","","bandit","165","454080","0.0-127.0-0.0","06048030","wem/bandit_single","A1W4Q0E00VP6VD","pain","1","","72","H","0","img/none_selected.jpg","0","1","0","","0.2459093935","false","90","","0.2459093935","main_expt","","0.04980790846","","0.2293974223","","0.3245139686","","","","","",""
"652","","bandit","166","456490","0.0-128.0-0.0","06048030","wem/bandit_single","A1W4Q0E00VP6VD","pain","1","","75","K","2","","0","1","0","","0.2407797963","false","91","","0.2371609774","main_expt","","0.05804880768","","0.2407797963","","0.3310751299","","","","","",""
"347","","bandit","167","458598","0.0-129.0-0.0","06048030","wem/bandit_single","A1W4Q0E00VP6VD","pain","1","","76","L","3","","0","1","0","","0.3717444616","false","92","","0.260478489","main_expt","","0.0614883172","","0.2337544695","","0.3717444616","","","","","",""
"267","","bandit","168","460622","0.0-130.0-0.0","06048030","wem/bandit_single","A1W4Q0E00VP6VD","pain","1","","72","H","0","img/none_selected.jpg","0","1","0","","0.2595992258","false","93","","0.2595992258","main_expt","","0.0764333552","","0.2589688886","","0.3846532122","","","","","",""
"95","","bandit","169","462476","0.0-131.0-0.0","06048030","wem/bandit_single","A1W4Q0E00VP6VD","pain","1","","76","L","3","","0","1","0","","0.4017211595","false","94","","0.206568391","main_expt","","0.1280824273","","0.2699529923","","0.4017211595","","","","","",""
"257","","bandit","170","464495","0.0-132.0-0.0","06048030","wem/bandit_single","A1W4Q0E00VP6VD","pain","1","","75","K","2","","0","0","1","","0.2626559999","false","95","","0.1846794781","main_expt","","0.1191245721","","0.2626559999","","0.3736639641","","","","","",""
"1305","","bandit","171","467557","0.0-133.0-0.0","06048030","wem/bandit_single","A1W4Q0E00VP6VD","pain","1","","74","J","1","","0","0","1","","0.08526153109","false","96","","0.2484851932","main_expt","","0.08526153109","","0.2196428224","","0.3220453652","","","","","",""
"35","","bandit","172","469354","0.0-134.0-0.0","06048030","wem/bandit_single","A1W4Q0E00VP6VD","pain","1","","75","K","2","","0","0","1","","0.1922289922","false","97","","0.198145661","main_expt","","0.0775518538","","0.1922289922","","0.2964534367","","","","","",""
"48","","bandit","173","471163","0.0-135.0-0.0","06048030","wem/bandit_single","A1W4Q0E00VP6VD","pain","1","","76","L","3","","0","0","1","","0.3388366936","false","98","","0.1738253929","main_expt","","0.08824897118","","0.2328023708","","0.3388366936","","","","","",""
"111","","bandit","174","473030","0.0-136.0-0.0","06048030","wem/bandit_single","A1W4Q0E00VP6VD","pain","1","","72","H","0","img/none_selected.jpg","0","0","1","","0.1261523865","false","99","","0.1261523865","main_expt","","0.08912321317","","0.2606341713","","0.4233536788","","","","","",""
"160","","bandit","175","474948","0.0-137.0-0.0","06048030","wem/bandit_single","A1W4Q0E00VP6VD","pain","1","","75","K","2","","0","0","1","","0.310387162","false","100","","0.1368684177","main_expt","","0.1217067293","","0.310387162","","0.3799029244","","","","","",""
"292","","bandit","176","476999","0.0-138.0-0.0","06048030","wem/bandit_single","A1W4Q0E00VP6VD","pain","1","","72","H","0","img/none_selected.jpg","0","1","0","","0.1262970555","false","101","","0.1262970555","main_expt","","0.08537200695","","0.3802628165","","0.3644029447","","","","","",""
"85","","bandit","177","478843","0.0-139.0-0.0","06048030","wem/bandit_single","A1W4Q0E00VP6VD","pain","1","","75","K","2","","0","0","1","","0.4133848668","false","102","","0.1022564356","main_expt","","0.09606980913","","0.4133848668","","0.3414838768","","","","","",""
"173","","bandit","178","480772","0.0-140.0-0.0","06048030","wem/bandit_single","A1W4Q0E00VP6VD","pain","1","","75","K","2","","0","0","1","","0.4352089555","false","103","","0.07046703442","main_expt","","0.09968925047","","0.4352089555","","0.3691073091","","","","","",""
"3329","","bandit","179","485864","0.0-141.0-0.0","06048030","wem/bandit_single","A1W4Q0E00VP6VD","pain","1","","75","K","2","","0","0","1","","0.4248252031","false","104","","0.08582175226","main_expt","","0.1070137741","","0.4248252031","","0.3386210986","","","","","",""
"521","","bandit","180","488146","0.0-142.0-0.0","06048030","wem/bandit_single","A1W4Q0E00VP6VD","pain","1","","74","J","1","","0","0","1","","0.1086060941","false","105","","0.08910626196","main_expt","","0.1086060941","","0.4382512542","","0.3517858304","","","","","",""
"19","","bandit","181","489921","0.0-143.0-0.0","06048030","wem/bandit_single","A1W4Q0E00VP6VD","pain","1","","74","J","1","","0","0","1","","0.1006724549","false","106","","0.09380004764","main_expt","","0.1006724549","","0.4551412652","","0.4016578568","","","","","",""
"33","","bandit","182","491714","0.0-144.0-0.0","06048030","wem/bandit_single","A1W4Q0E00VP6VD","pain","1","","72","H","0","img/none_selected.jpg","0","1","0","","0.08916311959","false","107","","0.08916311959","main_expt","","0.07769839914","","0.4481373055","","0.3951748439","","","","","",""
"683","","bandit","183","494156","0.0-145.0-0.0","06048030","wem/bandit_single","A1W4Q0E00VP6VD","pain","1","","76","L","3","","0","1","0","","0.3933810371","false","108","","0.1635033392","main_expt","","0.09470950607","","0.4611843773","","0.3933810371","","","","","",""
"639","","bandit","184","496553","0.0-146.0-0.0","06048030","wem/bandit_single","A1W4Q0E00VP6VD","pain","1","","75","K","2","","0","0","1","","0.416280782","false","109","","0.1923408453","main_expt","","0.1117426234","","0.416280782","","0.3961603237","","","","","",""
"879","","bandit","185","499188","0.0-147.0-0.0","06048030","wem/bandit_single","A1W4Q0E00VP6VD","pain","1","","75","K","2","","0","0","1","","0.3959176693","false","110","","0.1668397223","main_expt","","0.1190643529","","0.3959176693","","0.3933476799","","","","","",""
"277","","bandit","186","501224","0.0-148.0-0.0","06048030","wem/bandit_single","A1W4Q0E00VP6VD","pain","1","","75","K","2","","0","0","1","","0.3881072513","false","111","","0.1254506171","main_expt","","0.1605091549","","0.3881072513","","0.3953313537","","","","","",""
"628","","bandit","187","503612","0.0-149.0-0.0","06048030","wem/bandit_single","A1W4Q0E00VP6VD","pain","1","","76","L","3","","0","0","1","","0.3398422341","false","112","","0.1596839241","main_expt","","0.1531505469","","0.3430735849","","0.3398422341","","","","","",""
"460","","bandit","188","505830","0.0-150.0-0.0","06048030","wem/bandit_single","A1W4Q0E00VP6VD","pain","1","","74","J","1","","0","0","1","","0.1796188848","false","113","","0.1986187203","main_expt","","0.1796188848","","0.3036143476","","0.375538402","","","","","",""
"70","","bandit","189","507663","0.0-151.0-0.0","06048030","wem/bandit_single","A1W4Q0E00VP6VD","pain","1","","75","K","2","","0","0","1","","0.3581708668","false","114","","0.2334514198","main_expt","","0.1820080726","","0.3581708668","","0.3629483147","","","","","",""
"1812","","bandit","190","511233","0.0-152.0-0.0","06048030","wem/bandit_single","A1W4Q0E00VP6VD","pain","1","","75","K","2","","0","0","1","","0.2948471219","false","115","","0.1892672839","main_expt","","0.2050936175","","0.2948471219","","0.2969550108","","","","","",""
"3385","","bandit","191","516378","0.0-153.0-0.0","06048030","wem/bandit_single","A1W4Q0E00VP6VD","pain","1","","76","L","3","","0","0","1","","0.260261953","false","116","","0.1507180646","main_expt","","0.2071503316","","0.2711132382","","0.260261953","","","","","",""
"528","","bandit","192","518666","0.0-154.0-0.0","06048030","wem/bandit_single","A1W4Q0E00VP6VD","pain","1","","75","K","2","","0","0","1","","0.3124997295","false","117","","0.1830546279","main_expt","","0.2359882763","","0.3124997295","","0.2626326191","","","","","",""
"95","","bandit","193","520518","0.0-155.0-0.0","06048030","wem/bandit_single","A1W4Q0E00VP6VD","pain","1","","74","J","1","","0","0","1","","0.2388261631","false","118","","0.1415506149","main_expt","","0.2388261631","","0.3888019654","","0.2933310536","","","","","",""
"2310","","bandit","194","524593","0.0-156.0-0.0","06048030","wem/bandit_single","A1W4Q0E00VP6VD","pain","1","","76","L","3","","0","1","0","","0.2469992957","false","119","","0.1814909568","main_expt","","0.2470137322","","0.3695751837","","0.2469992957","","","","","",""
"1222","","bandit","195","527571","0.0-157.0-0.0","06048030","wem/bandit_single","A1W4Q0E00VP6VD","pain","1","","74","J","1","","0","0","1","","0.209676098","false","120","","0.1900691043","main_expt","","0.209676098","","0.3471196364","","0.2186909282","","","","","",""
"392","","bandit","196","529726","0.0-158.0-0.0","06048030","wem/bandit_single","A1W4Q0E00VP6VD","pain","1","","72","H","0","img/none_selected.jpg","0","0","1","","0.2002257321","false","121","","0.2002257321","main_expt","","0.2058519679","","0.3164400491","","0.1915374776","","","","","",""
"1769","","bandit","197","533251","0.0-159.0-0.0","06048030","wem/bandit_single","A1W4Q0E00VP6VD","pain","1","","75","K","2","","0","1","0","","0.3565888941","false","122","","0.2000360786","main_expt","","0.1409467191","","0.3565888941","","0.1666700693","","","","","",""
"1183","","bandit","198","536199","0.0-160.0-0.0","06048030","wem/bandit_single","A1W4Q0E00VP6VD","pain","1","","76","L","3","","0","0","1","","0.1779758636","false","123","","0.1656706666","main_expt","","0.08785727187","","0.3293983066","","0.1779758636","","","","","",""
"34","","bandit","199","537994","0.0-161.0-0.0","06048030","wem/bandit_single","A1W4Q0E00VP6VD","pain","1","","74","J","1","","0","0","1","","0.1153756664","false","124","","0.2433115295","main_expt","","0.1153756664","","0.3202360925","","0.2483730269","","","","","",""
"858","","bandit","200","540612","0.0-162.0-0.0","06048030","wem/bandit_single","A1W4Q0E00VP6VD","pain","1","","74","J","1","","0","0","1","","0.1211147435","false","125","","0.1810024247","main_expt","","0.1211147435","","0.3478690395","","0.2274485556","","","","","",""
"1074","","bandit","201","543445","0.0-163.0-0.0","06048030","wem/bandit_single","A1W4Q0E00VP6VD","pain","1","","74","J","1","","0","0","1","","0.1434737457","false","126","","0.2138299762","main_expt","","0.1434737457","","0.3312811416","","0.2506805994","","","","","",""
"1404","","bandit","202","546609","0.0-164.0-0.0","06048030","wem/bandit_single","A1W4Q0E00VP6VD","pain","1","","72","H","0","img/none_selected.jpg","0","0","1","","0.1993304114","false","127","","0.1993304114","main_expt","","0.1970801631","","0.2641060438","","0.2520497492","","","","","",""
"1741","","bandit","203","550111","0.0-165.0-0.0","06048030","wem/bandit_single","A1W4Q0E00VP6VD","pain","1","","72","H","0","img/none_selected.jpg","0","0","1","","0.2602773644","false","128","","0.2602773644","main_expt","","0.2891253811","","0.2239657692","","0.1948091286","","","","","",""
"646","","bandit","204","552512","0.0-166.0-0.0","06048030","wem/bandit_single","A1W4Q0E00VP6VD","pain","1","","75","K","2","","0","0","1","","0.2243581634","false","129","","0.2960784606","main_expt","","0.2389970352","","0.2243581634","","0.1749799719","","","","","",""
"146","","bandit","205","554416","0.0-167.0-0.0","06048030","wem/bandit_single","A1W4Q0E00VP6VD","pain","1","","72","H","0","img/none_selected.jpg","0","1","0","","0.2720271615","false","130","","0.2720271615","main_expt","","0.2613596901","","0.2215765871","","0.1950546205","","","","","",""
"1104","","bandit","206","557278","0.0-168.0-0.0","06048030","wem/bandit_single","A1W4Q0E00VP6VD","pain","1","","72","H","0","img/none_selected.jpg","0","0","1","","0.2403459828","false","131","","0.2403459828","main_expt","","0.2254289723","","0.1796651873","","0.2501377387","","","","","",""
"1805","","bandit","207","560845","0.0-169.0-0.0","06048030","wem/bandit_single","A1W4Q0E00VP6VD","pain","1","","72","H","0","img/none_selected.jpg","0","0","1","","0.2261584059","false","132","","0.2261584059","main_expt","","0.2759434303","","0.1946412172","","0.2275015869","","","","","",""
"1767","","bandit","208","564369","0.0-170.0-0.0","06048030","wem/bandit_single","A1W4Q0E00VP6VD","pain","1","","75","K","2","","0","1","0","","0.2390261597","false","133","","0.225512635","main_expt","","0.3153186182","","0.2390261597","","0.1961271051","","","","","",""
"1455","","bandit","209","567586","0.0-171.0-0.0","06048030","wem/bandit_single","A1W4Q0E00VP6VD","pain","1","","72","H","0","img/none_selected.jpg","0","1","0","","0.2119287539","false","134","","0.2119287539","main_expt","","0.2950667763","","0.227958871","","0.2508816485","","","","","",""
"3221","","bandit","210","572568","0.0-172.0-0.0","06048030","wem/bandit_single","A1W4Q0E00VP6VD","pain","1","","72","H","0","img/none_selected.jpg","0","1","0","","0.1980603764","false","135","","0.1980603764","main_expt","","0.3307223606","","0.2312014448","","0.3394706536","","","","","",""
"3418","","bandit","211","577749","0.0-173.0-0.0","06048030","wem/bandit_single","A1W4Q0E00VP6VD","pain","1","","72","H","0","img/none_selected.jpg","0","0","1","","0.2325476757","false","136","","0.2325476757","main_expt","","0.3298223854","","0.27599984","","0.2837829406","","","","","",""
"28","","bandit","212","579545","0.0-174.0-0.0","06048030","wem/bandit_single","A1W4Q0E00VP6VD","pain","1","","75","K","2","","0","1","0","","0.2313694212","false","137","","0.2334264213","main_expt","","0.3330531331","","0.2313694212","","0.3024244849","","","","","",""
"189","","bandit","213","581497","0.0-175.0-0.0","06048030","wem/bandit_single","A1W4Q0E00VP6VD","pain","1","","76","L","3","","0","0","1","","0.3473265679","false","138","","0.3107735177","main_expt","","0.292929501","","0.1816115857","","0.3473265679","","","","","",""
"172","","bandit","214","583430","0.0-176.0-0.0","06048030","wem/bandit_single","A1W4Q0E00VP6VD","pain","1","","76","L","3","","0","0","1","","0.2828336224","false","139","","0.3374098654","main_expt","","0.2849421758","","0.1658496667","","0.2828336224","","","","","",""
"252","","bandit","215","585444","0.0-177.0-0.0","06048030","wem/bandit_single","A1W4Q0E00VP6VD","pain","1","","76","L","3","","0","1","0","","0.3238397914","false","140","","0.3401298673","main_expt","","0.3149573531","","0.1644365985","","0.3238397914","","","","","",""
"31","","bandit","216","587234","0.0-178.0-0.0","06048030","wem/bandit_single","A1W4Q0E00VP6VD","pain","1","","72","H","0","img/none_selected.jpg","0","1","0","","0.363539884","false","141","","0.363539884","main_expt","","0.2937847178","","0.16055167","","0.3490905252","","","","","",""
"50","","bandit","217","589045","0.0-179.0-0.0","06048030","wem/bandit_single","A1W4Q0E00VP6VD","pain","1","","74","J","1","","0","0","1","","0.2695919138","false","142","","0.3207651517","main_expt","","0.2695919138","","0.1426499966","","0.337853111","","","","","",""
"213","","bandit","218","591017","0.0-180.0-0.0","06048030","wem/bandit_single","A1W4Q0E00VP6VD","pain","1","","75","K","2","","0","0","1","","0.1133276474","false","143","","0.2976941359","main_expt","","0.206179854","","0.1133276474","","0.3475703167","","","","","",""
"7","","bandit","219","592788","0.0-181.0-0.0","06048030","wem/bandit_single","A1W4Q0E00VP6VD","pain","1","","72","H","0","img/none_selected.jpg","0","0","1","","0.2405576463","false","144","","0.2405576463","main_expt","","0.2123329462","","0.1351054788","","0.3809945211","","","","","",""
"308","","bandit","220","594858","0.0-182.0-0.0","06048030","wem/bandit_single","A1W4Q0E00VP6VD","pain","1","","76","L","3","","0","1","0","","0.3842622547","false","145","","0.2513929943","main_expt","","0.2144195617","","0.1703546958","","0.3842622547","","","","","",""
"257","","bandit","221","596876","0.0-183.0-0.0","06048030","wem/bandit_single","A1W4Q0E00VP6VD","pain","1","","75","K","2","","0","0","1","","0.1382352341","false","146","","0.2665850657","main_expt","","0.2264269311","","0.1382352341","","0.4068715463","","","","","",""
"356","","bandit","222","598994","0.0-184.0-0.0","06048030","wem/bandit_single","A1W4Q0E00VP6VD","pain","1","","74","J","1","","0","0","1","","0.2458089499","false","147","","0.2742171136","main_expt","","0.2458089499","","0.1111211324","","0.3690267696","","","","","",""
"721","","bandit","223","601474","0.0-185.0-0.0","06048030","wem/bandit_single","A1W4Q0E00VP6VD","pain","1","","74","J","1","","0","0","1","","0.2581131455","false","148","","0.2504516377","main_expt","","0.2581131455","","0.1046256567","","0.3999465919","","","","","",""
"38","","bandit","224","603274","0.0-186.0-0.0","06048030","wem/bandit_single","A1W4Q0E00VP6VD","pain","1","","74","J","1","","0","0","1","","0.2055420423","false","149","","0.2749888299","main_expt","","0.2055420423","","0.09450025474","","0.3823047489","","","","","",""
"218","","bandit","225","605250","0.0-187.0-0.0","06048030","wem/bandit_single","A1W4Q0E00VP6VD","pain","1","","74","J","1","","0","0","1","","0.2196547661","false","150","","0.2199302859","main_expt","","0.2196547661","","0.08682851814","","0.3970301866","","","","","",""
"348","","bandit","226","607356","0.0-188.0-0.0","06048030","wem/bandit_single","A1W4Q0E00VP6VD","pain","1","","74","J","1","","0","0","1","","0.2311854424","false","151","","0.228921305","main_expt","","0.2311854424","","0.0775356828","","0.4141828336","","","","","",""
"991","","bandit","227","610109","0.0-189.0-0.0","06048030","wem/bandit_single","A1W4Q0E00VP6VD","pain","1","","74","J","1","","0","0","1","","0.2692750042","false","152","","0.1858313389","main_expt","","0.2692750042","","0.08719832593","","0.4233092002","","","","","",""
"464","","bandit","228","612333","0.0-190.0-0.0","06048030","wem/bandit_single","A1W4Q0E00VP6VD","pain","1","","74","J","1","","0","0","1","","0.3209664266","false","153","","0.2253380596","main_expt","","0.3209664266","","0.06950392785","","0.3961827626","","","","","",""
"679","","bandit","229","614772","0.0-191.0-0.0","06048030","wem/bandit_single","A1W4Q0E00VP6VD","pain","1","","74","J","1","","0","1","0","","0.2633096479","false","154","","0.1787374968","main_expt","","0.2633096479","","0.09734883616","","0.4023640633","","","","","",""
"243","","bandit","230","616775","0.0-192.0-0.0","06048030","wem/bandit_single","A1W4Q0E00VP6VD","pain","1","","75","K","2","","0","0","1","","0.1078867986","false","155","","0.1026625787","main_expt","","0.2611493198","","0.1078867986","","0.3927422998","","","","","",""
"2191","","bandit","231","620723","0.0-193.0-0.0","06048030","wem/bandit_single","A1W4Q0E00VP6VD","pain","1","","72","H","0","img/none_selected.jpg","0","1","0","","0.1201393653","false","156","","0.1201393653","main_expt","","0.2556392324","","0.09294383108","","0.3696188161","","","","","",""
"228","","bandit","232","622710","0.0-194.0-0.0","06048030","wem/bandit_single","A1W4Q0E00VP6VD","pain","1","","72","H","0","img/none_selected.jpg","0","0","1","","0.1601810659","false","157","","0.1601810659","main_expt","","0.2237912435","","0.1344904143","","0.3562863837","","","","","",""
"1541","","bandit","233","626012","0.0-195.0-0.0","06048030","wem/bandit_single","A1W4Q0E00VP6VD","pain","1","","72","H","0","img/none_selected.jpg","0","1","0","","0.2178666355","false","158","","0.2178666355","main_expt","","0.2269937079","","0.1682501471","","0.3891013447","","","","","",""
"106","","bandit","234","627879","0.0-196.0-0.0","06048030","wem/bandit_single","A1W4Q0E00VP6VD","pain","1","","76","L","3","","0","1","0","","0.3771509201","false","159","","0.2088119712","main_expt","","0.2244600926","","0.1859978291","","0.3771509201","","","","","",""
"205","","bandit","235","629845","0.0-197.0-0.0","06048030","wem/bandit_single","A1W4Q0E00VP6VD","pain","1","","75","K","2","","0","1","0","","0.1169857497","false","160","","0.2853399033","main_expt","","0.231654425","","0.1169857497","","0.3677966378","","","","","",""
"428","","bandit","236","632032","0.0-198.0-0.0","06048030","wem/bandit_single","A1W4Q0E00VP6VD","pain","1","","75","K","2","","0","0","1","","0.1131976547","false","161","","0.2755093387","main_expt","","0.2415747561","","0.1131976547","","0.3691576932","","","","","",""
"41","","bandit","237","633837","0.0-199.0-0.0","06048030","wem/bandit_single","A1W4Q0E00VP6VD","pain","1","","72","H","0","img/none_selected.jpg","0","0","1","","0.2706635439","false","162","","0.2706635439","main_expt","","0.1807921844","","0.1560378341","","0.3102253273","","","","","",""
"1836","","bandit","238","637433","0.0-200.0-0.0","06048030","wem/bandit_single","A1W4Q0E00VP6VD","pain","1","","72","H","0","img/none_selected.jpg","0","0","1","","0.2856851073","false","163","","0.2856851073","main_expt","","0.1986212186","","0.1200759877","","0.3361037566","","","","","",""
"146","","bandit","239","639339","0.0-201.0-0.0","06048030","wem/bandit_single","A1W4Q0E00VP6VD","pain","1","","75","K","2","","0","0","1","","0.1198838954","false","164","","0.3188827228","main_expt","","0.1799022971","","0.1198838954","","0.3097300036","","","","","",""
"1813","","bandit","240","642913","0.0-202.0-0.0","06048030","wem/bandit_single","A1W4Q0E00VP6VD","pain","1","","75","K","2","","0","1","0","","0.1397308529","false","165","","0.3258940933","main_expt","","0.2610149466","","0.1397308529","","0.3234169084","","","","","",""
"144","","bandit","241","644817","0.0-203.0-0.0","06048030","wem/bandit_single","A1W4Q0E00VP6VD","pain","1","","76","L","3","","0","0","1","","0.3201458278","false","166","","0.3525092479","main_expt","","0.2673729835","","0.1506282743","","0.3201458278","","","","","",""
"830","","bandit","242","647406","0.0-204.0-0.0","06048030","wem/bandit_single","A1W4Q0E00VP6VD","pain","1","","75","K","2","","0","0","1","","0.1407574557","false","167","","0.3919017073","main_expt","","0.169486101","","0.1407574557","","0.366643239","","","","","",""
"2215","","bandit","243","651381","0.0-205.0-0.0","06048030","wem/bandit_single","A1W4Q0E00VP6VD","pain","1","","75","K","2","","0","0","1","","0.1217255528","false","168","","0.3855955566","main_expt","","0.1997030364","","0.1217255528","","0.3877512758","","","","","",""
"425","","bandit","244","653566","0.0-206.0-0.0","06048030","wem/bandit_single","A1W4Q0E00VP6VD","pain","1","","75","K","2","","0","0","1","","0.118108524","false","169","","0.3882436634","main_expt","","0.2391799942","","0.118108524","","0.3733196812","","","","","",""
"373","","bandit","245","655699","0.0-207.0-0.0","06048030","wem/bandit_single","A1W4Q0E00VP6VD","pain","1","","74","J","1","","0","0","1","","0.2239577552","false","170","","0.4096789578","main_expt","","0.2239577552","","0.0750780909","","0.3616719183","","","","","",""
"359","","bandit","246","657816","0.0-208.0-0.0","06048030","wem/bandit_single","A1W4Q0E00VP6VD","pain","1","","72","H","0","img/none_selected.jpg","0","0","1","","0.4326257363","false","171","","0.4326257363","main_expt","","0.2175962327","","0.07048665386","","0.3222484871","","","","","",""
"52","","bandit","247","659627","0.0-209.0-0.0","06048030","wem/bandit_single","A1W4Q0E00VP6VD","pain","1","","72","H","0","img/none_selected.jpg","0","0","1","","0.4381189537","false","172","","0.4381189537","main_expt","","0.2061205584","","0.09439478605","","0.2849842628","","","","","",""
"263","","bandit","248","661649","0.0-210.0-0.0","06048030","wem/bandit_single","A1W4Q0E00VP6VD","pain","1","","72","H","0","img/none_selected.jpg","0","1","0","","0.3823577146","false","173","","0.3823577146","main_expt","","0.1787022686","","0.05932603211","","0.2896949147","","","","","",""
"1574","","bandit","249","664982","0.0-211.0-0.0","06048030","wem/bandit_single","A1W4Q0E00VP6VD","pain","1","","72","H","0","img/none_selected.jpg","0","0","1","","0.4155511425","false","174","","0.4155511425","main_expt","","0.1782801474","","0.1019229976","","0.260829927","","","","","",""
"325","","bandit","250","667066","0.0-212.0-0.0","06048030","wem/bandit_single","A1W4Q0E00VP6VD","pain","1","","72","H","0","img/none_selected.jpg","0","1","0","","0.4391025654","false","175","","0.4391025654","main_expt","","0.1723114597","","0.1270031357","","0.1608433896","","","","","",""
"349","","bandit","251","669180","0.0-213.0-0.0","06048030","wem/bandit_single","A1W4Q0E00VP6VD","pain","1","","76","L","3","","0","0","1","","0.1924323662","false","176","","0.4654332747","main_expt","","0.1714247165","","0.1519507126","","0.1924323662","","","","","",""
"514","","bandit","252","671454","0.0-214.0-0.0","06048030","wem/bandit_single","A1W4Q0E00VP6VD","pain","1","","76","L","3","","0","0","1","","0.1942299772","false","177","","0.4862166952","main_expt","","0.2003569552","","0.2645819263","","0.1942299772","","","","","",""
"231","","bandit","253","673444","0.0-215.0-0.0","06048030","wem/bandit_single","A1W4Q0E00VP6VD","pain","1","","76","L","3","","0","0","1","","0.2266891382","false","178","","0.4878504479","main_expt","","0.1848954505","","0.2497033982","","0.2266891382","","","","","",""
"2487","","bandit","254","677689","0.0-216.0-0.0","06048030","wem/bandit_single","A1W4Q0E00VP6VD","pain","1","","75","K","2","","0","0","1","","0.2464833147","false","179","","0.4925433574","main_expt","","0.120488448","","0.2464833147","","0.193755509","","","","","",""
"1422","","bandit","255","680872","0.0-217.0-0.0","06048030","wem/bandit_single","A1W4Q0E00VP6VD","pain","1","","76","L","3","","0","0","1","","0.2143300014","false","180","","0.4863546804","main_expt","","0.09518531587","","0.191435525","","0.2143300014","","","","","",""
"1828","","bandit","256","684459","0.0-218.0-0.0","06048030","wem/bandit_single","A1W4Q0E00VP6VD","pain","1","","75","K","2","","0","0","1","","0.2095150634","false","181","","0.4898831258","main_expt","","0.1110105533","","0.2095150634","","0.1996101457","","","","","",""
"2753","","bandit","257","688972","0.0-219.0-0.0","06048030","wem/bandit_single","A1W4Q0E00VP6VD","pain","1","","75","K","2","","0","0","1","","0.2238619417","false","182","","0.4702328405","main_expt","","0.1321710188","","0.2238619417","","0.220362663","","","","","",""
"185","","bandit","258","690921","0.0-220.0-0.0","06048030","wem/bandit_single","A1W4Q0E00VP6VD","pain","1","","76","L","3","","0","0","1","","0.2087999581","false","183","","0.4443650637","main_expt","","0.07205074818","","0.172430875","","0.2087999581","","","","","",""
"92","","bandit","259","692772","0.0-221.0-0.0","06048030","wem/bandit_single","A1W4Q0E00VP6VD","pain","1","","76","L","3","","0","1","0","","0.2693368533","false","184","","0.4395551327","main_expt","","0.08140980564","","0.1537152065","","0.2693368533","","","","","",""
"81","","bandit","260","694620","0.0-222.0-0.0","06048030","wem/bandit_single","A1W4Q0E00VP6VD","pain","1","","75","K","2","","0","0","1","","0.1089078126","false","185","","0.427498872","main_expt","","0.07005875891","","0.1089078126","","0.3177788722","","","","","",""
"258","","bandit","261","696638","0.0-223.0-0.0","06048030","wem/bandit_single","A1W4Q0E00VP6VD","pain","1","","74","J","1","","0","0","1","","0.04712836877","false","186","","0.4126395781","main_expt","","0.04712836877","","0.1150542287","","0.3093747324","","","","","",""
"3839","","bandit","262","702239","0.0-224.0-0.0","06048030","wem/bandit_single","A1W4Q0E00VP6VD","pain","1","","74","J","1","","0","1","0","","0.07097221374","false","187","","0.4059631444","main_expt","","0.07097221374","","0.07877539194","","0.3361469263","","","","","",""
"41","","bandit","263","704039","0.0-225.0-0.0","06048030","wem/bandit_single","A1W4Q0E00VP6VD","pain","1","","72","H","0","img/none_selected.jpg","0","0","1","","0.4007853126","false","188","","0.4007853126","main_expt","","0.04255461481","","0.06234325246","","0.3096611705","","","","","",""
"241","","bandit","264","706040","0.0-226.0-0.0","06048030","wem/bandit_single","A1W4Q0E00VP6VD","pain","1","","75","K","2","","0","0","1","","0.07748383332","false","189","","0.4208201059","main_expt","","0.03834091028","","0.07748383332","","0.298651231","","","","","",""
"949","","bandit","265","708748","0.0-227.0-0.0","06048030","wem/bandit_single","A1W4Q0E00VP6VD","pain","1","","76","L","3","","0","0","1","","0.3361123746","false","190","","0.4249824956","main_expt","","0.03101500858","","0.08864116925","","0.3361123746","","","","","",""
"194","","bandit","266","710702","0.0-228.0-0.0","06048030","wem/bandit_single","A1W4Q0E00VP6VD","pain","1","","74","J","1","","0","0","1","","0.05137759752","false","191","","0.4519194686","main_expt","","0.05137759752","","0.1114019665","","0.3529126189","","","","","",""
"2634","","bandit","267","715096","0.0-229.0-0.0","06048030","wem/bandit_single","A1W4Q0E00VP6VD","pain","1","","74","J","1","","0","0","1","","0.05101019331","false","192","","0.449072141","main_expt","","0.05101019331","","0.0944181321","","0.3806900048","","","","","",""
"599","","bandit","268","717456","0.0-230.0-0.0","06048030","wem/bandit_single","A1W4Q0E00VP6VD","pain","1","","72","H","0","img/none_selected.jpg","0","0","1","","0.4069092802","false","193","","0.4069092802","main_expt","","0.0408087357","","0.09015445577","","0.3191299148","","","","","",""
"155","","bandit","269","719373","0.0-231.0-0.0","06048030","wem/bandit_single","A1W4Q0E00VP6VD","pain","1","","75","K","2","","0","0","1","","0.09569888082","false","194","","0.399300076","main_expt","","0.04787233925","","0.09569888082","","0.3350705725","","","","","",""
"142","","bandit","270","721274","0.0-232.0-0.0","06048030","wem/bandit_single","A1W4Q0E00VP6VD","pain","1","","76","L","3","","0","0","1","","0.3579412151","false","195","","0.4028519225","main_expt","","0.07297342555","","0.1521563302","","0.3579412151","","","","","",""
"2699","","bandit","271","725736","0.0-233.0-0.0","06048030","wem/bandit_single","A1W4Q0E00VP6VD","pain","1","","76","L","3","","0","0","1","","0.4135102269","false","196","","0.3708283831","main_expt","","0.1090796252","","0.1612876033","","0.4135102269","","","","","",""
"204","","bandit","272","727697","0.0-234.0-0.0","06048030","wem/bandit_single","A1W4Q0E00VP6VD","pain","1","","75","K","2","","0","1","0","","0.1818980103","false","197","","0.3992028251","main_expt","","0.1141593934","","0.1818980103","","0.4368922102","","","","","",""
"175","","bandit","273","729635","0.0-235.0-0.0","06048030","wem/bandit_single","A1W4Q0E00VP6VD","pain","1","","74","J","1","","0","0","1","","0.1247063377","false","198","","0.3662313723","main_expt","","0.1247063377","","0.1426991491","","0.4329908538","","","","","",""
"313","","bandit","274","731706","0.0-236.0-0.0","06048030","wem/bandit_single","A1W4Q0E00VP6VD","pain","1","","72","H","0","img/none_selected.jpg","0","1","0","","0.3667285709","false","199","","0.3667285709","main_expt","","0.1324590526","","0.1339470975","","0.4458308372","","","","","",""
"1823","","bandit","275","735290","0.0-237.0-0.0","06048030","wem/bandit_single","A1W4Q0E00VP6VD","pain","1","","76","L","3","","0","0","1","","0.4535445428","false","200","","0.365396467","main_expt","","0.1062358191","","0.1615481579","","0.4535445428","","","","","",""
"1045","","bandit","276","738092","0.0-238.0-0.0","06048030","wem/bandit_single","A1W4Q0E00VP6VD","pain","1","","76","L","3","","0","0","1","","0.4258040833","false","201","","0.3413602931","main_expt","","0.1027729413","","0.1889616495","","0.4258040833","","","","","",""
"31","","bandit","277","739887","0.0-239.0-0.0","06048030","wem/bandit_single","A1W4Q0E00VP6VD","pain","1","","75","K","2","","0","0","1","","0.2043886565","false","202","","0.3655369163","main_expt","","0.09207086273","","0.2043886565","","0.413157784","","","","","",""
"146","","bandit","278","741793","0.0-240.0-0.0","06048030","wem/bandit_single","A1W4Q0E00VP6VD","pain","1","","72","H","0","img/none_selected.jpg","0","0","1","","0.3301706169","false","203","","0.3301706169","main_expt","","0.1409949376","","0.2274570119","","0.358983575","","","","","",""
"242","","bandit","279","743804","0.0-241.0-0.0","06048030","wem/bandit_single","A1W4Q0E00VP6VD","pain","1","","76","L","3","","0","0","1","","0.3354839288","false","204","","0.3305557625","main_expt","","0.2067441942","","0.1795680912","","0.3354839288","","","","","",""
"198","","bandit","280","745760","0.0-242.0-0.0","06048030","wem/bandit_single","A1W4Q0E00VP6VD","pain","1","","75","K","2","","0","0","1","","0.1823506393","false","205","","0.3332543728","main_expt","","0.2171549514","","0.1823506393","","0.3814446138","","","","","",""
"1365","","bandit","281","748886","0.0-243.0-0.0","06048030","wem/bandit_single","A1W4Q0E00VP6VD","pain","1","","75","K","2","","0","0","1","","0.1401809595","false","206","","0.270761893","main_expt","","0.1399251859","","0.1401809595","","0.4069937863","","","","","",""
"185","","bandit","282","750828","0.0-244.0-0.0","06048030","wem/bandit_single","A1W4Q0E00VP6VD","pain","1","","76","L","3","","0","0","1","","0.4261201247","false","207","","0.2595670132","main_expt","","0.1700254018","","0.1651993972","","0.4261201247","","","","","",""
"548","","bandit","283","753135","0.0-245.0-0.0","06048030","wem/bandit_single","A1W4Q0E00VP6VD","pain","1","","76","L","3","","0","1","0","","0.4105702951","false","208","","0.2772442529","main_expt","","0.1831619311","","0.1803987852","","0.4105702951","","","","","",""
"163","","bandit","284","755060","0.0-246.0-0.0","06048030","wem/bandit_single","A1W4Q0E00VP6VD","pain","1","","74","J","1","","0","1","0","","0.151215806","false","209","","0.2654441326","main_expt","","0.151215806","","0.1470434113","","0.402481318","","","","","",""
"326","","bandit","285","757149","0.0-247.0-0.0","06048030","wem/bandit_single","A1W4Q0E00VP6VD","pain","1","","72","H","0","img/none_selected.jpg","0","1","0","","0.2475709295","false","210","","0.2475709295","main_expt","","0.1841878728","","0.1375860563","","0.4378094136","","","","","",""
"103","","bandit","286","759012","0.0-248.0-0.0","06048030","wem/bandit_single","A1W4Q0E00VP6VD","pain","1","","76","L","3","","0","1","0","","0.4174257438","false","211","","0.1836637302","main_expt","","0.190591144","","0.1181257803","","0.4174257438","","","","","",""
"127","","bandit","287","760901","0.0-249.0-0.0","06048030","wem/bandit_single","A1W4Q0E00VP6VD","pain","1","","76","L","3","","0","0","1","","0.4235695044","false","212","","0.2018671691","main_expt","","0.2024219406","","0.1284194295","","0.4235695044","","","","","",""
"512","","bandit","288","763172","0.0-250.0-0.0","06048030","wem/bandit_single","A1W4Q0E00VP6VD","pain","1","","75","K","2","","0","0","1","","0.1088774305","false","213","","0.1807811906","main_expt","","0.1985525674","","0.1088774305","","0.4112054282","","","","","",""
"305","","bandit","289","765237","0.0-251.0-0.0","06048030","wem/bandit_single","A1W4Q0E00VP6VD","pain","1","","75","K","2","","0","0","1","","0.07230623063","false","214","","0.2432807767","main_expt","","0.1940352924","","0.07230623063","","0.3986702209","","","","","",""
"80","","bandit","290","767078","0.0-252.0-0.0","06048030","wem/bandit_single","A1W4Q0E00VP6VD","pain","1","","75","K","2","","0","0","1","","0.07963887701","false","215","","0.2167976264","main_expt","","0.1155678072","","0.07963887701","","0.4379561577","","","","","",""
"397","","bandit","291","769234","0.0-253.0-0.0","06048030","wem/bandit_single","A1W4Q0E00VP6VD","pain","1","","76","L","3","","0","0","1","","0.425003275","false","216","","0.2963745884","main_expt","","0.08288275022","","0.0792987172","","0.425003275","","","","","",""
"7184","","bandit","292","778177","0.0-254.0-0.0","06048030","wem/bandit_single","A1W4Q0E00VP6VD","pain","1","","76","L","3","","0","0","1","","0.4398514333","false","217","","0.2704200786","main_expt","","0.1108164962","","0.07576557353","","0.4398514333","","","","","",""
"225","","bandit","293","780163","0.0-255.0-0.0","06048030","wem/bandit_single","A1W4Q0E00VP6VD","pain","1","","74","J","1","","0","0","1","","0.1166222362","false","218","","0.2057322541","main_expt","","0.1166222362","","0.05946619603","","0.4307107256","","","","","",""
"298","","bandit","294","782223","0.0-256.0-0.0","06048030","wem/bandit_single","A1W4Q0E00VP6VD","pain","1","","74","J","1","","0","0","1","","0.1441412427","false","219","","0.2143414454","main_expt","","0.1441412427","","0.07419684477","","0.4236121262","","","","","",""
"307","","bandit","295","784296","0.0-257.0-0.0","06048030","wem/bandit_single","A1W4Q0E00VP6VD","pain","1","","75","K","2","","0","0","1","","0.09297922461","false","220","","0.1630835619","main_expt","","0.1460318591","","0.09297922461","","0.4020148519","","","","","",""
"66","","bandit","296","786119","0.0-258.0-0.0","06048030","wem/bandit_single","A1W4Q0E00VP6VD","pain","1","","72","H","0","img/none_selected.jpg","0","1","0","","0.1536312793","false","221","","0.1536312793","main_expt","","0.1068666799","","0.1429286242","","0.4073181559","","","","","",""
"63931","","bandit","297","851810","0.0-259.0-0.0","06048030","wem/bandit_single","A1W4Q0E00VP6VD","pain","1","","74","J","1","","0","0","1","","0.1101844092","false","222","","0.2214617817","main_expt","","0.1101844092","","0.1708286753","","0.3651123295","","","","","",""
"581","","bandit","298","854152","0.0-260.0-0.0","06048030","wem/bandit_single","A1W4Q0E00VP6VD","pain","1","","72","H","0","img/none_selected.jpg","0","0","1","","0.2273662723","false","223","","0.2273662723","main_expt","","0.0707480467","","0.1461267001","","0.3836441325","","","","","",""
"500","","bandit","299","856414","0.0-261.0-0.0","06048030","wem/bandit_single","A1W4Q0E00VP6VD","pain","1","","74","J","1","","0","0","1","","0.06117493494","false","224","","0.1894352557","main_expt","","0.06117493494","","0.144808321","","0.3982756155","","","","","",""
"4306","","bandit","300","862492","0.0-262.0-0.0","06048030","wem/bandit_single","A1W4Q0E00VP6VD","pain","1","","76","L","3","","0","1","0","","0.3942448394","false","225","","0.1292085382","main_expt","","0.0615688762","","0.1890777341","","0.3942448394","","","","","",""
"148","","bandit","301","864402","0.0-263.0-0.0","06048030","wem/bandit_single","A1W4Q0E00VP6VD","pain","1","","74","J","1","","0","0","1","","0.05052633559","false","226","","0.1530858041","main_expt","","0.05052633559","","0.1442837472","","0.4169515918","","","","","",""
"237","","bandit","302","866401","0.0-264.0-0.0","06048030","wem/bandit_single","A1W4Q0E00VP6VD","pain","1","","72","H","0","img/none_selected.jpg","0","1","0","","0.1593334253","false","227","","0.1593334253","main_expt","","0.05726050712","","0.1425852804","","0.4204191544","","","","","",""
"624","","bandit","303","868783","0.0-265.0-0.0","06048030","wem/bandit_single","A1W4Q0E00VP6VD","pain","1","","75","K","2","","0","0","1","","0.1116716659","false","228","","0.1247523642","main_expt","","0.0758768547","","0.1116716659","","0.4091886","","","","","",""
"4040","","bandit","304","874595","0.0-266.0-0.0","06048030","wem/bandit_single","A1W4Q0E00VP6VD","pain","1","","74","J","1","","0","0","1","","0.07022353505","false","229","","0.1463700977","main_expt","","0.07022353505","","0.1206121499","","0.407276644","","","","","",""
"1466","","bandit","305","877820","0.0-267.0-0.0","06048030","wem/bandit_single","A1W4Q0E00VP6VD","pain","1","","72","H","0","img/none_selected.jpg","0","0","1","","0.1402324221","false","230","","0.1402324221","main_expt","","0.06577032649","","0.1168532629","","0.4254558538","","","","","",""
"1323","","bandit","306","880913","0.0-268.0-0.0","06048030","wem/bandit_single","A1W4Q0E00VP6VD","pain","1","","75","K","2","","0","0","1","","0.0916199044","false","231","","0.1914784592","main_expt","","0.06313303242","","0.0916199044","","0.4259586803","","","","","",""
"863","","bandit","307","883534","0.0-269.0-0.0","06048030","wem/bandit_single","A1W4Q0E00VP6VD","pain","1","","76","L","3","","0","1","0","","0.4429649496","false","232","","0.1507361932","main_expt","","0.05490827263","","0.09573807812","","0.4429649496","","","","","",""
"1608","","bandit","308","886901","0.0-270.0-0.0","06048030","wem/bandit_single","A1W4Q0E00VP6VD","pain","1","","74","J","1","","0","0","1","","0.04200611561","false","233","","0.1902650793","main_expt","","0.04200611561","","0.1246926578","","0.4456598826","","","","","",""
"54","","bandit","309","888717","0.0-271.0-0.0","06048030","wem/bandit_single","A1W4Q0E00VP6VD","pain","1","","74","J","1","","0","0","1","","0.0550058871","false","234","","0.2663902881","main_expt","","0.0550058871","","0.122457211","","0.4504169918","","","","","",""
"3861","","bandit","310","894340","0.0-272.0-0.0","06048030","wem/bandit_single","A1W4Q0E00VP6VD","pain","1","","75","K","2","","0","0","1","","0.1561374187","false","235","","0.257874652","main_expt","","0.06273227262","","0.1561374187","","0.4255816076","","","","","",""
"2367","","bandit","311","898468","0.0-273.0-0.0","06048030","wem/bandit_single","A1W4Q0E00VP6VD","pain","1","","72","H","0","img/none_selected.jpg","0","0","1","","0.2134416149","false","236","","0.2134416149","main_expt","","0.09869136657","","0.1726763947","","0.4262424011","","","","","",""
"758","","bandit","312","900989","0.0-274.0-0.0","06048030","wem/bandit_single","A1W4Q0E00VP6VD","pain","1","","72","H","0","img/none_selected.jpg","0","0","1","","0.1655180868","false","237","","0.1655180868","main_expt","","0.06464195797","","0.163453789","","0.4314914545","","","","","",""
"3315","","bandit","313","906066","0.0-275.0-0.0","06048030","wem/bandit_single","A1W4Q0E00VP6VD","pain","1","","76","L","3","","0","0","1","","0.4580147213","false","238","","0.1528926348","main_expt","","0.1092425733","","0.1511244057","","0.4580147213","","","","","",""
"5872","","bandit","314","913696","0.0-276.0-0.0","06048030","wem/bandit_single","A1W4Q0E00VP6VD","pain","1","","72","H","0","img/none_selected.jpg","0","0","1","","0.1594670864","false","239","","0.1594670864","main_expt","","0.08920017271","","0.1170855371","","0.4437162142","","","","","",""
"2314","","bandit","315","917769","0.0-277.0-0.0","06048030","wem/bandit_single","A1W4Q0E00VP6VD","pain","1","","76","L","3","","0","1","0","","0.4423909474","false","240","","0.104293197","main_expt","","0.138477068","","0.1281478965","","0.4423909474","","","","","",""
"1752","","bandit","316","921284","0.0-278.0-0.0","06048030","wem/bandit_single","A1W4Q0E00VP6VD","pain","1","","75","K","2","","0","0","1","","0.1579661802","false","241","","0.07968297136","main_expt","","0.1249513709","","0.1579661802","","0.4542424264","","","","","",""
"216","","bandit","317","923260","0.0-279.0-0.0","06048030","wem/bandit_single","A1W4Q0E00VP6VD","pain","1","","72","H","0","img/none_selected.jpg","0","1","0","","0.07079416442","false","242","","0.07079416442","main_expt","","0.09754639251","","0.1345462726","","0.4659063812","","","","","",""
"166","","bandit","318","925185","0.0-280.0-0.0","06048030","wem/bandit_single","A1W4Q0E00VP6VD","pain","1","","75","K","2","","0","1","0","","0.1793426478","false","243","","0.08709770617","main_expt","","0.1223474156","","0.1793426478","","0.4702771719","","","","","",""
"320","","bandit","319","927264","0.0-281.0-0.0","06048030","wem/bandit_single","A1W4Q0E00VP6VD","pain","1","","75","K","2","","0","0","1","","0.1623289848","false","244","","0.08252109256","main_expt","","0.1004902073","","0.1623289848","","0.4678480784","","","","","",""
"133","","bandit","320","929157","0.0-282.0-0.0","06048030","wem/bandit_single","A1W4Q0E00VP6VD","pain","1","","75","K","2","","0","0","1","","0.1638267454","false","245","","0.07130924754","main_expt","","0.09372717231","","0.1638267454","","0.4608336118","","","","","",""
"914","","bandit","321","931834","0.0-283.0-0.0","06048030","wem/bandit_single","A1W4Q0E00VP6VD","pain","1","","74","J","1","","0","0","1","","0.1004977064","false","246","","0.06886742221","main_expt","","0.1004977064","","0.1794660524","","0.4455928316","","","","","",""
"573","","bandit","322","934165","0.0-284.0-0.0","06048030","wem/bandit_single","A1W4Q0E00VP6VD","pain","1","","75","K","2","","0","0","1","","0.1751092572","false","247","","0.064138504","main_expt","","0.09336015453","","0.1751092572","","0.4322927154","","","","","",""
"266","","bandit","323","936191","0.0-285.0-0.0","06048030","wem/bandit_single","A1W4Q0E00VP6VD","pain","1","","75","K","2","","0","0","1","","0.188480637","false","248","","0.05051083443","main_expt","","0.09552903486","","0.188480637","","0.4293825987","","","","","",""
"544","","bandit","324","938501","0.0-286.0-0.0","06048030","wem/bandit_single","A1W4Q0E00VP6VD","pain","1","","74","J","1","","0","0","1","","0.1087111068","false","249","","0.05514480776","main_expt","","0.1087111068","","0.1718025207","","0.4338924945","","","","","",""
"255","","bandit","325","940528","0.0-287.0-0.0","06048030","wem/bandit_single","A1W4Q0E00VP6VD","pain","1","","75","K","2","","0","1","0","","0.1377417152","false","250","","0.02780796002","main_expt","","0.08296073337","","0.1377417152","","0.4356531551","","","","","",""
"1113","","bandit","326","943399","0.0-288.0-0.0","06048030","wem/bandit_single","A1W4Q0E00VP6VD","pain","1","","76","L","3","","0","0","1","","0.4561881598","false","251","","0.02786711831","main_expt","","0.08988728922","","0.1623098307","","0.4561881598","","","","","",""
"372","","bandit","327","945531","0.0-289.0-0.0","06048030","wem/bandit_single","A1W4Q0E00VP6VD","pain","1","","75","K","2","","0","1","0","","0.1702242208","false","252","","0.03881205422","main_expt","","0.07043490844","","0.1702242208","","0.4517263236","","","","","",""
"912","","bandit","328","948203","0.0-290.0-0.0","06048030","wem/bandit_single","A1W4Q0E00VP6VD","pain","1","","74","J","1","","0","0","1","","0.06648959932","false","253","","0.03211176865","main_expt","","0.06648959932","","0.1571297736","","0.4280730872","","","","","",""
"1949","","bandit","329","951914","0.0-291.0-0.0","06048030","wem/bandit_single","A1W4Q0E00VP6VD","pain","1","","72","H","0","img/none_selected.jpg","0","0","1","","0.02501863174","false","254","","0.02501863174","main_expt","","0.04750248463","","0.1311762281","","0.3976691957","","","","","",""
"666","","bandit","330","954339","0.0-292.0-0.0","06048030","wem/bandit_single","A1W4Q0E00VP6VD","pain","1","","76","L","3","","0","1","0","","0.3920211634","false","255","","0.03845468041","main_expt","","0.0685067328","","0.1262313745","","0.3920211634","","","","","",""
"1971","","bandit","331","958072","0.0-293.0-0.0","06048030","wem/bandit_single","A1W4Q0E00VP6VD","pain","1","","74","J","1","","0","0","1","","0.06106940649","false","256","","0.03093107714","main_expt","","0.06106940649","","0.08888936201","","0.3802568344","","","","","",""
"1063","","bandit","332","960898","0.0-294.0-0.0","06048030","wem/bandit_single","A1W4Q0E00VP6VD","pain","1","","74","J","1","","0","0","1","","0.03925251802","false","257","","0.02284381284","main_expt","","0.03925251802","","0.1016624202","","0.4153547565","","","","","",""
"1092","","bandit","333","963748","0.0-295.0-0.0","06048030","wem/bandit_single","A1W4Q0E00VP6VD","pain","1","","74","J","1","","0","0","1","","0.07528758783","false","258","","0.01195927332","main_expt","","0.07528758783","","0.1201960749","","0.412770775","","","","","",""
"201","","bandit","334","965712","0.0-296.0-0.0","06048030","wem/bandit_single","A1W4Q0E00VP6VD","pain","1","","74","J","1","","0","0","1","","0.06168900656","false","259","","0.009837890866","main_expt","","0.06168900656","","0.09869940493","","0.4364469878","","","","","",""
"2056","","bandit","335","969531","0.0-297.0-0.0","06048030","wem/bandit_single","A1W4Q0E00VP6VD","pain","1","","75","K","2","","0","0","1","","0.140367269","false","260","","0.01652501309","main_expt","","0.05358732337","","0.140367269","","0.4143686848","","","","","",""
"176","","bandit","336","971469","0.0-298.0-0.0","06048030","wem/bandit_single","A1W4Q0E00VP6VD","pain","1","","74","J","1","","0","1","0","","0.05974294151","false","261","","0.0246934762","main_expt","","0.05974294151","","0.107121031","","0.3932103286","","","","","",""
"1407","","bandit","337","974637","0.0-299.0-0.0","06048030","wem/bandit_single","A1W4Q0E00VP6VD","pain","1","","74","J","1","","0","0","1","","0.0656558392","false","262","","0.02217338967","main_expt","","0.0656558392","","0.142880744","","0.4299042069","","","","","",""
"136","","bandit","338","976536","0.0-300.0-0.0","06048030","wem/bandit_single","A1W4Q0E00VP6VD","pain","1","","72","H","0","img/none_selected.jpg","0","1","0","","0.02538488248","false","263","","0.02538488248","main_expt","","0.08006927963","","0.1398656543","","0.3864913748","","","","","",""
"1160","","bandit","339","979456","0.0-301.0-0.0","06048030","wem/bandit_single","A1W4Q0E00VP6VD","pain","1","","72","H","0","img/none_selected.jpg","0","0","1","","0.03542132602","false","264","","0.03542132602","main_expt","","0.07803510261","","0.185630342","","0.3721946297","","","","","",""
"77","","bandit","340","981293","0.0-302.0-0.0","06048030","wem/bandit_single","A1W4Q0E00VP6VD","pain","1","","72","H","0","img/none_selected.jpg","0","0","1","","0.03052618628","false","265","","0.03052618628","main_expt","","0.08917846028","","0.1483619715","","0.3326379545","","","","","",""
"2524","","bandit","341","985576","0.0-303.0-0.0","06048030","wem/bandit_single","A1W4Q0E00VP6VD","pain","1","","72","H","0","img/none_selected.jpg","0","0","1","","0.02388326919","false","266","","0.02388326919","main_expt","","0.1562168236","","0.1677753502","","0.3337002386","","","","","",""
"2710","","bandit","342","990047","0.0-304.0-0.0","06048030","wem/bandit_single","A1W4Q0E00VP6VD","pain","1","","76","L","3","","0","0","1","","0.3044940876","false","267","","0.01496915784","main_expt","","0.1873085091","","0.1748953786","","0.3044940876","","","","","",""
"3898","","bandit","343","995710","0.0-305.0-0.0","06048030","wem/bandit_single","A1W4Q0E00VP6VD","pain","1","","76","L","3","","0","1","0","","0.2966269971","false","268","","0.01735494223","main_expt","","0.1850807086","","0.152215306","","0.2966269971","","","","","",""
"1152","","bandit","344","998620","0.0-306.0-0.0","06048030","wem/bandit_single","A1W4Q0E00VP6VD","pain","1","","74","J","1","","0","0","1","","0.1461958128","false","269","","0.01365938384","main_expt","","0.1461958128","","0.1420691147","","0.2617435325","","","","","",""
"885","","bandit","345","1001268","0.0-307.0-0.0","06048030","wem/bandit_single","A1W4Q0E00VP6VD","pain","1","","74","J","1","","0","0","1","","0.1348565207","false","270","","0.01871615964","main_expt","","0.1348565207","","0.1338049101","","0.2599280147","","","","","",""
"80","","bandit","346","1003113","0.0-308.0-0.0","06048030","wem/bandit_single","A1W4Q0E00VP6VD","pain","1","","75","K","2","","0","0","1","","0.1178923734","false","271","","0.01663887187","main_expt","","0.1588166083","","0.1178923734","","0.2499936179","","","","","",""
"2398","","bandit","347","1007273","0.0-309.0-0.0","06048030","wem/bandit_single","A1W4Q0E00VP6VD","pain","1","","76","L","3","","0","0","1","","0.2703142459","false","272","","0.01973971225","main_expt","","0.1288650497","","0.1436833609","","0.2703142459","","","","","",""
"827","","bandit","348","1009859","0.0-310.0-0.0","06048030","wem/bandit_single","A1W4Q0E00VP6VD","pain","1","","72","H","0","img/none_selected.jpg","0","0","1","","0.01954424634","false","273","","0.01954424634","main_expt","","0.1414039315","","0.1917782062","","0.2835249431","","","","","",""
"900","","bandit","349","1012519","0.0-311.0-0.0","06048030","wem/bandit_single","A1W4Q0E00VP6VD","pain","1","","75","K","2","","0","0","1","","0.1657285368","false","274","","0.008862655739","main_expt","","0.1132613661","","0.1657285368","","0.2906451875","","","","","",""
"98","","bandit","350","1014378","0.0-312.0-0.0","06048030","wem/bandit_single","A1W4Q0E00VP6VD","pain","1","","75","K","2","","0","0","1","","0.1420329436","false","275","","0.0094605031","main_expt","","0.1396690899","","0.1420329436","","0.2670480505","","","","","",""
"467","","bandit","351","1016607","0.0-313.0-0.0","06048030","wem/bandit_single","A1W4Q0E00VP6VD","pain","1","","74","J","1","","0","0","1","","0.1109816737","false","276","","0.01191149084","main_expt","","0.1109816737","","0.1369756733","","0.2358592403","","","","","",""
"1263","","bandit","352","1019647","0.0-314.0-0.0","06048030","wem/bandit_single","A1W4Q0E00VP6VD","pain","1","","76","L","3","","0","0","1","","0.1877967456","false","277","","0.00904810236","main_expt","","0.08046464388","","0.1781068979","","0.1877967456","","","","","",""
"89","","bandit","353","1021497","0.0-315.0-0.0","06048030","wem/bandit_single","A1W4Q0E00VP6VD","pain","1","","76","L","3","","0","1","0","","0.1537245983","false","278","","0.007795284796","main_expt","","0.07407019324","","0.248352092","","0.1537245983","","","","","",""
"62","","bandit","354","1023320","0.0-316.0-0.0","06048030","wem/bandit_single","A1W4Q0E00VP6VD","pain","1","","76","L","3","","0","0","1","","0.1662011111","false","279","","0.01747653863","main_expt","","0.06478755197","","0.263219496","","0.1662011111","","","","","",""
"291","","bandit","355","1025374","0.0-317.0-0.0","06048030","wem/bandit_single","A1W4Q0E00VP6VD","pain","1","","76","L","3","","0","1","0","","0.1622625537","false","280","","0.02326096521","main_expt","","0.04895059186","","0.210776847","","0.1622625537","","","","","",""
"101","","bandit","356","1027237","0.0-318.0-0.0","06048030","wem/bandit_single","A1W4Q0E00VP6VD","pain","1","","75","K","2","","0","0","1","","0.1901401854","false","281","","0.03290281633","main_expt","","0.04598133094","","0.1901401854","","0.2160365104","","","","","",""
"529","","bandit","357","1029528","0.0-319.0-0.0","06048030","wem/bandit_single","A1W4Q0E00VP6VD","pain","1","","75","K","2","","0","0","1","","0.1692674388","false","282","","0.03647511751","main_expt","","0.0454431083","","0.1692674388","","0.2031844556","","","","","",""
"390","","bandit","358","1031683","0.0-320.0-0.0","06048030","wem/bandit_single","A1W4Q0E00VP6VD","pain","1","","75","K","2","","0","1","0","","0.1697823826","false","283","","0.0381479171","main_expt","","0.0377119091","","0.1697823826","","0.236778666","","","","","",""
"532","","bandit","359","1033978","0.0-321.0-0.0","06048030","wem/bandit_single","A1W4Q0E00VP6VD","pain","1","","74","J","1","","0","0","1","","0.0346676025","false","284","","0.04237273713","main_expt","","0.0346676025","","0.1647860582","","0.2082896542","","","","","",""
"285","","bandit","360","1036023","0.0-322.0-0.0","06048030","wem/bandit_single","A1W4Q0E00VP6VD","pain","1","","74","J","1","","0","0","1","","0.03394591187","false","285","","0.08736605616","main_expt","","0.03394591187","","0.2346467376","","0.1682052712","","","","","",""
"346","","bandit","361","1038132","0.0-323.0-0.0","06048030","wem/bandit_single","A1W4Q0E00VP6VD","pain","1","","74","J","1","","0","0","1","","0.03437308726","false","286","","0.149418319","main_expt","","0.03437308726","","0.1651037306","","0.1287852917","","","","","",""
"1444","","bandit","362","1041339","0.0-324.0-0.0","06048030","wem/bandit_single","A1W4Q0E00VP6VD","pain","1","","74","J","1","","0","0","1","","0.043905831","false","287","","0.2149685411","main_expt","","0.043905831","","0.113933185","","0.0739145169","","","","","",""
"1375","","bandit","363","1044475","0.0-325.0-0.0","06048030","wem/bandit_single","A1W4Q0E00VP6VD","pain","1","","72","H","0","img/none_selected.jpg","0","0","1","","0.181398065","false","288","","0.181398065","main_expt","","0.02064047927","","0.08260993421","","0.08295252225","","","","","",""
"706","","bandit","364","1046945","0.0-326.0-0.0","06048030","wem/bandit_single","A1W4Q0E00VP6VD","pain","1","","72","H","0","img/none_selected.jpg","0","0","1","","0.1523032639","false","289","","0.1523032639","main_expt","","0.0250169619","","0.07260323305","","0.0479508895","","","","","",""
"1324","","bandit","365","1050029","0.0-327.0-0.0","06048030","wem/bandit_single","A1W4Q0E00VP6VD","pain","1","","72","H","0","img/none_selected.jpg","0","0","1","","0.1404761367","false","290","","0.1404761367","main_expt","","0.04785043425","","0.06306400378","","0.05498143303","","","","","",""
"405","","bandit","366","1052199","0.0-328.0-0.0","06048030","wem/bandit_single","A1W4Q0E00VP6VD","pain","1","","72","H","0","img/none_selected.jpg","0","1","0","","0.1639955189","false","291","","0.1639955189","main_expt","","0.05997729544","","0.06173149747","","0.06238518006","","","","","",""
"2816","","bandit","367","1056781","0.0-329.0-0.0","06048030","wem/bandit_single","A1W4Q0E00VP6VD","pain","1","","72","H","0","img/none_selected.jpg","0","0","1","","0.1365824739","false","292","","0.1365824739","main_expt","","0.08013724224","","0.049421281","","0.06246846358","","","","","",""
"2296","","bandit","368","1060841","0.0-330.0-0.0","06048030","wem/bandit_single","A1W4Q0E00VP6VD","pain","1","","72","H","0","img/none_selected.jpg","0","1","0","","0.2190436779","false","293","","0.2190436779","main_expt","","0.08257915178","","0.04661139695","","0.0635142122","","","","","",""
"643","","bandit","369","1063244","0.0-331.0-0.0","06048030","wem/bandit_single","A1W4Q0E00VP6VD","pain","1","","74","J","1","","0","0","1","","0.07979116831","false","294","","0.2961987497","main_expt","","0.07979116831","","0.05266196286","","0.1078883856","","","","","",""
"597","","bandit","370","1065604","0.0-332.0-0.0","06048030","wem/bandit_single","A1W4Q0E00VP6VD","pain","1","","74","J","1","","0","1","0","","0.1168190604","false","295","","0.3422413176","main_expt","","0.1168190604","","0.0541153793","","0.1065048767","","","","","",""
"216","","bandit","371","1067581","0.0-333.0-0.0","06048030","wem/bandit_single","A1W4Q0E00VP6VD","pain","1","","72","H","0","img/none_selected.jpg","0","1","0","","0.3023757447","false","296","","0.3023757447","main_expt","","0.1280513587","","0.03514166697","","0.1528862056","","","","","",""
