"rt","responses","trial_type","trial_index","time_elapsed","internal_node_id","subjID","study","MID","cond","drift","key_press","respCharCode","respKey","respChoiceNum","respChoice","gems","bombs","no_reward","GemPrChosen","BombPrChosen","practice","trial_counter","WinPr_0","LosePr_0","trial_label","WinPr_1","LosePr_1","WinPr_2","LosePr_2","WinPr_3","LosePr_3","Q0","Q1","Q2","gender","age","ethnicity"
"6206","{""Q0"":""A320QA9HJFUOZO""}","survey-text","0","6216","0.0-0.0","07088941","wem/bandit_single","A320QA9HJFUOZO","gain","8","","","","","","","","","","","","","","","","","","","","","","","","","","",""
"4200","","text","1","11434","0.0-1.0","07088941","wem/bandit_single","A320QA9HJFUOZO","gain","8","32","","","","","","","","","","","","","","","","","","","","","","","","","",""
"11634","","text","2","23079","0.0-2.0","07088941","wem/bandit_single","A320QA9HJFUOZO","gain","8","32","","","","","","","","","","","","","","","","","","","","","","","","","",""
"20619","","text","3","43699","0.0-3.0","07088941","wem/bandit_single","A320QA9HJFUOZO","gain","8","32","","","","","","","","","","","","","","","","","","","","","","","","","",""
"12714","","text","4","56413","0.0-4.0","07088941","wem/bandit_single","A320QA9HJFUOZO","gain","8","32","","","","","","","","","","","","","","","","","","","","","","","","","",""
"8283","","text","5","64696","0.0-5.0","07088941","wem/bandit_single","A320QA9HJFUOZO","gain","8","32","","","","","","","","","","","","","","","","","","","","","","","","","",""
"5763","","text","6","70459","0.0-6.0","07088941","wem/bandit_single","A320QA9HJFUOZO","gain","8","32","","","","","","","","","","","","","","","","","","","","","","","","","",""
"3160","","text","7","73619","0.0-7.0","07088941","wem/bandit_single","A320QA9HJFUOZO","gain","8","32","","","","","","","","","","","","","","","","","","","","","","","","","",""
"3271","","text","8","76890","0.0-8.0","07088941","wem/bandit_single","A320QA9HJFUOZO","gain","8","32","","","","","","","","","","","","","","","","","","","","","","","","","",""
"2389","","text","9","79280","0.0-9.0","07088941","wem/bandit_single","A320QA9HJFUOZO","gain","8","32","","","","","","","","","","","","","","","","","","","","","","","","","",""
"4315","","text","10","83596","0.0-10.0","07088941","wem/bandit_single","A320QA9HJFUOZO","gain","8","32","","","","","","","","","","","","","","","","","","","","","","","","","",""
"8609","","text","11","92206","0.0-11.0","07088941","wem/bandit_single","A320QA9HJFUOZO","gain","8","32","","","","","","","","","","","","","","","","","","","","","","","","","",""
"1612","","bandit","12","95338","0.0-12.0-0.0","07088941","wem/bandit_single","A320QA9HJFUOZO","gain","8","","74","J","0","img/none_selected_demo.jpg","0","0","1","0","0","true","0","0","0","","","","","","","","","","","","",""
"820","","bandit","13","97926","0.0-13.0-0.0","07088941","wem/bandit_single","A320QA9HJFUOZO","gain","8","","75","K","0","img/none_selected_demo.jpg","0","0","1","0","0","true","0","0","0","","","","","","","","","","","","",""
"2037","","text","14","100225","0.0-14.0","07088941","wem/bandit_single","A320QA9HJFUOZO","gain","8","32","","","","","","","","","","","","","","","","","","","","","","","","","",""
"1713","","text","15","101948","0.0-15.0","07088941","wem/bandit_single","A320QA9HJFUOZO","gain","8","32","","","","","","","","","","","","","","","","","","","","","","","","","",""
"2227","","text","16","104175","0.0-16.0","07088941","wem/bandit_single","A320QA9HJFUOZO","gain","8","32","","","","","","","","","","","","","","","","","","","","","","","","","",""
"2453","","text","17","106628","0.0-17.0","07088941","wem/bandit_single","A320QA9HJFUOZO","gain","8","32","","","","","","","","","","","","","","","","","","","","","","","","","",""
"1023","","bandit","18","109161","0.0-18.0-0.0","07088941","wem/bandit_single","A320QA9HJFUOZO","gain","8","","74","J","0","img/none_selected_demo.jpg","1","0","0","0.8","0","true","0","0.8","0","80_20_practice","0.2","0","","","","","","","","","",""
"565","","bandit","19","111500","0.0-18.0-1.0","07088941","wem/bandit_single","A320QA9HJFUOZO","gain","8","","74","J","0","img/none_selected_demo.jpg","1","0","0","0.8","0","true","0","0.8","0","80_20_practice","0.2","0","","","","","","","","","",""
"127","","bandit","20","113388","0.0-18.0-2.0","07088941","wem/bandit_single","A320QA9HJFUOZO","gain","8","","75","K","1","","1","0","0","0.2","0","true","0","0.8","0","80_20_practice","0.2","0","","","","","","","","","",""
"353","","bandit","21","115509","0.0-18.0-3.0","07088941","wem/bandit_single","A320QA9HJFUOZO","gain","8","","75","K","1","","0","0","1","0.2","0","true","0","0.8","0","80_20_practice","0.2","0","","","","","","","","","",""
"157","","bandit","22","117439","0.0-18.0-4.0","07088941","wem/bandit_single","A320QA9HJFUOZO","gain","8","","75","K","1","","0","0","1","0.2","0","true","0","0.8","0","80_20_practice","0.2","0","","","","","","","","","",""
"53","","bandit","23","119273","0.0-18.0-5.0","07088941","wem/bandit_single","A320QA9HJFUOZO","gain","8","","74","J","0","img/none_selected_demo.jpg","1","0","0","0.8","0","true","0","0.8","0","80_20_practice","0.2","0","","","","","","","","","",""
"262","","bandit","24","121308","0.0-18.0-6.0","07088941","wem/bandit_single","A320QA9HJFUOZO","gain","8","","74","J","0","img/none_selected_demo.jpg","1","0","0","0.8","0","true","0","0.8","0","80_20_practice","0.2","0","","","","","","","","","",""
"296","","bandit","25","123370","0.0-18.0-7.0","07088941","wem/bandit_single","A320QA9HJFUOZO","gain","8","","74","J","0","img/none_selected_demo.jpg","0","0","1","0.8","0","true","0","0.8","0","80_20_practice","0.2","0","","","","","","","","","",""
"423","","bandit","26","125568","0.0-18.0-8.0","07088941","wem/bandit_single","A320QA9HJFUOZO","gain","8","","74","J","0","img/none_selected_demo.jpg","1","0","0","0.8","0","true","0","0.8","0","80_20_practice","0.2","0","","","","","","","","","",""
"100","","bandit","27","127436","0.0-18.0-9.0","07088941","wem/bandit_single","A320QA9HJFUOZO","gain","8","","75","K","1","","0","0","1","0.2","0","true","0","0.8","0","80_20_practice","0.2","0","","","","","","","","","",""
"166","","bandit","28","129365","0.0-18.0-10.0","07088941","wem/bandit_single","A320QA9HJFUOZO","gain","8","","75","K","1","","1","0","0","0.2","0","true","0","0.8","0","80_20_practice","0.2","0","","","","","","","","","",""
"193","","bandit","29","131331","0.0-18.0-11.0","07088941","wem/bandit_single","A320QA9HJFUOZO","gain","8","","75","K","1","","0","0","1","0.2","0","true","0","0.8","0","80_20_practice","0.2","0","","","","","","","","","",""
"731","","bandit","30","133836","0.0-18.0-12.0","07088941","wem/bandit_single","A320QA9HJFUOZO","gain","8","","74","J","0","img/none_selected_demo.jpg","1","0","0","0.8","0","true","0","0.8","0","80_20_practice","0.2","0","","","","","","","","","",""
"276","","bandit","31","135886","0.0-18.0-13.0","07088941","wem/bandit_single","A320QA9HJFUOZO","gain","8","","74","J","0","img/none_selected_demo.jpg","1","0","0","0.8","0","true","0","0.8","0","80_20_practice","0.2","0","","","","","","","","","",""
"22","","bandit","32","137682","0.0-18.0-14.0","07088941","wem/bandit_single","A320QA9HJFUOZO","gain","8","","75","K","1","","0","0","1","0.2","0","true","0","0.8","0","80_20_practice","0.2","0","","","","","","","","","",""
"171","","bandit","33","139613","0.0-18.0-15.0","07088941","wem/bandit_single","A320QA9HJFUOZO","gain","8","","75","K","1","","1","0","0","0.2","0","true","0","0.8","0","80_20_practice","0.2","0","","","","","","","","","",""
"23","","bandit","34","141399","0.0-18.0-16.0","07088941","wem/bandit_single","A320QA9HJFUOZO","gain","8","","74","J","0","img/none_selected_demo.jpg","1","0","0","0.8","0","true","0","0.8","0","80_20_practice","0.2","0","","","","","","","","","",""
"439","","bandit","35","143607","0.0-18.0-17.0","07088941","wem/bandit_single","A320QA9HJFUOZO","gain","8","","75","K","1","","0","0","1","0.2","0","true","0","0.8","0","80_20_practice","0.2","0","","","","","","","","","",""
"404","","bandit","36","145785","0.0-18.0-18.0","07088941","wem/bandit_single","A320QA9HJFUOZO","gain","8","","74","J","0","img/none_selected_demo.jpg","1","0","0","0.8","0","true","0","0.8","0","80_20_practice","0.2","0","","","","","","","","","",""
"667","","bandit","37","148225","0.0-18.0-19.0","07088941","wem/bandit_single","A320QA9HJFUOZO","gain","8","","75","K","1","","0","0","1","0.2","0","true","0","0.8","0","80_20_practice","0.2","0","","","","","","","","","",""
"3142","","text","38","151627","0.0-19.0","07088941","wem/bandit_single","A320QA9HJFUOZO","gain","8","32","","","","","","","","","","","","","","","","","","","","","","","","","",""
"1826","","bandit","39","154972","0.0-20.0-0.0","07088941","wem/bandit_single","A320QA9HJFUOZO","gain","8","","74","J","0","img/none_selected_demo.jpg","0","0","1","0","0","true","0","0","0","","0","0","","","","","","","","","",""
"3864","","text","40","159092","0.0-21.0","07088941","wem/bandit_single","A320QA9HJFUOZO","gain","8","32","","","","","","","","","","","","","","","","","","","","","","","","","",""
"1926","","text","41","161018","0.0-22.0","07088941","wem/bandit_single","A320QA9HJFUOZO","gain","8","32","","","","","","","","","","","","","","","","","","","","","","","","","",""
"3547","","text","42","164575","0.0-23.0","07088941","wem/bandit_single","A320QA9HJFUOZO","gain","8","32","","","","","","","","","","","","","","","","","","","","","","","","","",""
"2246","","text","43","166821","0.0-24.0","07088941","wem/bandit_single","A320QA9HJFUOZO","gain","8","32","","","","","","","","","","","","","","","","","","","","","","","","","",""
"11154","","text","44","177975","0.0-25.0","07088941","wem/bandit_single","A320QA9HJFUOZO","gain","8","32","","","","","","","","","","","","","","","","","","","","","","","","","",""
"5521","","text","45","183506","0.0-26.0","07088941","wem/bandit_single","A320QA9HJFUOZO","gain","8","32","","","","","","","","","","","","","","","","","","","","","","","","","",""
"8120","","text","46","191627","0.0-27.0","07088941","wem/bandit_single","A320QA9HJFUOZO","gain","8","32","","","","","","","","","","","","","","","","","","","","","","","","","",""
"2728","","text","47","194356","0.0-28.0","07088941","wem/bandit_single","A320QA9HJFUOZO","gain","8","32","","","","","","","","","","","","","","","","","","","","","","","","","",""
"4560","","text","48","198916","0.0-29.0","07088941","wem/bandit_single","A320QA9HJFUOZO","gain","8","32","","","","","","","","","","","","","","","","","","","","","","","","","",""
"2060","","text","49","200986","0.0-30.0","07088941","wem/bandit_single","A320QA9HJFUOZO","gain","8","32","","","","","","","","","","","","","","","","","","","","","","","","","",""
"3143","","text","50","204129","0.0-31.0","07088941","wem/bandit_single","A320QA9HJFUOZO","gain","8","32","","","","","","","","","","","","","","","","","","","","","","","","","",""
"827","","bandit","51","206486","0.0-32.0-0.0","07088941","wem/bandit_single","A320QA9HJFUOZO","gain","8","","72","H","0","img/none_selected.jpg","1","0","0","0.8","0","true","0","0.8","0","full_practice","0.2","0","0.6","0","0.2","0","","","","","",""
"50","","bandit","52","208313","0.0-32.0-1.0","07088941","wem/bandit_single","A320QA9HJFUOZO","gain","8","","72","H","0","img/none_selected.jpg","1","0","0","0.8","0","true","0","0.8","0","full_practice","0.2","0","0.6","0","0.2","0","","","","","",""
"50","","bandit","53","210133","0.0-32.0-2.0","07088941","wem/bandit_single","A320QA9HJFUOZO","gain","8","","72","H","0","img/none_selected.jpg","1","0","0","0.8","0","true","0","0.8","0","full_practice","0.2","0","0.6","0","0.2","0","","","","","",""
"29","","bandit","54","211924","0.0-32.0-3.0","07088941","wem/bandit_single","A320QA9HJFUOZO","gain","8","","72","H","0","img/none_selected.jpg","1","0","0","0.8","0","true","0","0.8","0","full_practice","0.2","0","0.6","0","0.2","0","","","","","",""
"0","","bandit","55","213702","0.0-32.0-4.0","07088941","wem/bandit_single","A320QA9HJFUOZO","gain","8","","74","J","1","","1","0","0","0.2","0","true","0","0.8","0","full_practice","0.2","0","0.6","0","0.2","0","","","","","",""
"12","","bandit","56","215480","0.0-32.0-5.0","07088941","wem/bandit_single","A320QA9HJFUOZO","gain","8","","74","J","1","","0","0","1","0.2","0","true","0","0.8","0","full_practice","0.2","0","0.6","0","0.2","0","","","","","",""
"470","","bandit","57","217718","0.0-32.0-6.0","07088941","wem/bandit_single","A320QA9HJFUOZO","gain","8","","74","J","1","","0","0","1","0.2","0","true","0","0.8","0","full_practice","0.2","0","0.6","0","0.2","0","","","","","",""
"103","","bandit","58","219590","0.0-32.0-7.0","07088941","wem/bandit_single","A320QA9HJFUOZO","gain","8","","74","J","1","","0","0","1","0.2","0","true","0","0.8","0","full_practice","0.2","0","0.6","0","0.2","0","","","","","",""
"87","","bandit","59","221456","0.0-32.0-8.0","07088941","wem/bandit_single","A320QA9HJFUOZO","gain","8","","75","K","2","","1","0","0","0.6","0","true","0","0.8","0","full_practice","0.2","0","0.6","0","0.2","0","","","","","",""
"190","","bandit","60","223419","0.0-32.0-9.0","07088941","wem/bandit_single","A320QA9HJFUOZO","gain","8","","75","K","2","","0","0","1","0.6","0","true","0","0.8","0","full_practice","0.2","0","0.6","0","0.2","0","","","","","",""
"110","","bandit","61","225302","0.0-32.0-10.0","07088941","wem/bandit_single","A320QA9HJFUOZO","gain","8","","75","K","2","","1","0","0","0.6","0","true","0","0.8","0","full_practice","0.2","0","0.6","0","0.2","0","","","","","",""
"10","","bandit","62","227089","0.0-32.0-11.0","07088941","wem/bandit_single","A320QA9HJFUOZO","gain","8","","75","K","2","","0","0","1","0.6","0","true","0","0.8","0","full_practice","0.2","0","0.6","0","0.2","0","","","","","",""
"342","","bandit","63","229195","0.0-32.0-12.0","07088941","wem/bandit_single","A320QA9HJFUOZO","gain","8","","76","L","3","","0","0","1","0.2","0","true","0","0.8","0","full_practice","0.2","0","0.6","0","0.2","0","","","","","",""
"87","","bandit","64","231050","0.0-32.0-13.0","07088941","wem/bandit_single","A320QA9HJFUOZO","gain","8","","76","L","3","","0","0","1","0.2","0","true","0","0.8","0","full_practice","0.2","0","0.6","0","0.2","0","","","","","",""
"47","","bandit","65","232866","0.0-32.0-14.0","07088941","wem/bandit_single","A320QA9HJFUOZO","gain","8","","76","L","3","","0","0","1","0.2","0","true","0","0.8","0","full_practice","0.2","0","0.6","0","0.2","0","","","","","",""
"420","","bandit","66","235053","0.0-32.0-15.0","07088941","wem/bandit_single","A320QA9HJFUOZO","gain","8","","72","H","0","img/none_selected.jpg","1","0","0","0.8","0","true","0","0.8","0","full_practice","0.2","0","0.6","0","0.2","0","","","","","",""
"203","","bandit","67","237021","0.0-32.0-16.0","07088941","wem/bandit_single","A320QA9HJFUOZO","gain","8","","74","J","1","","1","0","0","0.2","0","true","0","0.8","0","full_practice","0.2","0","0.6","0","0.2","0","","","","","",""
"124","","bandit","68","238915","0.0-32.0-17.0","07088941","wem/bandit_single","A320QA9HJFUOZO","gain","8","","74","J","1","","0","0","1","0.2","0","true","0","0.8","0","full_practice","0.2","0","0.6","0","0.2","0","","","","","",""
"441","","bandit","69","241119","0.0-32.0-18.0","07088941","wem/bandit_single","A320QA9HJFUOZO","gain","8","","74","J","1","","0","0","1","0.2","0","true","0","0.8","0","full_practice","0.2","0","0.6","0","0.2","0","","","","","",""
"86","","bandit","70","242981","0.0-32.0-19.0","07088941","wem/bandit_single","A320QA9HJFUOZO","gain","8","","75","K","2","","1","0","0","0.6","0","true","0","0.8","0","full_practice","0.2","0","0.6","0","0.2","0","","","","","",""
"3103","","text","71","246341","0.0-33.0","07088941","wem/bandit_single","A320QA9HJFUOZO","gain","8","32","","","","","","","","","","","","","","","","","","","","","","","","","",""
"6175","","text","72","253524","0.0-34.0","07088941","wem/bandit_single","A320QA9HJFUOZO","gain","8","32","","","","","","","","","","","","","","","","","","","","","","","","","",""
"4251","","text","73","257785","0.0-35.0","07088941","wem/bandit_single","A320QA9HJFUOZO","gain","8","32","","","","","","","","","","","","","","","","","","","","","","","","","",""
"6036","","text","74","263821","0.0-36.0","07088941","wem/bandit_single","A320QA9HJFUOZO","gain","8","32","","","","","","","","","","","","","","","","","","","","","","","","","",""
"3586","","text","75","267408","0.0-37.0","07088941","wem/bandit_single","A320QA9HJFUOZO","gain","8","32","","","","","","","","","","","","","","","","","","","","","","","","","",""
"916","","bandit","76","269837","0.0-38.0-0.0","07088941","wem/bandit_single","A320QA9HJFUOZO","gain","8","","72","H","0","img/none_selected.jpg","0","0","1","0.2895646149","","false","1","0.2895646149","","main_expt","0.2726752288","","0.461186604","","0.4519399214","","","","","","",""
"170","","bandit","77","271781","0.0-39.0-0.0","07088941","wem/bandit_single","A320QA9HJFUOZO","gain","8","","74","J","1","","0","0","1","0.2373300031","","false","2","0.3162770887","","main_expt","0.2373300031","","0.4745384616","","0.4414774062","","","","","","",""
"29","","bandit","78","273574","0.0-40.0-0.0","07088941","wem/bandit_single","A320QA9HJFUOZO","gain","8","","75","K","2","","1","0","0","0.476270309","","false","3","0.3445892231","","main_expt","0.2268539811","","0.476270309","","0.4248782664","","","","","","",""
"130","","bandit","79","275473","0.0-41.0-0.0","07088941","wem/bandit_single","A320QA9HJFUOZO","gain","8","","75","K","2","","0","0","1","0.4750198572","","false","4","0.318720175","","main_expt","0.2312911009","","0.4750198572","","0.3797460064","","","","","","",""
"122","","bandit","80","277358","0.0-42.0-0.0","07088941","wem/bandit_single","A320QA9HJFUOZO","gain","8","","76","L","3","","0","0","1","0.3747955817","","false","5","0.2768356494","","main_expt","0.1875260819","","0.4711191004","","0.3747955817","","","","","","",""
"22","","bandit","81","279150","0.0-43.0-0.0","07088941","wem/bandit_single","A320QA9HJFUOZO","gain","8","","75","K","2","","0","0","1","0.4561500297","","false","6","0.2660169375","","main_expt","0.190272436","","0.4561500297","","0.3434652127","","","","","","",""
"444","","bandit","82","281366","0.0-44.0-0.0","07088941","wem/bandit_single","A320QA9HJFUOZO","gain","8","","76","L","3","","1","0","0","0.3450192323","","false","7","0.3364590491","","main_expt","0.1912500229","","0.4549462182","","0.3450192323","","","","","","",""
"15","","bandit","83","283150","0.0-45.0-0.0","07088941","wem/bandit_single","A320QA9HJFUOZO","gain","8","","76","L","3","","0","0","1","0.3319287687","","false","8","0.2814314702","","main_expt","0.2317086102","","0.4738433377","","0.3319287687","","","","","","",""
"50","","bandit","84","284974","0.0-46.0-0.0","07088941","wem/bandit_single","A320QA9HJFUOZO","gain","8","","76","L","3","","0","0","1","0.3592879842","","false","9","0.172204453","","main_expt","0.2732709622","","0.4719526371","","0.3592879842","","","","","","",""
"70","","bandit","85","286816","0.0-47.0-0.0","07088941","wem/bandit_single","A320QA9HJFUOZO","gain","8","","74","J","1","","1","0","0","0.2369361721","","false","10","0.1714760066","","main_expt","0.2369361721","","0.4102917743","","0.4119036765","","","","","","",""
"10","","bandit","86","288593","0.0-48.0-0.0","07088941","wem/bandit_single","A320QA9HJFUOZO","gain","8","","74","J","1","","0","0","1","0.2428480584","","false","11","0.1477319919","","main_expt","0.2428480584","","0.4247485268","","0.440335537","","","","","","",""
"25","","bandit","87","290387","0.0-49.0-0.0","07088941","wem/bandit_single","A320QA9HJFUOZO","gain","8","","74","J","1","","0","0","1","0.3127978045","","false","12","0.1195530135","","main_expt","0.3127978045","","0.3805001106","","0.4198069009","","","","","","",""
"220","","bandit","88","292380","0.0-50.0-0.0","07088941","wem/bandit_single","A320QA9HJFUOZO","gain","8","","72","H","0","img/none_selected.jpg","0","0","1","0.1097065617","","false","13","0.1097065617","","main_expt","0.3411181312","","0.3922463094","","0.4095272681","","","","","","",""
"134","","bandit","89","294293","0.0-51.0-0.0","07088941","wem/bandit_single","A320QA9HJFUOZO","gain","8","","72","H","0","img/none_selected.jpg","0","0","1","0.1146709003","","false","14","0.1146709003","","main_expt","0.3547490374","","0.3385893542","","0.4393311008","","","","","","",""
"38","","bandit","90","296101","0.0-52.0-0.0","07088941","wem/bandit_single","A320QA9HJFUOZO","gain","8","","74","J","1","","1","0","0","0.3447780093","","false","15","0.105598426","","main_expt","0.3447780093","","0.2580729479","","0.4232641195","","","","","","",""
"187","","bandit","91","298064","0.0-53.0-0.0","07088941","wem/bandit_single","A320QA9HJFUOZO","gain","8","","74","J","1","","0","0","1","0.3451486401","","false","16","0.1085338479","","main_expt","0.3451486401","","0.3126944558","","0.408879381","","","","","","",""
"77","","bandit","92","299921","0.0-54.0-0.0","07088941","wem/bandit_single","A320QA9HJFUOZO","gain","8","","74","J","1","","1","0","0","0.3788599072","","false","17","0.1267686316","","main_expt","0.3788599072","","0.3693960878","","0.376774317","","","","","","",""
"50","","bandit","93","301747","0.0-55.0-0.0","07088941","wem/bandit_single","A320QA9HJFUOZO","gain","8","","74","J","1","","0","0","1","0.3977159439","","false","18","0.2161611973","","main_expt","0.3977159439","","0.3881723811","","0.4245824949","","","","","","",""
"48","","bandit","94","303558","0.0-56.0-0.0","07088941","wem/bandit_single","A320QA9HJFUOZO","gain","8","","75","K","2","","0","0","1","0.3762380044","","false","19","0.2028493804","","main_expt","0.3885232362","","0.3762380044","","0.4391895307","","","","","","",""
"73","","bandit","95","305407","0.0-57.0-0.0","07088941","wem/bandit_single","A320QA9HJFUOZO","gain","8","","75","K","2","","0","0","1","0.3842023068","","false","20","0.2258994585","","main_expt","0.3985462001","","0.3842023068","","0.4621127774","","","","","","",""
"117","","bandit","96","307296","0.0-58.0-0.0","07088941","wem/bandit_single","A320QA9HJFUOZO","gain","8","","74","J","1","","0","0","1","0.349749023","","false","21","0.1591174119","","main_expt","0.349749023","","0.3509270449","","0.4621164646","","","","","","",""
"145","","bandit","97","309214","0.0-59.0-0.0","07088941","wem/bandit_single","A320QA9HJFUOZO","gain","8","","74","J","1","","0","0","1","0.3437713834","","false","22","0.1526874152","","main_expt","0.3437713834","","0.3777441782","","0.4347396303","","","","","","",""
"196","","bandit","98","311181","0.0-60.0-0.0","07088941","wem/bandit_single","A320QA9HJFUOZO","gain","8","","76","L","3","","1","0","0","0.43496863","","false","23","0.1461335862","","main_expt","0.3608333873","","0.3799964268","","0.43496863","","","","","","",""
"104","","bandit","99","313050","0.0-61.0-0.0","07088941","wem/bandit_single","A320QA9HJFUOZO","gain","8","","76","L","3","","0","0","1","0.43684491","","false","24","0.194032511","","main_expt","0.3832767268","","0.4097073291","","0.43684491","","","","","","",""
"70","","bandit","100","314900","0.0-62.0-0.0","07088941","wem/bandit_single","A320QA9HJFUOZO","gain","8","","76","L","3","","1","0","0","0.3785768995","","false","25","0.1913779305","","main_expt","0.3839685871","","0.4196977393","","0.3785768995","","","","","","",""
"168","","bandit","101","316840","0.0-63.0-0.0","07088941","wem/bandit_single","A320QA9HJFUOZO","gain","8","","76","L","3","","1","0","0","0.3754964585","","false","26","0.2830828826","","main_expt","0.3871157951","","0.3798545817","","0.3754964585","","","","","","",""
"39","","bandit","102","318647","0.0-64.0-0.0","07088941","wem/bandit_single","A320QA9HJFUOZO","gain","8","","76","L","3","","0","0","1","0.3964499655","","false","27","0.3268824087","","main_expt","0.4093540125","","0.3531061786","","0.3964499655","","","","","","",""
"227","","bandit","103","320648","0.0-65.0-0.0","07088941","wem/bandit_single","A320QA9HJFUOZO","gain","8","","76","L","3","","0","0","1","0.4243602908","","false","28","0.3092871108","","main_expt","0.3781829904","","0.3327392046","","0.4243602908","","","","","","",""
"254","","bandit","104","322677","0.0-66.0-0.0","07088941","wem/bandit_single","A320QA9HJFUOZO","gain","8","","76","L","3","","0","0","1","0.4296462108","","false","29","0.299803321","","main_expt","0.3633234486","","0.2799969064","","0.4296462108","","","","","","",""
"157","","bandit","105","324607","0.0-67.0-0.0","07088941","wem/bandit_single","A320QA9HJFUOZO","gain","8","","72","H","0","img/none_selected.jpg","0","0","1","0.3318792252","","false","30","0.3318792252","","main_expt","0.395486831","","0.225268033","","0.4442153724","","","","","","",""
"224","","bandit","106","326613","0.0-68.0-0.0","07088941","wem/bandit_single","A320QA9HJFUOZO","gain","8","","72","H","0","img/none_selected.jpg","0","0","1","0.3274080626","","false","31","0.3274080626","","main_expt","0.353932484","","0.2195205817","","0.4425075274","","","","","","",""
"233","","bandit","107","328610","0.0-69.0-0.0","07088941","wem/bandit_single","A320QA9HJFUOZO","gain","8","","72","H","0","img/none_selected.jpg","0","0","1","0.3233555863","","false","32","0.3233555863","","main_expt","0.3902442546","","0.2569702332","","0.4038806219","","","","","","",""
"137","","bandit","108","330520","0.0-70.0-0.0","07088941","wem/bandit_single","A320QA9HJFUOZO","gain","8","","74","J","1","","1","0","0","0.3727342875","","false","33","0.3836123675","","main_expt","0.3727342875","","0.2914027765","","0.4283701542","","","","","","",""
"130","","bandit","109","332420","0.0-71.0-0.0","07088941","wem/bandit_single","A320QA9HJFUOZO","gain","8","","74","J","1","","0","0","1","0.3940120807","","false","34","0.4200589335","","main_expt","0.3940120807","","0.2667004126","","0.4332078231","","","","","","",""
"31","","bandit","110","334210","0.0-72.0-0.0","07088941","wem/bandit_single","A320QA9HJFUOZO","gain","8","","74","J","1","","0","0","1","0.3682756201","","false","35","0.4280145355","","main_expt","0.3682756201","","0.3112773703","","0.3861361583","","","","","","",""
"10","","bandit","111","336000","0.0-73.0-0.0","07088941","wem/bandit_single","A320QA9HJFUOZO","gain","8","","74","J","1","","0","0","1","0.4136743311","","false","36","0.3696194815","","main_expt","0.4136743311","","0.3158013471","","0.3176889815","","","","","","",""
"25","","bandit","112","337793","0.0-74.0-0.0","07088941","wem/bandit_single","A320QA9HJFUOZO","gain","8","","75","K","2","","0","0","1","0.3348696363","","false","37","0.3567242832","","main_expt","0.449594317","","0.3348696363","","0.3333355096","","","","","","",""
"117","","bandit","113","339684","0.0-75.0-0.0","07088941","wem/bandit_single","A320QA9HJFUOZO","gain","8","","75","K","2","","0","0","1","0.2967031697","","false","38","0.3139752797","","main_expt","0.4427192246","","0.2967031697","","0.3613286773","","","","","","",""
"396","","bandit","114","341858","0.0-76.0-0.0","07088941","wem/bandit_single","A320QA9HJFUOZO","gain","8","","75","K","2","","0","0","1","0.2816090282","","false","39","0.2884672813","","main_expt","0.4375360897","","0.2816090282","","0.3354588101","","","","","","",""
"240","","bandit","115","343869","0.0-77.0-0.0","07088941","wem/bandit_single","A320QA9HJFUOZO","gain","8","","76","L","3","","1","0","0","0.4044898685","","false","40","0.3253538103","","main_expt","0.452648821","","0.2900329111","","0.4044898685","","","","","","",""
"80","","bandit","116","345723","0.0-78.0-0.0","07088941","wem/bandit_single","A320QA9HJFUOZO","gain","8","","76","L","3","","0","0","1","0.3615903795","","false","41","0.2782289032","","main_expt","0.4689255384","","0.3160732104","","0.3615903795","","","","","","",""
"90","","bandit","117","347583","0.0-79.0-0.0","07088941","wem/bandit_single","A320QA9HJFUOZO","gain","8","","76","L","3","","0","0","1","0.3239257876","","false","42","0.2378060085","","main_expt","0.470096522","","0.370849222","","0.3239257876","","","","","","",""
"97","","bandit","118","349448","0.0-80.0-0.0","07088941","wem/bandit_single","A320QA9HJFUOZO","gain","8","","76","L","3","","0","0","1","0.2907144625","","false","43","0.2250536993","","main_expt","0.4349244256","","0.385301305","","0.2907144625","","","","","","",""
"39","","bandit","119","351268","0.0-81.0-0.0","07088941","wem/bandit_single","A320QA9HJFUOZO","gain","8","","76","L","3","","0","0","1","0.2937558929","","false","44","0.2132249492","","main_expt","0.4316966947","","0.416838688","","0.2937558929","","","","","","",""
"171","","bandit","120","353209","0.0-82.0-0.0","07088941","wem/bandit_single","A320QA9HJFUOZO","gain","8","","76","L","3","","1","0","0","0.3667346614","","false","45","0.2669052982","","main_expt","0.4526201082","","0.3927526088","","0.3667346614","","","","","","",""
"137","","bandit","121","355126","0.0-83.0-0.0","07088941","wem/bandit_single","A320QA9HJFUOZO","gain","8","","76","L","3","","0","0","1","0.4084803937","","false","46","0.259601005","","main_expt","0.4696962879","","0.3789336214","","0.4084803937","","","","","","",""
"277","","bandit","122","357176","0.0-84.0-0.0","07088941","wem/bandit_single","A320QA9HJFUOZO","gain","8","","76","L","3","","0","0","1","0.3956447052","","false","47","0.2442503122","","main_expt","0.4591824552","","0.3994803113","","0.3956447052","","","","","","",""
"197","","bandit","123","359152","0.0-85.0-0.0","07088941","wem/bandit_single","A320QA9HJFUOZO","gain","8","","72","H","0","img/none_selected.jpg","1","0","0","0.2427668164","","false","48","0.2427668164","","main_expt","0.4548607847","","0.3570668153","","0.3859230678","","","","","","",""
"15","","bandit","124","360933","0.0-86.0-0.0","07088941","wem/bandit_single","A320QA9HJFUOZO","gain","8","","72","H","0","img/none_selected.jpg","0","0","1","0.218731525","","false","49","0.218731525","","main_expt","0.4625410341","","0.3500417472","","0.394993817","","","","","","",""
"39","","bandit","125","362750","0.0-87.0-0.0","07088941","wem/bandit_single","A320QA9HJFUOZO","gain","8","","72","H","0","img/none_selected.jpg","0","0","1","0.2187604329","","false","50","0.2187604329","","main_expt","0.4620574215","","0.3110114061","","0.4358915385","","","","","","",""
"34","","bandit","126","364547","0.0-88.0-0.0","07088941","wem/bandit_single","A320QA9HJFUOZO","gain","8","","72","H","0","img/none_selected.jpg","0","0","1","0.2764450854","","false","51","0.2764450854","","main_expt","0.4573118055","","0.3165374422","","0.4437026926","","","","","","",""
"0","","bandit","127","366321","0.0-89.0-0.0","07088941","wem/bandit_single","A320QA9HJFUOZO","gain","8","","74","J","1","","0","0","1","0.4577170033","","false","52","0.2735561336","","main_expt","0.4577170033","","0.3212783944","","0.4357441266","","","","","","",""
"10","","bandit","128","368117","0.0-90.0-0.0","07088941","wem/bandit_single","A320QA9HJFUOZO","gain","8","","74","J","1","","0","0","1","0.4599667981","","false","53","0.2558353256","","main_expt","0.4599667981","","0.3079714244","","0.3926545571","","","","","","",""
"346","","bandit","129","370244","0.0-91.0-0.0","07088941","wem/bandit_single","A320QA9HJFUOZO","gain","8","","75","K","2","","0","0","1","0.3538619638","","false","54","0.2856473895","","main_expt","0.4598989899","","0.3538619638","","0.3841940555","","","","","","",""
"67","","bandit","130","372085","0.0-92.0-0.0","07088941","wem/bandit_single","A320QA9HJFUOZO","gain","8","","75","K","2","","1","0","0","0.3390258849","","false","55","0.3110799389","","main_expt","0.4371040197","","0.3390258849","","0.3733442546","","","","","","",""
"130","","bandit","131","373990","0.0-93.0-0.0","07088941","wem/bandit_single","A320QA9HJFUOZO","gain","8","","75","K","2","","1","0","0","0.3282580673","","false","56","0.2862995849","","main_expt","0.3889704242","","0.3282580673","","0.3500738246","","","","","","",""
"47","","bandit","132","375810","0.0-94.0-0.0","07088941","wem/bandit_single","A320QA9HJFUOZO","gain","8","","75","K","2","","1","0","0","0.3014999451","","false","57","0.3029349154","","main_expt","0.4089883961","","0.3014999451","","0.3265916347","","","","","","",""
"30","","bandit","133","377601","0.0-95.0-0.0","07088941","wem/bandit_single","A320QA9HJFUOZO","gain","8","","75","K","2","","0","0","1","0.2895525025","","false","58","0.282602966","","main_expt","0.3682078294","","0.2895525025","","0.3203483638","","","","","","",""
"87","","bandit","134","379452","0.0-96.0-0.0","07088941","wem/bandit_single","A320QA9HJFUOZO","gain","8","","75","K","2","","0","0","1","0.2538740387","","false","59","0.3271218703","","main_expt","0.426053772","","0.2538740387","","0.258324817","","","","","","",""
"46","","bandit","135","381254","0.0-97.0-0.0","07088941","wem/bandit_single","A320QA9HJFUOZO","gain","8","","75","K","2","","0","0","1","0.2509640494","","false","60","0.2978757068","","main_expt","0.4175969639","","0.2509640494","","0.2527557167","","","","","","",""
"34","","bandit","136","383050","0.0-98.0-0.0","07088941","wem/bandit_single","A320QA9HJFUOZO","gain","8","","75","K","2","","0","0","1","0.1930295055","","false","61","0.1922553384","","main_expt","0.4124946444","","0.1930295055","","0.2925705146","","","","","","",""
"57","","bandit","137","384881","0.0-99.0-0.0","07088941","wem/bandit_single","A320QA9HJFUOZO","gain","8","","75","K","2","","0","0","1","0.1259826115","","false","62","0.1408400783","","main_expt","0.4077217862","","0.1259826115","","0.310648962","","","","","","",""
"227","","bandit","138","386887","0.0-100.0-0.0","07088941","wem/bandit_single","A320QA9HJFUOZO","gain","8","","76","L","3","","1","0","0","0.3175489896","","false","63","0.1779610645","","main_expt","0.4258821936","","0.1388804293","","0.3175489896","","","","","","",""
"60","","bandit","139","388717","0.0-101.0-0.0","07088941","wem/bandit_single","A320QA9HJFUOZO","gain","8","","76","L","3","","0","0","1","0.2756852574","","false","64","0.1733040919","","main_expt","0.4314195329","","0.1412297375","","0.2756852574","","","","","","",""
"67","","bandit","140","390556","0.0-102.0-0.0","07088941","wem/bandit_single","A320QA9HJFUOZO","gain","8","","76","L","3","","0","0","1","0.2798966648","","false","65","0.1669650696","","main_expt","0.4174082156","","0.07856201072","","0.2798966648","","","","","","",""
"261","","bandit","141","392590","0.0-103.0-0.0","07088941","wem/bandit_single","A320QA9HJFUOZO","gain","8","","76","L","3","","1","0","0","0.2440426105","","false","66","0.1439674443","","main_expt","0.4396479182","","0.04493535693","","0.2440426105","","","","","","",""
"8","","bandit","142","394370","0.0-104.0-0.0","07088941","wem/bandit_single","A320QA9HJFUOZO","gain","8","","76","L","3","","0","0","1","0.2630461485","","false","67","0.1892066175","","main_expt","0.4080198752","","0.06268984171","","0.2630461485","","","","","","",""
"680","","bandit","143","396820","0.0-105.0-0.0","07088941","wem/bandit_single","A320QA9HJFUOZO","gain","8","","76","L","3","","1","0","0","0.2456224984","","false","68","0.1994174399","","main_expt","0.4137299856","","0.0976634122","","0.2456224984","","","","","","",""
"317","","bandit","144","398904","0.0-106.0-0.0","07088941","wem/bandit_single","A320QA9HJFUOZO","gain","8","","76","L","3","","0","0","1","0.328759159","","false","69","0.1624567358","","main_expt","0.3938947582","","0.1303859095","","0.328759159","","","","","","",""
"258","","bandit","145","400923","0.0-107.0-0.0","07088941","wem/bandit_single","A320QA9HJFUOZO","gain","8","","76","L","3","","0","0","1","0.3063762308","","false","70","0.203142037","","main_expt","0.3876621225","","0.09159795462","","0.3063762308","","","","","","",""
"0","","bandit","146","402699","0.0-108.0-0.0","07088941","wem/bandit_single","A320QA9HJFUOZO","gain","8","","76","L","3","","1","0","0","0.3509026903","","false","71","0.218187973","","main_expt","0.3788053019","","0.07422050438","","0.3509026903","","","","","","",""
"197","","bandit","147","404668","0.0-109.0-0.0","07088941","wem/bandit_single","A320QA9HJFUOZO","gain","8","","76","L","3","","1","0","0","0.3695940198","","false","72","0.2357875668","","main_expt","0.3632611749","","0.05420033029","","0.3695940198","","","","","","",""
"293","","bandit","148","406733","0.0-110.0-0.0","07088941","wem/bandit_single","A320QA9HJFUOZO","gain","8","","76","L","3","","0","0","1","0.3532210052","","false","73","0.1951490082","","main_expt","0.3121818875","","0.04794676006","","0.3532210052","","","","","","",""
"426","","bandit","149","408931","0.0-111.0-0.0","07088941","wem/bandit_single","A320QA9HJFUOZO","gain","8","","76","L","3","","1","0","0","0.3780170277","","false","74","0.208621177","","main_expt","0.3385624816","","0.03645121522","","0.3780170277","","","","","","",""
"1189","","bandit","150","411899","0.0-112.0-0.0","07088941","wem/bandit_single","A320QA9HJFUOZO","gain","8","","76","L","3","","0","0","1","0.3141643986","","false","75","0.2016482668","","main_expt","0.3393964734","","0.04346784694","","0.3141643986","","","","","","",""
"267","","bandit","151","413936","0.0-113.0-0.0","07088941","wem/bandit_single","A320QA9HJFUOZO","gain","8","","76","L","3","","0","0","1","0.3520496016","","false","76","0.2495615647","","main_expt","0.3489067358","","0.05697420644","","0.3520496016","","","","","","",""
"70","","bandit","152","415786","0.0-114.0-0.0","07088941","wem/bandit_single","A320QA9HJFUOZO","gain","8","","76","L","3","","0","0","1","0.2628688268","","false","77","0.2225386599","","main_expt","0.3502211764","","0.05831686642","","0.2628688268","","","","","","",""
"474","","bandit","153","418042","0.0-115.0-0.0","07088941","wem/bandit_single","A320QA9HJFUOZO","gain","8","","76","L","3","","0","0","1","0.2856335909","","false","78","0.2525784454","","main_expt","0.2979424841","","0.0396837938","","0.2856335909","","","","","","",""
"409","","bandit","154","420229","0.0-116.0-0.0","07088941","wem/bandit_single","A320QA9HJFUOZO","gain","8","","76","L","3","","0","0","1","0.3052483479","","false","79","0.2691825077","","main_expt","0.2779986596","","0.03651397352","","0.3052483479","","","","","","",""
"107","","bandit","155","422116","0.0-117.0-0.0","07088941","wem/bandit_single","A320QA9HJFUOZO","gain","8","","76","L","3","","0","0","1","0.2809417262","","false","80","0.2749696362","","main_expt","0.2681941829","","0.0570793957","","0.2809417262","","","","","","",""
"160","","bandit","156","424058","0.0-118.0-0.0","07088941","wem/bandit_single","A320QA9HJFUOZO","gain","8","","76","L","3","","0","0","1","0.2639407754","","false","81","0.291945729","","main_expt","0.2536714586","","0.05597964966","","0.2639407754","","","","","","",""
"28","","bandit","157","425855","0.0-119.0-0.0","07088941","wem/bandit_single","A320QA9HJFUOZO","gain","8","","75","K","2","","0","0","1","0.0589745046","","false","82","0.2804178179","","main_expt","0.1904528106","","0.0589745046","","0.3352417475","","","","","","",""
"0","","bandit","158","427622","0.0-120.0-0.0","07088941","wem/bandit_single","A320QA9HJFUOZO","gain","8","","74","J","1","","0","0","1","0.2497062266","","false","83","0.2253075454","","main_expt","0.2497062266","","0.04461225985","","0.3246721101","","","","","","",""
"364","","bandit","159","429769","0.0-121.0-0.0","07088941","wem/bandit_single","A320QA9HJFUOZO","gain","8","","72","H","0","img/none_selected.jpg","0","0","1","0.2475548924","","false","84","0.2475548924","","main_expt","0.2960017758","","0.04600221485","","0.3082112656","","","","","","",""
"366","","bandit","160","431919","0.0-122.0-0.0","07088941","wem/bandit_single","A320QA9HJFUOZO","gain","8","","72","H","0","img/none_selected.jpg","0","0","1","0.2443994903","","false","85","0.2443994903","","main_expt","0.2677312645","","0.04782026086","","0.2733186338","","","","","","",""
"517","","bandit","161","434223","0.0-123.0-0.0","07088941","wem/bandit_single","A320QA9HJFUOZO","gain","8","","72","H","0","img/none_selected.jpg","0","0","1","0.2112262296","","false","86","0.2112262296","","main_expt","0.2764415163","","0.05551660222","","0.2595222796","","","","","","",""
"649","","bandit","162","436639","0.0-124.0-0.0","07088941","wem/bandit_single","A320QA9HJFUOZO","gain","8","","72","H","0","img/none_selected.jpg","0","0","1","0.2188998383","","false","87","0.2188998383","","main_expt","0.324022149","","0.04708869331","","0.2256999028","","","","","","",""
"1113","","bandit","163","439527","0.0-125.0-0.0","07088941","wem/bandit_single","A320QA9HJFUOZO","gain","8","","74","J","1","","1","0","0","0.3109963835","","false","88","0.2197891412","","main_expt","0.3109963835","","0.02844544313","","0.1990670624","","","","","","",""
"567","","bandit","164","441869","0.0-126.0-0.0","07088941","wem/bandit_single","A320QA9HJFUOZO","gain","8","","74","J","1","","0","0","1","0.324941543","","false","89","0.1264972534","","main_expt","0.324941543","","0.02947982339","","0.2125628639","","","","","","",""
"773","","bandit","165","444409","0.0-127.0-0.0","07088941","wem/bandit_single","A320QA9HJFUOZO","gain","8","","74","J","1","","0","0","1","0.3309337967","","false","90","0.09492746395","","main_expt","0.3309337967","","0.01544371513","","0.2335475446","","","","","","",""
"394","","bandit","166","446580","0.0-128.0-0.0","07088941","wem/bandit_single","A320QA9HJFUOZO","gain","8","","74","J","1","","0","0","1","0.2419508287","","false","91","0.0779798764","","main_expt","0.2419508287","","0.02662688154","","0.2803997126","","","","","","",""
"50","","bandit","167","448406","0.0-129.0-0.0","07088941","wem/bandit_single","A320QA9HJFUOZO","gain","8","","75","K","2","","0","0","1","0.03471523835","","false","92","0.1178574791","","main_expt","0.2040869203","","0.03471523835","","0.2771315147","","","","","","",""
"157","","bandit","168","450342","0.0-130.0-0.0","07088941","wem/bandit_single","A320QA9HJFUOZO","gain","8","","76","L","3","","0","0","1","0.3069544445","","false","93","0.1199697814","","main_expt","0.1936143615","","0.0252433293","","0.3069544445","","","","","","",""
"123","","bandit","169","452252","0.0-131.0-0.0","07088941","wem/bandit_single","A320QA9HJFUOZO","gain","8","","76","L","3","","1","0","0","0.2585327286","","false","94","0.1351842626","","main_expt","0.2296452841","","0.02873343753","","0.2585327286","","","","","","",""
"218","","bandit","170","454249","0.0-132.0-0.0","07088941","wem/bandit_single","A320QA9HJFUOZO","gain","8","","76","L","3","","0","0","1","0.2043747222","","false","95","0.1229387465","","main_expt","0.3009770616","","0.03754278977","","0.2043747222","","","","","","",""
"89","","bandit","171","456115","0.0-133.0-0.0","07088941","wem/bandit_single","A320QA9HJFUOZO","gain","8","","76","L","3","","1","0","0","0.2149370614","","false","96","0.1341504272","","main_expt","0.3664634414","","0.02045008397","","0.2149370614","","","","","","",""
"5544","","bandit","172","463433","0.0-134.0-0.0","07088941","wem/bandit_single","A320QA9HJFUOZO","gain","8","","76","L","3","","0","0","1","0.1294523689","","false","97","0.08646330057","","main_expt","0.3476641925","","0.01282395838","","0.1294523689","","","","","","",""
"210","","bandit","173","465419","0.0-135.0-0.0","07088941","wem/bandit_single","A320QA9HJFUOZO","gain","8","","76","L","3","","0","0","1","0.1653870254","","false","98","0.07731746448","","main_expt","0.3885632826","","0.02206163243","","0.1653870254","","","","","","",""
"81","","bandit","174","467269","0.0-136.0-0.0","07088941","wem/bandit_single","A320QA9HJFUOZO","gain","8","","76","L","3","","1","0","0","0.187235433","","false","99","0.05048608161","","main_expt","0.3222143249","","0.03016500256","","0.187235433","","","","","","",""
"295","","bandit","175","469342","0.0-137.0-0.0","07088941","wem/bandit_single","A320QA9HJFUOZO","gain","8","","76","L","3","","0","0","1","0.1583251777","","false","100","0.03970728334","","main_expt","0.3386714995","","0.03237578522","","0.1583251777","","","","","","",""
"137","","bandit","176","471252","0.0-138.0-0.0","07088941","wem/bandit_single","A320QA9HJFUOZO","gain","8","","76","L","3","","1","0","0","0.1337381207","","false","101","0.02108340439","","main_expt","0.3131396166","","0.03241037075","","0.1337381207","","","","","","",""
"266","","bandit","177","473293","0.0-139.0-0.0","07088941","wem/bandit_single","A320QA9HJFUOZO","gain","8","","76","L","3","","0","0","1","0.1163639012","","false","102","0.05244648731","","main_expt","0.3417288757","","0.06000215667","","0.1163639012","","","","","","",""
"147","","bandit","178","475218","0.0-140.0-0.0","07088941","wem/bandit_single","A320QA9HJFUOZO","gain","8","","76","L","3","","0","0","1","0.1118657557","","false","103","0.04574159302","","main_expt","0.3582654759","","0.08726741307","","0.1118657557","","","","","","",""
"1306","","bandit","179","478294","0.0-141.0-0.0","07088941","wem/bandit_single","A320QA9HJFUOZO","gain","8","","76","L","3","","0","0","1","0.1501499683","","false","104","0.05033190662","","main_expt","0.3409136392","","0.1067467257","","0.1501499683","","","","","","",""
"433","","bandit","180","480498","0.0-142.0-0.0","07088941","wem/bandit_single","A320QA9HJFUOZO","gain","8","","76","L","3","","0","0","1","0.1354733374","","false","105","0.1076128494","","main_expt","0.3532992837","","0.1004566838","","0.1354733374","","","","","","",""
"103","","bandit","181","482366","0.0-143.0-0.0","07088941","wem/bandit_single","A320QA9HJFUOZO","gain","8","","75","K","2","","0","0","1","0.1055318719","","false","106","0.06740855405","","main_expt","0.335683565","","0.1055318719","","0.1727398631","","","","","","",""
"561","","bandit","182","484704","0.0-144.0-0.0","07088941","wem/bandit_single","A320QA9HJFUOZO","gain","8","","74","J","1","","0","0","1","0.3924059951","","false","107","0.06658027063","","main_expt","0.3924059951","","0.1236328269","","0.1474174257","","","","","","",""
"59","","bandit","183","486541","0.0-145.0-0.0","07088941","wem/bandit_single","A320QA9HJFUOZO","gain","8","","72","H","0","img/none_selected.jpg","0","0","1","0.0777756245","","false","108","0.0777756245","","main_expt","0.3626054341","","0.1301170461","","0.1683059408","","","","","","",""
"163","","bandit","184","488491","0.0-146.0-0.0","07088941","wem/bandit_single","A320QA9HJFUOZO","gain","8","","72","H","0","img/none_selected.jpg","0","0","1","0.1117823495","","false","109","0.1117823495","","main_expt","0.3806857721","","0.1507941036","","0.1972223025","","","","","","",""
"116","","bandit","185","490379","0.0-147.0-0.0","07088941","wem/bandit_single","A320QA9HJFUOZO","gain","8","","72","H","0","img/none_selected.jpg","0","0","1","0.08710900622","","false","110","0.08710900622","","main_expt","0.3452619283","","0.1647590848","","0.2085186414","","","","","","",""
"39","","bandit","186","492198","0.0-148.0-0.0","07088941","wem/bandit_single","A320QA9HJFUOZO","gain","8","","74","J","1","","1","0","0","0.3653509784","","false","111","0.107183683","","main_expt","0.3653509784","","0.1574612326","","0.1811180602","","","","","","",""
"374","","bandit","187","494354","0.0-149.0-0.0","07088941","wem/bandit_single","A320QA9HJFUOZO","gain","8","","74","J","1","","1","0","0","0.3435522482","","false","112","0.1099425133","","main_expt","0.3435522482","","0.1406493921","","0.222295219","","","","","","",""
"57","","bandit","188","496184","0.0-150.0-0.0","07088941","wem/bandit_single","A320QA9HJFUOZO","gain","8","","74","J","1","","1","0","0","0.3424956272","","false","113","0.1457634924","","main_expt","0.3424956272","","0.1367300214","","0.254178783","","","","","","",""
"80","","bandit","189","498051","0.0-151.0-0.0","07088941","wem/bandit_single","A320QA9HJFUOZO","gain","8","","74","J","1","","1","0","0","0.3353894863","","false","114","0.09824844824","","main_expt","0.3353894863","","0.1534665218","","0.2315882939","","","","","","",""
"140","","bandit","190","499961","0.0-152.0-0.0","07088941","wem/bandit_single","A320QA9HJFUOZO","gain","8","","74","J","1","","0","0","1","0.3965113255","","false","115","0.07202874502","","main_expt","0.3965113255","","0.1890238391","","0.2079629003","","","","","","",""
"166","","bandit","191","501899","0.0-153.0-0.0","07088941","wem/bandit_single","A320QA9HJFUOZO","gain","8","","74","J","1","","0","0","1","0.3889101716","","false","116","0.08386797302","","main_expt","0.3889101716","","0.1480670238","","0.2117584369","","","","","","",""
"433","","bandit","192","504114","0.0-154.0-0.0","07088941","wem/bandit_single","A320QA9HJFUOZO","gain","8","","74","J","1","","0","0","1","0.412290601","","false","117","0.1223406282","","main_expt","0.412290601","","0.1450369027","","0.1897465023","","","","","","",""
"137","","bandit","193","506025","0.0-155.0-0.0","07088941","wem/bandit_single","A320QA9HJFUOZO","gain","8","","74","J","1","","1","0","0","0.4090296977","","false","118","0.1131974311","","main_expt","0.4090296977","","0.1525061225","","0.2162179109","","","","","","",""
"157","","bandit","194","507965","0.0-156.0-0.0","07088941","wem/bandit_single","A320QA9HJFUOZO","gain","8","","74","J","1","","0","0","1","0.3900906375","","false","119","0.1214903214","","main_expt","0.3900906375","","0.1327940691","","0.1954464435","","","","","","",""
"410","","bandit","195","510152","0.0-157.0-0.0","07088941","wem/bandit_single","A320QA9HJFUOZO","gain","8","","74","J","1","","0","0","1","0.3722828095","","false","120","0.1379734046","","main_expt","0.3722828095","","0.1517026744","","0.2433439763","","","","","","",""
"220","","bandit","196","512152","0.0-158.0-0.0","07088941","wem/bandit_single","A320QA9HJFUOZO","gain","8","","74","J","1","","1","0","0","0.3593952677","","false","121","0.1537473387","","main_expt","0.3593952677","","0.09770447215","","0.2093375247","","","","","","",""
"209","","bandit","197","514138","0.0-159.0-0.0","07088941","wem/bandit_single","A320QA9HJFUOZO","gain","8","","74","J","1","","0","0","1","0.3670381393","","false","122","0.1654199468","","main_expt","0.3670381393","","0.1084092314","","0.2030857612","","","","","","",""
"593","","bandit","198","516505","0.0-160.0-0.0","07088941","wem/bandit_single","A320QA9HJFUOZO","gain","8","","74","J","1","","0","0","1","0.3587286137","","false","123","0.1908187881","","main_expt","0.3587286137","","0.1828660492","","0.1810532848","","","","","","",""
"173","","bandit","199","518458","0.0-161.0-0.0","07088941","wem/bandit_single","A320QA9HJFUOZO","gain","8","","74","J","1","","0","0","1","0.3492740793","","false","124","0.2229551501","","main_expt","0.3492740793","","0.1743556658","","0.1582229448","","","","","","",""
"193","","bandit","200","520424","0.0-162.0-0.0","07088941","wem/bandit_single","A320QA9HJFUOZO","gain","8","","74","J","1","","1","0","0","0.3031262708","","false","125","0.2354127912","","main_expt","0.3031262708","","0.2091647646","","0.1223239468","","","","","","",""
"267","","bandit","201","522476","0.0-163.0-0.0","07088941","wem/bandit_single","A320QA9HJFUOZO","gain","8","","74","J","1","","0","0","1","0.3272336491","","false","126","0.25119817","","main_expt","0.3272336491","","0.2089783764","","0.08912034734","","","","","","",""
"66","","bandit","202","524317","0.0-164.0-0.0","07088941","wem/bandit_single","A320QA9HJFUOZO","gain","8","","75","K","2","","0","0","1","0.21334071","","false","127","0.2312690923","","main_expt","0.3153677968","","0.21334071","","0.05948163","","","","","","",""
"53","","bandit","203","526158","0.0-165.0-0.0","07088941","wem/bandit_single","A320QA9HJFUOZO","gain","8","","75","K","2","","0","0","1","0.1916283041","","false","128","0.2741150261","","main_expt","0.3317710332","","0.1916283041","","0.06525821595","","","","","","",""
"343","","bandit","204","528274","0.0-166.0-0.0","07088941","wem/bandit_single","A320QA9HJFUOZO","gain","8","","75","K","2","","1","0","0","0.1810604207","","false","129","0.2804264122","","main_expt","0.3818586719","","0.1810604207","","0.04677418535","","","","","","",""
"44","","bandit","205","530104","0.0-167.0-0.0","07088941","wem/bandit_single","A320QA9HJFUOZO","gain","8","","76","L","3","","0","0","1","0.04931785787","","false","130","0.2746384559","","main_expt","0.3778611376","","0.1492319935","","0.04931785787","","","","","","",""
"0","","bandit","206","531877","0.0-168.0-0.0","07088941","wem/bandit_single","A320QA9HJFUOZO","gain","8","","75","K","2","","0","0","1","0.129351286","","false","131","0.3052944487","","main_expt","0.3745485054","","0.129351286","","0.03231589458","","","","","","",""
"50","","bandit","207","533702","0.0-169.0-0.0","07088941","wem/bandit_single","A320QA9HJFUOZO","gain","8","","72","H","0","img/none_selected.jpg","0","0","1","0.2871604017","","false","132","0.2871604017","","main_expt","0.3901944836","","0.1020216346","","0.0374336399","","","","","","",""
"140","","bandit","208","535608","0.0-170.0-0.0","07088941","wem/bandit_single","A320QA9HJFUOZO","gain","8","","74","J","1","","0","0","1","0.3245875462","","false","133","0.2262434135","","main_expt","0.3245875462","","0.1100395313","","0.04583961862","","","","","","",""
"10","","bandit","209","537387","0.0-171.0-0.0","07088941","wem/bandit_single","A320QA9HJFUOZO","gain","8","","75","K","2","","0","0","1","0.1078381017","","false","134","0.2020687113","","main_expt","0.2794858075","","0.1078381017","","0.04150300199","","","","","","",""
"227","","bandit","210","539382","0.0-172.0-0.0","07088941","wem/bandit_single","A320QA9HJFUOZO","gain","8","","76","L","3","","0","0","1","0.04663842542","","false","135","0.2168620662","","main_expt","0.2867414221","","0.1093486249","","0.04663842542","","","","","","",""
"336","","bandit","211","541484","0.0-173.0-0.0","07088941","wem/bandit_single","A320QA9HJFUOZO","gain","8","","72","H","0","img/none_selected.jpg","0","0","1","0.151139006","","false","136","0.151139006","","main_expt","0.2388941587","","0.1246456113","","0.06291357963","","","","","","",""
"10","","bandit","212","543274","0.0-174.0-0.0","07088941","wem/bandit_single","A320QA9HJFUOZO","gain","8","","74","J","1","","0","0","1","0.2301747732","","false","137","0.1452995234","","main_expt","0.2301747732","","0.1167447495","","0.0848669819","","","","","","",""
"41","","bandit","213","545083","0.0-175.0-0.0","07088941","wem/bandit_single","A320QA9HJFUOZO","gain","8","","75","K","2","","0","0","1","0.1357570265","","false","138","0.1599176777","","main_expt","0.2344721482","","0.1357570265","","0.1250360552","","","","","","",""
"49","","bandit","214","546906","0.0-176.0-0.0","07088941","wem/bandit_single","A320QA9HJFUOZO","gain","8","","76","L","3","","0","0","1","0.122190115","","false","139","0.1704699841","","main_expt","0.2351335283","","0.1616689495","","0.122190115","","","","","","",""
"30","","bandit","215","548706","0.0-177.0-0.0","07088941","wem/bandit_single","A320QA9HJFUOZO","gain","8","","72","H","0","img/none_selected.jpg","0","0","1","0.1142956015","","false","140","0.1142956015","","main_expt","0.2876903143","","0.1979747013","","0.08666030548","","","","","","",""
"177","","bandit","216","550663","0.0-178.0-0.0","07088941","wem/bandit_single","A320QA9HJFUOZO","gain","8","","74","J","1","","0","0","1","0.2865732071","","false","141","0.1206890816","","main_expt","0.2865732071","","0.1708965128","","0.09967801986","","","","","","",""
"166","","bandit","217","552605","0.0-179.0-0.0","07088941","wem/bandit_single","A320QA9HJFUOZO","gain","8","","75","K","2","","0","0","1","0.204481367","","false","142","0.1324259923","","main_expt","0.248943806","","0.204481367","","0.1125289611","","","","","","",""
"193","","bandit","218","554582","0.0-180.0-0.0","07088941","wem/bandit_single","A320QA9HJFUOZO","gain","8","","75","K","2","","0","0","1","0.1861099789","","false","143","0.09892217097","","main_expt","0.2839045407","","0.1861099789","","0.1467602081","","","","","","",""
"143","","bandit","219","556508","0.0-181.0-0.0","07088941","wem/bandit_single","A320QA9HJFUOZO","gain","8","","75","K","2","","0","0","1","0.1956465744","","false","144","0.1577744197","","main_expt","0.3150250783","","0.1956465744","","0.1467522766","","","","","","",""
"337","","bandit","220","558630","0.0-182.0-0.0","07088941","wem/bandit_single","A320QA9HJFUOZO","gain","8","","74","J","1","","1","0","0","0.3090395899","","false","145","0.1392006829","","main_expt","0.3090395899","","0.2622876922","","0.118212248","","","","","","",""
"60","","bandit","221","560469","0.0-183.0-0.0","07088941","wem/bandit_single","A320QA9HJFUOZO","gain","8","","74","J","1","","0","0","1","0.3122039877","","false","146","0.1262993523","","main_expt","0.3122039877","","0.304745079","","0.1089879874","","","","","","",""
"426","","bandit","222","562662","0.0-184.0-0.0","07088941","wem/bandit_single","A320QA9HJFUOZO","gain","8","","74","J","1","","0","0","1","0.2959619691","","false","147","0.1970652478","","main_expt","0.2959619691","","0.2888799162","","0.1200469816","","","","","","",""
"141","","bandit","223","564571","0.0-185.0-0.0","07088941","wem/bandit_single","A320QA9HJFUOZO","gain","8","","74","J","1","","1","0","0","0.2395536641","","false","148","0.2502259542","","main_expt","0.2395536641","","0.2290209364","","0.1276189258","","","","","","",""
"203","","bandit","224","566544","0.0-186.0-0.0","07088941","wem/bandit_single","A320QA9HJFUOZO","gain","8","","74","J","1","","0","0","1","0.2650868272","","false","149","0.264890558","","main_expt","0.2650868272","","0.1626908122","","0.1280703092","","","","","","",""
"25","","bandit","225","568347","0.0-187.0-0.0","07088941","wem/bandit_single","A320QA9HJFUOZO","gain","8","","74","J","1","","0","0","1","0.2986082654","","false","150","0.2458403893","","main_expt","0.2986082654","","0.1958031623","","0.1260403861","","","","","","",""
"83","","bandit","226","570202","0.0-188.0-0.0","07088941","wem/bandit_single","A320QA9HJFUOZO","gain","8","","74","J","1","","0","0","1","0.2843767109","","false","151","0.3021038309","","main_expt","0.2843767109","","0.2110526716","","0.1472493067","","","","","","",""
"54","","bandit","227","572040","0.0-189.0-0.0","07088941","wem/bandit_single","A320QA9HJFUOZO","gain","8","","74","J","1","","0","0","1","0.2910803031","","false","152","0.2863751765","","main_expt","0.2910803031","","0.239542308","","0.1256460397","","","","","","",""
"66","","bandit","228","573888","0.0-190.0-0.0","07088941","wem/bandit_single","A320QA9HJFUOZO","gain","8","","74","J","1","","0","0","1","0.2910028656","","false","153","0.250244768","","main_expt","0.2910028656","","0.2781725502","","0.1567097088","","","","","","",""
"343","","bandit","229","576009","0.0-191.0-0.0","07088941","wem/bandit_single","A320QA9HJFUOZO","gain","8","","76","L","3","","0","0","1","0.1473662378","","false","154","0.2127808211","","main_expt","0.2845613835","","0.228047793","","0.1473662378","","","","","","",""
"60","","bandit","230","577852","0.0-192.0-0.0","07088941","wem/bandit_single","A320QA9HJFUOZO","gain","8","","76","L","3","","0","0","1","0.1466549972","","false","155","0.205053704","","main_expt","0.2707345723","","0.2683949018","","0.1466549972","","","","","","",""
"87","","bandit","231","579717","0.0-193.0-0.0","07088941","wem/bandit_single","A320QA9HJFUOZO","gain","8","","75","K","2","","0","0","1","0.3192141369","","false","156","0.1648482415","","main_expt","0.3156720475","","0.3192141369","","0.1127453184","","","","","","",""
"70","","bandit","232","581569","0.0-194.0-0.0","07088941","wem/bandit_single","A320QA9HJFUOZO","gain","8","","75","K","2","","0","0","1","0.3402823895","","false","157","0.1888047422","","main_expt","0.3101066834","","0.3402823895","","0.1577506677","","","","","","",""
"107","","bandit","233","583448","0.0-195.0-0.0","07088941","wem/bandit_single","A320QA9HJFUOZO","gain","8","","75","K","2","","1","0","0","0.2944958958","","false","158","0.1759444775","","main_expt","0.3236654942","","0.2944958958","","0.177177298","","","","","","",""
"111","","bandit","234","585336","0.0-196.0-0.0","07088941","wem/bandit_single","A320QA9HJFUOZO","gain","8","","75","K","2","","0","0","1","0.3007248388","","false","159","0.2066832709","","main_expt","0.2735657487","","0.3007248388","","0.1693510486","","","","","","",""
"46","","bandit","235","587162","0.0-197.0-0.0","07088941","wem/bandit_single","A320QA9HJFUOZO","gain","8","","76","L","3","","1","0","0","0.1230292859","","false","160","0.2570817279","","main_expt","0.2384912546","","0.3179332055","","0.1230292859","","","","","","",""
"94","","bandit","236","589030","0.0-198.0-0.0","07088941","wem/bandit_single","A320QA9HJFUOZO","gain","8","","76","L","3","","1","0","0","0.07903667538","","false","161","0.2244749933","","main_expt","0.2615252743","","0.2506164635","","0.07903667538","","","","","","",""
"60","","bandit","237","590869","0.0-199.0-0.0","07088941","wem/bandit_single","A320QA9HJFUOZO","gain","8","","76","L","3","","0","0","1","0.1136507332","","false","162","0.23263707","","main_expt","0.2187643747","","0.2858836385","","0.1136507332","","","","","","",""
"460","","bandit","238","593099","0.0-200.0-0.0","07088941","wem/bandit_single","A320QA9HJFUOZO","gain","8","","76","L","3","","0","0","1","0.1137116213","","false","163","0.2287127565","","main_expt","0.1909081127","","0.2848163613","","0.1137116213","","","","","","",""
"117","","bandit","239","595005","0.0-201.0-0.0","07088941","wem/bandit_single","A320QA9HJFUOZO","gain","8","","76","L","3","","0","0","1","0.1254102563","","false","164","0.2303253206","","main_expt","0.1808716434","","0.2688566635","","0.1254102563","","","","","","",""
"51","","bandit","240","596823","0.0-202.0-0.0","07088941","wem/bandit_single","A320QA9HJFUOZO","gain","8","","76","L","3","","0","0","1","0.1216805934","","false","165","0.2771057403","","main_expt","0.2118073572","","0.2921202554","","0.1216805934","","","","","","",""
"42","","bandit","241","598642","0.0-203.0-0.0","07088941","wem/bandit_single","A320QA9HJFUOZO","gain","8","","76","L","3","","0","0","1","0.1291529517","","false","166","0.2371810998","","main_expt","0.2410554973","","0.3143591269","","0.1291529517","","","","","","",""
"107","","bandit","242","600513","0.0-204.0-0.0","07088941","wem/bandit_single","A320QA9HJFUOZO","gain","8","","76","L","3","","0","0","1","0.1535345887","","false","167","0.2349122652","","main_expt","0.2574005288","","0.2892924204","","0.1535345887","","","","","","",""
"295","","bandit","243","602577","0.0-205.0-0.0","07088941","wem/bandit_single","A320QA9HJFUOZO","gain","8","","74","J","1","","0","0","1","0.2729884233","","false","168","0.1959020284","","main_expt","0.2729884233","","0.2786305655","","0.1435034989","","","","","","",""
"48","","bandit","244","604395","0.0-206.0-0.0","07088941","wem/bandit_single","A320QA9HJFUOZO","gain","8","","75","K","2","","0","0","1","0.246803054","","false","169","0.1899859579","","main_expt","0.2625821735","","0.246803054","","0.1957458285","","","","","","",""
"192","","bandit","245","606362","0.0-207.0-0.0","07088941","wem/bandit_single","A320QA9HJFUOZO","gain","8","","72","H","0","img/none_selected.jpg","0","0","1","0.2213833812","","false","170","0.2213833812","","main_expt","0.3100542845","","0.2375021307","","0.1308867566","","","","","","",""
"77","","bandit","246","608218","0.0-208.0-0.0","07088941","wem/bandit_single","A320QA9HJFUOZO","gain","8","","74","J","1","","1","0","0","0.3083945368","","false","171","0.1589997081","","main_expt","0.3083945368","","0.2965678991","","0.1422271972","","","","","","",""
"336","","bandit","247","610338","0.0-209.0-0.0","07088941","wem/bandit_single","A320QA9HJFUOZO","gain","8","","74","J","1","","0","0","1","0.3929186772","","false","172","0.1669714507","","main_expt","0.3929186772","","0.2696718616","","0.1541925874","","","","","","",""
"66","","bandit","248","612185","0.0-210.0-0.0","07088941","wem/bandit_single","A320QA9HJFUOZO","gain","8","","74","J","1","","1","0","0","0.4107736206","","false","173","0.1699847696","","main_expt","0.4107736206","","0.2576521005","","0.1416394444","","","","","","",""
"116","","bandit","249","614082","0.0-211.0-0.0","07088941","wem/bandit_single","A320QA9HJFUOZO","gain","8","","74","J","1","","0","0","1","0.4267170337","","false","174","0.202136981","","main_expt","0.4267170337","","0.2839516933","","0.1207830423","","","","","","",""
"190","","bandit","250","616048","0.0-212.0-0.0","07088941","wem/bandit_single","A320QA9HJFUOZO","gain","8","","74","J","1","","0","0","1","0.420504823","","false","175","0.1863880777","","main_expt","0.420504823","","0.2932452363","","0.1636312712","","","","","","",""
"97","","bandit","251","617927","0.0-213.0-0.0","07088941","wem/bandit_single","A320QA9HJFUOZO","gain","8","","74","J","1","","1","0","0","0.3956962169","","false","176","0.1426909825","","main_expt","0.3956962169","","0.3118313574","","0.186569684","","","","","","",""
"140","","bandit","252","619848","0.0-214.0-0.0","07088941","wem/bandit_single","A320QA9HJFUOZO","gain","8","","74","J","1","","0","0","1","0.3834761318","","false","177","0.1335645184","","main_expt","0.3834761318","","0.3378695823","","0.1089038478","","","","","","",""
"10","","bandit","253","621630","0.0-215.0-0.0","07088941","wem/bandit_single","A320QA9HJFUOZO","gain","8","","74","J","1","","0","0","1","0.4167112469","","false","178","0.09719791569","","main_expt","0.4167112469","","0.3234122319","","0.08465244813","","","","","","",""
"78","","bandit","254","623477","0.0-216.0-0.0","07088941","wem/bandit_single","A320QA9HJFUOZO","gain","8","","74","J","1","","1","0","0","0.4370197561","","false","179","0.07123289457","","main_expt","0.4370197561","","0.3281528324","","0.1015747644","","","","","","",""
"242","","bandit","255","625492","0.0-217.0-0.0","07088941","wem/bandit_single","A320QA9HJFUOZO","gain","8","","74","J","1","","0","0","1","0.3776598584","","false","180","0.05555663239","","main_expt","0.3776598584","","0.340497037","","0.1277953302","","","","","","",""
"50","","bandit","256","627319","0.0-218.0-0.0","07088941","wem/bandit_single","A320QA9HJFUOZO","gain","8","","74","J","1","","0","0","1","0.3636519722","","false","181","0.04396828199","","main_expt","0.3636519722","","0.3007371283","","0.1854921141","","","","","","",""
"162","","bandit","257","629254","0.0-219.0-0.0","07088941","wem/bandit_single","A320QA9HJFUOZO","gain","8","","74","J","1","","1","0","0","0.3246411676","","false","182","0.02691259782","","main_expt","0.3246411676","","0.3190136055","","0.2273529654","","","","","","",""
"182","","bandit","258","631221","0.0-220.0-0.0","07088941","wem/bandit_single","A320QA9HJFUOZO","gain","8","","74","J","1","","0","0","1","0.3187018958","","false","183","0.04807599522","","main_expt","0.3187018958","","0.322323442","","0.2600234541","","","","","","",""
"126","","bandit","259","633128","0.0-221.0-0.0","07088941","wem/bandit_single","A320QA9HJFUOZO","gain","8","","74","J","1","","0","0","1","0.3497063737","","false","184","0.05076165442","","main_expt","0.3497063737","","0.3086696071","","0.2689652485","","","","","","",""
"150","","bandit","260","635045","0.0-222.0-0.0","07088941","wem/bandit_single","A320QA9HJFUOZO","gain","8","","74","J","1","","1","0","0","0.3334532315","","false","185","0.1128087831","","main_expt","0.3334532315","","0.3146814862","","0.2646203852","","","","","","",""
"248","","bandit","261","637058","0.0-223.0-0.0","07088941","wem/bandit_single","A320QA9HJFUOZO","gain","8","","74","J","1","","0","0","1","0.3511592443","","false","186","0.1592260056","","main_expt","0.3511592443","","0.3353274036","","0.2038557162","","","","","","",""
"160","","bandit","262","639004","0.0-224.0-0.0","07088941","wem/bandit_single","A320QA9HJFUOZO","gain","8","","74","J","1","","0","0","1","0.3758503369","","false","187","0.2195828404","","main_expt","0.3758503369","","0.331036234","","0.2643634763","","","","","","",""
"453","","bandit","263","641237","0.0-225.0-0.0","07088941","wem/bandit_single","A320QA9HJFUOZO","gain","8","","74","J","1","","0","0","1","0.3951098987","","false","188","0.214856838","","main_expt","0.3951098987","","0.3061178756","","0.2137054787","","","","","","",""
"226","","bandit","264","643247","0.0-226.0-0.0","07088941","wem/bandit_single","A320QA9HJFUOZO","gain","8","","75","K","2","","1","0","0","0.3455914038","","false","189","0.2103369464","","main_expt","0.3766733461","","0.3455914038","","0.2349639762","","","","","","",""
"100","","bandit","265","645114","0.0-227.0-0.0","07088941","wem/bandit_single","A320QA9HJFUOZO","gain","8","","75","K","2","","0","0","1","0.3734842368","","false","190","0.1932940482","","main_expt","0.3974997784","","0.3734842368","","0.2067261929","","","","","","",""
"423","","bandit","266","647307","0.0-228.0-0.0","07088941","wem/bandit_single","A320QA9HJFUOZO","gain","8","","75","K","2","","0","0","1","0.3648323685","","false","191","0.2285646161","","main_expt","0.4174686418","","0.3648323685","","0.275245882","","","","","","",""
"332","","bandit","267","649423","0.0-229.0-0.0","07088941","wem/bandit_single","A320QA9HJFUOZO","gain","8","","75","K","2","","1","0","0","0.3339781981","","false","192","0.2589031043","","main_expt","0.3963748123","","0.3339781981","","0.306220044","","","","","","",""
"366","","bandit","268","651562","0.0-230.0-0.0","07088941","wem/bandit_single","A320QA9HJFUOZO","gain","8","","75","K","2","","0","0","1","0.3342714415","","false","193","0.2195537535","","main_expt","0.3921748604","","0.3342714415","","0.3035773814","","","","","","",""
"64","","bandit","269","653410","0.0-231.0-0.0","07088941","wem/bandit_single","A320QA9HJFUOZO","gain","8","","75","K","2","","0","0","1","0.3241295504","","false","194","0.2027550427","","main_expt","0.3580841109","","0.3241295504","","0.2510827831","","","","","","",""
"100","","bandit","270","655290","0.0-232.0-0.0","07088941","wem/bandit_single","A320QA9HJFUOZO","gain","8","","75","K","2","","0","0","1","0.3116310431","","false","195","0.1862287394","","main_expt","0.3508589263","","0.3116310431","","0.2455858858","","","","","","",""
"106","","bandit","271","657160","0.0-233.0-0.0","07088941","wem/bandit_single","A320QA9HJFUOZO","gain","8","","75","K","2","","0","0","1","0.3757707762","","false","196","0.1892299528","","main_expt","0.3580593089","","0.3757707762","","0.2514601016","","","","","","",""
"91","","bandit","272","659040","0.0-234.0-0.0","07088941","wem/bandit_single","A320QA9HJFUOZO","gain","8","","75","K","2","","0","0","1","0.3510132286","","false","197","0.2217707201","","main_expt","0.325214339","","0.3510132286","","0.2735270373","","","","","","",""
"229","","bandit","273","661051","0.0-235.0-0.0","07088941","wem/bandit_single","A320QA9HJFUOZO","gain","8","","75","K","2","","1","0","0","0.3775824693","","false","198","0.2622368769","","main_expt","0.3214736551","","0.3775824693","","0.1856542716","","","","","","",""
"66","","bandit","274","662904","0.0-236.0-0.0","07088941","wem/bandit_single","A320QA9HJFUOZO","gain","8","","75","K","2","","1","0","0","0.3591355879","","false","199","0.2566369559","","main_expt","0.3134841864","","0.3591355879","","0.1439471636","","","","","","",""
"146","","bandit","275","664828","0.0-237.0-0.0","07088941","wem/bandit_single","A320QA9HJFUOZO","gain","8","","75","K","2","","0","0","1","0.4329566742","","false","200","0.2405232655","","main_expt","0.3484934822","","0.4329566742","","0.1920673188","","","","","","",""
"143","","bandit","276","666764","0.0-238.0-0.0","07088941","wem/bandit_single","A320QA9HJFUOZO","gain","8","","75","K","2","","1","0","0","0.4316294991","","false","201","0.191632201","","main_expt","0.3509587021","","0.4316294991","","0.2139557707","","","","","","",""
"10","","bandit","277","668551","0.0-239.0-0.0","07088941","wem/bandit_single","A320QA9HJFUOZO","gain","8","","75","K","2","","1","0","0","0.4446061493","","false","202","0.1860277461","","main_expt","0.3472711197","","0.4446061493","","0.2411081829","","","","","","",""
"66","","bandit","278","670407","0.0-240.0-0.0","07088941","wem/bandit_single","A320QA9HJFUOZO","gain","8","","75","K","2","","1","0","0","0.4350640844","","false","203","0.1959395152","","main_expt","0.3501901851","","0.4350640844","","0.2229679022","","","","","","",""
"281","","bandit","279","672474","0.0-241.0-0.0","07088941","wem/bandit_single","A320QA9HJFUOZO","gain","8","","75","K","2","","0","0","1","0.4511953558","","false","204","0.1909798814","","main_expt","0.4021923856","","0.4511953558","","0.2094072873","","","","","","",""
"110","","bandit","280","674371","0.0-242.0-0.0","07088941","wem/bandit_single","A320QA9HJFUOZO","gain","8","","75","K","2","","0","0","1","0.4444608137","","false","205","0.1952925147","","main_expt","0.4103624794","","0.4444608137","","0.2061243076","","","","","","",""
"60","","bandit","281","676218","0.0-243.0-0.0","07088941","wem/bandit_single","A320QA9HJFUOZO","gain","8","","75","K","2","","0","0","1","0.4174874576","","false","206","0.2333477628","","main_expt","0.3884407208","","0.4174874576","","0.1830656651","","","","","","",""
"94","","bandit","282","678092","0.0-244.0-0.0","07088941","wem/bandit_single","A320QA9HJFUOZO","gain","8","","76","L","3","","0","0","1","0.1806213093","","false","207","0.2366383375","","main_expt","0.4205181933","","0.4473837798","","0.1806213093","","","","","","",""
"111","","bandit","283","679974","0.0-245.0-0.0","07088941","wem/bandit_single","A320QA9HJFUOZO","gain","8","","76","L","3","","1","0","0","0.1547428587","","false","208","0.2588239296","","main_expt","0.39705837","","0.4423282801","","0.1547428587","","","","","","",""
"114","","bandit","284","681880","0.0-246.0-0.0","07088941","wem/bandit_single","A320QA9HJFUOZO","gain","8","","76","L","3","","0","0","1","0.1633509089","","false","209","0.2109346514","","main_expt","0.3763678409","","0.4495798672","","0.1633509089","","","","","","",""
"204","","bandit","285","683871","0.0-247.0-0.0","07088941","wem/bandit_single","A320QA9HJFUOZO","gain","8","","76","L","3","","1","0","0","0.194224154","","false","210","0.2352346414","","main_expt","0.329669689","","0.4604116181","","0.194224154","","","","","","",""
"100","","bandit","286","685748","0.0-248.0-0.0","07088941","wem/bandit_single","A320QA9HJFUOZO","gain","8","","76","L","3","","0","0","1","0.1428536625","","false","211","0.1919095989","","main_expt","0.3234151823","","0.4515605979","","0.1428536625","","","","","","",""
"210","","bandit","287","687750","0.0-249.0-0.0","07088941","wem/bandit_single","A320QA9HJFUOZO","gain","8","","76","L","3","","0","0","1","0.1876263767","","false","212","0.2511997366","","main_expt","0.346289724","","0.3796359761","","0.1876263767","","","","","","",""
"363","","bandit","288","689877","0.0-250.0-0.0","07088941","wem/bandit_single","A320QA9HJFUOZO","gain","8","","76","L","3","","1","0","0","0.1767426991","","false","213","0.2247602752","","main_expt","0.3579646626","","0.4098311692","","0.1767426991","","","","","","",""
"110","","bandit","289","691770","0.0-251.0-0.0","07088941","wem/bandit_single","A320QA9HJFUOZO","gain","8","","76","L","3","","1","0","0","0.1997003326","","false","214","0.2078026042","","main_expt","0.3871938136","","0.3758430492","","0.1997003326","","","","","","",""
"10","","bandit","290","693553","0.0-252.0-0.0","07088941","wem/bandit_single","A320QA9HJFUOZO","gain","8","","76","L","3","","0","0","1","0.1753208105","","false","215","0.2000367883","","main_expt","0.4072701047","","0.3391734167","","0.1753208105","","","","","","",""
"453","","bandit","291","695790","0.0-253.0-0.0","07088941","wem/bandit_single","A320QA9HJFUOZO","gain","8","","76","L","3","","0","0","1","0.1526073348","","false","216","0.1850279066","","main_expt","0.4139997029","","0.3292806148","","0.1526073348","","","","","","",""
"316","","bandit","292","697893","0.0-254.0-0.0","07088941","wem/bandit_single","A320QA9HJFUOZO","gain","8","","76","L","3","","0","0","1","0.1885901152","","false","217","0.1862329662","","main_expt","0.4058129166","","0.3672552775","","0.1885901152","","","","","","",""
"10","","bandit","293","699684","0.0-255.0-0.0","07088941","wem/bandit_single","A320QA9HJFUOZO","gain","8","","76","L","3","","1","0","0","0.2068683321","","false","218","0.2076422808","","main_expt","0.3831507141","","0.3540988412","","0.2068683321","","","","","","",""
"50","","bandit","294","701510","0.0-256.0-0.0","07088941","wem/bandit_single","A320QA9HJFUOZO","gain","8","","76","L","3","","1","0","0","0.1830460615","","false","219","0.1693095695","","main_expt","0.3975704748","","0.3705907093","","0.1830460615","","","","","","",""
"60","","bandit","295","703337","0.0-257.0-0.0","07088941","wem/bandit_single","A320QA9HJFUOZO","gain","8","","76","L","3","","0","0","1","0.1510464272","","false","220","0.1643321708","","main_expt","0.420208779","","0.4071767116","","0.1510464272","","","","","","",""
"129","","bandit","296","705236","0.0-258.0-0.0","07088941","wem/bandit_single","A320QA9HJFUOZO","gain","8","","76","L","3","","0","0","1","0.1195154075","","false","221","0.1755642267","","main_expt","0.4277126104","","0.4000591573","","0.1195154075","","","","","","",""
"151","","bandit","297","707183","0.0-259.0-0.0","07088941","wem/bandit_single","A320QA9HJFUOZO","gain","8","","76","L","3","","0","0","1","0.1322821073","","false","222","0.2047466037","","main_expt","0.4098861052","","0.4257242725","","0.1322821073","","","","","","",""
"304","","bandit","298","709265","0.0-260.0-0.0","07088941","wem/bandit_single","A320QA9HJFUOZO","gain","8","","74","J","1","","0","0","1","0.3865692481","","false","223","0.1261696039","","main_expt","0.3865692481","","0.4084538547","","0.1634864242","","","","","","",""
"97","","bandit","299","711153","0.0-261.0-0.0","07088941","wem/bandit_single","A320QA9HJFUOZO","gain","8","","75","K","2","","1","0","0","0.3756333804","","false","224","0.1671605087","","main_expt","0.3942994903","","0.3756333804","","0.1927622759","","","","","","",""
"7","","bandit","300","712940","0.0-262.0-0.0","07088941","wem/bandit_single","A320QA9HJFUOZO","gain","8","","75","K","2","","0","0","1","0.3977261909","","false","225","0.1498322393","","main_expt","0.3444994861","","0.3977261909","","0.1949177646","","","","","","",""
"90","","bandit","301","714811","0.0-263.0-0.0","07088941","wem/bandit_single","A320QA9HJFUOZO","gain","8","","75","K","2","","0","0","1","0.3876796808","","false","226","0.106170416","","main_expt","0.4042132592","","0.3876796808","","0.1675301724","","","","","","",""
"32","","bandit","302","716617","0.0-264.0-0.0","07088941","wem/bandit_single","A320QA9HJFUOZO","gain","8","","75","K","2","","1","0","0","0.3213858912","","false","227","0.0897934899","","main_expt","0.3906229402","","0.3213858912","","0.163375113","","","","","","",""
"23","","bandit","303","718421","0.0-265.0-0.0","07088941","wem/bandit_single","A320QA9HJFUOZO","gain","8","","75","K","2","","0","0","1","0.3331191915","","false","228","0.09443294629","","main_expt","0.3417164876","","0.3331191915","","0.195474145","","","","","","",""
"106","","bandit","304","720310","0.0-266.0-0.0","07088941","wem/bandit_single","A320QA9HJFUOZO","gain","8","","75","K","2","","1","0","0","0.308496805","","false","229","0.0848669953","","main_expt","0.3222205624","","0.308496805","","0.2410354958","","","","","","",""
"439","","bandit","305","722524","0.0-267.0-0.0","07088941","wem/bandit_single","A320QA9HJFUOZO","gain","8","","75","K","2","","0","0","1","0.2734654059","","false","230","0.0701458292","","main_expt","0.3442672336","","0.2734654059","","0.2567648542","","","","","","",""
"330","","bandit","306","724630","0.0-268.0-0.0","07088941","wem/bandit_single","A320QA9HJFUOZO","gain","8","","75","K","2","","0","0","1","0.292212981","","false","231","0.1251282835","","main_expt","0.3164459362","","0.292212981","","0.2304241664","","","","","","",""
"500","","bandit","307","726920","0.0-269.0-0.0","07088941","wem/bandit_single","A320QA9HJFUOZO","gain","8","","75","K","2","","0","0","1","0.2516656152","","false","232","0.1124912266","","main_expt","0.3396906789","","0.2516656152","","0.2264886823","","","","","","",""
"70","","bandit","308","728777","0.0-270.0-0.0","07088941","wem/bandit_single","A320QA9HJFUOZO","gain","8","","75","K","2","","0","0","1","0.2563877418","","false","233","0.1535494164","","main_expt","0.3008540409","","0.2563877418","","0.1892320941","","","","","","",""
"433","","bandit","309","730987","0.0-271.0-0.0","07088941","wem/bandit_single","A320QA9HJFUOZO","gain","8","","72","H","0","img/none_selected.jpg","0","0","1","0.1389628654","","false","234","0.1389628654","","main_expt","0.2767988229","","0.283882603","","0.1556895318","","","","","","",""
"107","","bandit","310","732870","0.0-272.0-0.0","07088941","wem/bandit_single","A320QA9HJFUOZO","gain","8","","72","H","0","img/none_selected.jpg","0","0","1","0.1680793718","","false","235","0.1680793718","","main_expt","0.2507781603","","0.2758852766","","0.1976044491","","","","","","",""
"413","","bandit","311","735063","0.0-273.0-0.0","07088941","wem/bandit_single","A320QA9HJFUOZO","gain","8","","72","H","0","img/none_selected.jpg","1","0","0","0.2037097706","","false","236","0.2037097706","","main_expt","0.3091667607","","0.2434452049","","0.1468950029","","","","","","",""
"63","","bandit","312","736910","0.0-274.0-0.0","07088941","wem/bandit_single","A320QA9HJFUOZO","gain","8","","72","H","0","img/none_selected.jpg","0","0","1","0.1897176974","","false","237","0.1897176974","","main_expt","0.2883211118","","0.2405517979","","0.1365515699","","","","","","",""
"150","","bandit","313","738831","0.0-275.0-0.0","07088941","wem/bandit_single","A320QA9HJFUOZO","gain","8","","72","H","0","img/none_selected.jpg","1","0","0","0.2317710791","","false","238","0.2317710791","","main_expt","0.2756444762","","0.2260832521","","0.1527077476","","","","","","",""
"210","","bandit","314","740826","0.0-276.0-0.0","07088941","wem/bandit_single","A320QA9HJFUOZO","gain","8","","72","H","0","img/none_selected.jpg","0","0","1","0.2206906913","","false","239","0.2206906913","","main_expt","0.3061346513","","0.2061693665","","0.1315224722","","","","","","",""
"179","","bandit","315","742786","0.0-277.0-0.0","07088941","wem/bandit_single","A320QA9HJFUOZO","gain","8","","72","H","0","img/none_selected.jpg","0","0","1","0.2155283076","","false","240","0.2155283076","","main_expt","0.3274201615","","0.2203195159","","0.1398926963","","","","","","",""
"20","","bandit","316","744583","0.0-278.0-0.0","07088941","wem/bandit_single","A320QA9HJFUOZO","gain","8","","72","H","0","img/none_selected.jpg","0","0","1","0.2386015387","","false","241","0.2386015387","","main_expt","0.2838770346","","0.2230507071","","0.1698873683","","","","","","",""
"277","","bandit","317","746643","0.0-279.0-0.0","07088941","wem/bandit_single","A320QA9HJFUOZO","gain","8","","74","J","1","","0","0","1","0.261873528","","false","242","0.2178179326","","main_expt","0.261873528","","0.1834748297","","0.1693915972","","","","","","",""
"250","","bandit","318","748669","0.0-280.0-0.0","07088941","wem/bandit_single","A320QA9HJFUOZO","gain","8","","74","J","1","","1","0","0","0.2346518895","","false","243","0.2209910316","","main_expt","0.2346518895","","0.1450766806","","0.2011280514","","","","","","",""
"420","","bandit","319","750879","0.0-281.0-0.0","07088941","wem/bandit_single","A320QA9HJFUOZO","gain","8","","74","J","1","","0","0","1","0.2253303202","","false","244","0.2202366047","","main_expt","0.2253303202","","0.1407015906","","0.283074141","","","","","","",""
"183","","bandit","320","752846","0.0-282.0-0.0","07088941","wem/bandit_single","A320QA9HJFUOZO","gain","8","","74","J","1","","0","0","1","0.2379184421","","false","245","0.2369425358","","main_expt","0.2379184421","","0.1386250556","","0.2960363525","","","","","","",""
"56","","bandit","321","754682","0.0-283.0-0.0","07088941","wem/bandit_single","A320QA9HJFUOZO","gain","8","","74","J","1","","0","0","1","0.1704118475","","false","246","0.2437218948","","main_expt","0.1704118475","","0.1561911267","","0.2985154159","","","","","","",""
"36","","bandit","322","756489","0.0-284.0-0.0","07088941","wem/bandit_single","A320QA9HJFUOZO","gain","8","","75","K","2","","0","0","1","0.251644506","","false","247","0.2573167276","","main_expt","0.1520093858","","0.251644506","","0.3159682012","","","","","","",""
"377","","bandit","323","758659","0.0-285.0-0.0","07088941","wem/bandit_single","A320QA9HJFUOZO","gain","8","","75","K","2","","1","0","0","0.2541276422","","false","248","0.255349996","","main_expt","0.1246217458","","0.2541276422","","0.2937445921","","","","","","",""
"280","","bandit","324","760716","0.0-286.0-0.0","07088941","wem/bandit_single","A320QA9HJFUOZO","gain","8","","75","K","2","","0","0","1","0.1924412691","","false","249","0.2866877344","","main_expt","0.1525969556","","0.1924412691","","0.2794909668","","","","","","",""
"201","","bandit","325","762709","0.0-287.0-0.0","07088941","wem/bandit_single","A320QA9HJFUOZO","gain","8","","75","K","2","","0","0","1","0.1397358892","","false","250","0.2330780591","","main_expt","0.1500628479","","0.1397358892","","0.2327966623","","","","","","",""
"70","","bandit","326","764549","0.0-288.0-0.0","07088941","wem/bandit_single","A320QA9HJFUOZO","gain","8","","74","J","1","","0","0","1","0.1141396938","","false","251","0.2580196572","","main_expt","0.1141396938","","0.1362233376","","0.2595602212","","","","","","",""
"43","","bandit","327","766379","0.0-289.0-0.0","07088941","wem/bandit_single","A320QA9HJFUOZO","gain","8","","76","L","3","","0","0","1","0.2715763176","","false","252","0.2003146692","","main_expt","0.1476089834","","0.1796418735","","0.2715763176","","","","","","",""
"85","","bandit","328","768249","0.0-290.0-0.0","07088941","wem/bandit_single","A320QA9HJFUOZO","gain","8","","75","K","2","","0","0","1","0.1833608075","","false","253","0.1651092288","","main_expt","0.175183139","","0.1833608075","","0.3146654463","","","","","","",""
"131","","bandit","329","770159","0.0-291.0-0.0","07088941","wem/bandit_single","A320QA9HJFUOZO","gain","8","","75","K","2","","0","0","1","0.1983034343","","false","254","0.1413675546","","main_expt","0.1916323123","","0.1983034343","","0.3037610447","","","","","","",""
"27","","bandit","330","771969","0.0-292.0-0.0","07088941","wem/bandit_single","A320QA9HJFUOZO","gain","8","","76","L","3","","0","0","1","0.287825992","","false","255","0.1801919014","","main_expt","0.1888714334","","0.2286544637","","0.287825992","","","","","","",""
"66","","bandit","331","773822","0.0-293.0-0.0","07088941","wem/bandit_single","A320QA9HJFUOZO","gain","8","","75","K","2","","0","0","1","0.2502735072","","false","256","0.1883387327","","main_expt","0.2338577058","","0.2502735072","","0.2673332977","","","","","","",""
"33","","bandit","332","775623","0.0-294.0-0.0","07088941","wem/bandit_single","A320QA9HJFUOZO","gain","8","","76","L","3","","0","0","1","0.2867614738","","false","257","0.1757220287","","main_expt","0.2235288738","","0.2657937058","","0.2867614738","","","","","","",""
"230","","bandit","333","777622","0.0-295.0-0.0","07088941","wem/bandit_single","A320QA9HJFUOZO","gain","8","","76","L","3","","0","0","1","0.2432485896","","false","258","0.1817694486","","main_expt","0.2256298632","","0.2326681124","","0.2432485896","","","","","","",""
"57","","bandit","334","779461","0.0-296.0-0.0","07088941","wem/bandit_single","A320QA9HJFUOZO","gain","8","","75","K","2","","0","0","1","0.2128848171","","false","259","0.1938363466","","main_expt","0.229367941","","0.2128848171","","0.2433124215","","","","","","",""
"83","","bandit","335","781318","0.0-297.0-0.0","07088941","wem/bandit_single","A320QA9HJFUOZO","gain","8","","75","K","2","","0","0","1","0.261065439","","false","260","0.2129025296","","main_expt","0.2585863351","","0.261065439","","0.202057327","","","","","","",""
"118","","bandit","336","783218","0.0-298.0-0.0","07088941","wem/bandit_single","A320QA9HJFUOZO","gain","8","","74","J","1","","0","0","1","0.2748644017","","false","261","0.1931457884","","main_expt","0.2748644017","","0.2693274395","","0.163702413","","","","","","",""
"19","","bandit","337","785016","0.0-299.0-0.0","07088941","wem/bandit_single","A320QA9HJFUOZO","gain","8","","72","H","0","img/none_selected.jpg","0","0","1","0.183306516","","false","262","0.183306516","","main_expt","0.288340978","","0.3386888623","","0.1317961998","","","","","","",""
"454","","bandit","338","787252","0.0-300.0-0.0","07088941","wem/bandit_single","A320QA9HJFUOZO","gain","8","","72","H","0","img/none_selected.jpg","1","0","0","0.1293037787","","false","263","0.1293037787","","main_expt","0.3151532186","","0.3645909238","","0.09680570831","","","","","","",""
"164","","bandit","339","789198","0.0-301.0-0.0","07088941","wem/bandit_single","A320QA9HJFUOZO","gain","8","","72","H","0","img/none_selected.jpg","1","0","0","0.1386072774","","false","264","0.1386072774","","main_expt","0.2931268787","","0.3437159196","","0.08846786375","","","","","","",""
"115","","bandit","340","791099","0.0-302.0-0.0","07088941","wem/bandit_single","A320QA9HJFUOZO","gain","8","","72","H","0","img/none_selected.jpg","0","0","1","0.1511252148","","false","265","0.1511252148","","main_expt","0.3131275506","","0.3644358952","","0.08556864258","","","","","","",""
"287","","bandit","341","793169","0.0-303.0-0.0","07088941","wem/bandit_single","A320QA9HJFUOZO","gain","8","","72","H","0","img/none_selected.jpg","0","0","1","0.2186772706","","false","266","0.2186772706","","main_expt","0.336523231","","0.3904852039","","0.0706515048","","","","","","",""
"100","","bandit","342","795056","0.0-304.0-0.0","07088941","wem/bandit_single","A320QA9HJFUOZO","gain","8","","72","H","0","img/none_selected.jpg","0","0","1","0.2625163009","","false","267","0.2625163009","","main_expt","0.2850369317","","0.3896615427","","0.0747424838","","","","","","",""
"155","","bandit","343","796992","0.0-305.0-0.0","07088941","wem/bandit_single","A320QA9HJFUOZO","gain","8","","72","H","0","img/none_selected.jpg","0","0","1","0.3140442454","","false","268","0.3140442454","","main_expt","0.3163307124","","0.4017278216","","0.112617448","","","","","","",""
"26","","bandit","344","798794","0.0-306.0-0.0","07088941","wem/bandit_single","A320QA9HJFUOZO","gain","8","","72","H","0","img/none_selected.jpg","0","0","1","0.3069084364","","false","269","0.3069084364","","main_expt","0.2956683275","","0.370996795","","0.1406639307","","","","","","",""
"57","","bandit","345","800629","0.0-307.0-0.0","07088941","wem/bandit_single","A320QA9HJFUOZO","gain","8","","74","J","1","","0","0","1","0.3574655381","","false","270","0.2814908846","","main_expt","0.3574655381","","0.4255483526","","0.1398727949","","","","","","",""
"244","","bandit","346","802660","0.0-308.0-0.0","07088941","wem/bandit_single","A320QA9HJFUOZO","gain","8","","74","J","1","","0","0","1","0.3969117111","","false","271","0.3060786573","","main_expt","0.3969117111","","0.3948114384","","0.1430486157","","","","","","",""
"117","","bandit","347","804551","0.0-309.0-0.0","07088941","wem/bandit_single","A320QA9HJFUOZO","gain","8","","74","J","1","","0","0","1","0.3938657786","","false","272","0.3555003363","","main_expt","0.3938657786","","0.3713372483","","0.1872928851","","","","","","",""
"404","","bandit","348","806732","0.0-310.0-0.0","07088941","wem/bandit_single","A320QA9HJFUOZO","gain","8","","74","J","1","","1","0","0","0.3903330825","","false","273","0.3980140183","","main_expt","0.3903330825","","0.3650537767","","0.1769074474","","","","","","",""
"505","","bandit","349","809018","0.0-311.0-0.0","07088941","wem/bandit_single","A320QA9HJFUOZO","gain","8","","74","J","1","","0","0","1","0.4236793781","","false","274","0.4077181827","","main_expt","0.4236793781","","0.3414565802","","0.1820324592","","","","","","",""
"0","","bandit","350","810798","0.0-312.0-0.0","07088941","wem/bandit_single","A320QA9HJFUOZO","gain","8","","74","J","1","","0","0","1","0.4320968281","","false","275","0.4142369189","","main_expt","0.4320968281","","0.3027622838","","0.1923133529","","","","","","",""
"184","","bandit","351","812775","0.0-313.0-0.0","07088941","wem/bandit_single","A320QA9HJFUOZO","gain","8","","74","J","1","","1","0","0","0.4017915655","","false","276","0.4250096067","","main_expt","0.4017915655","","0.3125082267","","0.1917589367","","","","","","",""
"63","","bandit","352","814625","0.0-314.0-0.0","07088941","wem/bandit_single","A320QA9HJFUOZO","gain","8","","74","J","1","","0","0","1","0.3548215972","","false","277","0.4378988515","","main_expt","0.3548215972","","0.348890663","","0.1667093518","","","","","","",""
"36","","bandit","353","816431","0.0-315.0-0.0","07088941","wem/bandit_single","A320QA9HJFUOZO","gain","8","","74","J","1","","1","0","0","0.3683165275","","false","278","0.4323676568","","main_expt","0.3683165275","","0.3341457036","","0.1695638059","","","","","","",""
"157","","bandit","354","818368","0.0-316.0-0.0","07088941","wem/bandit_single","A320QA9HJFUOZO","gain","8","","74","J","1","","0","0","1","0.3750953637","","false","279","0.4391545144","","main_expt","0.3750953637","","0.2341959149","","0.1696283439","","","","","","",""
"90","","bandit","355","820248","0.0-317.0-0.0","07088941","wem/bandit_single","A320QA9HJFUOZO","gain","8","","74","J","1","","1","0","0","0.3557095414","","false","280","0.4467207207","","main_expt","0.3557095414","","0.1839622844","","0.09227733008","","","","","","",""
"226","","bandit","356","822255","0.0-318.0-0.0","07088941","wem/bandit_single","A320QA9HJFUOZO","gain","8","","74","J","1","","0","0","1","0.374333358","","false","281","0.3922333676","","main_expt","0.374333358","","0.1303375237","","0.08059064446","","","","","","",""
"187","","bandit","357","824231","0.0-319.0-0.0","07088941","wem/bandit_single","A320QA9HJFUOZO","gain","8","","74","J","1","","0","0","1","0.3786855632","","false","282","0.4243132136","","main_expt","0.3786855632","","0.07449941097","","0.06236597977","","","","","","",""
"95","","bandit","358","826118","0.0-320.0-0.0","07088941","wem/bandit_single","A320QA9HJFUOZO","gain","8","","74","J","1","","1","0","0","0.437514669","","false","283","0.4187362854","","main_expt","0.437514669","","0.08783129911","","0.07782340279","","","","","","",""
"60","","bandit","359","827959","0.0-321.0-0.0","07088941","wem/bandit_single","A320QA9HJFUOZO","gain","8","","74","J","1","","0","0","1","0.410198323","","false","284","0.422543139","","main_expt","0.410198323","","0.08228152097","","0.07564660971","","","","","","",""
"477","","bandit","360","830224","0.0-322.0-0.0","07088941","wem/bandit_single","A320QA9HJFUOZO","gain","8","","74","J","1","","1","0","0","0.3777139522","","false","285","0.434302279","","main_expt","0.3777139522","","0.09246744832","","0.08237135124","","","","","","",""
"120","","bandit","361","832121","0.0-323.0-0.0","07088941","wem/bandit_single","A320QA9HJFUOZO","gain","8","","74","J","1","","0","0","1","0.3841171753","","false","286","0.4094725029","","main_expt","0.3841171753","","0.08394792075","","0.05670298638","","","","","","",""
"10","","bandit","362","833914","0.0-324.0-0.0","07088941","wem/bandit_single","A320QA9HJFUOZO","gain","8","","74","J","1","","0","0","1","0.3641862554","","false","287","0.3778080042","","main_expt","0.3641862554","","0.1021913287","","0.06647452785","","","","","","",""
"293","","bandit","363","835984","0.0-325.0-0.0","07088941","wem/bandit_single","A320QA9HJFUOZO","gain","8","","74","J","1","","0","0","1","0.3192590496","","false","288","0.3671495563","","main_expt","0.3192590496","","0.1188664616","","0.04859701272","","","","","","",""
"390","","bandit","364","838164","0.0-326.0-0.0","07088941","wem/bandit_single","A320QA9HJFUOZO","gain","8","","74","J","1","","0","0","1","0.3384054944","","false","289","0.3622055636","","main_expt","0.3384054944","","0.1050513492","","0.04246321062","","","","","","",""
"173","","bandit","365","840124","0.0-327.0-0.0","07088941","wem/bandit_single","A320QA9HJFUOZO","gain","8","","74","J","1","","0","0","1","0.329366118","","false","290","0.3616647964","","main_expt","0.329366118","","0.1304324694","","0.08307379137","","","","","","",""
"108","","bandit","366","842011","0.0-328.0-0.0","07088941","wem/bandit_single","A320QA9HJFUOZO","gain","8","","74","J","1","","1","0","0","0.38061917","","false","291","0.3521760992","","main_expt","0.38061917","","0.09707891459","","0.09664054691","","","","","","",""
"10","","bandit","367","843817","0.0-329.0-0.0","07088941","wem/bandit_single","A320QA9HJFUOZO","gain","8","","74","J","1","","1","0","0","0.3703624541","","false","292","0.3062989856","","main_expt","0.3703624541","","0.1166693976","","0.1089287446","","","","","","",""
"146","","bandit","368","845739","0.0-330.0-0.0","07088941","wem/bandit_single","A320QA9HJFUOZO","gain","8","","74","J","1","","0","0","1","0.3554666564","","false","293","0.2594623792","","main_expt","0.3554666564","","0.1448282665","","0.1426967363","","","","","","",""
"183","","bandit","369","847699","0.0-331.0-0.0","07088941","wem/bandit_single","A320QA9HJFUOZO","gain","8","","74","J","1","","1","0","0","0.3976604504","","false","294","0.2666401727","","main_expt","0.3976604504","","0.1486412875","","0.08295656842","","","","","","",""
"50","","bandit","370","849528","0.0-332.0-0.0","07088941","wem/bandit_single","A320QA9HJFUOZO","gain","8","","74","J","1","","0","0","1","0.3567340825","","false","295","0.2160621863","","main_expt","0.3567340825","","0.1266024918","","0.07441347029","","","","","","",""
"195","","bandit","371","851499","0.0-333.0-0.0","07088941","wem/bandit_single","A320QA9HJFUOZO","gain","8","","74","J","1","","1","0","0","0.3802278382","","false","296","0.1924669582","","main_expt","0.3802278382","","0.1499702932","","0.08167080543","","","","","","",""
"410","","bandit","372","853684","0.0-334.0-0.0","07088941","wem/bandit_single","A320QA9HJFUOZO","gain","8","","74","J","1","","0","0","1","0.3764104085","","false","297","0.2572135825","","main_expt","0.3764104085","","0.1124444021","","0.06721412472","","","","","","",""
"190","","bandit","373","855653","0.0-335.0-0.0","07088941","wem/bandit_single","A320QA9HJFUOZO","gain","8","","74","J","1","","0","0","1","0.3801851674","","false","298","0.2660288188","","main_expt","0.3801851674","","0.122133656","","0.1106754059","","","","","","",""
"313","","bandit","374","857749","0.0-336.0-0.0","07088941","wem/bandit_single","A320QA9HJFUOZO","gain","8","","75","K","2","","0","0","1","0.1064281731","","false","299","0.2708303459","","main_expt","0.37372938","","0.1064281731","","0.146580741","","","","","","",""
"99","","bandit","375","859626","0.0-337.0-0.0","07088941","wem/bandit_single","A320QA9HJFUOZO","gain","8","","75","K","2","","0","0","1","0.125842667","","false","300","0.1994240472","","main_expt","0.3709854059","","0.125842667","","0.1256846985","","","","","","",""
"623","","bandit","376","862029","0.0-338.0-0.0","07088941","wem/bandit_single","A320QA9HJFUOZO","gain","8","","75","K","2","","0","0","1","0.1285904212","","false","301","0.1651355876","","main_expt","0.3880870626","","0.1285904212","","0.1336853102","","","","","","",""
"556","","bandit","377","864365","0.0-339.0-0.0","07088941","wem/bandit_single","A320QA9HJFUOZO","gain","8","","75","K","2","","0","0","1","0.114934442","","false","302","0.1759020612","","main_expt","0.3724002202","","0.114934442","","0.09031246233","","","","","","",""
