"rt","responses","trial_type","trial_index","time_elapsed","internal_node_id","subjID","study","MID","cond","drift","key_press","respCharCode","respKey","respChoiceNum","respChoice","gems","bombs","no_reward","GemPrChosen","BombPrChosen","practice","trial_counter","WinPr_0","LosePr_0","trial_label","WinPr_1","LosePr_1","WinPr_2","LosePr_2","WinPr_3","LosePr_3","Q0","Q1","Q2","gender","age","ethnicity"
"84167","{""Q0"":""A2C73Y1COWCA51""}","survey-text","0","84174","0.0-0.0","07171809","wem/bandit_single","A2C73Y1COWCA51","pain","2","","","","","","","","","","","","","","","","","","","","","","","","","","",""
"1638","","text","1","86845","0.0-1.0","07171809","wem/bandit_single","A2C73Y1COWCA51","pain","2","32","","","","","","","","","","","","","","","","","","","","","","","","","",""
"5076","","text","2","91923","0.0-2.0","07171809","wem/bandit_single","A2C73Y1COWCA51","pain","2","32","","","","","","","","","","","","","","","","","","","","","","","","","",""
"41344","","text","3","133268","0.0-3.0","07171809","wem/bandit_single","A2C73Y1COWCA51","pain","2","32","","","","","","","","","","","","","","","","","","","","","","","","","",""
"557","","text","4","133828","0.0-4.0","07171809","wem/bandit_single","A2C73Y1COWCA51","pain","2","32","","","","","","","","","","","","","","","","","","","","","","","","","",""
"1941","","text","5","135770","0.0-5.0","07171809","wem/bandit_single","A2C73Y1COWCA51","pain","2","32","","","","","","","","","","","","","","","","","","","","","","","","","",""
"451","","text","6","136222","0.0-6.0","07171809","wem/bandit_single","A2C73Y1COWCA51","pain","2","32","","","","","","","","","","","","","","","","","","","","","","","","","",""
"717","","text","7","136941","0.0-7.0","07171809","wem/bandit_single","A2C73Y1COWCA51","pain","2","32","","","","","","","","","","","","","","","","","","","","","","","","","",""
"440","","text","8","137383","0.0-8.0","07171809","wem/bandit_single","A2C73Y1COWCA51","pain","2","32","","","","","","","","","","","","","","","","","","","","","","","","","",""
"807","","text","9","138193","0.0-9.0","07171809","wem/bandit_single","A2C73Y1COWCA51","pain","2","32","","","","","","","","","","","","","","","","","","","","","","","","","",""
"404","","text","10","138597","0.0-10.0","07171809","wem/bandit_single","A2C73Y1COWCA51","pain","2","32","","","","","","","","","","","","","","","","","","","","","","","","","",""
"830","","text","11","139428","0.0-11.0","07171809","wem/bandit_single","A2C73Y1COWCA51","pain","2","32","","","","","","","","","","","","","","","","","","","","","","","","","",""
"5351","","bandit","12","146324","0.0-12.0-0.0","07171809","wem/bandit_single","A2C73Y1COWCA51","pain","2","","74","J","0","img/none_selected_demo.jpg","0","0","1","0","0","true","0","0","0","","","","","","","","","","","","",""
"1440","","bandit","13","149520","0.0-13.0-0.0","07171809","wem/bandit_single","A2C73Y1COWCA51","pain","2","","75","K","0","img/none_selected_demo.jpg","0","0","1","0","0","true","0","0","0","","","","","","","","","","","","",""
"4051","","text","14","153824","0.0-14.0","07171809","wem/bandit_single","A2C73Y1COWCA51","pain","2","32","","","","","","","","","","","","","","","","","","","","","","","","","",""
"997","","text","15","154822","0.0-15.0","07171809","wem/bandit_single","A2C73Y1COWCA51","pain","2","32","","","","","","","","","","","","","","","","","","","","","","","","","",""
"976","","text","16","155800","0.0-16.0","07171809","wem/bandit_single","A2C73Y1COWCA51","pain","2","32","","","","","","","","","","","","","","","","","","","","","","","","","",""
"946","","text","17","156747","0.0-17.0","07171809","wem/bandit_single","A2C73Y1COWCA51","pain","2","32","","","","","","","","","","","","","","","","","","","","","","","","","",""
"1145","","bandit","18","159400","0.0-18.0-0.0","07171809","wem/bandit_single","A2C73Y1COWCA51","pain","2","","74","J","0","img/none_selected_demo.jpg","0","1","0","0","0.8","true","0","0","0.8","80_20_practice","0","0.2","","","","","","","","","",""
"265","","bandit","19","161422","0.0-18.0-1.0","07171809","wem/bandit_single","A2C73Y1COWCA51","pain","2","","75","K","1","","0","0","1","0","0.2","true","0","0","0.8","80_20_practice","0","0.2","","","","","","","","","",""
"808","","bandit","20","163988","0.0-18.0-2.0","07171809","wem/bandit_single","A2C73Y1COWCA51","pain","2","","75","K","1","","0","1","0","0","0.2","true","0","0","0.8","80_20_practice","0","0.2","","","","","","","","","",""
"91","","bandit","21","165837","0.0-18.0-3.0","07171809","wem/bandit_single","A2C73Y1COWCA51","pain","2","","74","J","0","img/none_selected_demo.jpg","0","1","0","0","0.8","true","0","0","0.8","80_20_practice","0","0.2","","","","","","","","","",""
"72","","bandit","22","167666","0.0-18.0-4.0","07171809","wem/bandit_single","A2C73Y1COWCA51","pain","2","","74","J","0","img/none_selected_demo.jpg","0","1","0","0","0.8","true","0","0","0.8","80_20_practice","0","0.2","","","","","","","","","",""
"709","","bandit","23","170200","0.0-18.0-5.0","07171809","wem/bandit_single","A2C73Y1COWCA51","pain","2","","74","J","0","img/none_selected_demo.jpg","0","1","0","0","0.8","true","0","0","0.8","80_20_practice","0","0.2","","","","","","","","","",""
"14","","bandit","24","171979","0.0-18.0-6.0","07171809","wem/bandit_single","A2C73Y1COWCA51","pain","2","","75","K","1","","0","0","1","0","0.2","true","0","0","0.8","80_20_practice","0","0.2","","","","","","","","","",""
"395","","bandit","25","174130","0.0-18.0-7.0","07171809","wem/bandit_single","A2C73Y1COWCA51","pain","2","","75","K","1","","0","1","0","0","0.2","true","0","0","0.8","80_20_practice","0","0.2","","","","","","","","","",""
"67","","bandit","26","175965","0.0-18.0-8.0","07171809","wem/bandit_single","A2C73Y1COWCA51","pain","2","","75","K","1","","0","0","1","0","0.2","true","0","0","0.8","80_20_practice","0","0.2","","","","","","","","","",""
"406","","bandit","27","178199","0.0-18.0-9.0","07171809","wem/bandit_single","A2C73Y1COWCA51","pain","2","","75","K","1","","0","0","1","0","0.2","true","0","0","0.8","80_20_practice","0","0.2","","","","","","","","","",""
"660","","bandit","28","180615","0.0-18.0-10.0","07171809","wem/bandit_single","A2C73Y1COWCA51","pain","2","","75","K","1","","0","0","1","0","0.2","true","0","0","0.8","80_20_practice","0","0.2","","","","","","","","","",""
"197","","bandit","29","182570","0.0-18.0-11.0","07171809","wem/bandit_single","A2C73Y1COWCA51","pain","2","","75","K","1","","0","0","1","0","0.2","true","0","0","0.8","80_20_practice","0","0.2","","","","","","","","","",""
"59","","bandit","30","184389","0.0-18.0-12.0","07171809","wem/bandit_single","A2C73Y1COWCA51","pain","2","","75","K","1","","0","0","1","0","0.2","true","0","0","0.8","80_20_practice","0","0.2","","","","","","","","","",""
"136","","bandit","31","186299","0.0-18.0-13.0","07171809","wem/bandit_single","A2C73Y1COWCA51","pain","2","","75","K","1","","0","0","1","0","0.2","true","0","0","0.8","80_20_practice","0","0.2","","","","","","","","","",""
"25","","bandit","32","188080","0.0-18.0-14.0","07171809","wem/bandit_single","A2C73Y1COWCA51","pain","2","","75","K","1","","0","0","1","0","0.2","true","0","0","0.8","80_20_practice","0","0.2","","","","","","","","","",""
"72","","bandit","33","189910","0.0-18.0-15.0","07171809","wem/bandit_single","A2C73Y1COWCA51","pain","2","","75","K","1","","0","0","1","0","0.2","true","0","0","0.8","80_20_practice","0","0.2","","","","","","","","","",""
"114","","bandit","34","191781","0.0-18.0-16.0","07171809","wem/bandit_single","A2C73Y1COWCA51","pain","2","","75","K","1","","0","0","1","0","0.2","true","0","0","0.8","80_20_practice","0","0.2","","","","","","","","","",""
"216","","bandit","35","193753","0.0-18.0-17.0","07171809","wem/bandit_single","A2C73Y1COWCA51","pain","2","","75","K","1","","0","0","1","0","0.2","true","0","0","0.8","80_20_practice","0","0.2","","","","","","","","","",""
"6","","bandit","36","195516","0.0-18.0-18.0","07171809","wem/bandit_single","A2C73Y1COWCA51","pain","2","","75","K","1","","0","0","1","0","0.2","true","0","0","0.8","80_20_practice","0","0.2","","","","","","","","","",""
"42","","bandit","37","197335","0.0-18.0-19.0","07171809","wem/bandit_single","A2C73Y1COWCA51","pain","2","","75","K","1","","0","0","1","0","0.2","true","0","0","0.8","80_20_practice","0","0.2","","","","","","","","","",""
"20209","","text","38","217800","0.0-19.0","07171809","wem/bandit_single","A2C73Y1COWCA51","pain","2","32","","","","","","","","","","","","","","","","","","","","","","","","","",""
"1165","","bandit","39","220476","0.0-20.0-0.0","07171809","wem/bandit_single","A2C73Y1COWCA51","pain","2","","75","K","1","","0","0","1","0","0","true","0","0","0","","0","0","","","","","","","","","",""
"43","","text","40","220773","0.0-21.0","07171809","wem/bandit_single","A2C73Y1COWCA51","pain","2","75","","","","","","","","","","","","","","","","","","","","","","","","","",""
"5973","","text","41","226748","0.0-22.0","07171809","wem/bandit_single","A2C73Y1COWCA51","pain","2","32","","","","","","","","","","","","","","","","","","","","","","","","","",""
"1192","","text","42","227942","0.0-23.0","07171809","wem/bandit_single","A2C73Y1COWCA51","pain","2","32","","","","","","","","","","","","","","","","","","","","","","","","","",""
"1218","","text","43","229163","0.0-24.0","07171809","wem/bandit_single","A2C73Y1COWCA51","pain","2","32","","","","","","","","","","","","","","","","","","","","","","","","","",""
"3441","","text","44","232606","0.0-25.0","07171809","wem/bandit_single","A2C73Y1COWCA51","pain","2","32","","","","","","","","","","","","","","","","","","","","","","","","","",""
"1187","","text","45","233795","0.0-26.0","07171809","wem/bandit_single","A2C73Y1COWCA51","pain","2","32","","","","","","","","","","","","","","","","","","","","","","","","","",""
"526","","text","46","234324","0.0-27.0","07171809","wem/bandit_single","A2C73Y1COWCA51","pain","2","32","","","","","","","","","","","","","","","","","","","","","","","","","",""
"363","","text","47","234688","0.0-28.0","07171809","wem/bandit_single","A2C73Y1COWCA51","pain","2","32","","","","","","","","","","","","","","","","","","","","","","","","","",""
"347","","text","48","235036","0.0-29.0","07171809","wem/bandit_single","A2C73Y1COWCA51","pain","2","32","","","","","","","","","","","","","","","","","","","","","","","","","",""
"359","","text","49","235397","0.0-30.0","07171809","wem/bandit_single","A2C73Y1COWCA51","pain","2","32","","","","","","","","","","","","","","","","","","","","","","","","","",""
"5137","","text","50","240536","0.0-31.0","07171809","wem/bandit_single","A2C73Y1COWCA51","pain","2","32","","","","","","","","","","","","","","","","","","","","","","","","","",""
"622","","bandit","51","242667","0.0-32.0-0.0","07171809","wem/bandit_single","A2C73Y1COWCA51","pain","2","","72","H","0","img/none_selected.jpg","0","1","0","0","0.8","true","0","0","0.8","full_practice","0","0.2","0","0.6","0","0.2","","","","","",""
"745","","bandit","52","245192","0.0-32.0-1.0","07171809","wem/bandit_single","A2C73Y1COWCA51","pain","2","","74","J","1","","0","0","1","0","0.2","true","0","0","0.8","full_practice","0","0.2","0","0.6","0","0.2","","","","","",""
"58","","bandit","53","247005","0.0-32.0-2.0","07171809","wem/bandit_single","A2C73Y1COWCA51","pain","2","","75","K","2","","0","1","0","0","0.6","true","0","0","0.8","full_practice","0","0.2","0","0.6","0","0.2","","","","","",""
"20","","bandit","54","248805","0.0-32.0-3.0","07171809","wem/bandit_single","A2C73Y1COWCA51","pain","2","","76","L","3","","0","0","1","0","0.2","true","0","0","0.8","full_practice","0","0.2","0","0.6","0","0.2","","","","","",""
"667","","bandit","55","251264","0.0-32.0-4.0","07171809","wem/bandit_single","A2C73Y1COWCA51","pain","2","","76","L","3","","0","0","1","0","0.2","true","0","0","0.8","full_practice","0","0.2","0","0.6","0","0.2","","","","","",""
"498","","bandit","56","253518","0.0-32.0-5.0","07171809","wem/bandit_single","A2C73Y1COWCA51","pain","2","","76","L","3","","0","1","0","0","0.2","true","0","0","0.8","full_practice","0","0.2","0","0.6","0","0.2","","","","","",""
"112","","bandit","57","255387","0.0-32.0-6.0","07171809","wem/bandit_single","A2C73Y1COWCA51","pain","2","","76","L","3","","0","0","1","0","0.2","true","0","0","0.8","full_practice","0","0.2","0","0.6","0","0.2","","","","","",""
"994","","bandit","58","258162","0.0-32.0-7.0","07171809","wem/bandit_single","A2C73Y1COWCA51","pain","2","","76","L","3","","0","0","1","0","0.2","true","0","0","0.8","full_practice","0","0.2","0","0.6","0","0.2","","","","","",""
"523","","bandit","59","260446","0.0-32.0-8.0","07171809","wem/bandit_single","A2C73Y1COWCA51","pain","2","","76","L","3","","0","0","1","0","0.2","true","0","0","0.8","full_practice","0","0.2","0","0.6","0","0.2","","","","","",""
"906","","bandit","60","263110","0.0-32.0-9.0","07171809","wem/bandit_single","A2C73Y1COWCA51","pain","2","","76","L","3","","0","0","1","0","0.2","true","0","0","0.8","full_practice","0","0.2","0","0.6","0","0.2","","","","","",""
"47","","bandit","61","264913","0.0-32.0-10.0","07171809","wem/bandit_single","A2C73Y1COWCA51","pain","2","","76","L","3","","0","0","1","0","0.2","true","0","0","0.8","full_practice","0","0.2","0","0.6","0","0.2","","","","","",""
"72","","bandit","62","266755","0.0-32.0-11.0","07171809","wem/bandit_single","A2C73Y1COWCA51","pain","2","","76","L","3","","0","0","1","0","0.2","true","0","0","0.8","full_practice","0","0.2","0","0.6","0","0.2","","","","","",""
"1343","","bandit","63","269855","0.0-32.0-12.0","07171809","wem/bandit_single","A2C73Y1COWCA51","pain","2","","76","L","3","","0","0","1","0","0.2","true","0","0","0.8","full_practice","0","0.2","0","0.6","0","0.2","","","","","",""
"73","","bandit","64","271726","0.0-32.0-13.0","07171809","wem/bandit_single","A2C73Y1COWCA51","pain","2","","76","L","3","","0","0","1","0","0.2","true","0","0","0.8","full_practice","0","0.2","0","0.6","0","0.2","","","","","",""
"544","","bandit","65","274026","0.0-32.0-14.0","07171809","wem/bandit_single","A2C73Y1COWCA51","pain","2","","76","L","3","","0","0","1","0","0.2","true","0","0","0.8","full_practice","0","0.2","0","0.6","0","0.2","","","","","",""
"458","","bandit","66","276403","0.0-32.0-15.0","07171809","wem/bandit_single","A2C73Y1COWCA51","pain","2","","76","L","3","","0","0","1","0","0.2","true","0","0","0.8","full_practice","0","0.2","0","0.6","0","0.2","","","","","",""
"60","","bandit","67","278258","0.0-32.0-16.0","07171809","wem/bandit_single","A2C73Y1COWCA51","pain","2","","76","L","3","","0","0","1","0","0.2","true","0","0","0.8","full_practice","0","0.2","0","0.6","0","0.2","","","","","",""
"232","","bandit","68","280261","0.0-32.0-17.0","07171809","wem/bandit_single","A2C73Y1COWCA51","pain","2","","76","L","3","","0","0","1","0","0.2","true","0","0","0.8","full_practice","0","0.2","0","0.6","0","0.2","","","","","",""
"0","","bandit","69","282017","0.0-32.0-18.0","07171809","wem/bandit_single","A2C73Y1COWCA51","pain","2","","76","L","3","","0","0","1","0","0.2","true","0","0","0.8","full_practice","0","0.2","0","0.6","0","0.2","","","","","",""
"323","","bandit","70","284180","0.0-32.0-19.0","07171809","wem/bandit_single","A2C73Y1COWCA51","pain","2","","76","L","3","","0","0","1","0","0.2","true","0","0","0.8","full_practice","0","0.2","0","0.6","0","0.2","","","","","",""
"19548","","text","71","303984","0.0-33.0","07171809","wem/bandit_single","A2C73Y1COWCA51","pain","2","32","","","","","","","","","","","","","","","","","","","","","","","","","",""
"450","","text","72","305438","0.0-34.0","07171809","wem/bandit_single","A2C73Y1COWCA51","pain","2","32","","","","","","","","","","","","","","","","","","","","","","","","","",""
"382","","text","73","305823","0.0-35.0","07171809","wem/bandit_single","A2C73Y1COWCA51","pain","2","32","","","","","","","","","","","","","","","","","","","","","","","","","",""
"256","","text","74","306082","0.0-36.0","07171809","wem/bandit_single","A2C73Y1COWCA51","pain","2","32","","","","","","","","","","","","","","","","","","","","","","","","","",""
"241","","text","75","306324","0.0-37.0","07171809","wem/bandit_single","A2C73Y1COWCA51","pain","2","32","","","","","","","","","","","","","","","","","","","","","","","","","",""
"1023","","bandit","76","308853","0.0-38.0-0.0","07171809","wem/bandit_single","A2C73Y1COWCA51","pain","2","","76","L","3","","0","0","1","","0.1196507759","false","1","","0.1473353724","main_expt","","0.1047922924","","0.03692567881","","0.1196507759","","","","","",""
"31","","bandit","77","310674","0.0-39.0-0.0","07171809","wem/bandit_single","A2C73Y1COWCA51","pain","2","","76","L","3","","0","0","1","","0.1434551849","false","2","","0.1471364572","main_expt","","0.09232691068","","0.0535834513","","0.1434551849","","","","","",""
"120","","bandit","78","312561","0.0-40.0-0.0","07171809","wem/bandit_single","A2C73Y1COWCA51","pain","2","","76","L","3","","0","1","0","","0.1966750378","false","3","","0.1792173289","main_expt","","0.07878604621","","0.06455495551","","0.1966750378","","","","","",""
"45","","bandit","79","314379","0.0-41.0-0.0","07171809","wem/bandit_single","A2C73Y1COWCA51","pain","2","","76","L","3","","0","0","1","","0.1731728381","false","4","","0.2089457512","main_expt","","0.06180226224","","0.1075220519","","0.1731728381","","","","","",""
"244","","bandit","80","316379","0.0-42.0-0.0","07171809","wem/bandit_single","A2C73Y1COWCA51","pain","2","","76","L","3","","0","0","1","","0.151671232","false","5","","0.2627176439","main_expt","","0.05657605877","","0.1459974634","","0.151671232","","","","","",""
"156","","bandit","81","318301","0.0-43.0-0.0","07171809","wem/bandit_single","A2C73Y1COWCA51","pain","2","","76","L","3","","0","0","1","","0.2201434377","false","6","","0.2052823447","main_expt","","0.03926223851","","0.1119865757","","0.2201434377","","","","","",""
"475","","bandit","82","320544","0.0-44.0-0.0","07171809","wem/bandit_single","A2C73Y1COWCA51","pain","2","","76","L","3","","0","0","1","","0.1924323999","false","7","","0.2424381104","main_expt","","0.02952185798","","0.1135710889","","0.1924323999","","","","","",""
"621","","bandit","83","322924","0.0-45.0-0.0","07171809","wem/bandit_single","A2C73Y1COWCA51","pain","2","","76","L","3","","0","0","1","","0.187431757","false","8","","0.2324683495","main_expt","","0.01847757052","","0.148696524","","0.187431757","","","","","",""
"614","","bandit","84","325369","0.0-46.0-0.0","07171809","wem/bandit_single","A2C73Y1COWCA51","pain","2","","76","L","3","","0","0","1","","0.197470847","false","9","","0.2440295668","main_expt","","0.02695314055","","0.1181121295","","0.197470847","","","","","",""
"463","","bandit","85","327589","0.0-47.0-0.0","07171809","wem/bandit_single","A2C73Y1COWCA51","pain","2","","76","L","3","","0","0","1","","0.2298270047","false","10","","0.2465422232","main_expt","","0.02234311218","","0.1082266346","","0.2298270047","","","","","",""
"298","","bandit","86","329643","0.0-48.0-0.0","07171809","wem/bandit_single","A2C73Y1COWCA51","pain","2","","76","L","3","","0","0","1","","0.2124937163","false","11","","0.1529972956","main_expt","","0.04960883058","","0.1102162287","","0.2124937163","","","","","",""
"3011","","bandit","87","334411","0.0-49.0-0.0","07171809","wem/bandit_single","A2C73Y1COWCA51","pain","2","","76","L","3","","0","0","1","","0.2043121782","false","12","","0.1827224572","main_expt","","0.06086541187","","0.1420736562","","0.2043121782","","","","","",""
"586","","bandit","88","336756","0.0-50.0-0.0","07171809","wem/bandit_single","A2C73Y1COWCA51","pain","2","","76","L","3","","0","0","1","","0.2122729008","false","13","","0.1973099221","main_expt","","0.06603274732","","0.1582971975","","0.2122729008","","","","","",""
"570","","bandit","89","339085","0.0-51.0-0.0","07171809","wem/bandit_single","A2C73Y1COWCA51","pain","2","","76","L","3","","0","0","1","","0.1748916548","false","14","","0.2002936143","main_expt","","0.06952645267","","0.1278364912","","0.1748916548","","","","","",""
"2605","","bandit","90","343458","0.0-52.0-0.0","07171809","wem/bandit_single","A2C73Y1COWCA51","pain","2","","76","L","3","","0","0","1","","0.1598041939","false","15","","0.2100222876","main_expt","","0.06705093019","","0.1389591295","","0.1598041939","","","","","",""
"1172","","bandit","91","346400","0.0-53.0-0.0","07171809","wem/bandit_single","A2C73Y1COWCA51","pain","2","","76","L","3","","0","0","1","","0.1496559895","false","16","","0.192095419","main_expt","","0.08739136862","","0.1087507618","","0.1496559895","","","","","",""
"742","","bandit","92","348899","0.0-54.0-0.0","07171809","wem/bandit_single","A2C73Y1COWCA51","pain","2","","76","L","3","","0","0","1","","0.1855105105","false","17","","0.2057363858","main_expt","","0.0633177824","","0.1591778588","","0.1855105105","","","","","",""
"623","","bandit","93","351325","0.0-55.0-0.0","07171809","wem/bandit_single","A2C73Y1COWCA51","pain","2","","76","L","3","","0","1","0","","0.180786103","false","18","","0.2142317849","main_expt","","0.05969087175","","0.1612769879","","0.180786103","","","","","",""
"467","","bandit","94","353549","0.0-56.0-0.0","07171809","wem/bandit_single","A2C73Y1COWCA51","pain","2","","76","L","3","","0","1","0","","0.1867551017","false","19","","0.2416868574","main_expt","","0.08316546351","","0.1706614454","","0.1867551017","","","","","",""
"15","","bandit","95","355390","0.0-57.0-0.0","07171809","wem/bandit_single","A2C73Y1COWCA51","pain","2","","76","L","3","","0","0","1","","0.2414580321","false","20","","0.2556662882","main_expt","","0.08506169859","","0.2173206475","","0.2414580321","","","","","",""
"816","","bandit","96","357963","0.0-58.0-0.0","07171809","wem/bandit_single","A2C73Y1COWCA51","pain","2","","76","L","3","","0","0","1","","0.2552731096","false","21","","0.2484624222","main_expt","","0.08337624199","","0.2297715145","","0.2552731096","","","","","",""
"212","","bandit","97","359963","0.0-59.0-0.0","07171809","wem/bandit_single","A2C73Y1COWCA51","pain","2","","76","L","3","","0","0","1","","0.2706059063","false","22","","0.3180013331","main_expt","","0.09400888178","","0.2893552095","","0.2706059063","","","","","",""
"5229","","bandit","98","367000","0.0-60.0-0.0","07171809","wem/bandit_single","A2C73Y1COWCA51","pain","2","","76","L","3","","0","0","1","","0.2240124609","false","23","","0.3018869565","main_expt","","0.08373077729","","0.1756353462","","0.2240124609","","","","","",""
"320","","bandit","99","369084","0.0-61.0-0.0","07171809","wem/bandit_single","A2C73Y1COWCA51","pain","2","","76","L","3","","0","0","1","","0.2337623096","false","24","","0.3479913718","main_expt","","0.07394888686","","0.144307289","","0.2337623096","","","","","",""
"92","","bandit","100","370935","0.0-62.0-0.0","07171809","wem/bandit_single","A2C73Y1COWCA51","pain","2","","76","L","3","","0","1","0","","0.1992837424","false","25","","0.3851600672","main_expt","","0.1177231478","","0.1103761204","","0.1992837424","","","","","",""
"270","","bandit","101","372972","0.0-63.0-0.0","07171809","wem/bandit_single","A2C73Y1COWCA51","pain","2","","76","L","3","","0","0","1","","0.2273902023","false","26","","0.3771699284","main_expt","","0.1137187285","","0.09313295331","","0.2273902023","","","","","",""
"275","","bandit","102","375005","0.0-64.0-0.0","07171809","wem/bandit_single","A2C73Y1COWCA51","pain","2","","76","L","3","","0","0","1","","0.2020281611","false","27","","0.3284072512","main_expt","","0.1380279251","","0.07841862492","","0.2020281611","","","","","",""
"96","","bandit","103","376857","0.0-65.0-0.0","07171809","wem/bandit_single","A2C73Y1COWCA51","pain","2","","76","L","3","","0","0","1","","0.2121805601","false","28","","0.3708797381","main_expt","","0.1926536066","","0.0635621653","","0.2121805601","","","","","",""
"1676","","bandit","104","380322","0.0-66.0-0.0","07171809","wem/bandit_single","A2C73Y1COWCA51","pain","2","","76","L","3","","0","0","1","","0.1986823058","false","29","","0.3630760189","main_expt","","0.1919064193","","0.04349452081","","0.1986823058","","","","","",""
"219","","bandit","105","382333","0.0-67.0-0.0","07171809","wem/bandit_single","A2C73Y1COWCA51","pain","2","","76","L","3","","0","0","1","","0.2674628916","false","30","","0.3414786107","main_expt","","0.1767437005","","0.06175929786","","0.2674628916","","","","","",""
"105","","bandit","106","384197","0.0-68.0-0.0","07171809","wem/bandit_single","A2C73Y1COWCA51","pain","2","","76","L","3","","0","0","1","","0.2862820789","false","31","","0.3536929226","main_expt","","0.2417082081","","0.06380111671","","0.2862820789","","","","","",""
"615","","bandit","107","386571","0.0-69.0-0.0","07171809","wem/bandit_single","A2C73Y1COWCA51","pain","2","","76","L","3","","0","1","0","","0.2895619367","false","32","","0.3238646006","main_expt","","0.2312742115","","0.08507033619","","0.2895619367","","","","","",""
"1089","","bandit","108","389440","0.0-70.0-0.0","07171809","wem/bandit_single","A2C73Y1COWCA51","pain","2","","76","L","3","","0","1","0","","0.312502841","false","33","","0.3018803865","main_expt","","0.2247834387","","0.1242974044","","0.312502841","","","","","",""
"782","","bandit","109","391979","0.0-71.0-0.0","07171809","wem/bandit_single","A2C73Y1COWCA51","pain","2","","76","L","3","","0","1","0","","0.2830864838","false","34","","0.2551449341","main_expt","","0.1192543008","","0.158311101","","0.2830864838","","","","","",""
"379","","bandit","110","394230","0.0-72.0-0.0","07171809","wem/bandit_single","A2C73Y1COWCA51","pain","2","","76","L","3","","0","0","1","","0.2489219385","false","35","","0.3200580053","main_expt","","0.1336327135","","0.1293969191","","0.2489219385","","","","","",""
"1462","","bandit","111","397470","0.0-73.0-0.0","07171809","wem/bandit_single","A2C73Y1COWCA51","pain","2","","76","L","3","","0","1","0","","0.2090346537","false","36","","0.3241899647","main_expt","","0.09851205292","","0.1800853883","","0.2090346537","","","","","",""
"821","","bandit","112","400050","0.0-74.0-0.0","07171809","wem/bandit_single","A2C73Y1COWCA51","pain","2","","76","L","3","","0","0","1","","0.210385238","false","37","","0.3029113802","main_expt","","0.05943694951","","0.1025448258","","0.210385238","","","","","",""
"504","","bandit","113","402370","0.0-75.0-0.0","07171809","wem/bandit_single","A2C73Y1COWCA51","pain","2","","76","L","3","","0","0","1","","0.162227856","false","38","","0.2958592888","main_expt","","0.06217728149","","0.1604021245","","0.162227856","","","","","",""
"567","","bandit","114","404694","0.0-76.0-0.0","07171809","wem/bandit_single","A2C73Y1COWCA51","pain","2","","76","L","3","","0","0","1","","0.1444893634","false","39","","0.2941945884","main_expt","","0.08902833973","","0.1336531769","","0.1444893634","","","","","",""
"119","","bandit","115","406571","0.0-77.0-0.0","07171809","wem/bandit_single","A2C73Y1COWCA51","pain","2","","76","L","3","","0","0","1","","0.1340169349","false","40","","0.2784490849","main_expt","","0.1098655825","","0.1356889635","","0.1340169349","","","","","",""
"844","","bandit","116","409171","0.0-78.0-0.0","07171809","wem/bandit_single","A2C73Y1COWCA51","pain","2","","76","L","3","","0","0","1","","0.1019114547","false","41","","0.2943099773","main_expt","","0.125718056","","0.1434276379","","0.1019114547","","","","","",""
"1901","","bandit","117","412828","0.0-79.0-0.0","07171809","wem/bandit_single","A2C73Y1COWCA51","pain","2","","76","L","3","","0","0","1","","0.07379386716","false","42","","0.2502187242","main_expt","","0.07668278466","","0.1432973755","","0.07379386716","","","","","",""
"164","","bandit","118","414750","0.0-80.0-0.0","07171809","wem/bandit_single","A2C73Y1COWCA51","pain","2","","76","L","3","","0","0","1","","0.08186566242","false","43","","0.2691097515","main_expt","","0.08403116819","","0.1605884153","","0.08186566242","","","","","",""
"310","","bandit","119","416819","0.0-81.0-0.0","07171809","wem/bandit_single","A2C73Y1COWCA51","pain","2","","76","L","3","","0","0","1","","0.08692603594","false","44","","0.2601206974","main_expt","","0.08258467284","","0.1396132557","","0.08692603594","","","","","",""
"168","","bandit","120","418746","0.0-82.0-0.0","07171809","wem/bandit_single","A2C73Y1COWCA51","pain","2","","76","L","3","","0","0","1","","0.1212470101","false","45","","0.3222012474","main_expt","","0.07253936928","","0.2250933593","","0.1212470101","","","","","",""
"80","","bandit","121","420583","0.0-83.0-0.0","07171809","wem/bandit_single","A2C73Y1COWCA51","pain","2","","76","L","3","","0","1","0","","0.134661007","false","46","","0.3060845752","main_expt","","0.05374479905","","0.1826421925","","0.134661007","","","","","",""
"2440","","bandit","122","424782","0.0-84.0-0.0","07171809","wem/bandit_single","A2C73Y1COWCA51","pain","2","","76","L","3","","0","1","0","","0.1377890551","false","47","","0.290950603","main_expt","","0.06764850751","","0.1706758886","","0.1377890551","","","","","",""
"430","","bandit","123","426972","0.0-85.0-0.0","07171809","wem/bandit_single","A2C73Y1COWCA51","pain","2","","76","L","3","","0","0","1","","0.1325860966","false","48","","0.329307254","main_expt","","0.05656727153","","0.1686178854","","0.1325860966","","","","","",""
"92","","bandit","124","428825","0.0-86.0-0.0","07171809","wem/bandit_single","A2C73Y1COWCA51","pain","2","","76","L","3","","0","0","1","","0.1231750139","false","49","","0.405044281","main_expt","","0.08131597157","","0.1822379713","","0.1231750139","","","","","",""
"503","","bandit","125","431085","0.0-87.0-0.0","07171809","wem/bandit_single","A2C73Y1COWCA51","pain","2","","76","L","3","","0","0","1","","0.1565964086","false","50","","0.4121919591","main_expt","","0.08274267654","","0.2513484478","","0.1565964086","","","","","",""
"3530","","bandit","126","436374","0.0-88.0-0.0","07171809","wem/bandit_single","A2C73Y1COWCA51","pain","2","","76","L","3","","0","0","1","","0.1464659706","false","51","","0.4271607293","main_expt","","0.1154896937","","0.2812942615","","0.1464659706","","","","","",""
"644","","bandit","127","438777","0.0-89.0-0.0","07171809","wem/bandit_single","A2C73Y1COWCA51","pain","2","","76","L","3","","0","0","1","","0.1196909414","false","52","","0.4249516559","main_expt","","0.07649260985","","0.2224049931","","0.1196909414","","","","","",""
"321","","bandit","128","440855","0.0-90.0-0.0","07171809","wem/bandit_single","A2C73Y1COWCA51","pain","2","","76","L","3","","0","0","1","","0.1578713891","false","53","","0.414238899","main_expt","","0.06211708307","","0.2135714686","","0.1578713891","","","","","",""
"146","","bandit","129","442761","0.0-91.0-0.0","07171809","wem/bandit_single","A2C73Y1COWCA51","pain","2","","76","L","3","","0","0","1","","0.1420893662","false","54","","0.4404827494","main_expt","","0.05122165179","","0.2471494284","","0.1420893662","","","","","",""
"499","","bandit","130","445017","0.0-92.0-0.0","07171809","wem/bandit_single","A2C73Y1COWCA51","pain","2","","76","L","3","","0","0","1","","0.1255118638","false","55","","0.4258944343","main_expt","","0.05779626682","","0.26732004","","0.1255118638","","","","","",""
"174","","bandit","131","446947","0.0-93.0-0.0","07171809","wem/bandit_single","A2C73Y1COWCA51","pain","2","","76","L","3","","0","0","1","","0.1040792381","false","56","","0.4058732664","main_expt","","0.06578325953","","0.258853447","","0.1040792381","","","","","",""
"637","","bandit","132","449401","0.0-94.0-0.0","07171809","wem/bandit_single","A2C73Y1COWCA51","pain","2","","76","L","3","","0","0","1","","0.1058118143","false","57","","0.4269212616","main_expt","","0.07487929626","","0.247757255","","0.1058118143","","","","","",""
"147","","bandit","133","451361","0.0-95.0-0.0","07171809","wem/bandit_single","A2C73Y1COWCA51","pain","2","","76","L","3","","0","0","1","","0.08107820888","false","58","","0.4120073189","main_expt","","0.05601765109","","0.2380046022","","0.08107820888","","","","","",""
"436","","bandit","134","453555","0.0-96.0-0.0","07171809","wem/bandit_single","A2C73Y1COWCA51","pain","2","","76","L","3","","0","0","1","","0.115954585","false","59","","0.367464959","main_expt","","0.07158824907","","0.273239949","","0.115954585","","","","","",""
"301","","bandit","135","455614","0.0-97.0-0.0","07171809","wem/bandit_single","A2C73Y1COWCA51","pain","2","","76","L","3","","0","1","0","","0.190529156","false","60","","0.3113576115","main_expt","","0.1021813758","","0.314936794","","0.190529156","","","","","",""
"180","","bandit","136","457552","0.0-98.0-0.0","07171809","wem/bandit_single","A2C73Y1COWCA51","pain","2","","76","L","3","","0","1","0","","0.2024767933","false","61","","0.3217665369","main_expt","","0.1422244628","","0.3361315769","","0.2024767933","","","","","",""
"69","","bandit","137","459387","0.0-99.0-0.0","07171809","wem/bandit_single","A2C73Y1COWCA51","pain","2","","76","L","3","","0","0","1","","0.1478811465","false","62","","0.3396020841","main_expt","","0.1543762338","","0.3012470308","","0.1478811465","","","","","",""
"131","","bandit","138","461282","0.0-100.0-0.0","07171809","wem/bandit_single","A2C73Y1COWCA51","pain","2","","76","L","3","","0","0","1","","0.1472080331","false","63","","0.3326008901","main_expt","","0.1957871903","","0.3035933772","","0.1472080331","","","","","",""
"147","","bandit","139","463196","0.0-101.0-0.0","07171809","wem/bandit_single","A2C73Y1COWCA51","pain","2","","76","L","3","","0","0","1","","0.1523556625","false","64","","0.2759567044","main_expt","","0.1998827037","","0.3061864711","","0.1523556625","","","","","",""
"141","","bandit","140","465093","0.0-102.0-0.0","07171809","wem/bandit_single","A2C73Y1COWCA51","pain","2","","76","L","3","","0","0","1","","0.1640586258","false","65","","0.330340259","main_expt","","0.2229124218","","0.2795045379","","0.1640586258","","","","","",""
"372","","bandit","141","467326","0.0-103.0-0.0","07171809","wem/bandit_single","A2C73Y1COWCA51","pain","2","","76","L","3","","0","0","1","","0.1559289375","false","66","","0.394496842","main_expt","","0.2821528041","","0.2624990872","","0.1559289375","","","","","",""
"20","","bandit","142","469104","0.0-104.0-0.0","07171809","wem/bandit_single","A2C73Y1COWCA51","pain","2","","76","L","3","","0","0","1","","0.09042099393","false","67","","0.3780229448","main_expt","","0.2228434199","","0.2316809648","","0.09042099393","","","","","",""
"190","","bandit","143","471050","0.0-105.0-0.0","07171809","wem/bandit_single","A2C73Y1COWCA51","pain","2","","76","L","3","","0","0","1","","0.08874767337","false","68","","0.313258317","main_expt","","0.2039549584","","0.2266776066","","0.08874767337","","","","","",""
"74","","bandit","144","472880","0.0-106.0-0.0","07171809","wem/bandit_single","A2C73Y1COWCA51","pain","2","","76","L","3","","0","0","1","","0.09103688118","false","69","","0.3466590849","main_expt","","0.1998164138","","0.1734363374","","0.09103688118","","","","","",""
"293","","bandit","145","474932","0.0-107.0-0.0","07171809","wem/bandit_single","A2C73Y1COWCA51","pain","2","","76","L","3","","0","1","0","","0.139461016","false","70","","0.3389702644","main_expt","","0.1936545157","","0.1469163378","","0.139461016","","","","","",""
"94","","bandit","146","476783","0.0-108.0-0.0","07171809","wem/bandit_single","A2C73Y1COWCA51","pain","2","","76","L","3","","0","0","1","","0.1269809057","false","71","","0.3037518088","main_expt","","0.1875420319","","0.1903103683","","0.1269809057","","","","","",""
"63","","bandit","147","478602","0.0-109.0-0.0","07171809","wem/bandit_single","A2C73Y1COWCA51","pain","2","","76","L","3","","0","0","1","","0.1541032278","false","72","","0.3007282465","main_expt","","0.2275961541","","0.2364630875","","0.1541032278","","","","","",""
"44","","bandit","148","480404","0.0-110.0-0.0","07171809","wem/bandit_single","A2C73Y1COWCA51","pain","2","","76","L","3","","0","0","1","","0.1618198783","false","73","","0.2796446257","main_expt","","0.2485431464","","0.2715971604","","0.1618198783","","","","","",""
"97","","bandit","149","482266","0.0-111.0-0.0","07171809","wem/bandit_single","A2C73Y1COWCA51","pain","2","","76","L","3","","0","0","1","","0.1428156761","false","74","","0.2729876577","main_expt","","0.2394527842","","0.2716254876","","0.1428156761","","","","","",""
"295","","bandit","150","484373","0.0-112.0-0.0","07171809","wem/bandit_single","A2C73Y1COWCA51","pain","2","","76","L","3","","0","0","1","","0.1312504708","false","75","","0.2067723694","main_expt","","0.2074684787","","0.2998540279","","0.1312504708","","","","","",""
"53","","bandit","151","486199","0.0-113.0-0.0","07171809","wem/bandit_single","A2C73Y1COWCA51","pain","2","","76","L","3","","0","0","1","","0.1002429729","false","76","","0.2130899639","main_expt","","0.178133335","","0.3195890579","","0.1002429729","","","","","",""
"6","","bandit","152","487961","0.0-114.0-0.0","07171809","wem/bandit_single","A2C73Y1COWCA51","pain","2","","76","L","3","","0","0","1","","0.07543037954","false","77","","0.2109525889","main_expt","","0.1788248706","","0.2856322382","","0.07543037954","","","","","",""
"221","","bandit","153","489959","0.0-115.0-0.0","07171809","wem/bandit_single","A2C73Y1COWCA51","pain","2","","76","L","3","","0","0","1","","0.1153668935","false","78","","0.1884332626","main_expt","","0.1530293784","","0.2919105172","","0.1153668935","","","","","",""
"297","","bandit","154","492013","0.0-116.0-0.0","07171809","wem/bandit_single","A2C73Y1COWCA51","pain","2","","76","L","3","","0","0","1","","0.07716777456","false","79","","0.1883433777","main_expt","","0.1593806387","","0.2567181874","","0.07716777456","","","","","",""
"153","","bandit","155","493936","0.0-117.0-0.0","07171809","wem/bandit_single","A2C73Y1COWCA51","pain","2","","76","L","3","","0","0","1","","0.08058819474","false","80","","0.1998795799","main_expt","","0.1428411119","","0.3200023444","","0.08058819474","","","","","",""
"173","","bandit","156","495873","0.0-118.0-0.0","07171809","wem/bandit_single","A2C73Y1COWCA51","pain","2","","76","L","3","","0","1","0","","0.09856946308","false","81","","0.1651756375","main_expt","","0.1982686668","","0.3117755618","","0.09856946308","","","","","",""
"186","","bandit","157","497818","0.0-119.0-0.0","07171809","wem/bandit_single","A2C73Y1COWCA51","pain","2","","76","L","3","","0","0","1","","0.1000946235","false","82","","0.2235829688","main_expt","","0.2291501313","","0.3379160562","","0.1000946235","","","","","",""
"252","","bandit","158","499831","0.0-120.0-0.0","07171809","wem/bandit_single","A2C73Y1COWCA51","pain","2","","76","L","3","","0","0","1","","0.06687408093","false","83","","0.2456561592","main_expt","","0.2259362275","","0.3620865136","","0.06687408093","","","","","",""
"154","","bandit","159","501744","0.0-121.0-0.0","07171809","wem/bandit_single","A2C73Y1COWCA51","pain","2","","76","L","3","","0","0","1","","0.06463964557","false","84","","0.2790354554","main_expt","","0.1733031115","","0.3904685548","","0.06463964557","","","","","",""
"4","","bandit","160","503506","0.0-122.0-0.0","07171809","wem/bandit_single","A2C73Y1COWCA51","pain","2","","76","L","3","","0","0","1","","0.09044174456","false","85","","0.2389339959","main_expt","","0.1577379057","","0.4201611698","","0.09044174456","","","","","",""
"329","","bandit","161","505593","0.0-123.0-0.0","07171809","wem/bandit_single","A2C73Y1COWCA51","pain","2","","76","L","3","","0","0","1","","0.07242924321","false","86","","0.2905830411","main_expt","","0.1646880331","","0.4544588035","","0.07242924321","","","","","",""
"100","","bandit","162","507452","0.0-124.0-0.0","07171809","wem/bandit_single","A2C73Y1COWCA51","pain","2","","76","L","3","","0","0","1","","0.06356931104","false","87","","0.3336128518","main_expt","","0.157008097","","0.4444110865","","0.06356931104","","","","","",""
"26","","bandit","163","509257","0.0-125.0-0.0","07171809","wem/bandit_single","A2C73Y1COWCA51","pain","2","","76","L","3","","0","0","1","","0.08819972964","false","88","","0.3720796031","main_expt","","0.14663069","","0.4276611285","","0.08819972964","","","","","",""
"38","","bandit","164","511051","0.0-126.0-0.0","07171809","wem/bandit_single","A2C73Y1COWCA51","pain","2","","76","L","3","","0","0","1","","0.09388884115","false","89","","0.3383028484","main_expt","","0.1510377787","","0.395063318","","0.09388884115","","","","","",""
"2435","","bandit","165","515323","0.0-127.0-0.0","07171809","wem/bandit_single","A2C73Y1COWCA51","pain","2","","76","L","3","","0","0","1","","0.1265583984","false","90","","0.3550100304","main_expt","","0.1600185234","","0.3790569413","","0.1265583984","","","","","",""
"1928","","bandit","166","519009","0.0-128.0-0.0","07171809","wem/bandit_single","A2C73Y1COWCA51","pain","2","","76","L","3","","0","0","1","","0.09433033469","false","91","","0.4198742783","main_expt","","0.1618321768","","0.3763017738","","0.09433033469","","","","","",""
"64","","bandit","167","520836","0.0-129.0-0.0","07171809","wem/bandit_single","A2C73Y1COWCA51","pain","2","","76","L","3","","0","0","1","","0.05111462501","false","92","","0.4522920775","main_expt","","0.1408839615","","0.3829045729","","0.05111462501","","","","","",""
"225","","bandit","168","522822","0.0-130.0-0.0","07171809","wem/bandit_single","A2C73Y1COWCA51","pain","2","","76","L","3","","0","0","1","","0.05378689714","false","93","","0.4572096334","main_expt","","0.1675332925","","0.4155552038","","0.05378689714","","","","","",""
"94","","bandit","169","524678","0.0-131.0-0.0","07171809","wem/bandit_single","A2C73Y1COWCA51","pain","2","","76","L","3","","0","0","1","","0.04385487208","false","94","","0.457248447","main_expt","","0.2154783406","","0.3964247486","","0.04385487208","","","","","",""
"1736","","bandit","170","528183","0.0-132.0-0.0","07171809","wem/bandit_single","A2C73Y1COWCA51","pain","2","","76","L","3","","0","0","1","","0.02374316345","false","95","","0.4284600246","main_expt","","0.2434825378","","0.4028729744","","0.02374316345","","","","","",""
"235","","bandit","171","530207","0.0-133.0-0.0","07171809","wem/bandit_single","A2C73Y1COWCA51","pain","2","","76","L","3","","0","0","1","","0.01119532444","false","96","","0.4213934208","main_expt","","0.300751002","","0.3937220057","","0.01119532444","","","","","",""
"134","","bandit","172","532098","0.0-134.0-0.0","07171809","wem/bandit_single","A2C73Y1COWCA51","pain","2","","76","L","3","","0","0","1","","0.01205949719","false","97","","0.4093218277","main_expt","","0.2390268827","","0.3951408858","","0.01205949719","","","","","",""
"187","","bandit","173","534044","0.0-135.0-0.0","07171809","wem/bandit_single","A2C73Y1COWCA51","pain","2","","76","L","3","","0","0","1","","0.02530753644","false","98","","0.4011771953","main_expt","","0.1872158766","","0.3872505806","","0.02530753644","","","","","",""
"182","","bandit","174","536009","0.0-136.0-0.0","07171809","wem/bandit_single","A2C73Y1COWCA51","pain","2","","76","L","3","","0","0","1","","0.02318317113","false","99","","0.4319140629","main_expt","","0.2281726053","","0.3237376228","","0.02318317113","","","","","",""
"74","","bandit","175","537868","0.0-137.0-0.0","07171809","wem/bandit_single","A2C73Y1COWCA51","pain","2","","76","L","3","","0","0","1","","0.01577819671","false","100","","0.4388591553","main_expt","","0.2322026393","","0.3840854176","","0.01577819671","","","","","",""
"207","","bandit","176","539833","0.0-138.0-0.0","07171809","wem/bandit_single","A2C73Y1COWCA51","pain","2","","76","L","3","","0","0","1","","0.03767304301","false","101","","0.4405661836","main_expt","","0.2675158553","","0.4043087267","","0.03767304301","","","","","",""
"82","","bandit","177","541672","0.0-139.0-0.0","07171809","wem/bandit_single","A2C73Y1COWCA51","pain","2","","76","L","3","","0","0","1","","0.03003558128","false","102","","0.4155134761","main_expt","","0.2334450153","","0.423372456","","0.03003558128","","","","","",""
"94","","bandit","178","543525","0.0-140.0-0.0","07171809","wem/bandit_single","A2C73Y1COWCA51","pain","2","","76","L","3","","0","0","1","","0.04748945294","false","103","","0.4079284656","main_expt","","0.2546104349","","0.4305794097","","0.04748945294","","","","","",""
"176","","bandit","179","545469","0.0-141.0-0.0","07171809","wem/bandit_single","A2C73Y1COWCA51","pain","2","","76","L","3","","0","0","1","","0.06674284653","false","104","","0.3827156199","main_expt","","0.2657782481","","0.4515631957","","0.06674284653","","","","","",""
"53","","bandit","180","547329","0.0-142.0-0.0","07171809","wem/bandit_single","A2C73Y1COWCA51","pain","2","","76","L","3","","0","0","1","","0.0806059128","false","105","","0.3892206975","main_expt","","0.2397797145","","0.454723383","","0.0806059128","","","","","",""
"235","","bandit","181","549398","0.0-143.0-0.0","07171809","wem/bandit_single","A2C73Y1COWCA51","pain","2","","76","L","3","","0","0","1","","0.1147522423","false","106","","0.3499671591","main_expt","","0.1744994936","","0.4487898282","","0.1147522423","","","","","",""
"225","","bandit","182","551382","0.0-144.0-0.0","07171809","wem/bandit_single","A2C73Y1COWCA51","pain","2","","76","L","3","","0","0","1","","0.1225979079","false","107","","0.3378870415","main_expt","","0.2004436591","","0.4300484018","","0.1225979079","","","","","",""
"210","","bandit","183","553349","0.0-145.0-0.0","07171809","wem/bandit_single","A2C73Y1COWCA51","pain","2","","76","L","3","","0","0","1","","0.1808232933","false","108","","0.3206855754","main_expt","","0.1781349215","","0.4056187414","","0.1808232933","","","","","",""
"73","","bandit","184","555192","0.0-146.0-0.0","07171809","wem/bandit_single","A2C73Y1COWCA51","pain","2","","76","L","3","","0","0","1","","0.2004688742","false","109","","0.3412252333","main_expt","","0.1603989886","","0.4145536126","","0.2004688742","","","","","",""
"227","","bandit","185","557180","0.0-147.0-0.0","07171809","wem/bandit_single","A2C73Y1COWCA51","pain","2","","76","L","3","","0","0","1","","0.2261403934","false","110","","0.3650365033","main_expt","","0.1300992081","","0.3897928763","","0.2261403934","","","","","",""
"38","","bandit","186","558977","0.0-148.0-0.0","07171809","wem/bandit_single","A2C73Y1COWCA51","pain","2","","76","L","3","","0","0","1","","0.1612973213","false","111","","0.341048274","main_expt","","0.1740321776","","0.4150540561","","0.1612973213","","","","","",""
"211","","bandit","187","560956","0.0-149.0-0.0","07171809","wem/bandit_single","A2C73Y1COWCA51","pain","2","","76","L","3","","0","1","0","","0.1655724556","false","112","","0.3254027875","main_expt","","0.2444477537","","0.4394636757","","0.1655724556","","","","","",""
"468","","bandit","188","563184","0.0-150.0-0.0","07171809","wem/bandit_single","A2C73Y1COWCA51","pain","2","","76","L","3","","0","0","1","","0.1319876284","false","113","","0.308059901","main_expt","","0.2195244909","","0.4301961846","","0.1319876284","","","","","",""
"80","","bandit","189","565042","0.0-151.0-0.0","07171809","wem/bandit_single","A2C73Y1COWCA51","pain","2","","76","L","3","","0","0","1","","0.1147934267","false","114","","0.3238695313","main_expt","","0.2719971232","","0.4497687286","","0.1147934267","","","","","",""
"175","","bandit","190","567009","0.0-152.0-0.0","07171809","wem/bandit_single","A2C73Y1COWCA51","pain","2","","76","L","3","","0","0","1","","0.1301750396","false","115","","0.3315084933","main_expt","","0.2447677414","","0.4448888627","","0.1301750396","","","","","",""
"204","","bandit","191","568981","0.0-153.0-0.0","07171809","wem/bandit_single","A2C73Y1COWCA51","pain","2","","76","L","3","","0","0","1","","0.130185029","false","116","","0.3234657333","main_expt","","0.2296513069","","0.3905844751","","0.130185029","","","","","",""
"97","","bandit","192","570852","0.0-154.0-0.0","07171809","wem/bandit_single","A2C73Y1COWCA51","pain","2","","76","L","3","","0","0","1","","0.1548944576","false","117","","0.300593156","main_expt","","0.2151266314","","0.424359093","","0.1548944576","","","","","",""
"144","","bandit","193","572756","0.0-155.0-0.0","07171809","wem/bandit_single","A2C73Y1COWCA51","pain","2","","76","L","3","","0","0","1","","0.172903741","false","118","","0.3585138177","main_expt","","0.1311834018","","0.4121010571","","0.172903741","","","","","",""
"175","","bandit","194","574690","0.0-156.0-0.0","07171809","wem/bandit_single","A2C73Y1COWCA51","pain","2","","76","L","3","","0","0","1","","0.1707570171","false","119","","0.3062020697","main_expt","","0.1190099868","","0.4117558181","","0.1707570171","","","","","",""
"195","","bandit","195","576643","0.0-157.0-0.0","07171809","wem/bandit_single","A2C73Y1COWCA51","pain","2","","76","L","3","","0","0","1","","0.1870802187","false","120","","0.3312553157","main_expt","","0.1117686876","","0.4275669698","","0.1870802187","","","","","",""
"2865","","bandit","196","581284","0.0-158.0-0.0","07171809","wem/bandit_single","A2C73Y1COWCA51","pain","2","","76","L","3","","0","0","1","","0.1870161021","false","121","","0.3892509988","main_expt","","0.1415869423","","0.4428986123","","0.1870161021","","","","","",""
"503","","bandit","197","583554","0.0-159.0-0.0","07171809","wem/bandit_single","A2C73Y1COWCA51","pain","2","","76","L","3","","0","0","1","","0.1926804843","false","122","","0.4330036483","main_expt","","0.1398412585","","0.4376246318","","0.1926804843","","","","","",""
"170","","bandit","198","585484","0.0-160.0-0.0","07171809","wem/bandit_single","A2C73Y1COWCA51","pain","2","","76","L","3","","0","1","0","","0.2057615037","false","123","","0.4555957022","main_expt","","0.1163210087","","0.4153394585","","0.2057615037","","","","","",""
"105","","bandit","199","587348","0.0-161.0-0.0","07171809","wem/bandit_single","A2C73Y1COWCA51","pain","2","","76","L","3","","0","0","1","","0.2639565913","false","124","","0.4565029776","main_expt","","0.07344578178","","0.4203389285","","0.2639565913","","","","","",""
"16","","bandit","200","589124","0.0-162.0-0.0","07171809","wem/bandit_single","A2C73Y1COWCA51","pain","2","","76","L","3","","0","0","1","","0.3672341475","false","125","","0.4511527373","main_expt","","0.08752025541","","0.3710029205","","0.3672341475","","","","","",""
"207","","bandit","201","591101","0.0-163.0-0.0","07171809","wem/bandit_single","A2C73Y1COWCA51","pain","2","","76","L","3","","0","1","0","","0.3606148775","false","126","","0.4426171603","main_expt","","0.1064058914","","0.3465273485","","0.3606148775","","","","","",""
"138","","bandit","202","593000","0.0-164.0-0.0","07171809","wem/bandit_single","A2C73Y1COWCA51","pain","2","","76","L","3","","0","0","1","","0.4079700646","false","127","","0.4259104728","main_expt","","0.1103525866","","0.4106613481","","0.4079700646","","","","","",""
"303","","bandit","203","595099","0.0-165.0-0.0","07171809","wem/bandit_single","A2C73Y1COWCA51","pain","2","","76","L","3","","0","1","0","","0.4204919645","false","128","","0.4543754413","main_expt","","0.1060480298","","0.4377707947","","0.4204919645","","","","","",""
"212","","bandit","204","597070","0.0-166.0-0.0","07171809","wem/bandit_single","A2C73Y1COWCA51","pain","2","","76","L","3","","0","0","1","","0.4040923387","false","129","","0.4587533269","main_expt","","0.1332603285","","0.4481781661","","0.4040923387","","","","","",""
"176","","bandit","205","599002","0.0-167.0-0.0","07171809","wem/bandit_single","A2C73Y1COWCA51","pain","2","","76","L","3","","0","0","1","","0.3906791758","false","130","","0.4618517855","main_expt","","0.09182468565","","0.4301237728","","0.3906791758","","","","","",""
"205","","bandit","206","600965","0.0-168.0-0.0","07171809","wem/bandit_single","A2C73Y1COWCA51","pain","2","","76","L","3","","0","0","1","","0.380553204","false","131","","0.4622878414","main_expt","","0.09388333002","","0.4457858875","","0.380553204","","","","","",""
"275","","bandit","207","603043","0.0-169.0-0.0","07171809","wem/bandit_single","A2C73Y1COWCA51","pain","2","","76","L","3","","0","1","0","","0.4000467043","false","132","","0.4624711794","main_expt","","0.07277513685","","0.4732894157","","0.4000467043","","","","","",""
"145","","bandit","208","604970","0.0-170.0-0.0","07171809","wem/bandit_single","A2C73Y1COWCA51","pain","2","","76","L","3","","0","0","1","","0.3929100345","false","133","","0.4794526202","main_expt","","0.1108266248","","0.4607838047","","0.3929100345","","","","","",""
"124","","bandit","209","606859","0.0-171.0-0.0","07171809","wem/bandit_single","A2C73Y1COWCA51","pain","2","","76","L","3","","0","1","0","","0.4009617203","false","134","","0.481632873","main_expt","","0.1466671782","","0.4663808264","","0.4009617203","","","","","",""
"283","","bandit","210","608901","0.0-172.0-0.0","07171809","wem/bandit_single","A2C73Y1COWCA51","pain","2","","76","L","3","","0","1","0","","0.3859426802","false","135","","0.4667599148","main_expt","","0.1625995743","","0.4625615306","","0.3859426802","","","","","",""
"32","","bandit","211","610701","0.0-173.0-0.0","07171809","wem/bandit_single","A2C73Y1COWCA51","pain","2","","76","L","3","","0","0","1","","0.4089350186","false","136","","0.4468402508","main_expt","","0.1555673637","","0.4629143089","","0.4089350186","","","","","",""
"243","","bandit","212","612705","0.0-174.0-0.0","07171809","wem/bandit_single","A2C73Y1COWCA51","pain","2","","76","L","3","","0","0","1","","0.4009707033","false","137","","0.4331537256","main_expt","","0.1395554881","","0.4644074349","","0.4009707033","","","","","",""
"6","","bandit","213","614470","0.0-175.0-0.0","07171809","wem/bandit_single","A2C73Y1COWCA51","pain","2","","76","L","3","","0","1","0","","0.4116224971","false","138","","0.4578477473","main_expt","","0.1387442451","","0.4741213624","","0.4116224971","","","","","",""
"22","","bandit","214","616254","0.0-176.0-0.0","07171809","wem/bandit_single","A2C73Y1COWCA51","pain","2","","76","L","3","","0","1","0","","0.4129411324","false","139","","0.464919911","main_expt","","0.1693780048","","0.4736492243","","0.4129411324","","","","","",""
"142","","bandit","215","618155","0.0-177.0-0.0","07171809","wem/bandit_single","A2C73Y1COWCA51","pain","2","","76","L","3","","0","0","1","","0.4494235083","false","140","","0.4614371154","main_expt","","0.1753437518","","0.4752570035","","0.4494235083","","","","","",""
"172","","bandit","216","620085","0.0-178.0-0.0","07171809","wem/bandit_single","A2C73Y1COWCA51","pain","2","","76","L","3","","0","0","1","","0.4453484197","false","141","","0.4747872093","main_expt","","0.2288512635","","0.4857055712","","0.4453484197","","","","","",""
"34","","bandit","217","621943","0.0-179.0-0.0","07171809","wem/bandit_single","A2C73Y1COWCA51","pain","2","","76","L","3","","0","1","0","","0.4604546146","false","142","","0.4513335087","main_expt","","0.2579513082","","0.4792724089","","0.4604546146","","","","","",""
"281","","bandit","218","623985","0.0-180.0-0.0","07171809","wem/bandit_single","A2C73Y1COWCA51","pain","2","","76","L","3","","0","1","0","","0.4826245684","false","143","","0.4198830698","main_expt","","0.21432658","","0.48057755","","0.4826245684","","","","","",""
"77","","bandit","219","625870","0.0-181.0-0.0","07171809","wem/bandit_single","A2C73Y1COWCA51","pain","2","","76","L","3","","0","0","1","","0.4890981767","false","144","","0.3673231636","main_expt","","0.1938021535","","0.4777600445","","0.4890981767","","","","","",""
"136","","bandit","220","627766","0.0-182.0-0.0","07171809","wem/bandit_single","A2C73Y1COWCA51","pain","2","","76","L","3","","0","0","1","","0.4680822138","false","145","","0.3772368795","main_expt","","0.206497324","","0.4735071841","","0.4680822138","","","","","",""
"179","","bandit","221","629706","0.0-183.0-0.0","07171809","wem/bandit_single","A2C73Y1COWCA51","pain","2","","76","L","3","","0","0","1","","0.4660155258","false","146","","0.3767069828","main_expt","","0.1857351915","","0.4598241197","","0.4660155258","","","","","",""
"278","","bandit","222","631745","0.0-184.0-0.0","07171809","wem/bandit_single","A2C73Y1COWCA51","pain","2","","76","L","3","","0","1","0","","0.4723880167","false","147","","0.4039806626","main_expt","","0.1046475439","","0.4279993213","","0.4723880167","","","","","",""
"2","","bandit","223","633506","0.0-185.0-0.0","07171809","wem/bandit_single","A2C73Y1COWCA51","pain","2","","76","L","3","","0","1","0","","0.4692947112","false","148","","0.4178396587","main_expt","","0.1098111678","","0.4422782314","","0.4692947112","","","","","",""
"186","","bandit","224","635453","0.0-186.0-0.0","07171809","wem/bandit_single","A2C73Y1COWCA51","pain","2","","76","L","3","","0","0","1","","0.4702562614","false","149","","0.3932004216","main_expt","","0.1221971929","","0.4514785706","","0.4702562614","","","","","",""
"152","","bandit","225","637385","0.0-187.0-0.0","07171809","wem/bandit_single","A2C73Y1COWCA51","pain","2","","76","L","3","","0","1","0","","0.4714094479","false","150","","0.4103897693","main_expt","","0.1354034315","","0.4189864991","","0.4714094479","","","","","",""
"188","","bandit","226","639332","0.0-188.0-0.0","07171809","wem/bandit_single","A2C73Y1COWCA51","pain","2","","76","L","3","","0","0","1","","0.4761401221","false","151","","0.4122179041","main_expt","","0.1041822367","","0.4389233528","","0.4761401221","","","","","",""
"97","","bandit","227","641199","0.0-189.0-0.0","07171809","wem/bandit_single","A2C73Y1COWCA51","pain","2","","76","L","3","","0","0","1","","0.4697737123","false","152","","0.3952463752","main_expt","","0.09038071171","","0.4244236929","","0.4697737123","","","","","",""
"14","","bandit","228","642972","0.0-190.0-0.0","07171809","wem/bandit_single","A2C73Y1COWCA51","pain","2","","76","L","3","","0","1","0","","0.446753433","false","153","","0.3877384472","main_expt","","0.08460578514","","0.4476471014","","0.446753433","","","","","",""
"154","","bandit","229","644887","0.0-191.0-0.0","07171809","wem/bandit_single","A2C73Y1COWCA51","pain","2","","76","L","3","","0","0","1","","0.4588815304","false","154","","0.3551427127","main_expt","","0.06957086972","","0.4505336387","","0.4588815304","","","","","",""
"69","","bandit","230","646715","0.0-192.0-0.0","07171809","wem/bandit_single","A2C73Y1COWCA51","pain","2","","76","L","3","","0","1","0","","0.4483664475","false","155","","0.3027898514","main_expt","","0.07570805595","","0.466992112","","0.4483664475","","","","","",""
"228","","bandit","231","648701","0.0-193.0-0.0","07171809","wem/bandit_single","A2C73Y1COWCA51","pain","2","","76","L","3","","0","0","1","","0.4383670719","false","156","","0.3245978035","main_expt","","0.1010055374","","0.4383448919","","0.4383670719","","","","","",""
"104","","bandit","232","650565","0.0-194.0-0.0","07171809","wem/bandit_single","A2C73Y1COWCA51","pain","2","","76","L","3","","0","0","1","","0.42990192","false","157","","0.3293821827","main_expt","","0.09959580587","","0.4181306447","","0.42990192","","","","","",""
"208","","bandit","233","652531","0.0-195.0-0.0","07171809","wem/bandit_single","A2C73Y1COWCA51","pain","2","","76","L","3","","0","1","0","","0.4112902825","false","158","","0.3053991167","main_expt","","0.09130540219","","0.4322591637","","0.4112902825","","","","","",""
"5","","bandit","234","654352","0.0-196.0-0.0","07171809","wem/bandit_single","A2C73Y1COWCA51","pain","2","","76","L","3","","0","1","0","","0.4085113589","false","159","","0.3475565739","main_expt","","0.07080299429","","0.4129829621","","0.4085113589","","","","","",""
"37","","bandit","235","656237","0.0-197.0-0.0","07171809","wem/bandit_single","A2C73Y1COWCA51","pain","2","","76","L","3","","0","1","0","","0.4079314082","false","160","","0.327393219","main_expt","","0.05017383151","","0.4094933958","","0.4079314082","","","","","",""
"230","","bandit","236","658252","0.0-198.0-0.0","07171809","wem/bandit_single","A2C73Y1COWCA51","pain","2","","76","L","3","","0","0","1","","0.3631501835","false","161","","0.303429729","main_expt","","0.03820476969","","0.404058003","","0.3631501835","","","","","",""
"35","","bandit","237","660043","0.0-199.0-0.0","07171809","wem/bandit_single","A2C73Y1COWCA51","pain","2","","76","L","3","","0","0","1","","0.3470346279","false","162","","0.3079210788","main_expt","","0.02512507724","","0.3846726044","","0.3470346279","","","","","",""
"255","","bandit","238","662088","0.0-200.0-0.0","07171809","wem/bandit_single","A2C73Y1COWCA51","pain","2","","76","L","3","","0","0","1","","0.372656257","false","163","","0.3004483846","main_expt","","0.03932379445","","0.4016559577","","0.372656257","","","","","",""
"216","","bandit","239","664063","0.0-201.0-0.0","07171809","wem/bandit_single","A2C73Y1COWCA51","pain","2","","76","L","3","","0","0","1","","0.3802753243","false","164","","0.2886014424","main_expt","","0.01829840099","","0.3566256613","","0.3802753243","","","","","",""
"57","","bandit","240","665892","0.0-202.0-0.0","07171809","wem/bandit_single","A2C73Y1COWCA51","pain","2","","76","L","3","","0","1","0","","0.3881672334","false","165","","0.2088325088","main_expt","","0.02415252971","","0.3509524146","","0.3881672334","","","","","",""
"13","","bandit","241","667667","0.0-203.0-0.0","07171809","wem/bandit_single","A2C73Y1COWCA51","pain","2","","76","L","3","","0","0","1","","0.359536632","false","166","","0.2160195985","main_expt","","0.02185778449","","0.2773632025","","0.359536632","","","","","",""
"243","","bandit","242","669670","0.0-204.0-0.0","07171809","wem/bandit_single","A2C73Y1COWCA51","pain","2","","76","L","3","","0","0","1","","0.3693034809","false","167","","0.1836534764","main_expt","","0.02761124673","","0.3022689801","","0.3693034809","","","","","",""
"332","","bandit","243","671759","0.0-205.0-0.0","07171809","wem/bandit_single","A2C73Y1COWCA51","pain","2","","76","L","3","","0","0","1","","0.3449050916","false","168","","0.1701024481","main_expt","","0.02160611799","","0.2937690027","","0.3449050916","","","","","",""
"200","","bandit","244","673720","0.0-206.0-0.0","07171809","wem/bandit_single","A2C73Y1COWCA51","pain","2","","76","L","3","","0","1","0","","0.3515710367","false","169","","0.1896079261","main_expt","","0.02113437328","","0.2488586406","","0.3515710367","","","","","",""
"56","","bandit","245","675537","0.0-207.0-0.0","07171809","wem/bandit_single","A2C73Y1COWCA51","pain","2","","76","L","3","","0","1","0","","0.3233833909","false","170","","0.2377789273","main_expt","","0.01292956957","","0.2112819205","","0.3233833909","","","","","",""
"136","","bandit","246","677432","0.0-208.0-0.0","07171809","wem/bandit_single","A2C73Y1COWCA51","pain","2","","76","L","3","","0","1","0","","0.2468086364","false","171","","0.2640247014","main_expt","","0.01989811998","","0.2217900108","","0.2468086364","","","","","",""
"328","","bandit","247","679518","0.0-209.0-0.0","07171809","wem/bandit_single","A2C73Y1COWCA51","pain","2","","76","L","3","","0","0","1","","0.3408906282","false","172","","0.2055846389","main_expt","","0.0296351857","","0.2387596097","","0.3408906282","","","","","",""
"207","","bandit","248","681485","0.0-210.0-0.0","07171809","wem/bandit_single","A2C73Y1COWCA51","pain","2","","76","L","3","","0","1","0","","0.3252944763","false","173","","0.2438181894","main_expt","","0.03540771295","","0.2602125502","","0.3252944763","","","","","",""
"115","","bandit","249","683382","0.0-211.0-0.0","07171809","wem/bandit_single","A2C73Y1COWCA51","pain","2","","76","L","3","","0","1","0","","0.3200904142","false","174","","0.2733147352","main_expt","","0.03725130304","","0.2202846771","","0.3200904142","","","","","",""
"5454","","bandit","250","690593","0.0-212.0-0.0","07171809","wem/bandit_single","A2C73Y1COWCA51","pain","2","","76","L","3","","0","1","0","","0.3622659173","false","175","","0.2767671147","main_expt","","0.03242602151","","0.233285157","","0.3622659173","","","","","",""
"235","","bandit","251","692588","0.0-213.0-0.0","07171809","wem/bandit_single","A2C73Y1COWCA51","pain","2","","76","L","3","","0","0","1","","0.2937007374","false","176","","0.2195478827","main_expt","","0.04697917163","","0.2264555061","","0.2937007374","","","","","",""
"354","","bandit","252","694700","0.0-214.0-0.0","07171809","wem/bandit_single","A2C73Y1COWCA51","pain","2","","76","L","3","","0","0","1","","0.2513366018","false","177","","0.1515864758","main_expt","","0.04124559051","","0.241841845","","0.2513366018","","","","","",""
"267","","bandit","253","696727","0.0-215.0-0.0","07171809","wem/bandit_single","A2C73Y1COWCA51","pain","2","","76","L","3","","0","0","1","","0.3159509921","false","178","","0.1618037694","main_expt","","0.06205026603","","0.2423953475","","0.3159509921","","","","","",""
"497","","bandit","254","698983","0.0-216.0-0.0","07171809","wem/bandit_single","A2C73Y1COWCA51","pain","2","","76","L","3","","0","0","1","","0.2899582247","false","179","","0.1653326191","main_expt","","0.08412795639","","0.2523089652","","0.2899582247","","","","","",""
"156","","bandit","255","700899","0.0-217.0-0.0","07171809","wem/bandit_single","A2C73Y1COWCA51","pain","2","","76","L","3","","0","1","0","","0.3371390753","false","180","","0.1751853148","main_expt","","0.1304099397","","0.2223981335","","0.3371390753","","","","","",""
"179","","bandit","256","702837","0.0-218.0-0.0","07171809","wem/bandit_single","A2C73Y1COWCA51","pain","2","","76","L","3","","0","0","1","","0.3365963609","false","181","","0.211978586","main_expt","","0.1801801058","","0.2319473409","","0.3365963609","","","","","",""
"309","","bandit","257","704904","0.0-219.0-0.0","07171809","wem/bandit_single","A2C73Y1COWCA51","pain","2","","76","L","3","","0","0","1","","0.2643366398","false","182","","0.2323199139","main_expt","","0.1951504204","","0.2338578761","","0.2643366398","","","","","",""
"88","","bandit","258","706751","0.0-220.0-0.0","07171809","wem/bandit_single","A2C73Y1COWCA51","pain","2","","76","L","3","","0","0","1","","0.2464000872","false","183","","0.2252803731","main_expt","","0.2330781564","","0.265472663","","0.2464000872","","","","","",""
"313","","bandit","259","708825","0.0-221.0-0.0","07171809","wem/bandit_single","A2C73Y1COWCA51","pain","2","","76","L","3","","0","1","0","","0.3039071009","false","184","","0.1614269484","main_expt","","0.2711395555","","0.2826161147","","0.3039071009","","","","","",""
"266","","bandit","260","710851","0.0-222.0-0.0","07171809","wem/bandit_single","A2C73Y1COWCA51","pain","2","","76","L","3","","0","1","0","","0.3100879913","false","185","","0.1636939604","main_expt","","0.2182249031","","0.2542525597","","0.3100879913","","","","","",""
"10","","bandit","261","712619","0.0-223.0-0.0","07171809","wem/bandit_single","A2C73Y1COWCA51","pain","2","","76","L","3","","0","0","1","","0.28505789","false","186","","0.1744134641","main_expt","","0.2609412602","","0.260460085","","0.28505789","","","","","",""
"152","","bandit","262","714530","0.0-224.0-0.0","07171809","wem/bandit_single","A2C73Y1COWCA51","pain","2","","76","L","3","","0","0","1","","0.2698122055","false","187","","0.1955069844","main_expt","","0.2242136054","","0.2119714508","","0.2698122055","","","","","",""
"209","","bandit","263","716498","0.0-225.0-0.0","07171809","wem/bandit_single","A2C73Y1COWCA51","pain","2","","76","L","3","","0","0","1","","0.2270240414","false","188","","0.2289740151","main_expt","","0.2404864381","","0.1887053186","","0.2270240414","","","","","",""
"195","","bandit","264","718452","0.0-226.0-0.0","07171809","wem/bandit_single","A2C73Y1COWCA51","pain","2","","76","L","3","","0","0","1","","0.2182158859","false","189","","0.2495887903","main_expt","","0.2177927796","","0.1944753942","","0.2182158859","","","","","",""
"4","","bandit","265","720215","0.0-227.0-0.0","07171809","wem/bandit_single","A2C73Y1COWCA51","pain","2","","76","L","3","","0","0","1","","0.2445882628","false","190","","0.2815424982","main_expt","","0.2445379922","","0.2163673671","","0.2445882628","","","","","",""
"303","","bandit","266","722331","0.0-228.0-0.0","07171809","wem/bandit_single","A2C73Y1COWCA51","pain","2","","76","L","3","","0","1","0","","0.2733302752","false","191","","0.2401402076","main_expt","","0.2910265903","","0.2584180811","","0.2733302752","","","","","",""
"211","","bandit","267","724335","0.0-229.0-0.0","07171809","wem/bandit_single","A2C73Y1COWCA51","pain","2","","76","L","3","","0","0","1","","0.2776932955","false","192","","0.2510809658","main_expt","","0.3095983682","","0.2555063139","","0.2776932955","","","","","",""
"195","","bandit","268","726332","0.0-230.0-0.0","07171809","wem/bandit_single","A2C73Y1COWCA51","pain","2","","76","L","3","","0","0","1","","0.3335190616","false","193","","0.2875405407","main_expt","","0.3217156539","","0.2694863875","","0.3335190616","","","","","",""
"337","","bandit","269","728426","0.0-231.0-0.0","07171809","wem/bandit_single","A2C73Y1COWCA51","pain","2","","76","L","3","","0","0","1","","0.3308991278","false","194","","0.2183543786","main_expt","","0.278878796","","0.2894821148","","0.3308991278","","","","","",""
"150","","bandit","270","730340","0.0-232.0-0.0","07171809","wem/bandit_single","A2C73Y1COWCA51","pain","2","","76","L","3","","0","1","0","","0.3676749275","false","195","","0.2626349305","main_expt","","0.2738334973","","0.3028339589","","0.3676749275","","","","","",""
"478","","bandit","271","732578","0.0-233.0-0.0","07171809","wem/bandit_single","A2C73Y1COWCA51","pain","2","","76","L","3","","0","1","0","","0.3523241719","false","196","","0.2046446137","main_expt","","0.2494818112","","0.3051171059","","0.3523241719","","","","","",""
"25","","bandit","272","734380","0.0-234.0-0.0","07171809","wem/bandit_single","A2C73Y1COWCA51","pain","2","","76","L","3","","0","1","0","","0.3874168703","false","197","","0.2122082762","main_expt","","0.2620473779","","0.2901305303","","0.3874168703","","","","","",""
"180","","bandit","273","736332","0.0-235.0-0.0","07171809","wem/bandit_single","A2C73Y1COWCA51","pain","2","","76","L","3","","0","0","1","","0.4072223947","false","198","","0.1962120249","main_expt","","0.3153682745","","0.2403600488","","0.4072223947","","","","","",""
"117","","bandit","274","738210","0.0-236.0-0.0","07171809","wem/bandit_single","A2C73Y1COWCA51","pain","2","","76","L","3","","0","1","0","","0.4284861426","false","199","","0.1840541487","main_expt","","0.2424407548","","0.2034733728","","0.4284861426","","","","","",""
"24","","bandit","275","739993","0.0-237.0-0.0","07171809","wem/bandit_single","A2C73Y1COWCA51","pain","2","","76","L","3","","0","1","0","","0.4181746593","false","200","","0.1575563837","main_expt","","0.2692586032","","0.2193557146","","0.4181746593","","","","","",""
"696","","bandit","276","742454","0.0-238.0-0.0","07171809","wem/bandit_single","A2C73Y1COWCA51","pain","2","","76","L","3","","0","1","0","","0.4134190678","false","201","","0.138860739","main_expt","","0.2605377594","","0.2412650678","","0.4134190678","","","","","",""
"245","","bandit","277","744476","0.0-239.0-0.0","07171809","wem/bandit_single","A2C73Y1COWCA51","pain","2","","76","L","3","","0","0","1","","0.4255663607","false","202","","0.1216759056","main_expt","","0.2372211354","","0.2106041824","","0.4255663607","","","","","",""
"87","","bandit","278","746382","0.0-240.0-0.0","07171809","wem/bandit_single","A2C73Y1COWCA51","pain","2","","76","L","3","","0","0","1","","0.4267176133","false","203","","0.1085797693","main_expt","","0.20896917","","0.2182463191","","0.4267176133","","","","","",""
"763","","bandit","279","748905","0.0-241.0-0.0","07171809","wem/bandit_single","A2C73Y1COWCA51","pain","2","","76","L","3","","0","1","0","","0.460819217","false","204","","0.08750272662","main_expt","","0.2277156902","","0.2060997213","","0.460819217","","","","","",""
"57","","bandit","280","750723","0.0-242.0-0.0","07171809","wem/bandit_single","A2C73Y1COWCA51","pain","2","","76","L","3","","0","1","0","","0.4797370756","false","205","","0.1119911725","main_expt","","0.2096017385","","0.2179237498","","0.4797370756","","","","","",""
"233","","bandit","281","752715","0.0-243.0-0.0","07171809","wem/bandit_single","A2C73Y1COWCA51","pain","2","","76","L","3","","0","0","1","","0.4850202511","false","206","","0.105166696","main_expt","","0.2293009918","","0.194566176","","0.4850202511","","","","","",""
"356","","bandit","282","754831","0.0-244.0-0.0","07171809","wem/bandit_single","A2C73Y1COWCA51","pain","2","","76","L","3","","0","0","1","","0.4588339162","false","207","","0.07428909222","main_expt","","0.2613461541","","0.2540459421","","0.4588339162","","","","","",""
"228","","bandit","283","756820","0.0-245.0-0.0","07171809","wem/bandit_single","A2C73Y1COWCA51","pain","2","","76","L","3","","0","0","1","","0.4704498371","false","208","","0.08415887516","main_expt","","0.2921374763","","0.2165425212","","0.4704498371","","","","","",""
"723","","bandit","284","759330","0.0-246.0-0.0","07171809","wem/bandit_single","A2C73Y1COWCA51","pain","2","","76","L","3","","0","1","0","","0.4498430745","false","209","","0.05558253146","main_expt","","0.2679345114","","0.1808740619","","0.4498430745","","","","","",""
"108","","bandit","285","761198","0.0-247.0-0.0","07171809","wem/bandit_single","A2C73Y1COWCA51","pain","2","","76","L","3","","0","0","1","","0.4463117693","false","210","","0.04914985493","main_expt","","0.2356021564","","0.2298827717","","0.4463117693","","","","","",""
"269","","bandit","286","763237","0.0-248.0-0.0","07171809","wem/bandit_single","A2C73Y1COWCA51","pain","2","","76","L","3","","0","0","1","","0.422163821","false","211","","0.03798033643","main_expt","","0.2152320876","","0.2533880575","","0.422163821","","","","","",""
"130","","bandit","287","765126","0.0-249.0-0.0","07171809","wem/bandit_single","A2C73Y1COWCA51","pain","2","","76","L","3","","0","0","1","","0.3852039581","false","212","","0.03974322714","main_expt","","0.2216595069","","0.2771241442","","0.3852039581","","","","","",""
"28","","bandit","288","766938","0.0-250.0-0.0","07171809","wem/bandit_single","A2C73Y1COWCA51","pain","2","","76","L","3","","0","1","0","","0.3822954745","false","213","","0.02384455773","main_expt","","0.2150176613","","0.3010302337","","0.3822954745","","","","","",""
"132","","bandit","289","768831","0.0-251.0-0.0","07171809","wem/bandit_single","A2C73Y1COWCA51","pain","2","","76","L","3","","0","0","1","","0.3608549874","false","214","","0.03216660231","main_expt","","0.1772129937","","0.3409008015","","0.3608549874","","","","","",""
"222","","bandit","290","770812","0.0-252.0-0.0","07171809","wem/bandit_single","A2C73Y1COWCA51","pain","2","","76","L","3","","0","1","0","","0.3621739951","false","215","","0.03095464101","main_expt","","0.1584975441","","0.3227810677","","0.3621739951","","","","","",""
"171","","bandit","291","772744","0.0-253.0-0.0","07171809","wem/bandit_single","A2C73Y1COWCA51","pain","2","","76","L","3","","0","0","1","","0.3733564142","false","216","","0.04011500866","main_expt","","0.1256434713","","0.3636386285","","0.3733564142","","","","","",""
"107","","bandit","292","774611","0.0-254.0-0.0","07171809","wem/bandit_single","A2C73Y1COWCA51","pain","2","","76","L","3","","0","1","0","","0.3856473275","false","217","","0.02351309264","main_expt","","0.1601534085","","0.3649758886","","0.3856473275","","","","","",""
"152","","bandit","293","776522","0.0-255.0-0.0","07171809","wem/bandit_single","A2C73Y1COWCA51","pain","2","","76","L","3","","0","0","1","","0.3645608201","false","218","","0.01650540734","main_expt","","0.1514518834","","0.3641131336","","0.3645608201","","","","","",""
"91","","bandit","294","778371","0.0-256.0-0.0","07171809","wem/bandit_single","A2C73Y1COWCA51","pain","2","","76","L","3","","0","1","0","","0.3851453746","false","219","","0.03577324375","main_expt","","0.2415223947","","0.341156599","","0.3851453746","","","","","",""
"612","","bandit","295","780743","0.0-257.0-0.0","07171809","wem/bandit_single","A2C73Y1COWCA51","pain","2","","76","L","3","","0","0","1","","0.4075423229","false","220","","0.03655385126","main_expt","","0.2248182851","","0.266049218","","0.4075423229","","","","","",""
"365","","bandit","296","782869","0.0-258.0-0.0","07171809","wem/bandit_single","A2C73Y1COWCA51","pain","2","","76","L","3","","0","0","1","","0.4083347012","false","221","","0.03282050992","main_expt","","0.2588925836","","0.2359154628","","0.4083347012","","","","","",""
"111","","bandit","297","784739","0.0-259.0-0.0","07171809","wem/bandit_single","A2C73Y1COWCA51","pain","2","","76","L","3","","0","1","0","","0.4083223781","false","222","","0.02558717114","main_expt","","0.2025188389","","0.2640726019","","0.4083223781","","","","","",""
"162","","bandit","298","786665","0.0-260.0-0.0","07171809","wem/bandit_single","A2C73Y1COWCA51","pain","2","","76","L","3","","0","0","1","","0.4240474742","false","223","","0.04788205671","main_expt","","0.1609755914","","0.1860418506","","0.4240474742","","","","","",""
"292","","bandit","299","788718","0.0-261.0-0.0","07171809","wem/bandit_single","A2C73Y1COWCA51","pain","2","","76","L","3","","0","1","0","","0.4346876605","false","224","","0.05498715651","main_expt","","0.2316748255","","0.151875944","","0.4346876605","","","","","",""
"163","","bandit","300","790640","0.0-262.0-0.0","07171809","wem/bandit_single","A2C73Y1COWCA51","pain","2","","76","L","3","","0","1","0","","0.4541072866","false","225","","0.056476577","main_expt","","0.1605893144","","0.1209973656","","0.4541072866","","","","","",""
"314","","bandit","301","792714","0.0-263.0-0.0","07171809","wem/bandit_single","A2C73Y1COWCA51","pain","2","","76","L","3","","0","0","1","","0.4239515892","false","226","","0.06361054401","main_expt","","0.1389366963","","0.1503457952","","0.4239515892","","","","","",""
"93","","bandit","302","794569","0.0-264.0-0.0","07171809","wem/bandit_single","A2C73Y1COWCA51","pain","2","","76","L","3","","0","0","1","","0.4122914309","false","227","","0.03819722012","main_expt","","0.09987042713","","0.1784166707","","0.4122914309","","","","","",""
"121","","bandit","303","796450","0.0-265.0-0.0","07171809","wem/bandit_single","A2C73Y1COWCA51","pain","2","","76","L","3","","0","1","0","","0.4022765074","false","228","","0.03706892342","main_expt","","0.1511988136","","0.1729157366","","0.4022765074","","","","","",""
"48","","bandit","304","798289","0.0-266.0-0.0","07171809","wem/bandit_single","A2C73Y1COWCA51","pain","2","","76","L","3","","0","0","1","","0.3991813765","false","229","","0.05619366589","main_expt","","0.1165125066","","0.2035050609","","0.3991813765","","","","","",""
"50","","bandit","305","800098","0.0-267.0-0.0","07171809","wem/bandit_single","A2C73Y1COWCA51","pain","2","","76","L","3","","0","0","1","","0.3771825363","false","230","","0.02398835026","main_expt","","0.09058018373","","0.1677195288","","0.3771825363","","","","","",""
"290","","bandit","306","802148","0.0-268.0-0.0","07171809","wem/bandit_single","A2C73Y1COWCA51","pain","2","","76","L","3","","0","0","1","","0.4081115595","false","231","","0.01087418165","main_expt","","0.1254599363","","0.1568417205","","0.4081115595","","","","","",""
"309","","bandit","307","804227","0.0-269.0-0.0","07171809","wem/bandit_single","A2C73Y1COWCA51","pain","2","","76","L","3","","0","0","1","","0.4227202023","false","232","","0.005667282796","main_expt","","0.09699218641","","0.1733774055","","0.4227202023","","","","","",""
"30","","bandit","308","806020","0.0-270.0-0.0","07171809","wem/bandit_single","A2C73Y1COWCA51","pain","2","","76","L","3","","0","0","1","","0.4267606383","false","233","","0.00711790457","main_expt","","0.07122003092","","0.2318808439","","0.4267606383","","","","","",""
"47","","bandit","309","807838","0.0-271.0-0.0","07171809","wem/bandit_single","A2C73Y1COWCA51","pain","2","","76","L","3","","0","1","0","","0.4076790224","false","234","","0.01087448681","main_expt","","0.07078025717","","0.2728484722","","0.4076790224","","","","","",""
"247","","bandit","310","809847","0.0-272.0-0.0","07171809","wem/bandit_single","A2C73Y1COWCA51","pain","2","","76","L","3","","0","1","0","","0.3750136452","false","235","","0.008183852991","main_expt","","0.04546889639","","0.230842538","","0.3750136452","","","","","",""
"240","","bandit","311","811850","0.0-273.0-0.0","07171809","wem/bandit_single","A2C73Y1COWCA51","pain","2","","76","L","3","","0","0","1","","0.3579900966","false","236","","0.00957014591","main_expt","","0.07949547843","","0.2565969246","","0.3579900966","","","","","",""
"350","","bandit","312","813961","0.0-274.0-0.0","07171809","wem/bandit_single","A2C73Y1COWCA51","pain","2","","76","L","3","","0","0","1","","0.3685919787","false","237","","0.02345003211","main_expt","","0.06498208703","","0.2661079812","","0.3685919787","","","","","",""
"125","","bandit","313","815847","0.0-275.0-0.0","07171809","wem/bandit_single","A2C73Y1COWCA51","pain","2","","76","L","3","","0","0","1","","0.3220789964","false","238","","0.02056264696","main_expt","","0.07283675032","","0.3192940022","","0.3220789964","","","","","",""
"53","","bandit","314","817665","0.0-276.0-0.0","07171809","wem/bandit_single","A2C73Y1COWCA51","pain","2","","76","L","3","","0","0","1","","0.3059519391","false","239","","0.02436326326","main_expt","","0.08723568047","","0.3150738333","","0.3059519391","","","","","",""
"117","","bandit","315","819544","0.0-277.0-0.0","07171809","wem/bandit_single","A2C73Y1COWCA51","pain","2","","76","L","3","","0","0","1","","0.3168560559","false","240","","0.0242835944","main_expt","","0.06404566497","","0.3008600842","","0.3168560559","","","","","",""
"950","","bandit","316","822254","0.0-278.0-0.0","07171809","wem/bandit_single","A2C73Y1COWCA51","pain","2","","76","L","3","","0","1","0","","0.269391424","false","241","","0.02652021178","main_expt","","0.05187051438","","0.2677087501","","0.269391424","","","","","",""
"135","","bandit","317","824151","0.0-279.0-0.0","07171809","wem/bandit_single","A2C73Y1COWCA51","pain","2","","76","L","3","","0","0","1","","0.2061132751","false","242","","0.0264543433","main_expt","","0.04056120823","","0.2645585527","","0.2061132751","","","","","",""
"29","","bandit","318","825940","0.0-280.0-0.0","07171809","wem/bandit_single","A2C73Y1COWCA51","pain","2","","76","L","3","","0","0","1","","0.1996760118","false","243","","0.02176476481","main_expt","","0.02806248696","","0.2793098336","","0.1996760118","","","","","",""
"57","","bandit","319","827762","0.0-281.0-0.0","07171809","wem/bandit_single","A2C73Y1COWCA51","pain","2","","76","L","3","","0","0","1","","0.1719334629","false","244","","0.01301534777","main_expt","","0.04063524207","","0.285685864","","0.1719334629","","","","","",""
"10","","bandit","320","829533","0.0-282.0-0.0","07171809","wem/bandit_single","A2C73Y1COWCA51","pain","2","","76","L","3","","0","0","1","","0.2264626889","false","245","","0.02332936253","main_expt","","0.03258124644","","0.2792363563","","0.2264626889","","","","","",""
"4184","","bandit","321","835518","0.0-283.0-0.0","07171809","wem/bandit_single","A2C73Y1COWCA51","pain","2","","76","L","3","","0","1","0","","0.2097999869","false","246","","0.02379131239","main_expt","","0.034431304","","0.2721020884","","0.2097999869","","","","","",""
"12936","","bandit","322","850233","0.0-284.0-0.0","07171809","wem/bandit_single","A2C73Y1COWCA51","pain","2","","76","L","3","","0","0","1","","0.2190078117","false","247","","0.02988301985","main_expt","","0.0335896152","","0.2784836582","","0.2190078117","","","","","",""
"31","","bandit","323","852026","0.0-285.0-0.0","07171809","wem/bandit_single","A2C73Y1COWCA51","pain","2","","76","L","3","","0","0","1","","0.214739415","false","248","","0.04121629219","main_expt","","0.0373608022","","0.2155360038","","0.214739415","","","","","",""
"246","","bandit","324","854035","0.0-286.0-0.0","07171809","wem/bandit_single","A2C73Y1COWCA51","pain","2","","76","L","3","","0","0","1","","0.2361668487","false","249","","0.03081548873","main_expt","","0.04629433077","","0.2182269439","","0.2361668487","","","","","",""
"200","","bandit","325","856027","0.0-287.0-0.0","07171809","wem/bandit_single","A2C73Y1COWCA51","pain","2","","76","L","3","","0","0","1","","0.2730147117","false","250","","0.02831669856","main_expt","","0.04794370872","","0.2794373206","","0.2730147117","","","","","",""
"112","","bandit","326","857926","0.0-288.0-0.0","07171809","wem/bandit_single","A2C73Y1COWCA51","pain","2","","76","L","3","","0","0","1","","0.2591269664","false","251","","0.02600870455","main_expt","","0.06568157066","","0.2925698281","","0.2591269664","","","","","",""
"189","","bandit","327","859880","0.0-289.0-0.0","07171809","wem/bandit_single","A2C73Y1COWCA51","pain","2","","76","L","3","","0","1","0","","0.3091321407","false","252","","0.02705961599","main_expt","","0.07567030371","","0.2727886948","","0.3091321407","","","","","",""
"120","","bandit","328","861759","0.0-290.0-0.0","07171809","wem/bandit_single","A2C73Y1COWCA51","pain","2","","76","L","3","","0","0","1","","0.2284010385","false","253","","0.01805963102","main_expt","","0.06628052114","","0.2470803404","","0.2284010385","","","","","",""
"79","","bandit","329","863600","0.0-291.0-0.0","07171809","wem/bandit_single","A2C73Y1COWCA51","pain","2","","76","L","3","","0","0","1","","0.2452739286","false","254","","0.01631706542","main_expt","","0.08321976201","","0.3366881304","","0.2452739286","","","","","",""
"82","","bandit","330","865443","0.0-292.0-0.0","07171809","wem/bandit_single","A2C73Y1COWCA51","pain","2","","76","L","3","","0","0","1","","0.2769296881","false","255","","0.01966147099","main_expt","","0.1379446817","","0.3781216995","","0.2769296881","","","","","",""
"81","","bandit","331","867343","0.0-293.0-0.0","07171809","wem/bandit_single","A2C73Y1COWCA51","pain","2","","76","L","3","","0","0","1","","0.222598086","false","256","","0.02801527349","main_expt","","0.1104053019","","0.3565974786","","0.222598086","","","","","",""
"327","","bandit","332","869430","0.0-294.0-0.0","07171809","wem/bandit_single","A2C73Y1COWCA51","pain","2","","76","L","3","","0","1","0","","0.2497605863","false","257","","0.02393064904","main_expt","","0.110095483","","0.3668333327","","0.2497605863","","","","","",""
"4","","bandit","333","871205","0.0-295.0-0.0","07171809","wem/bandit_single","A2C73Y1COWCA51","pain","2","","76","L","3","","0","0","1","","0.248028097","false","258","","0.01715644076","main_expt","","0.09250214804","","0.3978392262","","0.248028097","","","","","",""
"78","","bandit","334","873041","0.0-296.0-0.0","07171809","wem/bandit_single","A2C73Y1COWCA51","pain","2","","76","L","3","","0","0","1","","0.210079309","false","259","","0.01812234738","main_expt","","0.1288972452","","0.3892622443","","0.210079309","","","","","",""
"379","","bandit","335","875253","0.0-297.0-0.0","07171809","wem/bandit_single","A2C73Y1COWCA51","pain","2","","76","L","3","","0","0","1","","0.1785868889","false","260","","0.01699252537","main_expt","","0.127844668","","0.3787635018","","0.1785868889","","","","","",""
"291","","bandit","336","877323","0.0-298.0-0.0","07171809","wem/bandit_single","A2C73Y1COWCA51","pain","2","","76","L","3","","0","1","0","","0.1855690742","false","261","","0.02027773674","main_expt","","0.1408125104","","0.4151771386","","0.1855690742","","","","","",""
"12","","bandit","337","879093","0.0-299.0-0.0","07171809","wem/bandit_single","A2C73Y1COWCA51","pain","2","","76","L","3","","0","0","1","","0.2454672077","false","262","","0.008159173947","main_expt","","0.1423762304","","0.4184001904","","0.2454672077","","","","","",""
"3848","","bandit","338","884714","0.0-300.0-0.0","07171809","wem/bandit_single","A2C73Y1COWCA51","pain","2","","76","L","3","","0","0","1","","0.2423041147","false","263","","0.00730364875","main_expt","","0.1237094287","","0.4397427278","","0.2423041147","","","","","",""
"129","","bandit","339","886606","0.0-301.0-0.0","07171809","wem/bandit_single","A2C73Y1COWCA51","pain","2","","76","L","3","","0","0","1","","0.2771483686","false","264","","0.008891010149","main_expt","","0.1110826985","","0.4308816061","","0.2771483686","","","","","",""
"206","","bandit","340","888571","0.0-302.0-0.0","07171809","wem/bandit_single","A2C73Y1COWCA51","pain","2","","76","L","3","","0","0","1","","0.2066329382","false","265","","0.009434589262","main_expt","","0.09816719149","","0.4310956018","","0.2066329382","","","","","",""
"218","","bandit","341","890549","0.0-303.0-0.0","07171809","wem/bandit_single","A2C73Y1COWCA51","pain","2","","76","L","3","","0","0","1","","0.1954640054","false","266","","0.009503255165","main_expt","","0.1313615454","","0.4462346174","","0.1954640054","","","","","",""
"226","","bandit","342","892535","0.0-304.0-0.0","07171809","wem/bandit_single","A2C73Y1COWCA51","pain","2","","76","L","3","","0","0","1","","0.132533774","false","267","","0.01294763698","main_expt","","0.1039649444","","0.4649068607","","0.132533774","","","","","",""
"55","","bandit","343","894351","0.0-305.0-0.0","07171809","wem/bandit_single","A2C73Y1COWCA51","pain","2","","76","L","3","","0","0","1","","0.1212355483","false","268","","0.01002763249","main_expt","","0.0758663636","","0.4499385749","","0.1212355483","","","","","",""
"70","","bandit","344","896197","0.0-306.0-0.0","07171809","wem/bandit_single","A2C73Y1COWCA51","pain","2","","76","L","3","","0","0","1","","0.1363236216","false","269","","0.009339874814","main_expt","","0.08641939852","","0.4702815535","","0.1363236216","","","","","",""
"304","","bandit","345","898361","0.0-307.0-0.0","07171809","wem/bandit_single","A2C73Y1COWCA51","pain","2","","76","L","3","","0","0","1","","0.1061923246","false","270","","0.0101894737","main_expt","","0.08694739741","","0.4738293899","","0.1061923246","","","","","",""
"390","","bandit","346","900511","0.0-308.0-0.0","07171809","wem/bandit_single","A2C73Y1COWCA51","pain","2","","76","L","3","","0","0","1","","0.09682021381","false","271","","0.0101062795","main_expt","","0.07507278363","","0.4552130477","","0.09682021381","","","","","",""
"17","","bandit","347","902345","0.0-309.0-0.0","07171809","wem/bandit_single","A2C73Y1COWCA51","pain","2","","76","L","3","","0","0","1","","0.0728164368","false","272","","0.009276773287","main_expt","","0.09002305832","","0.4571227508","","0.0728164368","","","","","",""
"53","","bandit","348","904190","0.0-310.0-0.0","07171809","wem/bandit_single","A2C73Y1COWCA51","pain","2","","76","L","3","","0","0","1","","0.1026255411","false","273","","0.0113492324","main_expt","","0.07941117108","","0.4262778794","","0.1026255411","","","","","",""
"267","","bandit","349","906232","0.0-311.0-0.0","07171809","wem/bandit_single","A2C73Y1COWCA51","pain","2","","76","L","3","","0","0","1","","0.08683802548","false","274","","0.005483919941","main_expt","","0.09301171309","","0.4017895895","","0.08683802548","","","","","",""
"209","","bandit","350","908259","0.0-312.0-0.0","07171809","wem/bandit_single","A2C73Y1COWCA51","pain","2","","76","L","3","","0","0","1","","0.08250982893","false","275","","0.00462874381","main_expt","","0.1012072593","","0.4017548056","","0.08250982893","","","","","",""
"129","","bandit","351","910148","0.0-313.0-0.0","07171809","wem/bandit_single","A2C73Y1COWCA51","pain","2","","76","L","3","","0","0","1","","0.06031930624","false","276","","0.009610611089","main_expt","","0.1230964009","","0.4072561249","","0.06031930624","","","","","",""
"147","","bandit","352","912058","0.0-314.0-0.0","07171809","wem/bandit_single","A2C73Y1COWCA51","pain","2","","76","L","3","","0","0","1","","0.07169075363","false","277","","0.01319252808","main_expt","","0.1320105939","","0.3248287115","","0.07169075363","","","","","",""
"23","","bandit","353","913903","0.0-315.0-0.0","07171809","wem/bandit_single","A2C73Y1COWCA51","pain","2","","76","L","3","","0","0","1","","0.119525529","false","278","","0.008560453299","main_expt","","0.100271112","","0.2954662343","","0.119525529","","","","","",""
"375","","bandit","354","916039","0.0-316.0-0.0","07171809","wem/bandit_single","A2C73Y1COWCA51","pain","2","","76","L","3","","0","0","1","","0.05136608794","false","279","","0.02270234009","main_expt","","0.0752783975","","0.3430788315","","0.05136608794","","","","","",""
"62","","bandit","355","917894","0.0-317.0-0.0","07171809","wem/bandit_single","A2C73Y1COWCA51","pain","2","","76","L","3","","0","0","1","","0.06692305053","false","280","","0.01842994591","main_expt","","0.04609407158","","0.298888987","","0.06692305053","","","","","",""
"26","","bandit","356","919684","0.0-318.0-0.0","07171809","wem/bandit_single","A2C73Y1COWCA51","pain","2","","76","L","3","","0","0","1","","0.08594942048","false","281","","0.01750385803","main_expt","","0.05874754036","","0.317374049","","0.08594942048","","","","","",""
"8","","bandit","357","921474","0.0-319.0-0.0","07171809","wem/bandit_single","A2C73Y1COWCA51","pain","2","","76","L","3","","0","0","1","","0.08562343316","false","282","","0.01075771148","main_expt","","0.05911354127","","0.2905756231","","0.08562343316","","","","","",""
"186","","bandit","358","923418","0.0-320.0-0.0","07171809","wem/bandit_single","A2C73Y1COWCA51","pain","2","","76","L","3","","0","0","1","","0.06507866554","false","283","","0.009487342711","main_expt","","0.0444902615","","0.335540713","","0.06507866554","","","","","",""
"263","","bandit","359","925442","0.0-321.0-0.0","07171809","wem/bandit_single","A2C73Y1COWCA51","pain","2","","76","L","3","","0","0","1","","0.05738126215","false","284","","0.01035814212","main_expt","","0.03666520406","","0.3569674754","","0.05738126215","","","","","",""
"259","","bandit","360","927462","0.0-322.0-0.0","07171809","wem/bandit_single","A2C73Y1COWCA51","pain","2","","76","L","3","","0","0","1","","0.06337296056","false","285","","0.01056818013","main_expt","","0.02451873239","","0.4068019922","","0.06337296056","","","","","",""
"312","","bandit","361","929535","0.0-323.0-0.0","07171809","wem/bandit_single","A2C73Y1COWCA51","pain","2","","76","L","3","","0","0","1","","0.04649068967","false","286","","0.007821227136","main_expt","","0.02877547985","","0.432978486","","0.04649068967","","","","","",""
"198","","bandit","362","931492","0.0-324.0-0.0","07171809","wem/bandit_single","A2C73Y1COWCA51","pain","2","","76","L","3","","0","0","1","","0.04946639224","false","287","","0.01039042452","main_expt","","0.03331393821","","0.4213006965","","0.04946639224","","","","","",""
"65","","bandit","363","933340","0.0-325.0-0.0","07171809","wem/bandit_single","A2C73Y1COWCA51","pain","2","","76","L","3","","0","1","0","","0.03962947871","false","288","","0.02141961277","main_expt","","0.02363643209","","0.4094413186","","0.03962947871","","","","","",""
"19","","bandit","364","935120","0.0-326.0-0.0","07171809","wem/bandit_single","A2C73Y1COWCA51","pain","2","","76","L","3","","0","0","1","","0.05295486238","false","289","","0.02062414181","main_expt","","0.0366455232","","0.3731302572","","0.05295486238","","","","","",""
"68","","bandit","365","936952","0.0-327.0-0.0","07171809","wem/bandit_single","A2C73Y1COWCA51","pain","2","","76","L","3","","0","1","0","","0.06311332932","false","290","","0.01411690602","main_expt","","0.04887184979","","0.4076032329","","0.06311332932","","","","","",""
"127","","bandit","366","938840","0.0-328.0-0.0","07171809","wem/bandit_single","A2C73Y1COWCA51","pain","2","","76","L","3","","0","0","1","","0.07741633782","false","291","","0.03188260643","main_expt","","0.03783642248","","0.4134699565","","0.07741633782","","","","","",""
"164","","bandit","367","940768","0.0-329.0-0.0","07171809","wem/bandit_single","A2C73Y1COWCA51","pain","2","","76","L","3","","0","0","1","","0.09064252153","false","292","","0.03429620073","main_expt","","0.07820299584","","0.3827884258","","0.09064252153","","","","","",""
"162","","bandit","368","942695","0.0-330.0-0.0","07171809","wem/bandit_single","A2C73Y1COWCA51","pain","2","","76","L","3","","0","0","1","","0.07659126906","false","293","","0.030392347","main_expt","","0.07060894185","","0.4162015812","","0.07659126906","","","","","",""
"83","","bandit","369","944539","0.0-331.0-0.0","07171809","wem/bandit_single","A2C73Y1COWCA51","pain","2","","76","L","3","","0","0","1","","0.08042624432","false","294","","0.04782046051","main_expt","","0.1051632986","","0.447674372","","0.08042624432","","","","","",""
"350","","bandit","370","946651","0.0-332.0-0.0","07171809","wem/bandit_single","A2C73Y1COWCA51","pain","2","","76","L","3","","0","0","1","","0.1216640212","false","295","","0.06309063339","main_expt","","0.06624019153","","0.4402126752","","0.1216640212","","","","","",""
"57","","bandit","371","948469","0.0-333.0-0.0","07171809","wem/bandit_single","A2C73Y1COWCA51","pain","2","","76","L","3","","0","0","1","","0.1058257345","false","296","","0.09511663338","main_expt","","0.07088700909","","0.4378891161","","0.1058257345","","","","","",""
"212","","bandit","372","950456","0.0-334.0-0.0","07171809","wem/bandit_single","A2C73Y1COWCA51","pain","2","","76","L","3","","0","0","1","","0.1101311263","false","297","","0.07325770628","main_expt","","0.0529580871","","0.468153315","","0.1101311263","","","","","",""
"198","","bandit","373","952416","0.0-335.0-0.0","07171809","wem/bandit_single","A2C73Y1COWCA51","pain","2","","76","L","3","","0","1","0","","0.1117004815","false","298","","0.06352452747","main_expt","","0.04256970448","","0.4538992283","","0.1117004815","","","","","",""
"125","","bandit","374","954323","0.0-336.0-0.0","07171809","wem/bandit_single","A2C73Y1COWCA51","pain","2","","76","L","3","","0","0","1","","0.1201211159","false","299","","0.09466520998","main_expt","","0.02772245328","","0.4653276232","","0.1201211159","","","","","",""
"115","","bandit","375","956200","0.0-337.0-0.0","07171809","wem/bandit_single","A2C73Y1COWCA51","pain","2","","76","L","3","","0","1","0","","0.1548602856","false","300","","0.09054341503","main_expt","","0.05668959023","","0.4727191718","","0.1548602856","","","","","",""
"561","","bandit","376","958521","0.0-338.0-0.0","07171809","wem/bandit_single","A2C73Y1COWCA51","pain","2","","76","L","3","","0","0","1","","0.108656421","false","301","","0.08155240912","main_expt","","0.06293517541","","0.4699586111","","0.108656421","","","","","",""
"134","","bandit","377","960416","0.0-339.0-0.0","07171809","wem/bandit_single","A2C73Y1COWCA51","pain","2","","76","L","3","","0","0","1","","0.1031976088","false","302","","0.07436819523","main_expt","","0.08040601672","","0.4708648019","","0.1031976088","","","","","",""
"671","","bandit","378","962850","0.0-340.0-0.0","07171809","wem/bandit_single","A2C73Y1COWCA51","pain","2","","76","L","3","","0","0","1","","0.1000990802","false","303","","0.09985843402","main_expt","","0.09474903413","","0.4806860481","","0.1000990802","","","","","",""
"109","","bandit","379","964720","0.0-341.0-0.0","07171809","wem/bandit_single","A2C73Y1COWCA51","pain","2","","76","L","3","","0","0","1","","0.09070099243","false","304","","0.1109101373","main_expt","","0.10228531","","0.4815368589","","0.09070099243","","","","","",""
"120","","bandit","380","966603","0.0-342.0-0.0","07171809","wem/bandit_single","A2C73Y1COWCA51","pain","2","","76","L","3","","0","0","1","","0.08897482166","false","305","","0.09877409347","main_expt","","0.09595081544","","0.4750906685","","0.08897482166","","","","","",""
