"rt","responses","trial_type","trial_index","time_elapsed","internal_node_id","subjID","study","MID","cond","drift","key_press","respCharCode","respKey","respChoiceNum","respChoice","gems","bombs","no_reward","GemPrChosen","BombPrChosen","practice","trial_counter","WinPr_0","LosePr_0","trial_label","WinPr_1","LosePr_1","WinPr_2","LosePr_2","WinPr_3","LosePr_3","Q0","Q1","Q2","gender","age","ethnicity"
"13340","{""Q0"":""AOAQK9URS9KUR""}","survey-text","0","13345","0.0-0.0","07447254","wem/bandit_single","AOAQK9URS9KUR","gain","1","","","","","","","","","","","","","","","","","","","","","","","","","","",""
"2486","","text","1","16835","0.0-1.0","07447254","wem/bandit_single","AOAQK9URS9KUR","gain","1","32","","","","","","","","","","","","","","","","","","","","","","","","","",""
"10847","","text","2","27683","0.0-2.0","07447254","wem/bandit_single","AOAQK9URS9KUR","gain","1","32","","","","","","","","","","","","","","","","","","","","","","","","","",""
"8918","","text","3","36602","0.0-3.0","07447254","wem/bandit_single","AOAQK9URS9KUR","gain","1","32","","","","","","","","","","","","","","","","","","","","","","","","","",""
"5411","","text","4","42014","0.0-4.0","07447254","wem/bandit_single","AOAQK9URS9KUR","gain","1","32","","","","","","","","","","","","","","","","","","","","","","","","","",""
"7460","","text","5","49474","0.0-5.0","07447254","wem/bandit_single","AOAQK9URS9KUR","gain","1","32","","","","","","","","","","","","","","","","","","","","","","","","","",""
"4081","","text","6","53556","0.0-6.0","07447254","wem/bandit_single","AOAQK9URS9KUR","gain","1","32","","","","","","","","","","","","","","","","","","","","","","","","","",""
"2203","","text","7","55760","0.0-7.0","07447254","wem/bandit_single","AOAQK9URS9KUR","gain","1","32","","","","","","","","","","","","","","","","","","","","","","","","","",""
"2869","","text","8","58630","0.0-8.0","07447254","wem/bandit_single","AOAQK9URS9KUR","gain","1","32","","","","","","","","","","","","","","","","","","","","","","","","","",""
"1439","","text","9","60070","0.0-9.0","07447254","wem/bandit_single","AOAQK9URS9KUR","gain","1","32","","","","","","","","","","","","","","","","","","","","","","","","","",""
"3929","","text","10","63999","0.0-10.0","07447254","wem/bandit_single","AOAQK9URS9KUR","gain","1","32","","","","","","","","","","","","","","","","","","","","","","","","","",""
"2145","","text","11","66146","0.0-11.0","07447254","wem/bandit_single","AOAQK9URS9KUR","gain","1","32","","","","","","","","","","","","","","","","","","","","","","","","","",""
"2177","","bandit","12","69829","0.0-12.0-0.0","07447254","wem/bandit_single","AOAQK9URS9KUR","gain","1","","74","J","0","img/none_selected_demo.jpg","0","0","1","0","0","true","0","0","0","","","","","","","","","","","","",""
"380","","bandit","13","71963","0.0-13.0-0.0","07447254","wem/bandit_single","AOAQK9URS9KUR","gain","1","","75","K","0","img/none_selected_demo.jpg","0","0","1","0","0","true","0","0","0","","","","","","","","","","","","",""
"2101","","text","14","74318","0.0-14.0","07447254","wem/bandit_single","AOAQK9URS9KUR","gain","1","32","","","","","","","","","","","","","","","","","","","","","","","","","",""
"1495","","text","15","75813","0.0-15.0","07447254","wem/bandit_single","AOAQK9URS9KUR","gain","1","32","","","","","","","","","","","","","","","","","","","","","","","","","",""
"2473","","text","16","78287","0.0-16.0","07447254","wem/bandit_single","AOAQK9URS9KUR","gain","1","32","","","","","","","","","","","","","","","","","","","","","","","","","",""
"1827","","text","17","80116","0.0-17.0","07447254","wem/bandit_single","AOAQK9URS9KUR","gain","1","32","","","","","","","","","","","","","","","","","","","","","","","","","",""
"1275","","bandit","18","82894","0.0-18.0-0.0","07447254","wem/bandit_single","AOAQK9URS9KUR","gain","1","","74","J","0","img/none_selected_demo.jpg","1","0","0","0.8","0","true","0","0.8","0","80_20_practice","0.2","0","","","","","","","","","",""
"105","","bandit","19","84754","0.0-18.0-1.0","07447254","wem/bandit_single","AOAQK9URS9KUR","gain","1","","74","J","0","img/none_selected_demo.jpg","1","0","0","0.8","0","true","0","0.8","0","80_20_practice","0.2","0","","","","","","","","","",""
"90","","bandit","20","86598","0.0-18.0-2.0","07447254","wem/bandit_single","AOAQK9URS9KUR","gain","1","","74","J","0","img/none_selected_demo.jpg","1","0","0","0.8","0","true","0","0.8","0","80_20_practice","0.2","0","","","","","","","","","",""
"64","","bandit","21","88417","0.0-18.0-3.0","07447254","wem/bandit_single","AOAQK9URS9KUR","gain","1","","74","J","0","img/none_selected_demo.jpg","1","0","0","0.8","0","true","0","0.8","0","80_20_practice","0.2","0","","","","","","","","","",""
"10","","bandit","22","90181","0.0-18.0-4.0","07447254","wem/bandit_single","AOAQK9URS9KUR","gain","1","","74","J","0","img/none_selected_demo.jpg","1","0","0","0.8","0","true","0","0.8","0","80_20_practice","0.2","0","","","","","","","","","",""
"62","","bandit","23","91998","0.0-18.0-5.0","07447254","wem/bandit_single","AOAQK9URS9KUR","gain","1","","74","J","0","img/none_selected_demo.jpg","1","0","0","0.8","0","true","0","0.8","0","80_20_practice","0.2","0","","","","","","","","","",""
"101","","bandit","24","93854","0.0-18.0-6.0","07447254","wem/bandit_single","AOAQK9URS9KUR","gain","1","","74","J","0","img/none_selected_demo.jpg","1","0","0","0.8","0","true","0","0.8","0","80_20_practice","0.2","0","","","","","","","","","",""
"177","","bandit","25","95788","0.0-18.0-7.0","07447254","wem/bandit_single","AOAQK9URS9KUR","gain","1","","74","J","0","img/none_selected_demo.jpg","0","0","1","0.8","0","true","0","0.8","0","80_20_practice","0.2","0","","","","","","","","","",""
"233","","bandit","26","97777","0.0-18.0-8.0","07447254","wem/bandit_single","AOAQK9URS9KUR","gain","1","","75","K","1","","0","0","1","0.2","0","true","0","0.8","0","80_20_practice","0.2","0","","","","","","","","","",""
"7","","bandit","27","99540","0.0-18.0-9.0","07447254","wem/bandit_single","AOAQK9URS9KUR","gain","1","","74","J","0","img/none_selected_demo.jpg","1","0","0","0.8","0","true","0","0.8","0","80_20_practice","0.2","0","","","","","","","","","",""
"82","","bandit","28","101377","0.0-18.0-10.0","07447254","wem/bandit_single","AOAQK9URS9KUR","gain","1","","74","J","0","img/none_selected_demo.jpg","1","0","0","0.8","0","true","0","0.8","0","80_20_practice","0.2","0","","","","","","","","","",""
"317","","bandit","29","103449","0.0-18.0-11.0","07447254","wem/bandit_single","AOAQK9URS9KUR","gain","1","","74","J","0","img/none_selected_demo.jpg","0","0","1","0.8","0","true","0","0.8","0","80_20_practice","0.2","0","","","","","","","","","",""
"1040","","bandit","30","106244","0.0-18.0-12.0","07447254","wem/bandit_single","AOAQK9URS9KUR","gain","1","","75","K","1","","1","0","0","0.2","0","true","0","0.8","0","80_20_practice","0.2","0","","","","","","","","","",""
"23","","bandit","31","108022","0.0-18.0-13.0","07447254","wem/bandit_single","AOAQK9URS9KUR","gain","1","","74","J","0","img/none_selected_demo.jpg","1","0","0","0.8","0","true","0","0.8","0","80_20_practice","0.2","0","","","","","","","","","",""
"58","","bandit","32","109836","0.0-18.0-14.0","07447254","wem/bandit_single","AOAQK9URS9KUR","gain","1","","74","J","0","img/none_selected_demo.jpg","1","0","0","0.8","0","true","0","0.8","0","80_20_practice","0.2","0","","","","","","","","","",""
"89","","bandit","33","111679","0.0-18.0-15.0","07447254","wem/bandit_single","AOAQK9URS9KUR","gain","1","","74","J","0","img/none_selected_demo.jpg","1","0","0","0.8","0","true","0","0.8","0","80_20_practice","0.2","0","","","","","","","","","",""
"88","","bandit","34","113522","0.0-18.0-16.0","07447254","wem/bandit_single","AOAQK9URS9KUR","gain","1","","74","J","0","img/none_selected_demo.jpg","1","0","0","0.8","0","true","0","0.8","0","80_20_practice","0.2","0","","","","","","","","","",""
"164","","bandit","35","115442","0.0-18.0-17.0","07447254","wem/bandit_single","AOAQK9URS9KUR","gain","1","","74","J","0","img/none_selected_demo.jpg","0","0","1","0.8","0","true","0","0.8","0","80_20_practice","0.2","0","","","","","","","","","",""
"699","","bandit","36","117896","0.0-18.0-18.0","07447254","wem/bandit_single","AOAQK9URS9KUR","gain","1","","74","J","0","img/none_selected_demo.jpg","1","0","0","0.8","0","true","0","0.8","0","80_20_practice","0.2","0","","","","","","","","","",""
"439","","bandit","37","120090","0.0-18.0-19.0","07447254","wem/bandit_single","AOAQK9URS9KUR","gain","1","","74","J","0","img/none_selected_demo.jpg","1","0","0","0.8","0","true","0","0.8","0","80_20_practice","0.2","0","","","","","","","","","",""
"6128","","text","38","126471","0.0-19.0","07447254","wem/bandit_single","AOAQK9URS9KUR","gain","1","32","","","","","","","","","","","","","","","","","","","","","","","","","",""
"1956","","bandit","39","129930","0.0-20.0-0.0","07447254","wem/bandit_single","AOAQK9URS9KUR","gain","1","","74","J","0","img/none_selected_demo.jpg","0","0","1","0","0","true","0","0","0","","0","0","","","","","","","","","",""
"3757","","text","40","133940","0.0-21.0","07447254","wem/bandit_single","AOAQK9URS9KUR","gain","1","32","","","","","","","","","","","","","","","","","","","","","","","","","",""
"5007","","text","41","138949","0.0-22.0","07447254","wem/bandit_single","AOAQK9URS9KUR","gain","1","32","","","","","","","","","","","","","","","","","","","","","","","","","",""
"1490","","text","42","140439","0.0-23.0","07447254","wem/bandit_single","AOAQK9URS9KUR","gain","1","32","","","","","","","","","","","","","","","","","","","","","","","","","",""
"1628","","text","43","142069","0.0-24.0","07447254","wem/bandit_single","AOAQK9URS9KUR","gain","1","32","","","","","","","","","","","","","","","","","","","","","","","","","",""
"1889","","text","44","143959","0.0-25.0","07447254","wem/bandit_single","AOAQK9URS9KUR","gain","1","32","","","","","","","","","","","","","","","","","","","","","","","","","",""
"1244","","text","45","145204","0.0-26.0","07447254","wem/bandit_single","AOAQK9URS9KUR","gain","1","32","","","","","","","","","","","","","","","","","","","","","","","","","",""
"1229","","text","46","146435","0.0-27.0","07447254","wem/bandit_single","AOAQK9URS9KUR","gain","1","32","","","","","","","","","","","","","","","","","","","","","","","","","",""
"1114","","text","47","147549","0.0-28.0","07447254","wem/bandit_single","AOAQK9URS9KUR","gain","1","32","","","","","","","","","","","","","","","","","","","","","","","","","",""
"1370","","text","48","148921","0.0-29.0","07447254","wem/bandit_single","AOAQK9URS9KUR","gain","1","32","","","","","","","","","","","","","","","","","","","","","","","","","",""
"1058","","text","49","149980","0.0-30.0","07447254","wem/bandit_single","AOAQK9URS9KUR","gain","1","32","","","","","","","","","","","","","","","","","","","","","","","","","",""
"2076","","text","50","152058","0.0-31.0","07447254","wem/bandit_single","AOAQK9URS9KUR","gain","1","32","","","","","","","","","","","","","","","","","","","","","","","","","",""
"1115","","bandit","51","154676","0.0-32.0-0.0","07447254","wem/bandit_single","AOAQK9URS9KUR","gain","1","","72","H","0","img/none_selected.jpg","1","0","0","0.8","0","true","0","0.8","0","full_practice","0.2","0","0.6","0","0.2","0","","","","","",""
"92","","bandit","52","156523","0.0-32.0-1.0","07447254","wem/bandit_single","AOAQK9URS9KUR","gain","1","","74","J","1","","0","0","1","0.2","0","true","0","0.8","0","full_practice","0.2","0","0.6","0","0.2","0","","","","","",""
"738","","bandit","53","159017","0.0-32.0-2.0","07447254","wem/bandit_single","AOAQK9URS9KUR","gain","1","","75","K","2","","1","0","0","0.6","0","true","0","0.8","0","full_practice","0.2","0","0.6","0","0.2","0","","","","","",""
"49","","bandit","54","160821","0.0-32.0-3.0","07447254","wem/bandit_single","AOAQK9URS9KUR","gain","1","","76","L","3","","0","0","1","0.2","0","true","0","0.8","0","full_practice","0.2","0","0.6","0","0.2","0","","","","","",""
"41","","bandit","55","162617","0.0-32.0-4.0","07447254","wem/bandit_single","AOAQK9URS9KUR","gain","1","","72","H","0","img/none_selected.jpg","1","0","0","0.8","0","true","0","0.8","0","full_practice","0.2","0","0.6","0","0.2","0","","","","","",""
"66","","bandit","56","164438","0.0-32.0-5.0","07447254","wem/bandit_single","AOAQK9URS9KUR","gain","1","","75","K","2","","1","0","0","0.6","0","true","0","0.8","0","full_practice","0.2","0","0.6","0","0.2","0","","","","","",""
"588","","bandit","57","166781","0.0-32.0-6.0","07447254","wem/bandit_single","AOAQK9URS9KUR","gain","1","","72","H","0","img/none_selected.jpg","1","0","0","0.8","0","true","0","0.8","0","full_practice","0.2","0","0.6","0","0.2","0","","","","","",""
"21","","bandit","58","168557","0.0-32.0-7.0","07447254","wem/bandit_single","AOAQK9URS9KUR","gain","1","","72","H","0","img/none_selected.jpg","1","0","0","0.8","0","true","0","0.8","0","full_practice","0.2","0","0.6","0","0.2","0","","","","","",""
"66","","bandit","59","170378","0.0-32.0-8.0","07447254","wem/bandit_single","AOAQK9URS9KUR","gain","1","","72","H","0","img/none_selected.jpg","1","0","0","0.8","0","true","0","0.8","0","full_practice","0.2","0","0.6","0","0.2","0","","","","","",""
"55","","bandit","60","172190","0.0-32.0-9.0","07447254","wem/bandit_single","AOAQK9URS9KUR","gain","1","","72","H","0","img/none_selected.jpg","1","0","0","0.8","0","true","0","0.8","0","full_practice","0.2","0","0.6","0","0.2","0","","","","","",""
"34","","bandit","61","173979","0.0-32.0-10.0","07447254","wem/bandit_single","AOAQK9URS9KUR","gain","1","","72","H","0","img/none_selected.jpg","1","0","0","0.8","0","true","0","0.8","0","full_practice","0.2","0","0.6","0","0.2","0","","","","","",""
"62","","bandit","62","175796","0.0-32.0-11.0","07447254","wem/bandit_single","AOAQK9URS9KUR","gain","1","","72","H","0","img/none_selected.jpg","1","0","0","0.8","0","true","0","0.8","0","full_practice","0.2","0","0.6","0","0.2","0","","","","","",""
"5","","bandit","63","177557","0.0-32.0-12.0","07447254","wem/bandit_single","AOAQK9URS9KUR","gain","1","","72","H","0","img/none_selected.jpg","1","0","0","0.8","0","true","0","0.8","0","full_practice","0.2","0","0.6","0","0.2","0","","","","","",""
"46","","bandit","64","179358","0.0-32.0-13.0","07447254","wem/bandit_single","AOAQK9URS9KUR","gain","1","","72","H","0","img/none_selected.jpg","0","0","1","0.8","0","true","0","0.8","0","full_practice","0.2","0","0.6","0","0.2","0","","","","","",""
"69","","bandit","65","181183","0.0-32.0-14.0","07447254","wem/bandit_single","AOAQK9URS9KUR","gain","1","","75","K","2","","0","0","1","0.6","0","true","0","0.8","0","full_practice","0.2","0","0.6","0","0.2","0","","","","","",""
"1","","bandit","66","182939","0.0-32.0-15.0","07447254","wem/bandit_single","AOAQK9URS9KUR","gain","1","","72","H","0","img/none_selected.jpg","1","0","0","0.8","0","true","0","0.8","0","full_practice","0.2","0","0.6","0","0.2","0","","","","","",""
"530","","bandit","67","185224","0.0-32.0-16.0","07447254","wem/bandit_single","AOAQK9URS9KUR","gain","1","","72","H","0","img/none_selected.jpg","1","0","0","0.8","0","true","0","0.8","0","full_practice","0.2","0","0.6","0","0.2","0","","","","","",""
"368","","bandit","68","187348","0.0-32.0-17.0","07447254","wem/bandit_single","AOAQK9URS9KUR","gain","1","","72","H","0","img/none_selected.jpg","1","0","0","0.8","0","true","0","0.8","0","full_practice","0.2","0","0.6","0","0.2","0","","","","","",""
"88","","bandit","69","189192","0.0-32.0-18.0","07447254","wem/bandit_single","AOAQK9URS9KUR","gain","1","","72","H","0","img/none_selected.jpg","1","0","0","0.8","0","true","0","0.8","0","full_practice","0.2","0","0.6","0","0.2","0","","","","","",""
"169","","bandit","70","191116","0.0-32.0-19.0","07447254","wem/bandit_single","AOAQK9URS9KUR","gain","1","","72","H","0","img/none_selected.jpg","1","0","0","0.8","0","true","0","0.8","0","full_practice","0.2","0","0.6","0","0.2","0","","","","","",""
"2879","","text","71","194250","0.0-33.0","07447254","wem/bandit_single","AOAQK9URS9KUR","gain","1","32","","","","","","","","","","","","","","","","","","","","","","","","","",""
"3614","","text","72","198867","0.0-34.0","07447254","wem/bandit_single","AOAQK9URS9KUR","gain","1","32","","","","","","","","","","","","","","","","","","","","","","","","","",""
"1776","","text","73","200644","0.0-35.0","07447254","wem/bandit_single","AOAQK9URS9KUR","gain","1","32","","","","","","","","","","","","","","","","","","","","","","","","","",""
"836","","text","74","201481","0.0-36.0","07447254","wem/bandit_single","AOAQK9URS9KUR","gain","1","32","","","","","","","","","","","","","","","","","","","","","","","","","",""
"2605","","text","75","204088","0.0-37.0","07447254","wem/bandit_single","AOAQK9URS9KUR","gain","1","32","","","","","","","","","","","","","","","","","","","","","","","","","",""
"2258","","bandit","76","207849","0.0-38.0-0.0","07447254","wem/bandit_single","AOAQK9URS9KUR","gain","1","","72","H","0","img/none_selected.jpg","0","0","1","0.433486002","","false","1","0.433486002","","main_expt","0.1079408374","","0.04371116513","","0.1765468105","","","","","","",""
"224","","bandit","77","209828","0.0-39.0-0.0","07447254","wem/bandit_single","AOAQK9URS9KUR","gain","1","","74","J","1","","0","0","1","0.1605706499","","false","2","0.4446307222","","main_expt","0.1605706499","","0.0204546363","","0.1569258514","","","","","","",""
"77","","bandit","78","211661","0.0-40.0-0.0","07447254","wem/bandit_single","AOAQK9URS9KUR","gain","1","","75","K","2","","0","0","1","0.02109221713","","false","3","0.4522438858","","main_expt","0.1829447669","","0.02109221713","","0.1639246388","","","","","","",""
"66","","bandit","79","213484","0.0-41.0-0.0","07447254","wem/bandit_single","AOAQK9URS9KUR","gain","1","","76","L","3","","0","0","1","0.2130332657","","false","4","0.4330109471","","main_expt","0.1756642407","","0.04448829896","","0.2130332657","","","","","","",""
"62","","bandit","80","215302","0.0-42.0-0.0","07447254","wem/bandit_single","AOAQK9URS9KUR","gain","1","","72","H","0","img/none_selected.jpg","1","0","0","0.4678508314","","false","5","0.4678508314","","main_expt","0.1349544936","","0.03824555068","","0.1939577492","","","","","","",""
"40","","bandit","81","217097","0.0-43.0-0.0","07447254","wem/bandit_single","AOAQK9URS9KUR","gain","1","","72","H","0","img/none_selected.jpg","0","0","1","0.4644602632","","false","6","0.4644602632","","main_expt","0.1356037804","","0.03028715703","","0.2419857306","","","","","","",""
"51","","bandit","82","218903","0.0-44.0-0.0","07447254","wem/bandit_single","AOAQK9URS9KUR","gain","1","","74","J","1","","0","0","1","0.1731738011","","false","7","0.4575746565","","main_expt","0.1731738011","","0.0280090558","","0.2437977828","","","","","","",""
"63","","bandit","83","220722","0.0-45.0-0.0","07447254","wem/bandit_single","AOAQK9URS9KUR","gain","1","","75","K","2","","0","0","1","0.01994926529","","false","8","0.4508833002","","main_expt","0.1697830552","","0.01994926529","","0.2910779813","","","","","","",""
"17","","bandit","84","222494","0.0-46.0-0.0","07447254","wem/bandit_single","AOAQK9URS9KUR","gain","1","","76","L","3","","0","0","1","0.3043628405","","false","9","0.446295775","","main_expt","0.1792782501","","0.02255652904","","0.3043628405","","","","","","",""
"478","","bandit","85","224728","0.0-47.0-0.0","07447254","wem/bandit_single","AOAQK9URS9KUR","gain","1","","72","H","0","img/none_selected.jpg","1","0","0","0.4564580261","","false","10","0.4564580261","","main_expt","0.1705688187","","0.02794315976","","0.3568141906","","","","","","",""
"71","","bandit","86","226554","0.0-48.0-0.0","07447254","wem/bandit_single","AOAQK9URS9KUR","gain","1","","72","H","0","img/none_selected.jpg","1","0","0","0.4233437492","","false","11","0.4233437492","","main_expt","0.1974022207","","0.02289966844","","0.3439843329","","","","","","",""
"41","","bandit","87","228350","0.0-49.0-0.0","07447254","wem/bandit_single","AOAQK9URS9KUR","gain","1","","72","H","0","img/none_selected.jpg","1","0","0","0.4129107721","","false","12","0.4129107721","","main_expt","0.1753487428","","0.01510656417","","0.2959247237","","","","","","",""
"5","","bandit","88","230110","0.0-50.0-0.0","07447254","wem/bandit_single","AOAQK9URS9KUR","gain","1","","72","H","0","img/none_selected.jpg","1","0","0","0.4188058581","","false","13","0.4188058581","","main_expt","0.1858973774","","0.01475809492","","0.2711511111","","","","","","",""
"36","","bandit","89","231901","0.0-51.0-0.0","07447254","wem/bandit_single","AOAQK9URS9KUR","gain","1","","72","H","0","img/none_selected.jpg","0","0","1","0.4542155744","","false","14","0.4542155744","","main_expt","0.1873997244","","0.00909265887","","0.2351285692","","","","","","",""
"101","","bandit","90","233757","0.0-52.0-0.0","07447254","wem/bandit_single","AOAQK9URS9KUR","gain","1","","72","H","0","img/none_selected.jpg","0","0","1","0.4436127815","","false","15","0.4436127815","","main_expt","0.2079034381","","0.004683339805","","0.3299180318","","","","","","",""
"37","","bandit","91","235549","0.0-53.0-0.0","07447254","wem/bandit_single","AOAQK9URS9KUR","gain","1","","72","H","0","img/none_selected.jpg","1","0","0","0.4255220112","","false","16","0.4255220112","","main_expt","0.2116662278","","0.007493295572","","0.3382291528","","","","","","",""
"119","","bandit","92","237424","0.0-54.0-0.0","07447254","wem/bandit_single","AOAQK9URS9KUR","gain","1","","72","H","0","img/none_selected.jpg","0","0","1","0.4221090449","","false","17","0.4221090449","","main_expt","0.2460799228","","0.009835384986","","0.3890963744","","","","","","",""
"51","","bandit","93","239231","0.0-55.0-0.0","07447254","wem/bandit_single","AOAQK9URS9KUR","gain","1","","74","J","1","","1","0","0","0.2725156425","","false","18","0.4157246332","","main_expt","0.2725156425","","0.01282838009","","0.3102907615","","","","","","",""
"204","","bandit","94","241190","0.0-56.0-0.0","07447254","wem/bandit_single","AOAQK9URS9KUR","gain","1","","74","J","1","","0","0","1","0.319312936","","false","19","0.4000612909","","main_expt","0.319312936","","0.03935122736","","0.2734902963","","","","","","",""
"358","","bandit","95","243302","0.0-57.0-0.0","07447254","wem/bandit_single","AOAQK9URS9KUR","gain","1","","72","H","0","img/none_selected.jpg","0","0","1","0.4116546581","","false","20","0.4116546581","","main_expt","0.3449168397","","0.03712672215","","0.2157414593","","","","","","",""
"51","","bandit","96","245108","0.0-58.0-0.0","07447254","wem/bandit_single","AOAQK9URS9KUR","gain","1","","75","K","2","","0","0","1","0.02631596187","","false","21","0.4276829816","","main_expt","0.2668327531","","0.02631596187","","0.2148325275","","","","","","",""
"21","","bandit","97","246884","0.0-59.0-0.0","07447254","wem/bandit_single","AOAQK9URS9KUR","gain","1","","72","H","0","img/none_selected.jpg","0","0","1","0.3861543943","","false","22","0.3861543943","","main_expt","0.2786929748","","0.0338100911","","0.1819582271","","","","","","",""
"2","","bandit","98","248643","0.0-60.0-0.0","07447254","wem/bandit_single","AOAQK9URS9KUR","gain","1","","74","J","1","","0","0","1","0.2012253143","","false","23","0.3815006395","","main_expt","0.2012253143","","0.06132921526","","0.1776669961","","","","","","",""
"20","","bandit","99","250419","0.0-61.0-0.0","07447254","wem/bandit_single","AOAQK9URS9KUR","gain","1","","75","K","2","","0","0","1","0.06546003458","","false","24","0.4063144844","","main_expt","0.1363446769","","0.06546003458","","0.2595803745","","","","","","",""
"33","","bandit","100","252208","0.0-62.0-0.0","07447254","wem/bandit_single","AOAQK9URS9KUR","gain","1","","75","K","2","","0","0","1","0.08327489459","","false","25","0.3218764758","","main_expt","0.1395957504","","0.08327489459","","0.2184946748","","","","","","",""
"58","","bandit","101","254021","0.0-63.0-0.0","07447254","wem/bandit_single","AOAQK9URS9KUR","gain","1","","76","L","3","","0","0","1","0.2382025465","","false","26","0.3190898414","","main_expt","0.1095431569","","0.06117167893","","0.2382025465","","","","","","",""
"374","","bandit","102","256150","0.0-64.0-0.0","07447254","wem/bandit_single","AOAQK9URS9KUR","gain","1","","72","H","0","img/none_selected.jpg","0","0","1","0.361309168","","false","27","0.361309168","","main_expt","0.1290148999","","0.03494965278","","0.2249508913","","","","","","",""
"39","","bandit","103","257946","0.0-65.0-0.0","07447254","wem/bandit_single","AOAQK9URS9KUR","gain","1","","74","J","1","","0","0","1","0.09304199486","","false","28","0.3247985582","","main_expt","0.09304199486","","0.02964638986","","0.2388683754","","","","","","",""
"44","","bandit","104","259746","0.0-66.0-0.0","07447254","wem/bandit_single","AOAQK9URS9KUR","gain","1","","72","H","0","img/none_selected.jpg","1","0","0","0.3358989687","","false","29","0.3358989687","","main_expt","0.1042487788","","0.03498116837","","0.238121012","","","","","","",""
"35","","bandit","105","261536","0.0-67.0-0.0","07447254","wem/bandit_single","AOAQK9URS9KUR","gain","1","","72","H","0","img/none_selected.jpg","0","0","1","0.3833706669","","false","30","0.3833706669","","main_expt","0.1177759499","","0.04244048525","","0.2995264376","","","","","","",""
"14","","bandit","106","263306","0.0-68.0-0.0","07447254","wem/bandit_single","AOAQK9URS9KUR","gain","1","","74","J","1","","0","0","1","0.1177925617","","false","31","0.365606812","","main_expt","0.1177925617","","0.06152315655","","0.2738636663","","","","","","",""
"314","","bandit","107","265375","0.0-69.0-0.0","07447254","wem/bandit_single","AOAQK9URS9KUR","gain","1","","72","H","0","img/none_selected.jpg","0","0","1","0.3376656117","","false","32","0.3376656117","","main_expt","0.08495919706","","0.04890303061","","0.3185168498","","","","","","",""
"107","","bandit","108","267237","0.0-70.0-0.0","07447254","wem/bandit_single","AOAQK9URS9KUR","gain","1","","76","L","3","","1","0","0","0.3160257618","","false","33","0.3632929272","","main_expt","0.09918690981","","0.06913310411","","0.3160257618","","","","","","",""
"55","","bandit","109","269048","0.0-71.0-0.0","07447254","wem/bandit_single","AOAQK9URS9KUR","gain","1","","76","L","3","","1","0","0","0.3411570355","","false","34","0.4008603673","","main_expt","0.1267106232","","0.07311713639","","0.3411570355","","","","","","",""
"128","","bandit","110","270932","0.0-72.0-0.0","07447254","wem/bandit_single","AOAQK9URS9KUR","gain","1","","76","L","3","","1","0","0","0.3190481916","","false","35","0.4024879816","","main_expt","0.1076928618","","0.08374615962","","0.3190481916","","","","","","",""
"50","","bandit","111","272738","0.0-73.0-0.0","07447254","wem/bandit_single","AOAQK9URS9KUR","gain","1","","76","L","3","","0","0","1","0.3264142162","","false","36","0.3740303516","","main_expt","0.1298816773","","0.08182693844","","0.3264142162","","","","","","",""
"257","","bandit","112","274750","0.0-74.0-0.0","07447254","wem/bandit_single","AOAQK9URS9KUR","gain","1","","72","H","0","img/none_selected.jpg","0","0","1","0.3728306432","","false","37","0.3728306432","","main_expt","0.1459487567","","0.1343371601","","0.3198880486","","","","","","",""
"18","","bandit","113","276525","0.0-75.0-0.0","07447254","wem/bandit_single","AOAQK9URS9KUR","gain","1","","75","K","2","","0","0","1","0.155986589","","false","38","0.3805434418","","main_expt","0.1339045699","","0.155986589","","0.3683112265","","","","","","",""
"138","","bandit","114","278419","0.0-76.0-0.0","07447254","wem/bandit_single","AOAQK9URS9KUR","gain","1","","74","J","1","","0","0","1","0.1345127174","","false","39","0.3969568822","","main_expt","0.1345127174","","0.1477757124","","0.3427238384","","","","","","",""
"95","","bandit","115","280270","0.0-77.0-0.0","07447254","wem/bandit_single","AOAQK9URS9KUR","gain","1","","76","L","3","","0","0","1","0.3218453083","","false","40","0.3988554294","","main_expt","0.1283460502","","0.1673850924","","0.3218453083","","","","","","",""
"25","","bandit","116","282051","0.0-78.0-0.0","07447254","wem/bandit_single","AOAQK9URS9KUR","gain","1","","72","H","0","img/none_selected.jpg","1","0","0","0.4510691137","","false","41","0.4510691137","","main_expt","0.120913883","","0.1798739011","","0.3085515908","","","","","","",""
"62","","bandit","117","283869","0.0-79.0-0.0","07447254","wem/bandit_single","AOAQK9URS9KUR","gain","1","","72","H","0","img/none_selected.jpg","1","0","0","0.4575220824","","false","42","0.4575220824","","main_expt","0.1045942129","","0.1559165864","","0.3072415044","","","","","","",""
"67","","bandit","118","285692","0.0-80.0-0.0","07447254","wem/bandit_single","AOAQK9URS9KUR","gain","1","","72","H","0","img/none_selected.jpg","0","0","1","0.4425049573","","false","43","0.4425049573","","main_expt","0.09432917568","","0.1058033922","","0.272500382","","","","","","",""
"329","","bandit","119","287777","0.0-81.0-0.0","07447254","wem/bandit_single","AOAQK9URS9KUR","gain","1","","76","L","3","","0","0","1","0.2865836788","","false","44","0.4232077065","","main_expt","0.07221407183","","0.08489334424","","0.2865836788","","","","","","",""
"166","","bandit","120","289699","0.0-82.0-0.0","07447254","wem/bandit_single","AOAQK9URS9KUR","gain","1","","76","L","3","","0","0","1","0.2991622886","","false","45","0.4098430077","","main_expt","0.05666738762","","0.05905190464","","0.2991622886","","","","","","",""
"41","","bandit","121","291496","0.0-83.0-0.0","07447254","wem/bandit_single","AOAQK9URS9KUR","gain","1","","72","H","0","img/none_selected.jpg","0","0","1","0.4038708701","","false","46","0.4038708701","","main_expt","0.03432969329","","0.06331323714","","0.2531917612","","","","","","",""
"22","","bandit","122","293276","0.0-84.0-0.0","07447254","wem/bandit_single","AOAQK9URS9KUR","gain","1","","74","J","1","","0","0","1","0.03955917442","","false","47","0.4162646915","","main_expt","0.03955917442","","0.05657329797","","0.174020607","","","","","","",""
"132","","bandit","123","295164","0.0-85.0-0.0","07447254","wem/bandit_single","AOAQK9URS9KUR","gain","1","","74","J","1","","0","0","1","0.02792503423","","false","48","0.4188900116","","main_expt","0.02792503423","","0.04718629669","","0.1890064997","","","","","","",""
"39","","bandit","124","296959","0.0-86.0-0.0","07447254","wem/bandit_single","AOAQK9URS9KUR","gain","1","","76","L","3","","0","0","1","0.218442061","","false","49","0.4566014176","","main_expt","0.03726959289","","0.03289244517","","0.218442061","","","","","","",""
"258","","bandit","125","298972","0.0-87.0-0.0","07447254","wem/bandit_single","AOAQK9URS9KUR","gain","1","","72","H","0","img/none_selected.jpg","1","0","0","0.4447058567","","false","50","0.4447058567","","main_expt","0.03358305353","","0.03266450512","","0.1635183119","","","","","","",""
"43","","bandit","126","300771","0.0-88.0-0.0","07447254","wem/bandit_single","AOAQK9URS9KUR","gain","1","","72","H","0","img/none_selected.jpg","1","0","0","0.4304926469","","false","51","0.4304926469","","main_expt","0.03344521258","","0.03026904774","","0.1366577914","","","","","","",""
"3","","bandit","127","302531","0.0-89.0-0.0","07447254","wem/bandit_single","AOAQK9URS9KUR","gain","1","","72","H","0","img/none_selected.jpg","1","0","0","0.4221781581","","false","52","0.4221781581","","main_expt","0.04269272659","","0.03251993274","","0.1797398031","","","","","","",""
"121","","bandit","128","304408","0.0-90.0-0.0","07447254","wem/bandit_single","AOAQK9URS9KUR","gain","1","","72","H","0","img/none_selected.jpg","0","0","1","0.3687481665","","false","53","0.3687481665","","main_expt","0.023815337","","0.03960602941","","0.2893410322","","","","","","",""
"322","","bandit","129","306486","0.0-91.0-0.0","07447254","wem/bandit_single","AOAQK9URS9KUR","gain","1","","76","L","3","","1","0","0","0.2985665456","","false","54","0.3458934235","","main_expt","0.02455785224","","0.05707063203","","0.2985665456","","","","","","",""
"463","","bandit","130","308704","0.0-92.0-0.0","07447254","wem/bandit_single","AOAQK9URS9KUR","gain","1","","76","L","3","","1","0","0","0.3336948264","","false","55","0.4042580408","","main_expt","0.03998391886","","0.04044117434","","0.3336948264","","","","","","",""
"33","","bandit","131","310494","0.0-93.0-0.0","07447254","wem/bandit_single","AOAQK9URS9KUR","gain","1","","76","L","3","","1","0","0","0.282194417","","false","56","0.4471112694","","main_expt","0.06538112884","","0.05627119328","","0.282194417","","","","","","",""
"691","","bandit","132","312942","0.0-94.0-0.0","07447254","wem/bandit_single","AOAQK9URS9KUR","gain","1","","76","L","3","","1","0","0","0.3239389597","","false","57","0.4640351361","","main_expt","0.08662171517","","0.06172895681","","0.3239389597","","","","","","",""
"186","","bandit","133","314884","0.0-95.0-0.0","07447254","wem/bandit_single","AOAQK9URS9KUR","gain","1","","76","L","3","","0","0","1","0.3114288274","","false","58","0.4654795878","","main_expt","0.08191290536","","0.0708730922","","0.3114288274","","","","","","",""
"297","","bandit","134","316937","0.0-96.0-0.0","07447254","wem/bandit_single","AOAQK9URS9KUR","gain","1","","72","H","0","img/none_selected.jpg","1","0","0","0.477644797","","false","59","0.477644797","","main_expt","0.06359390603","","0.06307994893","","0.3090129124","","","","","","",""
"69","","bandit","135","318763","0.0-97.0-0.0","07447254","wem/bandit_single","AOAQK9URS9KUR","gain","1","","72","H","0","img/none_selected.jpg","0","0","1","0.4637057102","","false","60","0.4637057102","","main_expt","0.1113565871","","0.06865221942","","0.3273240357","","","","","","",""
"10","","bandit","136","320529","0.0-98.0-0.0","07447254","wem/bandit_single","AOAQK9URS9KUR","gain","1","","72","H","0","img/none_selected.jpg","0","0","1","0.4575353452","","false","61","0.4575353452","","main_expt","0.1224908949","","0.04710261487","","0.333760802","","","","","","",""
"412","","bandit","137","322696","0.0-99.0-0.0","07447254","wem/bandit_single","AOAQK9URS9KUR","gain","1","","76","L","3","","0","0","1","0.3721083552","","false","62","0.4511824808","","main_expt","0.1011510181","","0.04180279512","","0.3721083552","","","","","","",""
"16","","bandit","138","324468","0.0-100.0-0.0","07447254","wem/bandit_single","AOAQK9URS9KUR","gain","1","","74","J","1","","0","0","1","0.1241823521","","false","63","0.4522744543","","main_expt","0.1241823521","","0.04669584184","","0.3366911892","","","","","","",""
"279","","bandit","139","326503","0.0-101.0-0.0","07447254","wem/bandit_single","AOAQK9URS9KUR","gain","1","","75","K","2","","0","0","1","0.04699929359","","false","64","0.4534383651","","main_expt","0.1277445844","","0.04699929359","","0.352845708","","","","","","",""
"12","","bandit","140","328273","0.0-102.0-0.0","07447254","wem/bandit_single","AOAQK9URS9KUR","gain","1","","72","H","0","img/none_selected.jpg","0","0","1","0.4578128414","","false","65","0.4578128414","","main_expt","0.1594820305","","0.06422912444","","0.3797865956","","","","","","",""
"80","","bandit","141","330109","0.0-103.0-0.0","07447254","wem/bandit_single","AOAQK9URS9KUR","gain","1","","76","L","3","","0","0","1","0.3776123686","","false","66","0.4675149648","","main_expt","0.1902728197","","0.09107067683","","0.3776123686","","","","","","",""
"35","","bandit","142","331900","0.0-104.0-0.0","07447254","wem/bandit_single","AOAQK9URS9KUR","gain","1","","72","H","0","img/none_selected.jpg","0","0","1","0.4801185054","","false","67","0.4801185054","","main_expt","0.1915604568","","0.1295134299","","0.3520302909","","","","","","",""
"30","","bandit","143","333686","0.0-105.0-0.0","07447254","wem/bandit_single","AOAQK9URS9KUR","gain","1","","72","H","0","img/none_selected.jpg","1","0","0","0.4853911876","","false","68","0.4853911876","","main_expt","0.2292904293","","0.1501953896","","0.3563070861","","","","","","",""
"64","","bandit","144","335506","0.0-106.0-0.0","07447254","wem/bandit_single","AOAQK9URS9KUR","gain","1","","72","H","0","img/none_selected.jpg","1","0","0","0.45952887","","false","69","0.45952887","","main_expt","0.2982444272","","0.2120393587","","0.3773129781","","","","","","",""
"87","","bandit","145","337350","0.0-107.0-0.0","07447254","wem/bandit_single","AOAQK9URS9KUR","gain","1","","72","H","0","img/none_selected.jpg","0","0","1","0.4519788387","","false","70","0.4519788387","","main_expt","0.2038928517","","0.2046372205","","0.3620092878","","","","","","",""
"40","","bandit","146","339146","0.0-108.0-0.0","07447254","wem/bandit_single","AOAQK9URS9KUR","gain","1","","72","H","0","img/none_selected.jpg","1","0","0","0.4644284496","","false","71","0.4644284496","","main_expt","0.2470144531","","0.1711657315","","0.3689610789","","","","","","",""
"48","","bandit","147","340950","0.0-109.0-0.0","07447254","wem/bandit_single","AOAQK9URS9KUR","gain","1","","72","H","0","img/none_selected.jpg","0","0","1","0.4275080271","","false","72","0.4275080271","","main_expt","0.2339224101","","0.1804367846","","0.335535794","","","","","","",""
"53","","bandit","148","342759","0.0-110.0-0.0","07447254","wem/bandit_single","AOAQK9URS9KUR","gain","1","","72","H","0","img/none_selected.jpg","0","0","1","0.4333248441","","false","73","0.4333248441","","main_expt","0.198403553","","0.1582310148","","0.3669127126","","","","","","",""
"43","","bandit","149","344558","0.0-111.0-0.0","07447254","wem/bandit_single","AOAQK9URS9KUR","gain","1","","72","H","0","img/none_selected.jpg","0","0","1","0.4272577829","","false","74","0.4272577829","","main_expt","0.2162510441","","0.1300952354","","0.3360165716","","","","","","",""
"2","","bandit","150","346319","0.0-112.0-0.0","07447254","wem/bandit_single","AOAQK9URS9KUR","gain","1","","76","L","3","","0","0","1","0.3379177146","","false","75","0.353629049","","main_expt","0.2467290531","","0.1414689969","","0.3379177146","","","","","","",""
"99","","bandit","151","348174","0.0-113.0-0.0","07447254","wem/bandit_single","AOAQK9URS9KUR","gain","1","","76","L","3","","1","0","0","0.3489784935","","false","76","0.3526453175","","main_expt","0.2199510863","","0.1315789974","","0.3489784935","","","","","","",""
"349","","bandit","152","350279","0.0-114.0-0.0","07447254","wem/bandit_single","AOAQK9URS9KUR","gain","1","","76","L","3","","0","0","1","0.2843927136","","false","77","0.397337216","","main_expt","0.1600424727","","0.1054244057","","0.2843927136","","","","","","",""
"102","","bandit","153","352137","0.0-115.0-0.0","07447254","wem/bandit_single","AOAQK9URS9KUR","gain","1","","76","L","3","","0","0","1","0.2585585406","","false","78","0.3747850168","","main_expt","0.1366877547","","0.1028875903","","0.2585585406","","","","","","",""
"59","","bandit","154","353952","0.0-116.0-0.0","07447254","wem/bandit_single","AOAQK9URS9KUR","gain","1","","76","L","3","","1","0","0","0.2211992803","","false","79","0.3500135026","","main_expt","0.1608027171","","0.1010795136","","0.2211992803","","","","","","",""
"25","","bandit","155","355733","0.0-117.0-0.0","07447254","wem/bandit_single","AOAQK9URS9KUR","gain","1","","76","L","3","","0","0","1","0.1670678668","","false","80","0.3362224365","","main_expt","0.2004121585","","0.09661145037","","0.1670678668","","","","","","",""
"43","","bandit","156","357532","0.0-118.0-0.0","07447254","wem/bandit_single","AOAQK9URS9KUR","gain","1","","72","H","0","img/none_selected.jpg","1","0","0","0.3626400229","","false","81","0.3626400229","","main_expt","0.2100463009","","0.06079528701","","0.1536487801","","","","","","",""
"164","","bandit","157","359452","0.0-119.0-0.0","07447254","wem/bandit_single","AOAQK9URS9KUR","gain","1","","72","H","0","img/none_selected.jpg","0","0","1","0.3433004166","","false","82","0.3433004166","","main_expt","0.2313995655","","0.0561923849","","0.164055667","","","","","","",""
"5","","bandit","158","361213","0.0-120.0-0.0","07447254","wem/bandit_single","AOAQK9URS9KUR","gain","1","","72","H","0","img/none_selected.jpg","1","0","0","0.3564809269","","false","83","0.3564809269","","main_expt","0.1805974068","","0.05471979201","","0.1795096781","","","","","","",""
"108","","bandit","159","363078","0.0-121.0-0.0","07447254","wem/bandit_single","AOAQK9URS9KUR","gain","1","","72","H","0","img/none_selected.jpg","0","0","1","0.3403656385","","false","84","0.3403656385","","main_expt","0.1351257884","","0.04961315052","","0.1568762326","","","","","","",""
"63","","bandit","160","364898","0.0-122.0-0.0","07447254","wem/bandit_single","AOAQK9URS9KUR","gain","1","","72","H","0","img/none_selected.jpg","0","0","1","0.3009252634","","false","85","0.3009252634","","main_expt","0.1372280885","","0.05195310968","","0.1857208284","","","","","","",""
"315","","bandit","161","366970","0.0-123.0-0.0","07447254","wem/bandit_single","AOAQK9URS9KUR","gain","1","","76","L","3","","0","0","1","0.2180329602","","false","86","0.3067316121","","main_expt","0.1685840628","","0.05385113756","","0.2180329602","","","","","","",""
"108","","bandit","162","368834","0.0-124.0-0.0","07447254","wem/bandit_single","AOAQK9URS9KUR","gain","1","","76","L","3","","0","0","1","0.1893737279","","false","87","0.3073916088","","main_expt","0.1654340797","","0.08202519069","","0.1893737279","","","","","","",""
"59","","bandit","163","370649","0.0-125.0-0.0","07447254","wem/bandit_single","AOAQK9URS9KUR","gain","1","","72","H","0","img/none_selected.jpg","0","0","1","0.301504441","","false","88","0.301504441","","main_expt","0.1870328522","","0.04873944257","","0.2309201776","","","","","","",""
"37","","bandit","164","372443","0.0-126.0-0.0","07447254","wem/bandit_single","AOAQK9URS9KUR","gain","1","","72","H","0","img/none_selected.jpg","1","0","0","0.3324072184","","false","89","0.3324072184","","main_expt","0.1786415591","","0.05553778571","","0.2368651839","","","","","","",""
"29","","bandit","165","374227","0.0-127.0-0.0","07447254","wem/bandit_single","AOAQK9URS9KUR","gain","1","","72","H","0","img/none_selected.jpg","0","0","1","0.3245139686","","false","90","0.3245139686","","main_expt","0.2293974223","","0.04980790846","","0.2459093935","","","","","","",""
"37","","bandit","166","376020","0.0-128.0-0.0","07447254","wem/bandit_single","AOAQK9URS9KUR","gain","1","","76","L","3","","0","0","1","0.2371609774","","false","91","0.3310751299","","main_expt","0.2407797963","","0.05804880768","","0.2371609774","","","","","","",""
"30","","bandit","167","377806","0.0-129.0-0.0","07447254","wem/bandit_single","AOAQK9URS9KUR","gain","1","","76","L","3","","1","0","0","0.260478489","","false","92","0.3717444616","","main_expt","0.2337544695","","0.0614883172","","0.260478489","","","","","","",""
"27","","bandit","168","379594","0.0-130.0-0.0","07447254","wem/bandit_single","AOAQK9URS9KUR","gain","1","","76","L","3","","0","0","1","0.2595992258","","false","93","0.3846532122","","main_expt","0.2589688886","","0.0764333552","","0.2595992258","","","","","","",""
"71","","bandit","169","381422","0.0-131.0-0.0","07447254","wem/bandit_single","AOAQK9URS9KUR","gain","1","","72","H","0","img/none_selected.jpg","1","0","0","0.4017211595","","false","94","0.4017211595","","main_expt","0.2699529923","","0.1280824273","","0.206568391","","","","","","",""
"82","","bandit","170","383260","0.0-132.0-0.0","07447254","wem/bandit_single","AOAQK9URS9KUR","gain","1","","72","H","0","img/none_selected.jpg","0","0","1","0.3736639641","","false","95","0.3736639641","","main_expt","0.2626559999","","0.1191245721","","0.1846794781","","","","","","",""
"270","","bandit","171","385287","0.0-133.0-0.0","07447254","wem/bandit_single","AOAQK9URS9KUR","gain","1","","76","L","3","","0","0","1","0.2484851932","","false","96","0.3220453652","","main_expt","0.2196428224","","0.08526153109","","0.2484851932","","","","","","",""
"20","","bandit","172","387063","0.0-134.0-0.0","07447254","wem/bandit_single","AOAQK9URS9KUR","gain","1","","72","H","0","img/none_selected.jpg","1","0","0","0.2964534367","","false","97","0.2964534367","","main_expt","0.1922289922","","0.0775518538","","0.198145661","","","","","","",""
"140","","bandit","173","388959","0.0-135.0-0.0","07447254","wem/bandit_single","AOAQK9URS9KUR","gain","1","","72","H","0","img/none_selected.jpg","1","0","0","0.3388366936","","false","98","0.3388366936","","main_expt","0.2328023708","","0.08824897118","","0.1738253929","","","","","","",""
"110","","bandit","174","390825","0.0-136.0-0.0","07447254","wem/bandit_single","AOAQK9URS9KUR","gain","1","","72","H","0","img/none_selected.jpg","1","0","0","0.4233536788","","false","99","0.4233536788","","main_expt","0.2606341713","","0.08912321317","","0.1261523865","","","","","","",""
"48","","bandit","175","392629","0.0-137.0-0.0","07447254","wem/bandit_single","AOAQK9URS9KUR","gain","1","","72","H","0","img/none_selected.jpg","0","0","1","0.3799029244","","false","100","0.3799029244","","main_expt","0.310387162","","0.1217067293","","0.1368684177","","","","","","",""
"32","","bandit","176","394417","0.0-138.0-0.0","07447254","wem/bandit_single","AOAQK9URS9KUR","gain","1","","76","L","3","","0","0","1","0.1262970555","","false","101","0.3644029447","","main_expt","0.3802628165","","0.08537200695","","0.1262970555","","","","","","",""
"46","","bandit","177","396219","0.0-139.0-0.0","07447254","wem/bandit_single","AOAQK9URS9KUR","gain","1","","72","H","0","img/none_selected.jpg","0","0","1","0.3414838768","","false","102","0.3414838768","","main_expt","0.4133848668","","0.09606980913","","0.1022564356","","","","","","",""
"198","","bandit","178","398176","0.0-140.0-0.0","07447254","wem/bandit_single","AOAQK9URS9KUR","gain","1","","72","H","0","img/none_selected.jpg","1","0","0","0.3691073091","","false","103","0.3691073091","","main_expt","0.4352089555","","0.09968925047","","0.07046703442","","","","","","",""
"306","","bandit","179","400238","0.0-141.0-0.0","07447254","wem/bandit_single","AOAQK9URS9KUR","gain","1","","72","H","0","img/none_selected.jpg","1","0","0","0.3386210986","","false","104","0.3386210986","","main_expt","0.4248252031","","0.1070137741","","0.08582175226","","","","","","",""
"648","","bandit","180","402642","0.0-142.0-0.0","07447254","wem/bandit_single","AOAQK9URS9KUR","gain","1","","72","H","0","img/none_selected.jpg","1","0","0","0.3517858304","","false","105","0.3517858304","","main_expt","0.4382512542","","0.1086060941","","0.08910626196","","","","","","",""
"51","","bandit","181","404450","0.0-143.0-0.0","07447254","wem/bandit_single","AOAQK9URS9KUR","gain","1","","72","H","0","img/none_selected.jpg","1","0","0","0.4016578568","","false","106","0.4016578568","","main_expt","0.4551412652","","0.1006724549","","0.09380004764","","","","","","",""
"200","","bandit","182","406406","0.0-144.0-0.0","07447254","wem/bandit_single","AOAQK9URS9KUR","gain","1","","72","H","0","img/none_selected.jpg","0","0","1","0.3951748439","","false","107","0.3951748439","","main_expt","0.4481373055","","0.07769839914","","0.08916311959","","","","","","",""
"46","","bandit","183","408208","0.0-145.0-0.0","07447254","wem/bandit_single","AOAQK9URS9KUR","gain","1","","76","L","3","","0","0","1","0.1635033392","","false","108","0.3933810371","","main_expt","0.4611843773","","0.09470950607","","0.1635033392","","","","","","",""
"796","","bandit","184","410761","0.0-146.0-0.0","07447254","wem/bandit_single","AOAQK9URS9KUR","gain","1","","72","H","0","img/none_selected.jpg","0","0","1","0.3961603237","","false","109","0.3961603237","","main_expt","0.416280782","","0.1117426234","","0.1923408453","","","","","","",""
"345","","bandit","185","412862","0.0-147.0-0.0","07447254","wem/bandit_single","AOAQK9URS9KUR","gain","1","","76","L","3","","0","0","1","0.1668397223","","false","110","0.3933476799","","main_expt","0.3959176693","","0.1190643529","","0.1668397223","","","","","","",""
"31","","bandit","186","414649","0.0-148.0-0.0","07447254","wem/bandit_single","AOAQK9URS9KUR","gain","1","","72","H","0","img/none_selected.jpg","1","0","0","0.3953313537","","false","111","0.3953313537","","main_expt","0.3881072513","","0.1605091549","","0.1254506171","","","","","","",""
"64","","bandit","187","416471","0.0-149.0-0.0","07447254","wem/bandit_single","AOAQK9URS9KUR","gain","1","","72","H","0","img/none_selected.jpg","1","0","0","0.3398422341","","false","112","0.3398422341","","main_expt","0.3430735849","","0.1531505469","","0.1596839241","","","","","","",""
"212","","bandit","188","418440","0.0-150.0-0.0","07447254","wem/bandit_single","AOAQK9URS9KUR","gain","1","","72","H","0","img/none_selected.jpg","0","0","1","0.375538402","","false","113","0.375538402","","main_expt","0.3036143476","","0.1796188848","","0.1986187203","","","","","","",""
"253","","bandit","189","420449","0.0-151.0-0.0","07447254","wem/bandit_single","AOAQK9URS9KUR","gain","1","","76","L","3","","0","0","1","0.2334514198","","false","114","0.3629483147","","main_expt","0.3581708668","","0.1820080726","","0.2334514198","","","","","","",""
"12","","bandit","190","422219","0.0-152.0-0.0","07447254","wem/bandit_single","AOAQK9URS9KUR","gain","1","","72","H","0","img/none_selected.jpg","1","0","0","0.2969550108","","false","115","0.2969550108","","main_expt","0.2948471219","","0.2050936175","","0.1892672839","","","","","","",""
"824","","bandit","191","424799","0.0-153.0-0.0","07447254","wem/bandit_single","AOAQK9URS9KUR","gain","1","","72","H","0","img/none_selected.jpg","0","0","1","0.260261953","","false","116","0.260261953","","main_expt","0.2711132382","","0.2071503316","","0.1507180646","","","","","","",""
"27","","bandit","192","426583","0.0-154.0-0.0","07447254","wem/bandit_single","AOAQK9URS9KUR","gain","1","","76","L","3","","1","0","0","0.1830546279","","false","117","0.2626326191","","main_expt","0.3124997295","","0.2359882763","","0.1830546279","","","","","","",""
"73","","bandit","193","428413","0.0-155.0-0.0","07447254","wem/bandit_single","AOAQK9URS9KUR","gain","1","","76","L","3","","0","0","1","0.1415506149","","false","118","0.2933310536","","main_expt","0.3888019654","","0.2388261631","","0.1415506149","","","","","","",""
"373","","bandit","194","430543","0.0-156.0-0.0","07447254","wem/bandit_single","AOAQK9URS9KUR","gain","1","","72","H","0","img/none_selected.jpg","0","0","1","0.2469992957","","false","119","0.2469992957","","main_expt","0.3695751837","","0.2470137322","","0.1814909568","","","","","","",""
"24","","bandit","195","432324","0.0-157.0-0.0","07447254","wem/bandit_single","AOAQK9URS9KUR","gain","1","","75","K","2","","0","0","1","0.209676098","","false","120","0.2186909282","","main_expt","0.3471196364","","0.209676098","","0.1900691043","","","","","","",""
"0","","bandit","196","434082","0.0-158.0-0.0","07447254","wem/bandit_single","AOAQK9URS9KUR","gain","1","","72","H","0","img/none_selected.jpg","1","0","0","0.1915374776","","false","121","0.1915374776","","main_expt","0.3164400491","","0.2058519679","","0.2002257321","","","","","","",""
"67","","bandit","197","435906","0.0-159.0-0.0","07447254","wem/bandit_single","AOAQK9URS9KUR","gain","1","","72","H","0","img/none_selected.jpg","0","0","1","0.1666700693","","false","122","0.1666700693","","main_expt","0.3565888941","","0.1409467191","","0.2000360786","","","","","","",""
"52","","bandit","198","437715","0.0-160.0-0.0","07447254","wem/bandit_single","AOAQK9URS9KUR","gain","1","","72","H","0","img/none_selected.jpg","0","0","1","0.1779758636","","false","123","0.1779758636","","main_expt","0.3293983066","","0.08785727187","","0.1656706666","","","","","","",""
"115","","bandit","199","439587","0.0-161.0-0.0","07447254","wem/bandit_single","AOAQK9URS9KUR","gain","1","","72","H","0","img/none_selected.jpg","1","0","0","0.2483730269","","false","124","0.2483730269","","main_expt","0.3202360925","","0.1153756664","","0.2433115295","","","","","","",""
"40","","bandit","200","441383","0.0-162.0-0.0","07447254","wem/bandit_single","AOAQK9URS9KUR","gain","1","","72","H","0","img/none_selected.jpg","0","0","1","0.2274485556","","false","125","0.2274485556","","main_expt","0.3478690395","","0.1211147435","","0.1810024247","","","","","","",""
"419","","bandit","201","443559","0.0-163.0-0.0","07447254","wem/bandit_single","AOAQK9URS9KUR","gain","1","","76","L","3","","0","0","1","0.2138299762","","false","126","0.2506805994","","main_expt","0.3312811416","","0.1434737457","","0.2138299762","","","","","","",""
"313","","bandit","202","445629","0.0-164.0-0.0","07447254","wem/bandit_single","AOAQK9URS9KUR","gain","1","","76","L","3","","0","0","1","0.1993304114","","false","127","0.2520497492","","main_expt","0.2641060438","","0.1970801631","","0.1993304114","","","","","","",""
"41","","bandit","203","447426","0.0-165.0-0.0","07447254","wem/bandit_single","AOAQK9URS9KUR","gain","1","","76","L","3","","0","0","1","0.2602773644","","false","128","0.1948091286","","main_expt","0.2239657692","","0.2891253811","","0.2602773644","","","","","","",""
"35","","bandit","204","449218","0.0-166.0-0.0","07447254","wem/bandit_single","AOAQK9URS9KUR","gain","1","","72","H","0","img/none_selected.jpg","0","0","1","0.1749799719","","false","129","0.1749799719","","main_expt","0.2243581634","","0.2389970352","","0.2960784606","","","","","","",""
"540","","bandit","205","451516","0.0-167.0-0.0","07447254","wem/bandit_single","AOAQK9URS9KUR","gain","1","","72","H","0","img/none_selected.jpg","0","0","1","0.1950546205","","false","130","0.1950546205","","main_expt","0.2215765871","","0.2613596901","","0.2720271615","","","","","","",""
"651","","bandit","206","453924","0.0-168.0-0.0","07447254","wem/bandit_single","AOAQK9URS9KUR","gain","1","","76","L","3","","0","0","1","0.2403459828","","false","131","0.2501377387","","main_expt","0.1796651873","","0.2254289723","","0.2403459828","","","","","","",""
"134","","bandit","207","455816","0.0-169.0-0.0","07447254","wem/bandit_single","AOAQK9URS9KUR","gain","1","","76","L","3","","0","0","1","0.2261584059","","false","132","0.2275015869","","main_expt","0.1946412172","","0.2759434303","","0.2261584059","","","","","","",""
"131","","bandit","208","457704","0.0-170.0-0.0","07447254","wem/bandit_single","AOAQK9URS9KUR","gain","1","","72","H","0","img/none_selected.jpg","0","0","1","0.1961271051","","false","133","0.1961271051","","main_expt","0.2390261597","","0.3153186182","","0.225512635","","","","","","",""
"260","","bandit","209","459721","0.0-171.0-0.0","07447254","wem/bandit_single","AOAQK9URS9KUR","gain","1","","72","H","0","img/none_selected.jpg","0","0","1","0.2508816485","","false","134","0.2508816485","","main_expt","0.227958871","","0.2950667763","","0.2119287539","","","","","","",""
"14","","bandit","210","461492","0.0-172.0-0.0","07447254","wem/bandit_single","AOAQK9URS9KUR","gain","1","","76","L","3","","0","0","1","0.1980603764","","false","135","0.3394706536","","main_expt","0.2312014448","","0.3307223606","","0.1980603764","","","","","","",""
"280","","bandit","211","463529","0.0-173.0-0.0","07447254","wem/bandit_single","AOAQK9URS9KUR","gain","1","","72","H","0","img/none_selected.jpg","1","0","0","0.2837829406","","false","136","0.2837829406","","main_expt","0.27599984","","0.3298223854","","0.2325476757","","","","","","",""
"49","","bandit","212","465335","0.0-174.0-0.0","07447254","wem/bandit_single","AOAQK9URS9KUR","gain","1","","72","H","0","img/none_selected.jpg","1","0","0","0.3024244849","","false","137","0.3024244849","","main_expt","0.2313694212","","0.3330531331","","0.2334264213","","","","","","",""
"230","","bandit","213","467322","0.0-175.0-0.0","07447254","wem/bandit_single","AOAQK9URS9KUR","gain","1","","72","H","0","img/none_selected.jpg","0","0","1","0.3473265679","","false","138","0.3473265679","","main_expt","0.1816115857","","0.292929501","","0.3107735177","","","","","","",""
"274","","bandit","214","469354","0.0-176.0-0.0","07447254","wem/bandit_single","AOAQK9URS9KUR","gain","1","","75","K","2","","1","0","0","0.2849421758","","false","139","0.2828336224","","main_expt","0.1658496667","","0.2849421758","","0.3374098654","","","","","","",""
"91","","bandit","215","471202","0.0-177.0-0.0","07447254","wem/bandit_single","AOAQK9URS9KUR","gain","1","","75","K","2","","0","0","1","0.3149573531","","false","140","0.3238397914","","main_expt","0.1644365985","","0.3149573531","","0.3401298673","","","","","","",""
"286","","bandit","216","473245","0.0-178.0-0.0","07447254","wem/bandit_single","AOAQK9URS9KUR","gain","1","","74","J","1","","0","0","1","0.16055167","","false","141","0.3490905252","","main_expt","0.16055167","","0.2937847178","","0.363539884","","","","","","",""
"48","","bandit","217","475050","0.0-179.0-0.0","07447254","wem/bandit_single","AOAQK9URS9KUR","gain","1","","75","K","2","","0","0","1","0.2695919138","","false","142","0.337853111","","main_expt","0.1426499966","","0.2695919138","","0.3207651517","","","","","","",""
"37","","bandit","218","476844","0.0-180.0-0.0","07447254","wem/bandit_single","AOAQK9URS9KUR","gain","1","","75","K","2","","0","0","1","0.206179854","","false","143","0.3475703167","","main_expt","0.1133276474","","0.206179854","","0.2976941359","","","","","","",""
"365","","bandit","219","478966","0.0-181.0-0.0","07447254","wem/bandit_single","AOAQK9URS9KUR","gain","1","","76","L","3","","0","0","1","0.2405576463","","false","144","0.3809945211","","main_expt","0.1351054788","","0.2123329462","","0.2405576463","","","","","","",""
"164","","bandit","220","480887","0.0-182.0-0.0","07447254","wem/bandit_single","AOAQK9URS9KUR","gain","1","","72","H","0","img/none_selected.jpg","1","0","0","0.3842622547","","false","145","0.3842622547","","main_expt","0.1703546958","","0.2144195617","","0.2513929943","","","","","","",""
"365","","bandit","221","483009","0.0-183.0-0.0","07447254","wem/bandit_single","AOAQK9URS9KUR","gain","1","","72","H","0","img/none_selected.jpg","0","0","1","0.4068715463","","false","146","0.4068715463","","main_expt","0.1382352341","","0.2264269311","","0.2665850657","","","","","","",""
"103","","bandit","222","484869","0.0-184.0-0.0","07447254","wem/bandit_single","AOAQK9URS9KUR","gain","1","","74","J","1","","0","0","1","0.1111211324","","false","147","0.3690267696","","main_expt","0.1111211324","","0.2458089499","","0.2742171136","","","","","","",""
"15","","bandit","223","486642","0.0-185.0-0.0","07447254","wem/bandit_single","AOAQK9URS9KUR","gain","1","","74","J","1","","0","0","1","0.1046256567","","false","148","0.3999465919","","main_expt","0.1046256567","","0.2581131455","","0.2504516377","","","","","","",""
"56","","bandit","224","488455","0.0-186.0-0.0","07447254","wem/bandit_single","AOAQK9URS9KUR","gain","1","","74","J","1","","0","0","1","0.09450025474","","false","149","0.3823047489","","main_expt","0.09450025474","","0.2055420423","","0.2749888299","","","","","","",""
"101","","bandit","225","490313","0.0-187.0-0.0","07447254","wem/bandit_single","AOAQK9URS9KUR","gain","1","","75","K","2","","1","0","0","0.2196547661","","false","150","0.3970301866","","main_expt","0.08682851814","","0.2196547661","","0.2199302859","","","","","","",""
"32","","bandit","226","492102","0.0-188.0-0.0","07447254","wem/bandit_single","AOAQK9URS9KUR","gain","1","","75","K","2","","0","0","1","0.2311854424","","false","151","0.4141828336","","main_expt","0.0775356828","","0.2311854424","","0.228921305","","","","","","",""
"65","","bandit","227","493924","0.0-189.0-0.0","07447254","wem/bandit_single","AOAQK9URS9KUR","gain","1","","75","K","2","","0","0","1","0.2692750042","","false","152","0.4233092002","","main_expt","0.08719832593","","0.2692750042","","0.1858313389","","","","","","",""
"417","","bandit","228","496099","0.0-190.0-0.0","07447254","wem/bandit_single","AOAQK9URS9KUR","gain","1","","74","J","1","","0","0","1","0.06950392785","","false","153","0.3961827626","","main_expt","0.06950392785","","0.3209664266","","0.2253380596","","","","","","",""
"352","","bandit","229","498208","0.0-191.0-0.0","07447254","wem/bandit_single","AOAQK9URS9KUR","gain","1","","76","L","3","","0","0","1","0.1787374968","","false","154","0.4023640633","","main_expt","0.09734883616","","0.2633096479","","0.1787374968","","","","","","",""
"314","","bandit","230","500279","0.0-192.0-0.0","07447254","wem/bandit_single","AOAQK9URS9KUR","gain","1","","72","H","0","img/none_selected.jpg","1","0","0","0.3927422998","","false","155","0.3927422998","","main_expt","0.1078867986","","0.2611493198","","0.1026625787","","","","","","",""
"36","","bandit","231","502073","0.0-193.0-0.0","07447254","wem/bandit_single","AOAQK9URS9KUR","gain","1","","72","H","0","img/none_selected.jpg","1","0","0","0.3696188161","","false","156","0.3696188161","","main_expt","0.09294383108","","0.2556392324","","0.1201393653","","","","","","",""
"49","","bandit","232","503880","0.0-194.0-0.0","07447254","wem/bandit_single","AOAQK9URS9KUR","gain","1","","72","H","0","img/none_selected.jpg","0","0","1","0.3562863837","","false","157","0.3562863837","","main_expt","0.1344904143","","0.2237912435","","0.1601810659","","","","","","",""
"347","","bandit","233","505984","0.0-195.0-0.0","07447254","wem/bandit_single","AOAQK9URS9KUR","gain","1","","75","K","2","","0","0","1","0.2269937079","","false","158","0.3891013447","","main_expt","0.1682501471","","0.2269937079","","0.2178666355","","","","","","",""
"69","","bandit","234","507810","0.0-196.0-0.0","07447254","wem/bandit_single","AOAQK9URS9KUR","gain","1","","74","J","1","","0","0","1","0.1859978291","","false","159","0.3771509201","","main_expt","0.1859978291","","0.2244600926","","0.2088119712","","","","","","",""
"50","","bandit","235","509618","0.0-197.0-0.0","07447254","wem/bandit_single","AOAQK9URS9KUR","gain","1","","76","L","3","","0","0","1","0.2853399033","","false","160","0.3677966378","","main_expt","0.1169857497","","0.231654425","","0.2853399033","","","","","","",""
"223","","bandit","236","511599","0.0-198.0-0.0","07447254","wem/bandit_single","AOAQK9URS9KUR","gain","1","","72","H","0","img/none_selected.jpg","0","0","1","0.3691576932","","false","161","0.3691576932","","main_expt","0.1131976547","","0.2415747561","","0.2755093387","","","","","","",""
"177","","bandit","237","513533","0.0-199.0-0.0","07447254","wem/bandit_single","AOAQK9URS9KUR","gain","1","","75","K","2","","0","0","1","0.1807921844","","false","162","0.3102253273","","main_expt","0.1560378341","","0.1807921844","","0.2706635439","","","","","","",""
"56","","bandit","238","515347","0.0-200.0-0.0","07447254","wem/bandit_single","AOAQK9URS9KUR","gain","1","","72","H","0","img/none_selected.jpg","0","0","1","0.3361037566","","false","163","0.3361037566","","main_expt","0.1200759877","","0.1986212186","","0.2856851073","","","","","","",""
"26","","bandit","239","517130","0.0-201.0-0.0","07447254","wem/bandit_single","AOAQK9URS9KUR","gain","1","","76","L","3","","1","0","0","0.3188827228","","false","164","0.3097300036","","main_expt","0.1198838954","","0.1799022971","","0.3188827228","","","","","","",""
"335","","bandit","240","519222","0.0-202.0-0.0","07447254","wem/bandit_single","AOAQK9URS9KUR","gain","1","","76","L","3","","1","0","0","0.3258940933","","false","165","0.3234169084","","main_expt","0.1397308529","","0.2610149466","","0.3258940933","","","","","","",""
"42","","bandit","241","521022","0.0-203.0-0.0","07447254","wem/bandit_single","AOAQK9URS9KUR","gain","1","","76","L","3","","0","0","1","0.3525092479","","false","166","0.3201458278","","main_expt","0.1506282743","","0.2673729835","","0.3525092479","","","","","","",""
"379","","bandit","242","523160","0.0-204.0-0.0","07447254","wem/bandit_single","AOAQK9URS9KUR","gain","1","","72","H","0","img/none_selected.jpg","1","0","0","0.366643239","","false","167","0.366643239","","main_expt","0.1407574557","","0.169486101","","0.3919017073","","","","","","",""
"102","","bandit","243","525018","0.0-205.0-0.0","07447254","wem/bandit_single","AOAQK9URS9KUR","gain","1","","72","H","0","img/none_selected.jpg","0","0","1","0.3877512758","","false","168","0.3877512758","","main_expt","0.1217255528","","0.1997030364","","0.3855955566","","","","","","",""
"13","","bandit","244","526788","0.0-206.0-0.0","07447254","wem/bandit_single","AOAQK9URS9KUR","gain","1","","76","L","3","","1","0","0","0.3882436634","","false","169","0.3733196812","","main_expt","0.118108524","","0.2391799942","","0.3882436634","","","","","","",""
"399","","bandit","245","528944","0.0-207.0-0.0","07447254","wem/bandit_single","AOAQK9URS9KUR","gain","1","","76","L","3","","1","0","0","0.4096789578","","false","170","0.3616719183","","main_expt","0.0750780909","","0.2239577552","","0.4096789578","","","","","","",""
"326","","bandit","246","531029","0.0-208.0-0.0","07447254","wem/bandit_single","AOAQK9URS9KUR","gain","1","","76","L","3","","0","0","1","0.4326257363","","false","171","0.3222484871","","main_expt","0.07048665386","","0.2175962327","","0.4326257363","","","","","","",""
"80","","bandit","247","532866","0.0-209.0-0.0","07447254","wem/bandit_single","AOAQK9URS9KUR","gain","1","","72","H","0","img/none_selected.jpg","0","0","1","0.2849842628","","false","172","0.2849842628","","main_expt","0.09439478605","","0.2061205584","","0.4381189537","","","","","","",""
"298","","bandit","248","534921","0.0-210.0-0.0","07447254","wem/bandit_single","AOAQK9URS9KUR","gain","1","","75","K","2","","0","0","1","0.1787022686","","false","173","0.2896949147","","main_expt","0.05932603211","","0.1787022686","","0.3823577146","","","","","","",""
"178","","bandit","249","536857","0.0-211.0-0.0","07447254","wem/bandit_single","AOAQK9URS9KUR","gain","1","","76","L","3","","0","0","1","0.4155511425","","false","174","0.260829927","","main_expt","0.1019229976","","0.1782801474","","0.4155511425","","","","","","",""
"6","","bandit","250","538622","0.0-212.0-0.0","07447254","wem/bandit_single","AOAQK9URS9KUR","gain","1","","72","H","0","img/none_selected.jpg","0","0","1","0.1608433896","","false","175","0.1608433896","","main_expt","0.1270031357","","0.1723114597","","0.4391025654","","","","","","",""
"38","","bandit","251","540417","0.0-213.0-0.0","07447254","wem/bandit_single","AOAQK9URS9KUR","gain","1","","72","H","0","img/none_selected.jpg","0","0","1","0.1924323662","","false","176","0.1924323662","","main_expt","0.1519507126","","0.1714247165","","0.4654332747","","","","","","",""
"153","","bandit","252","542328","0.0-214.0-0.0","07447254","wem/bandit_single","AOAQK9URS9KUR","gain","1","","74","J","1","","0","0","1","0.2645819263","","false","177","0.1942299772","","main_expt","0.2645819263","","0.2003569552","","0.4862166952","","","","","","",""
"20","","bandit","253","544104","0.0-215.0-0.0","07447254","wem/bandit_single","AOAQK9URS9KUR","gain","1","","75","K","2","","0","0","1","0.1848954505","","false","178","0.2266891382","","main_expt","0.2497033982","","0.1848954505","","0.4878504479","","","","","","",""
"45","","bandit","254","545907","0.0-216.0-0.0","07447254","wem/bandit_single","AOAQK9URS9KUR","gain","1","","75","K","2","","0","0","1","0.120488448","","false","179","0.193755509","","main_expt","0.2464833147","","0.120488448","","0.4925433574","","","","","","",""
"19","","bandit","255","547683","0.0-217.0-0.0","07447254","wem/bandit_single","AOAQK9URS9KUR","gain","1","","74","J","1","","0","0","1","0.191435525","","false","180","0.2143300014","","main_expt","0.191435525","","0.09518531587","","0.4863546804","","","","","","",""
"95","","bandit","256","549536","0.0-218.0-0.0","07447254","wem/bandit_single","AOAQK9URS9KUR","gain","1","","72","H","0","img/none_selected.jpg","0","0","1","0.1996101457","","false","181","0.1996101457","","main_expt","0.2095150634","","0.1110105533","","0.4898831258","","","","","","",""
"409","","bandit","257","551703","0.0-219.0-0.0","07447254","wem/bandit_single","AOAQK9URS9KUR","gain","1","","76","L","3","","0","0","1","0.4702328405","","false","182","0.220362663","","main_expt","0.2238619417","","0.1321710188","","0.4702328405","","","","","","",""
"202","","bandit","258","553663","0.0-220.0-0.0","07447254","wem/bandit_single","AOAQK9URS9KUR","gain","1","","76","L","3","","0","0","1","0.4443650637","","false","183","0.2087999581","","main_expt","0.172430875","","0.07205074818","","0.4443650637","","","","","","",""
"63","","bandit","259","555484","0.0-221.0-0.0","07447254","wem/bandit_single","AOAQK9URS9KUR","gain","1","","72","H","0","img/none_selected.jpg","0","0","1","0.2693368533","","false","184","0.2693368533","","main_expt","0.1537152065","","0.08140980564","","0.4395551327","","","","","","",""
"185","","bandit","260","557426","0.0-222.0-0.0","07447254","wem/bandit_single","AOAQK9URS9KUR","gain","1","","72","H","0","img/none_selected.jpg","1","0","0","0.3177788722","","false","185","0.3177788722","","main_expt","0.1089078126","","0.07005875891","","0.427498872","","","","","","",""
"412","","bandit","261","559595","0.0-223.0-0.0","07447254","wem/bandit_single","AOAQK9URS9KUR","gain","1","","72","H","0","img/none_selected.jpg","1","0","0","0.3093747324","","false","186","0.3093747324","","main_expt","0.1150542287","","0.04712836877","","0.4126395781","","","","","","",""
"250","","bandit","262","561603","0.0-224.0-0.0","07447254","wem/bandit_single","AOAQK9URS9KUR","gain","1","","72","H","0","img/none_selected.jpg","1","0","0","0.3361469263","","false","187","0.3361469263","","main_expt","0.07877539194","","0.07097221374","","0.4059631444","","","","","","",""
"295","","bandit","263","563655","0.0-225.0-0.0","07447254","wem/bandit_single","AOAQK9URS9KUR","gain","1","","72","H","0","img/none_selected.jpg","0","0","1","0.3096611705","","false","188","0.3096611705","","main_expt","0.06234325246","","0.04255461481","","0.4007853126","","","","","","",""
"69","","bandit","264","565483","0.0-226.0-0.0","07447254","wem/bandit_single","AOAQK9URS9KUR","gain","1","","76","L","3","","1","0","0","0.4208201059","","false","189","0.298651231","","main_expt","0.07748383332","","0.03834091028","","0.4208201059","","","","","","",""
"371","","bandit","265","567611","0.0-227.0-0.0","07447254","wem/bandit_single","AOAQK9URS9KUR","gain","1","","76","L","3","","1","0","0","0.4249824956","","false","190","0.3361123746","","main_expt","0.08864116925","","0.03101500858","","0.4249824956","","","","","","",""
"216","","bandit","266","569585","0.0-228.0-0.0","07447254","wem/bandit_single","AOAQK9URS9KUR","gain","1","","76","L","3","","1","0","0","0.4519194686","","false","191","0.3529126189","","main_expt","0.1114019665","","0.05137759752","","0.4519194686","","","","","","",""
"61","","bandit","267","571403","0.0-229.0-0.0","07447254","wem/bandit_single","AOAQK9URS9KUR","gain","1","","76","L","3","","0","0","1","0.449072141","","false","192","0.3806900048","","main_expt","0.0944181321","","0.05101019331","","0.449072141","","","","","","",""
"67","","bandit","268","573229","0.0-230.0-0.0","07447254","wem/bandit_single","AOAQK9URS9KUR","gain","1","","72","H","0","img/none_selected.jpg","1","0","0","0.3191299148","","false","193","0.3191299148","","main_expt","0.09015445577","","0.0408087357","","0.4069092802","","","","","","",""
"100","","bandit","269","575085","0.0-231.0-0.0","07447254","wem/bandit_single","AOAQK9URS9KUR","gain","1","","72","H","0","img/none_selected.jpg","1","0","0","0.3350705725","","false","194","0.3350705725","","main_expt","0.09569888082","","0.04787233925","","0.399300076","","","","","","",""
"162","","bandit","270","577005","0.0-232.0-0.0","07447254","wem/bandit_single","AOAQK9URS9KUR","gain","1","","72","H","0","img/none_selected.jpg","0","0","1","0.3579412151","","false","195","0.3579412151","","main_expt","0.1521563302","","0.07297342555","","0.4028519225","","","","","","",""
"190","","bandit","271","578952","0.0-233.0-0.0","07447254","wem/bandit_single","AOAQK9URS9KUR","gain","1","","76","L","3","","0","0","1","0.3708283831","","false","196","0.4135102269","","main_expt","0.1612876033","","0.1090796252","","0.3708283831","","","","","","",""
"5","","bandit","272","580716","0.0-234.0-0.0","07447254","wem/bandit_single","AOAQK9URS9KUR","gain","1","","72","H","0","img/none_selected.jpg","1","0","0","0.4368922102","","false","197","0.4368922102","","main_expt","0.1818980103","","0.1141593934","","0.3992028251","","","","","","",""
"681","","bandit","273","583154","0.0-235.0-0.0","07447254","wem/bandit_single","AOAQK9URS9KUR","gain","1","","72","H","0","img/none_selected.jpg","0","0","1","0.4329908538","","false","198","0.4329908538","","main_expt","0.1426991491","","0.1247063377","","0.3662313723","","","","","","",""
"44","","bandit","274","584956","0.0-236.0-0.0","07447254","wem/bandit_single","AOAQK9URS9KUR","gain","1","","76","L","3","","1","0","0","0.3667285709","","false","199","0.4458308372","","main_expt","0.1339470975","","0.1324590526","","0.3667285709","","","","","","",""
"80","","bandit","275","586793","0.0-237.0-0.0","07447254","wem/bandit_single","AOAQK9URS9KUR","gain","1","","76","L","3","","1","0","0","0.365396467","","false","200","0.4535445428","","main_expt","0.1615481579","","0.1062358191","","0.365396467","","","","","","",""
"321","","bandit","276","588873","0.0-238.0-0.0","07447254","wem/bandit_single","AOAQK9URS9KUR","gain","1","","76","L","3","","1","0","0","0.3413602931","","false","201","0.4258040833","","main_expt","0.1889616495","","0.1027729413","","0.3413602931","","","","","","",""
"360","","bandit","277","590991","0.0-239.0-0.0","07447254","wem/bandit_single","AOAQK9URS9KUR","gain","1","","76","L","3","","1","0","0","0.3655369163","","false","202","0.413157784","","main_expt","0.2043886565","","0.09207086273","","0.3655369163","","","","","","",""
"229","","bandit","278","592978","0.0-240.0-0.0","07447254","wem/bandit_single","AOAQK9URS9KUR","gain","1","","76","L","3","","0","0","1","0.3301706169","","false","203","0.358983575","","main_expt","0.2274570119","","0.1409949376","","0.3301706169","","","","","","",""
"202","","bandit","279","594938","0.0-241.0-0.0","07447254","wem/bandit_single","AOAQK9URS9KUR","gain","1","","72","H","0","img/none_selected.jpg","1","0","0","0.3354839288","","false","204","0.3354839288","","main_expt","0.1795680912","","0.2067441942","","0.3305557625","","","","","","",""
"143","","bandit","280","596840","0.0-242.0-0.0","07447254","wem/bandit_single","AOAQK9URS9KUR","gain","1","","72","H","0","img/none_selected.jpg","0","0","1","0.3814446138","","false","205","0.3814446138","","main_expt","0.1823506393","","0.2171549514","","0.3332543728","","","","","","",""
"37","","bandit","281","598634","0.0-243.0-0.0","07447254","wem/bandit_single","AOAQK9URS9KUR","gain","1","","76","L","3","","0","0","1","0.270761893","","false","206","0.4069937863","","main_expt","0.1401809595","","0.1399251859","","0.270761893","","","","","","",""
"94","","bandit","282","600486","0.0-244.0-0.0","07447254","wem/bandit_single","AOAQK9URS9KUR","gain","1","","75","K","2","","0","0","1","0.1700254018","","false","207","0.4261201247","","main_expt","0.1651993972","","0.1700254018","","0.2595670132","","","","","","",""
"19","","bandit","283","602263","0.0-245.0-0.0","07447254","wem/bandit_single","AOAQK9URS9KUR","gain","1","","72","H","0","img/none_selected.jpg","1","0","0","0.4105702951","","false","208","0.4105702951","","main_expt","0.1803987852","","0.1831619311","","0.2772442529","","","","","","",""
"132","","bandit","284","604155","0.0-246.0-0.0","07447254","wem/bandit_single","AOAQK9URS9KUR","gain","1","","72","H","0","img/none_selected.jpg","1","0","0","0.402481318","","false","209","0.402481318","","main_expt","0.1470434113","","0.151215806","","0.2654441326","","","","","","",""
"326","","bandit","285","606238","0.0-247.0-0.0","07447254","wem/bandit_single","AOAQK9URS9KUR","gain","1","","72","H","0","img/none_selected.jpg","0","0","1","0.4378094136","","false","210","0.4378094136","","main_expt","0.1375860563","","0.1841878728","","0.2475709295","","","","","","",""
"10","","bandit","286","608007","0.0-248.0-0.0","07447254","wem/bandit_single","AOAQK9URS9KUR","gain","1","","76","L","3","","0","0","1","0.1836637302","","false","211","0.4174257438","","main_expt","0.1181257803","","0.190591144","","0.1836637302","","","","","","",""
"68","","bandit","287","609834","0.0-249.0-0.0","07447254","wem/bandit_single","AOAQK9URS9KUR","gain","1","","72","H","0","img/none_selected.jpg","0","0","1","0.4235695044","","false","212","0.4235695044","","main_expt","0.1284194295","","0.2024219406","","0.2018671691","","","","","","",""
"41","","bandit","288","611633","0.0-250.0-0.0","07447254","wem/bandit_single","AOAQK9URS9KUR","gain","1","","75","K","2","","0","0","1","0.1985525674","","false","213","0.4112054282","","main_expt","0.1088774305","","0.1985525674","","0.1807811906","","","","","","",""
"64","","bandit","289","613454","0.0-251.0-0.0","07447254","wem/bandit_single","AOAQK9URS9KUR","gain","1","","75","K","2","","0","0","1","0.1940352924","","false","214","0.3986702209","","main_expt","0.07230623063","","0.1940352924","","0.2432807767","","","","","","",""
"197","","bandit","290","615409","0.0-252.0-0.0","07447254","wem/bandit_single","AOAQK9URS9KUR","gain","1","","74","J","1","","0","0","1","0.07963887701","","false","215","0.4379561577","","main_expt","0.07963887701","","0.1155678072","","0.2167976264","","","","","","",""
"50","","bandit","291","617217","0.0-253.0-0.0","07447254","wem/bandit_single","AOAQK9URS9KUR","gain","1","","76","L","3","","1","0","0","0.2963745884","","false","216","0.425003275","","main_expt","0.0792987172","","0.08288275022","","0.2963745884","","","","","","",""
"9","","bandit","292","618984","0.0-254.0-0.0","07447254","wem/bandit_single","AOAQK9URS9KUR","gain","1","","76","L","3","","0","0","1","0.2704200786","","false","217","0.4398514333","","main_expt","0.07576557353","","0.1108164962","","0.2704200786","","","","","","",""
"290","","bandit","293","621032","0.0-255.0-0.0","07447254","wem/bandit_single","AOAQK9URS9KUR","gain","1","","72","H","0","img/none_selected.jpg","1","0","0","0.4307107256","","false","218","0.4307107256","","main_expt","0.05946619603","","0.1166222362","","0.2057322541","","","","","","",""
"109","","bandit","294","622899","0.0-256.0-0.0","07447254","wem/bandit_single","AOAQK9URS9KUR","gain","1","","72","H","0","img/none_selected.jpg","0","0","1","0.4236121262","","false","219","0.4236121262","","main_expt","0.07419684477","","0.1441412427","","0.2143414454","","","","","","",""
"15","","bandit","295","624672","0.0-257.0-0.0","07447254","wem/bandit_single","AOAQK9URS9KUR","gain","1","","76","L","3","","0","0","1","0.1630835619","","false","220","0.4020148519","","main_expt","0.09297922461","","0.1460318591","","0.1630835619","","","","","","",""
"47","","bandit","296","626478","0.0-258.0-0.0","07447254","wem/bandit_single","AOAQK9URS9KUR","gain","1","","72","H","0","img/none_selected.jpg","1","0","0","0.4073181559","","false","221","0.4073181559","","main_expt","0.1429286242","","0.1068666799","","0.1536312793","","","","","","",""
"92","","bandit","297","628328","0.0-259.0-0.0","07447254","wem/bandit_single","AOAQK9URS9KUR","gain","1","","72","H","0","img/none_selected.jpg","1","0","0","0.3651123295","","false","222","0.3651123295","","main_expt","0.1708286753","","0.1101844092","","0.2214617817","","","","","","",""
"271","","bandit","298","630357","0.0-260.0-0.0","07447254","wem/bandit_single","AOAQK9URS9KUR","gain","1","","72","H","0","img/none_selected.jpg","0","0","1","0.3836441325","","false","223","0.3836441325","","main_expt","0.1461267001","","0.0707480467","","0.2273662723","","","","","","",""
"380","","bandit","299","632495","0.0-261.0-0.0","07447254","wem/bandit_single","AOAQK9URS9KUR","gain","1","","76","L","3","","0","0","1","0.1894352557","","false","224","0.3982756155","","main_expt","0.144808321","","0.06117493494","","0.1894352557","","","","","","",""
"370","","bandit","300","634623","0.0-262.0-0.0","07447254","wem/bandit_single","AOAQK9URS9KUR","gain","1","","72","H","0","img/none_selected.jpg","0","0","1","0.3942448394","","false","225","0.3942448394","","main_expt","0.1890777341","","0.0615688762","","0.1292085382","","","","","","",""
"40","","bandit","301","636421","0.0-263.0-0.0","07447254","wem/bandit_single","AOAQK9URS9KUR","gain","1","","75","K","2","","0","0","1","0.05052633559","","false","226","0.4169515918","","main_expt","0.1442837472","","0.05052633559","","0.1530858041","","","","","","",""
"232","","bandit","302","638411","0.0-264.0-0.0","07447254","wem/bandit_single","AOAQK9URS9KUR","gain","1","","75","K","2","","0","0","1","0.05726050712","","false","227","0.4204191544","","main_expt","0.1425852804","","0.05726050712","","0.1593334253","","","","","","",""
"300","","bandit","303","640469","0.0-265.0-0.0","07447254","wem/bandit_single","AOAQK9URS9KUR","gain","1","","75","K","2","","0","0","1","0.0758768547","","false","228","0.4091886","","main_expt","0.1116716659","","0.0758768547","","0.1247523642","","","","","","",""
"192","","bandit","304","642420","0.0-266.0-0.0","07447254","wem/bandit_single","AOAQK9URS9KUR","gain","1","","74","J","1","","0","0","1","0.1206121499","","false","229","0.407276644","","main_expt","0.1206121499","","0.07022353505","","0.1463700977","","","","","","",""
"35","","bandit","305","644214","0.0-267.0-0.0","07447254","wem/bandit_single","AOAQK9URS9KUR","gain","1","","76","L","3","","0","0","1","0.1402324221","","false","230","0.4254558538","","main_expt","0.1168532629","","0.06577032649","","0.1402324221","","","","","","",""
"38","","bandit","306","646010","0.0-268.0-0.0","07447254","wem/bandit_single","AOAQK9URS9KUR","gain","1","","72","H","0","img/none_selected.jpg","1","0","0","0.4259586803","","false","231","0.4259586803","","main_expt","0.0916199044","","0.06313303242","","0.1914784592","","","","","","",""
"37","","bandit","307","647805","0.0-269.0-0.0","07447254","wem/bandit_single","AOAQK9URS9KUR","gain","1","","72","H","0","img/none_selected.jpg","1","0","0","0.4429649496","","false","232","0.4429649496","","main_expt","0.09573807812","","0.05490827263","","0.1507361932","","","","","","",""
"69","","bandit","308","649632","0.0-270.0-0.0","07447254","wem/bandit_single","AOAQK9URS9KUR","gain","1","","72","H","0","img/none_selected.jpg","0","0","1","0.4456598826","","false","233","0.4456598826","","main_expt","0.1246926578","","0.04200611561","","0.1902650793","","","","","","",""
"1287","","bandit","309","652677","0.0-271.0-0.0","07447254","wem/bandit_single","AOAQK9URS9KUR","gain","1","","72","H","0","img/none_selected.jpg","1","0","0","0.4504169918","","false","234","0.4504169918","","main_expt","0.122457211","","0.0550058871","","0.2663902881","","","","","","",""
"36","","bandit","310","654471","0.0-272.0-0.0","07447254","wem/bandit_single","AOAQK9URS9KUR","gain","1","","72","H","0","img/none_selected.jpg","1","0","0","0.4255816076","","false","235","0.4255816076","","main_expt","0.1561374187","","0.06273227262","","0.257874652","","","","","","",""
"118","","bandit","311","656347","0.0-273.0-0.0","07447254","wem/bandit_single","AOAQK9URS9KUR","gain","1","","72","H","0","img/none_selected.jpg","1","0","0","0.4262424011","","false","236","0.4262424011","","main_expt","0.1726763947","","0.09869136657","","0.2134416149","","","","","","",""
"320","","bandit","312","658425","0.0-274.0-0.0","07447254","wem/bandit_single","AOAQK9URS9KUR","gain","1","","72","H","0","img/none_selected.jpg","0","0","1","0.4314914545","","false","237","0.4314914545","","main_expt","0.163453789","","0.06464195797","","0.1655180868","","","","","","",""
"8","","bandit","313","660192","0.0-275.0-0.0","07447254","wem/bandit_single","AOAQK9URS9KUR","gain","1","","76","L","3","","0","0","1","0.1528926348","","false","238","0.4580147213","","main_expt","0.1511244057","","0.1092425733","","0.1528926348","","","","","","",""
"89","","bandit","314","662039","0.0-276.0-0.0","07447254","wem/bandit_single","AOAQK9URS9KUR","gain","1","","72","H","0","img/none_selected.jpg","1","0","0","0.4437162142","","false","239","0.4437162142","","main_expt","0.1170855371","","0.08920017271","","0.1594670864","","","","","","",""
"139","","bandit","315","663936","0.0-277.0-0.0","07447254","wem/bandit_single","AOAQK9URS9KUR","gain","1","","72","H","0","img/none_selected.jpg","1","0","0","0.4423909474","","false","240","0.4423909474","","main_expt","0.1281478965","","0.138477068","","0.104293197","","","","","","",""
"327","","bandit","316","666020","0.0-278.0-0.0","07447254","wem/bandit_single","AOAQK9URS9KUR","gain","1","","72","H","0","img/none_selected.jpg","1","0","0","0.4542424264","","false","241","0.4542424264","","main_expt","0.1579661802","","0.1249513709","","0.07968297136","","","","","","",""
"304","","bandit","317","668082","0.0-279.0-0.0","07447254","wem/bandit_single","AOAQK9URS9KUR","gain","1","","72","H","0","img/none_selected.jpg","0","0","1","0.4659063812","","false","242","0.4659063812","","main_expt","0.1345462726","","0.09754639251","","0.07079416442","","","","","","",""
"26","","bandit","318","669867","0.0-280.0-0.0","07447254","wem/bandit_single","AOAQK9URS9KUR","gain","1","","76","L","3","","0","0","1","0.08709770617","","false","243","0.4702771719","","main_expt","0.1793426478","","0.1223474156","","0.08709770617","","","","","","",""
"390","","bandit","319","672016","0.0-281.0-0.0","07447254","wem/bandit_single","AOAQK9URS9KUR","gain","1","","72","H","0","img/none_selected.jpg","0","0","1","0.4678480784","","false","244","0.4678480784","","main_expt","0.1623289848","","0.1004902073","","0.08252109256","","","","","","",""
"158","","bandit","320","673932","0.0-282.0-0.0","07447254","wem/bandit_single","AOAQK9URS9KUR","gain","1","","75","K","2","","0","0","1","0.09372717231","","false","245","0.4608336118","","main_expt","0.1638267454","","0.09372717231","","0.07130924754","","","","","","",""
"68","","bandit","321","675758","0.0-283.0-0.0","07447254","wem/bandit_single","AOAQK9URS9KUR","gain","1","","72","H","0","img/none_selected.jpg","1","0","0","0.4455928316","","false","246","0.4455928316","","main_expt","0.1794660524","","0.1004977064","","0.06886742221","","","","","","",""
"30","","bandit","322","677547","0.0-284.0-0.0","07447254","wem/bandit_single","AOAQK9URS9KUR","gain","1","","72","H","0","img/none_selected.jpg","0","0","1","0.4322927154","","false","247","0.4322927154","","main_expt","0.1751092572","","0.09336015453","","0.064138504","","","","","","",""
"76","","bandit","323","679381","0.0-285.0-0.0","07447254","wem/bandit_single","AOAQK9URS9KUR","gain","1","","72","H","0","img/none_selected.jpg","1","0","0","0.4293825987","","false","248","0.4293825987","","main_expt","0.188480637","","0.09552903486","","0.05051083443","","","","","","",""
"26","","bandit","324","681165","0.0-286.0-0.0","07447254","wem/bandit_single","AOAQK9URS9KUR","gain","1","","72","H","0","img/none_selected.jpg","0","0","1","0.4338924945","","false","249","0.4338924945","","main_expt","0.1718025207","","0.1087111068","","0.05514480776","","","","","","",""
"57","","bandit","325","682980","0.0-287.0-0.0","07447254","wem/bandit_single","AOAQK9URS9KUR","gain","1","","72","H","0","img/none_selected.jpg","0","0","1","0.4356531551","","false","250","0.4356531551","","main_expt","0.1377417152","","0.08296073337","","0.02780796002","","","","","","",""
"57","","bandit","326","684794","0.0-288.0-0.0","07447254","wem/bandit_single","AOAQK9URS9KUR","gain","1","","72","H","0","img/none_selected.jpg","0","0","1","0.4561881598","","false","251","0.4561881598","","main_expt","0.1623098307","","0.08988728922","","0.02786711831","","","","","","",""
"99","","bandit","327","686651","0.0-289.0-0.0","07447254","wem/bandit_single","AOAQK9URS9KUR","gain","1","","76","L","3","","0","0","1","0.03881205422","","false","252","0.4517263236","","main_expt","0.1702242208","","0.07043490844","","0.03881205422","","","","","","",""
"59","","bandit","328","688467","0.0-290.0-0.0","07447254","wem/bandit_single","AOAQK9URS9KUR","gain","1","","76","L","3","","0","0","1","0.03211176865","","false","253","0.4280730872","","main_expt","0.1571297736","","0.06648959932","","0.03211176865","","","","","","",""
"4","","bandit","329","690230","0.0-291.0-0.0","07447254","wem/bandit_single","AOAQK9URS9KUR","gain","1","","76","L","3","","0","0","1","0.02501863174","","false","254","0.3976691957","","main_expt","0.1311762281","","0.04750248463","","0.02501863174","","","","","","",""
"18","","bandit","330","692005","0.0-292.0-0.0","07447254","wem/bandit_single","AOAQK9URS9KUR","gain","1","","76","L","3","","0","0","1","0.03845468041","","false","255","0.3920211634","","main_expt","0.1262313745","","0.0685067328","","0.03845468041","","","","","","",""
"151","","bandit","331","693915","0.0-293.0-0.0","07447254","wem/bandit_single","AOAQK9URS9KUR","gain","1","","75","K","2","","0","0","1","0.06106940649","","false","256","0.3802568344","","main_expt","0.08888936201","","0.06106940649","","0.03093107714","","","","","","",""
"70","","bandit","332","695745","0.0-294.0-0.0","07447254","wem/bandit_single","AOAQK9URS9KUR","gain","1","","75","K","2","","0","0","1","0.03925251802","","false","257","0.4153547565","","main_expt","0.1016624202","","0.03925251802","","0.02284381284","","","","","","",""
"732","","bandit","333","698235","0.0-295.0-0.0","07447254","wem/bandit_single","AOAQK9URS9KUR","gain","1","","72","H","0","img/none_selected.jpg","1","0","0","0.412770775","","false","258","0.412770775","","main_expt","0.1201960749","","0.07528758783","","0.01195927332","","","","","","",""
"181","","bandit","334","700176","0.0-296.0-0.0","07447254","wem/bandit_single","AOAQK9URS9KUR","gain","1","","72","H","0","img/none_selected.jpg","1","0","0","0.4364469878","","false","259","0.4364469878","","main_expt","0.09869940493","","0.06168900656","","0.009837890866","","","","","","",""
"102","","bandit","335","702037","0.0-297.0-0.0","07447254","wem/bandit_single","AOAQK9URS9KUR","gain","1","","72","H","0","img/none_selected.jpg","0","0","1","0.4143686848","","false","260","0.4143686848","","main_expt","0.140367269","","0.05358732337","","0.01652501309","","","","","","",""
"93","","bandit","336","703888","0.0-298.0-0.0","07447254","wem/bandit_single","AOAQK9URS9KUR","gain","1","","72","H","0","img/none_selected.jpg","1","0","0","0.3932103286","","false","261","0.3932103286","","main_expt","0.107121031","","0.05974294151","","0.0246934762","","","","","","",""
"79","","bandit","337","705727","0.0-299.0-0.0","07447254","wem/bandit_single","AOAQK9URS9KUR","gain","1","","72","H","0","img/none_selected.jpg","0","0","1","0.4299042069","","false","262","0.4299042069","","main_expt","0.142880744","","0.0656558392","","0.02217338967","","","","","","",""
"36","","bandit","338","707522","0.0-300.0-0.0","07447254","wem/bandit_single","AOAQK9URS9KUR","gain","1","","75","K","2","","0","0","1","0.08006927963","","false","263","0.3864913748","","main_expt","0.1398656543","","0.08006927963","","0.02538488248","","","","","","",""
"28","","bandit","339","709308","0.0-301.0-0.0","07447254","wem/bandit_single","AOAQK9URS9KUR","gain","1","","72","H","0","img/none_selected.jpg","1","0","0","0.3721946297","","false","264","0.3721946297","","main_expt","0.185630342","","0.07803510261","","0.03542132602","","","","","","",""
"94","","bandit","340","711161","0.0-302.0-0.0","07447254","wem/bandit_single","AOAQK9URS9KUR","gain","1","","72","H","0","img/none_selected.jpg","0","0","1","0.3326379545","","false","265","0.3326379545","","main_expt","0.1483619715","","0.08917846028","","0.03052618628","","","","","","",""
"111","","bandit","341","713032","0.0-303.0-0.0","07447254","wem/bandit_single","AOAQK9URS9KUR","gain","1","","72","H","0","img/none_selected.jpg","0","0","1","0.3337002386","","false","266","0.3337002386","","main_expt","0.1677753502","","0.1562168236","","0.02388326919","","","","","","",""
"137","","bandit","342","714927","0.0-304.0-0.0","07447254","wem/bandit_single","AOAQK9URS9KUR","gain","1","","75","K","2","","0","0","1","0.1873085091","","false","267","0.3044940876","","main_expt","0.1748953786","","0.1873085091","","0.01496915784","","","","","","",""
"103","","bandit","343","716788","0.0-305.0-0.0","07447254","wem/bandit_single","AOAQK9URS9KUR","gain","1","","72","H","0","img/none_selected.jpg","0","0","1","0.2966269971","","false","268","0.2966269971","","main_expt","0.152215306","","0.1850807086","","0.01735494223","","","","","","",""
"39","","bandit","344","718586","0.0-306.0-0.0","07447254","wem/bandit_single","AOAQK9URS9KUR","gain","1","","72","H","0","img/none_selected.jpg","0","0","1","0.2617435325","","false","269","0.2617435325","","main_expt","0.1420691147","","0.1461958128","","0.01365938384","","","","","","",""
"456","","bandit","345","720800","0.0-307.0-0.0","07447254","wem/bandit_single","AOAQK9URS9KUR","gain","1","","75","K","2","","0","0","1","0.1348565207","","false","270","0.2599280147","","main_expt","0.1338049101","","0.1348565207","","0.01871615964","","","","","","",""
"157","","bandit","346","722717","0.0-308.0-0.0","07447254","wem/bandit_single","AOAQK9URS9KUR","gain","1","","72","H","0","img/none_selected.jpg","1","0","0","0.2499936179","","false","271","0.2499936179","","main_expt","0.1178923734","","0.1588166083","","0.01663887187","","","","","","",""
"17","","bandit","347","724494","0.0-309.0-0.0","07447254","wem/bandit_single","AOAQK9URS9KUR","gain","1","","72","H","0","img/none_selected.jpg","0","0","1","0.2703142459","","false","272","0.2703142459","","main_expt","0.1436833609","","0.1288650497","","0.01973971225","","","","","","",""
"50","","bandit","348","726302","0.0-310.0-0.0","07447254","wem/bandit_single","AOAQK9URS9KUR","gain","1","","76","L","3","","0","0","1","0.01954424634","","false","273","0.2835249431","","main_expt","0.1917782062","","0.1414039315","","0.01954424634","","","","","","",""
"50","","bandit","349","728110","0.0-311.0-0.0","07447254","wem/bandit_single","AOAQK9URS9KUR","gain","1","","72","H","0","img/none_selected.jpg","0","0","1","0.2906451875","","false","274","0.2906451875","","main_expt","0.1657285368","","0.1132613661","","0.008862655739","","","","","","",""
"113","","bandit","350","729983","0.0-312.0-0.0","07447254","wem/bandit_single","AOAQK9URS9KUR","gain","1","","72","H","0","img/none_selected.jpg","0","0","1","0.2670480505","","false","275","0.2670480505","","main_expt","0.1420329436","","0.1396690899","","0.0094605031","","","","","","",""
"155","","bandit","351","731897","0.0-313.0-0.0","07447254","wem/bandit_single","AOAQK9URS9KUR","gain","1","","76","L","3","","0","0","1","0.01191149084","","false","276","0.2358592403","","main_expt","0.1369756733","","0.1109816737","","0.01191149084","","","","","","",""
"178","","bandit","352","733834","0.0-314.0-0.0","07447254","wem/bandit_single","AOAQK9URS9KUR","gain","1","","76","L","3","","0","0","1","0.00904810236","","false","277","0.1877967456","","main_expt","0.1781068979","","0.08046464388","","0.00904810236","","","","","","",""
"51","","bandit","353","735643","0.0-315.0-0.0","07447254","wem/bandit_single","AOAQK9URS9KUR","gain","1","","76","L","3","","0","0","1","0.007795284796","","false","278","0.1537245983","","main_expt","0.248352092","","0.07407019324","","0.007795284796","","","","","","",""
"35","","bandit","354","737437","0.0-316.0-0.0","07447254","wem/bandit_single","AOAQK9URS9KUR","gain","1","","75","K","2","","0","0","1","0.06478755197","","false","279","0.1662011111","","main_expt","0.263219496","","0.06478755197","","0.01747653863","","","","","","",""
"22","","bandit","355","739217","0.0-317.0-0.0","07447254","wem/bandit_single","AOAQK9URS9KUR","gain","1","","72","H","0","img/none_selected.jpg","0","0","1","0.1622625537","","false","280","0.1622625537","","main_expt","0.210776847","","0.04895059186","","0.02326096521","","","","","","",""
"150","","bandit","356","741126","0.0-318.0-0.0","07447254","wem/bandit_single","AOAQK9URS9KUR","gain","1","","76","L","3","","0","0","1","0.03290281633","","false","281","0.2160365104","","main_expt","0.1901401854","","0.04598133094","","0.03290281633","","","","","","",""
"120","","bandit","357","743005","0.0-319.0-0.0","07447254","wem/bandit_single","AOAQK9URS9KUR","gain","1","","72","H","0","img/none_selected.jpg","0","0","1","0.2031844556","","false","282","0.2031844556","","main_expt","0.1692674388","","0.0454431083","","0.03647511751","","","","","","",""
"12","","bandit","358","744775","0.0-320.0-0.0","07447254","wem/bandit_single","AOAQK9URS9KUR","gain","1","","75","K","2","","0","0","1","0.0377119091","","false","283","0.236778666","","main_expt","0.1697823826","","0.0377119091","","0.0381479171","","","","","","",""
"121","","bandit","359","746655","0.0-321.0-0.0","07447254","wem/bandit_single","AOAQK9URS9KUR","gain","1","","72","H","0","img/none_selected.jpg","0","0","1","0.2082896542","","false","284","0.2082896542","","main_expt","0.1647860582","","0.0346676025","","0.04237273713","","","","","","",""
"168","","bandit","360","748582","0.0-322.0-0.0","07447254","wem/bandit_single","AOAQK9URS9KUR","gain","1","","76","L","3","","0","0","1","0.08736605616","","false","285","0.1682052712","","main_expt","0.2346467376","","0.03394591187","","0.08736605616","","","","","","",""
"197","","bandit","361","750538","0.0-323.0-0.0","07447254","wem/bandit_single","AOAQK9URS9KUR","gain","1","","76","L","3","","0","0","1","0.149418319","","false","286","0.1287852917","","main_expt","0.1651037306","","0.03437308726","","0.149418319","","","","","","",""
"171","","bandit","362","752468","0.0-324.0-0.0","07447254","wem/bandit_single","AOAQK9URS9KUR","gain","1","","76","L","3","","0","0","1","0.2149685411","","false","287","0.0739145169","","main_expt","0.113933185","","0.043905831","","0.2149685411","","","","","","",""
"73","","bandit","363","754301","0.0-325.0-0.0","07447254","wem/bandit_single","AOAQK9URS9KUR","gain","1","","72","H","0","img/none_selected.jpg","0","0","1","0.08295252225","","false","288","0.08295252225","","main_expt","0.08260993421","","0.02064047927","","0.181398065","","","","","","",""
"418","","bandit","364","756477","0.0-326.0-0.0","07447254","wem/bandit_single","AOAQK9URS9KUR","gain","1","","72","H","0","img/none_selected.jpg","0","0","1","0.0479508895","","false","289","0.0479508895","","main_expt","0.07260323305","","0.0250169619","","0.1523032639","","","","","","",""
"126","","bandit","365","758362","0.0-327.0-0.0","07447254","wem/bandit_single","AOAQK9URS9KUR","gain","1","","72","H","0","img/none_selected.jpg","0","0","1","0.05498143303","","false","290","0.05498143303","","main_expt","0.06306400378","","0.04785043425","","0.1404761367","","","","","","",""
"164","","bandit","366","760283","0.0-328.0-0.0","07447254","wem/bandit_single","AOAQK9URS9KUR","gain","1","","75","K","2","","1","0","0","0.05997729544","","false","291","0.06238518006","","main_expt","0.06173149747","","0.05997729544","","0.1639955189","","","","","","",""
"136","","bandit","367","762178","0.0-329.0-0.0","07447254","wem/bandit_single","AOAQK9URS9KUR","gain","1","","75","K","2","","0","0","1","0.08013724224","","false","292","0.06246846358","","main_expt","0.049421281","","0.08013724224","","0.1365824739","","","","","","",""
