"rt","responses","trial_type","trial_index","time_elapsed","internal_node_id","subjID","study","MID","cond","drift","key_press","respCharCode","respKey","respChoiceNum","respChoice","gems","bombs","no_reward","GemPrChosen","BombPrChosen","practice","trial_counter","WinPr_0","LosePr_0","trial_label","WinPr_1","LosePr_1","WinPr_2","LosePr_2","WinPr_3","LosePr_3","Q0","Q1","Q2","gender","age","ethnicity"
"19259","{""Q0"":""A2CYD8QD1JO0O5""}","survey-text","0","19267","0.0-0.0","08369566","wem/bandit_single","A2CYD8QD1JO0O5","gain","1","","","","","","","","","","","","","","","","","","","","","","","","","","",""
"2346","","text","1","22617","0.0-1.0","08369566","wem/bandit_single","A2CYD8QD1JO0O5","gain","1","32","","","","","","","","","","","","","","","","","","","","","","","","","",""
"5090","","text","2","27709","0.0-2.0","08369566","wem/bandit_single","A2CYD8QD1JO0O5","gain","1","32","","","","","","","","","","","","","","","","","","","","","","","","","",""
"51206","","text","3","78919","0.0-3.0","08369566","wem/bandit_single","A2CYD8QD1JO0O5","gain","1","32","","","","","","","","","","","","","","","","","","","","","","","","","",""
"90915","","text","4","169837","0.0-4.0","08369566","wem/bandit_single","A2CYD8QD1JO0O5","gain","1","32","","","","","","","","","","","","","","","","","","","","","","","","","",""
"10995","","text","5","180835","0.0-5.0","08369566","wem/bandit_single","A2CYD8QD1JO0O5","gain","1","32","","","","","","","","","","","","","","","","","","","","","","","","","",""
"5480","","text","6","186317","0.0-6.0","08369566","wem/bandit_single","A2CYD8QD1JO0O5","gain","1","32","","","","","","","","","","","","","","","","","","","","","","","","","",""
"4715","","text","7","191033","0.0-7.0","08369566","wem/bandit_single","A2CYD8QD1JO0O5","gain","1","32","","","","","","","","","","","","","","","","","","","","","","","","","",""
"3938","","text","8","194972","0.0-8.0","08369566","wem/bandit_single","A2CYD8QD1JO0O5","gain","1","32","","","","","","","","","","","","","","","","","","","","","","","","","",""
"3937","","text","9","198911","0.0-9.0","08369566","wem/bandit_single","A2CYD8QD1JO0O5","gain","1","32","","","","","","","","","","","","","","","","","","","","","","","","","",""
"3389","","text","10","202302","0.0-10.0","08369566","wem/bandit_single","A2CYD8QD1JO0O5","gain","1","32","","","","","","","","","","","","","","","","","","","","","","","","","",""
"8558","","text","11","210863","0.0-11.0","08369566","wem/bandit_single","A2CYD8QD1JO0O5","gain","1","32","","","","","","","","","","","","","","","","","","","","","","","","","",""
"2435","","bandit","12","214807","0.0-12.0-0.0","08369566","wem/bandit_single","A2CYD8QD1JO0O5","gain","1","","74","J","0","img/none_selected_demo.jpg","0","0","1","0","0","true","0","0","0","","","","","","","","","","","","",""
"1378","","bandit","13","217942","0.0-13.0-0.0","08369566","wem/bandit_single","A2CYD8QD1JO0O5","gain","1","","75","K","0","img/none_selected_demo.jpg","0","0","1","0","0","true","0","0","0","","","","","","","","","","","","",""
"2370","","text","14","220566","0.0-14.0","08369566","wem/bandit_single","A2CYD8QD1JO0O5","gain","1","32","","","","","","","","","","","","","","","","","","","","","","","","","",""
"1749","","text","15","222317","0.0-15.0","08369566","wem/bandit_single","A2CYD8QD1JO0O5","gain","1","32","","","","","","","","","","","","","","","","","","","","","","","","","",""
"2920","","text","16","225239","0.0-16.0","08369566","wem/bandit_single","A2CYD8QD1JO0O5","gain","1","32","","","","","","","","","","","","","","","","","","","","","","","","","",""
"3075","","text","17","228317","0.0-17.0","08369566","wem/bandit_single","A2CYD8QD1JO0O5","gain","1","32","","","","","","","","","","","","","","","","","","","","","","","","","",""
"1658","","bandit","18","231481","0.0-18.0-0.0","08369566","wem/bandit_single","A2CYD8QD1JO0O5","gain","1","","74","J","0","img/none_selected_demo.jpg","1","0","0","0.8","0","true","0","0.8","0","80_20_practice","0.2","0","","","","","","","","","",""
"8","","bandit","19","233254","0.0-18.0-1.0","08369566","wem/bandit_single","A2CYD8QD1JO0O5","gain","1","","75","K","1","","0","0","1","0.2","0","true","0","0.8","0","80_20_practice","0.2","0","","","","","","","","","",""
"32","","bandit","20","235043","0.0-18.0-2.0","08369566","wem/bandit_single","A2CYD8QD1JO0O5","gain","1","","74","J","0","img/none_selected_demo.jpg","1","0","0","0.8","0","true","0","0.8","0","80_20_practice","0.2","0","","","","","","","","","",""
"579","","bandit","21","237377","0.0-18.0-3.0","08369566","wem/bandit_single","A2CYD8QD1JO0O5","gain","1","","74","J","0","img/none_selected_demo.jpg","1","0","0","0.8","0","true","0","0.8","0","80_20_practice","0.2","0","","","","","","","","","",""
"418","","bandit","22","239551","0.0-18.0-4.0","08369566","wem/bandit_single","A2CYD8QD1JO0O5","gain","1","","74","J","0","img/none_selected_demo.jpg","1","0","0","0.8","0","true","0","0.8","0","80_20_practice","0.2","0","","","","","","","","","",""
"22","","bandit","23","241333","0.0-18.0-5.0","08369566","wem/bandit_single","A2CYD8QD1JO0O5","gain","1","","74","J","0","img/none_selected_demo.jpg","1","0","0","0.8","0","true","0","0.8","0","80_20_practice","0.2","0","","","","","","","","","",""
"15","","bandit","24","243104","0.0-18.0-6.0","08369566","wem/bandit_single","A2CYD8QD1JO0O5","gain","1","","74","J","0","img/none_selected_demo.jpg","0","0","1","0.8","0","true","0","0.8","0","80_20_practice","0.2","0","","","","","","","","","",""
"74","","bandit","25","244935","0.0-18.0-7.0","08369566","wem/bandit_single","A2CYD8QD1JO0O5","gain","1","","75","K","1","","1","0","0","0.2","0","true","0","0.8","0","80_20_practice","0.2","0","","","","","","","","","",""
"109","","bandit","26","246801","0.0-18.0-8.0","08369566","wem/bandit_single","A2CYD8QD1JO0O5","gain","1","","74","J","0","img/none_selected_demo.jpg","0","0","1","0.8","0","true","0","0.8","0","80_20_practice","0.2","0","","","","","","","","","",""
"22","","bandit","27","248591","0.0-18.0-9.0","08369566","wem/bandit_single","A2CYD8QD1JO0O5","gain","1","","74","J","0","img/none_selected_demo.jpg","1","0","0","0.8","0","true","0","0.8","0","80_20_practice","0.2","0","","","","","","","","","",""
"74","","bandit","28","250420","0.0-18.0-10.0","08369566","wem/bandit_single","A2CYD8QD1JO0O5","gain","1","","74","J","0","img/none_selected_demo.jpg","1","0","0","0.8","0","true","0","0.8","0","80_20_practice","0.2","0","","","","","","","","","",""
"558","","bandit","29","252734","0.0-18.0-11.0","08369566","wem/bandit_single","A2CYD8QD1JO0O5","gain","1","","74","J","0","img/none_selected_demo.jpg","0","0","1","0.8","0","true","0","0.8","0","80_20_practice","0.2","0","","","","","","","","","",""
"299","","bandit","30","254789","0.0-18.0-12.0","08369566","wem/bandit_single","A2CYD8QD1JO0O5","gain","1","","75","K","1","","0","0","1","0.2","0","true","0","0.8","0","80_20_practice","0.2","0","","","","","","","","","",""
"40","","bandit","31","256589","0.0-18.0-13.0","08369566","wem/bandit_single","A2CYD8QD1JO0O5","gain","1","","74","J","0","img/none_selected_demo.jpg","0","0","1","0.8","0","true","0","0.8","0","80_20_practice","0.2","0","","","","","","","","","",""
"106","","bandit","32","258454","0.0-18.0-14.0","08369566","wem/bandit_single","A2CYD8QD1JO0O5","gain","1","","74","J","0","img/none_selected_demo.jpg","0","0","1","0.8","0","true","0","0.8","0","80_20_practice","0.2","0","","","","","","","","","",""
"289","","bandit","33","260505","0.0-18.0-15.0","08369566","wem/bandit_single","A2CYD8QD1JO0O5","gain","1","","75","K","1","","0","0","1","0.2","0","true","0","0.8","0","80_20_practice","0.2","0","","","","","","","","","",""
"144","","bandit","34","262407","0.0-18.0-16.0","08369566","wem/bandit_single","A2CYD8QD1JO0O5","gain","1","","75","K","1","","0","0","1","0.2","0","true","0","0.8","0","80_20_practice","0.2","0","","","","","","","","","",""
"35","","bandit","35","264198","0.0-18.0-17.0","08369566","wem/bandit_single","A2CYD8QD1JO0O5","gain","1","","74","J","0","img/none_selected_demo.jpg","1","0","0","0.8","0","true","0","0.8","0","80_20_practice","0.2","0","","","","","","","","","",""
"25","","bandit","36","265983","0.0-18.0-18.0","08369566","wem/bandit_single","A2CYD8QD1JO0O5","gain","1","","74","J","0","img/none_selected_demo.jpg","1","0","0","0.8","0","true","0","0.8","0","80_20_practice","0.2","0","","","","","","","","","",""
"63","","bandit","37","267801","0.0-18.0-19.0","08369566","wem/bandit_single","A2CYD8QD1JO0O5","gain","1","","74","J","0","img/none_selected_demo.jpg","1","0","0","0.8","0","true","0","0.8","0","80_20_practice","0.2","0","","","","","","","","","",""
"3144","","text","38","271200","0.0-19.0","08369566","wem/bandit_single","A2CYD8QD1JO0O5","gain","1","32","","","","","","","","","","","","","","","","","","","","","","","","","",""
"2695","","bandit","39","275401","0.0-20.0-0.0","08369566","wem/bandit_single","A2CYD8QD1JO0O5","gain","1","","74","J","0","img/none_selected_demo.jpg","0","0","1","0","0","true","0","0","0","","0","0","","","","","","","","","",""
"12475","","text","40","288129","0.0-21.0","08369566","wem/bandit_single","A2CYD8QD1JO0O5","gain","1","32","","","","","","","","","","","","","","","","","","","","","","","","","",""
"4247","","text","41","292380","0.0-22.0","08369566","wem/bandit_single","A2CYD8QD1JO0O5","gain","1","32","","","","","","","","","","","","","","","","","","","","","","","","","",""
"3495","","text","42","295878","0.0-23.0","08369566","wem/bandit_single","A2CYD8QD1JO0O5","gain","1","32","","","","","","","","","","","","","","","","","","","","","","","","","",""
"2102","","text","43","297981","0.0-24.0","08369566","wem/bandit_single","A2CYD8QD1JO0O5","gain","1","32","","","","","","","","","","","","","","","","","","","","","","","","","",""
"6755","","text","44","304738","0.0-25.0","08369566","wem/bandit_single","A2CYD8QD1JO0O5","gain","1","32","","","","","","","","","","","","","","","","","","","","","","","","","",""
"4753","","text","45","309494","0.0-26.0","08369566","wem/bandit_single","A2CYD8QD1JO0O5","gain","1","32","","","","","","","","","","","","","","","","","","","","","","","","","",""
"5172","","text","46","314668","0.0-27.0","08369566","wem/bandit_single","A2CYD8QD1JO0O5","gain","1","32","","","","","","","","","","","","","","","","","","","","","","","","","",""
"3151","","text","47","317823","0.0-28.0","08369566","wem/bandit_single","A2CYD8QD1JO0O5","gain","1","32","","","","","","","","","","","","","","","","","","","","","","","","","",""
"8918","","text","48","326744","0.0-29.0","08369566","wem/bandit_single","A2CYD8QD1JO0O5","gain","1","32","","","","","","","","","","","","","","","","","","","","","","","","","",""
"1065","","text","49","327811","0.0-30.0","08369566","wem/bandit_single","A2CYD8QD1JO0O5","gain","1","32","","","","","","","","","","","","","","","","","","","","","","","","","",""
"3731","","text","50","331544","0.0-31.0","08369566","wem/bandit_single","A2CYD8QD1JO0O5","gain","1","32","","","","","","","","","","","","","","","","","","","","","","","","","",""
"953","","bandit","51","334005","0.0-32.0-0.0","08369566","wem/bandit_single","A2CYD8QD1JO0O5","gain","1","","72","H","0","img/none_selected.jpg","1","0","0","0.8","0","true","0","0.8","0","full_practice","0.2","0","0.6","0","0.2","0","","","","","",""
"627","","bandit","52","336389","0.0-32.0-1.0","08369566","wem/bandit_single","A2CYD8QD1JO0O5","gain","1","","74","J","1","","0","0","1","0.2","0","true","0","0.8","0","full_practice","0.2","0","0.6","0","0.2","0","","","","","",""
"423","","bandit","53","338572","0.0-32.0-2.0","08369566","wem/bandit_single","A2CYD8QD1JO0O5","gain","1","","75","K","2","","0","0","1","0.6","0","true","0","0.8","0","full_practice","0.2","0","0.6","0","0.2","0","","","","","",""
"235","","bandit","54","340564","0.0-32.0-3.0","08369566","wem/bandit_single","A2CYD8QD1JO0O5","gain","1","","76","L","3","","0","0","1","0.2","0","true","0","0.8","0","full_practice","0.2","0","0.6","0","0.2","0","","","","","",""
"128","","bandit","55","342450","0.0-32.0-4.0","08369566","wem/bandit_single","A2CYD8QD1JO0O5","gain","1","","72","H","0","img/none_selected.jpg","1","0","0","0.8","0","true","0","0.8","0","full_practice","0.2","0","0.6","0","0.2","0","","","","","",""
"70","","bandit","56","344279","0.0-32.0-5.0","08369566","wem/bandit_single","A2CYD8QD1JO0O5","gain","1","","72","H","0","img/none_selected.jpg","1","0","0","0.8","0","true","0","0.8","0","full_practice","0.2","0","0.6","0","0.2","0","","","","","",""
"83","","bandit","57","346119","0.0-32.0-6.0","08369566","wem/bandit_single","A2CYD8QD1JO0O5","gain","1","","72","H","0","img/none_selected.jpg","0","0","1","0.8","0","true","0","0.8","0","full_practice","0.2","0","0.6","0","0.2","0","","","","","",""
"57","","bandit","58","347932","0.0-32.0-7.0","08369566","wem/bandit_single","A2CYD8QD1JO0O5","gain","1","","74","J","1","","0","0","1","0.2","0","true","0","0.8","0","full_practice","0.2","0","0.6","0","0.2","0","","","","","",""
"104","","bandit","59","349794","0.0-32.0-8.0","08369566","wem/bandit_single","A2CYD8QD1JO0O5","gain","1","","75","K","2","","0","0","1","0.6","0","true","0","0.8","0","full_practice","0.2","0","0.6","0","0.2","0","","","","","",""
"505","","bandit","60","352057","0.0-32.0-9.0","08369566","wem/bandit_single","A2CYD8QD1JO0O5","gain","1","","76","L","3","","0","0","1","0.2","0","true","0","0.8","0","full_practice","0.2","0","0.6","0","0.2","0","","","","","",""
"5","","bandit","61","353825","0.0-32.0-10.0","08369566","wem/bandit_single","A2CYD8QD1JO0O5","gain","1","","72","H","0","img/none_selected.jpg","1","0","0","0.8","0","true","0","0.8","0","full_practice","0.2","0","0.6","0","0.2","0","","","","","",""
"18","","bandit","62","355601","0.0-32.0-11.0","08369566","wem/bandit_single","A2CYD8QD1JO0O5","gain","1","","72","H","0","img/none_selected.jpg","1","0","0","0.8","0","true","0","0.8","0","full_practice","0.2","0","0.6","0","0.2","0","","","","","",""
"656","","bandit","63","358015","0.0-32.0-12.0","08369566","wem/bandit_single","A2CYD8QD1JO0O5","gain","1","","74","J","1","","0","0","1","0.2","0","true","0","0.8","0","full_practice","0.2","0","0.6","0","0.2","0","","","","","",""
"272","","bandit","64","360048","0.0-32.0-13.0","08369566","wem/bandit_single","A2CYD8QD1JO0O5","gain","1","","75","K","2","","1","0","0","0.6","0","true","0","0.8","0","full_practice","0.2","0","0.6","0","0.2","0","","","","","",""
"303","","bandit","65","362112","0.0-32.0-14.0","08369566","wem/bandit_single","A2CYD8QD1JO0O5","gain","1","","76","L","3","","0","0","1","0.2","0","true","0","0.8","0","full_practice","0.2","0","0.6","0","0.2","0","","","","","",""
"1","","bandit","66","363875","0.0-32.0-15.0","08369566","wem/bandit_single","A2CYD8QD1JO0O5","gain","1","","72","H","0","img/none_selected.jpg","1","0","0","0.8","0","true","0","0.8","0","full_practice","0.2","0","0.6","0","0.2","0","","","","","",""
"100","","bandit","67","365734","0.0-32.0-16.0","08369566","wem/bandit_single","A2CYD8QD1JO0O5","gain","1","","74","J","1","","0","0","1","0.2","0","true","0","0.8","0","full_practice","0.2","0","0.6","0","0.2","0","","","","","",""
"167","","bandit","68","367665","0.0-32.0-17.0","08369566","wem/bandit_single","A2CYD8QD1JO0O5","gain","1","","75","K","2","","1","0","0","0.6","0","true","0","0.8","0","full_practice","0.2","0","0.6","0","0.2","0","","","","","",""
"204","","bandit","69","369627","0.0-32.0-18.0","08369566","wem/bandit_single","A2CYD8QD1JO0O5","gain","1","","75","K","2","","1","0","0","0.6","0","true","0","0.8","0","full_practice","0.2","0","0.6","0","0.2","0","","","","","",""
"191","","bandit","70","371579","0.0-32.0-19.0","08369566","wem/bandit_single","A2CYD8QD1JO0O5","gain","1","","76","L","3","","0","0","1","0.2","0","true","0","0.8","0","full_practice","0.2","0","0.6","0","0.2","0","","","","","",""
"2748","","text","71","374586","0.0-33.0","08369566","wem/bandit_single","A2CYD8QD1JO0O5","gain","1","32","","","","","","","","","","","","","","","","","","","","","","","","","",""
"15226","","text","72","390815","0.0-34.0","08369566","wem/bandit_single","A2CYD8QD1JO0O5","gain","1","32","","","","","","","","","","","","","","","","","","","","","","","","","",""
"4703","","text","73","395521","0.0-35.0","08369566","wem/bandit_single","A2CYD8QD1JO0O5","gain","1","32","","","","","","","","","","","","","","","","","","","","","","","","","",""
"7997","","text","74","403521","0.0-36.0","08369566","wem/bandit_single","A2CYD8QD1JO0O5","gain","1","32","","","","","","","","","","","","","","","","","","","","","","","","","",""
"6562","","text","75","410086","0.0-37.0","08369566","wem/bandit_single","A2CYD8QD1JO0O5","gain","1","32","","","","","","","","","","","","","","","","","","","","","","","","","",""
"1271","","bandit","76","412866","0.0-38.0-0.0","08369566","wem/bandit_single","A2CYD8QD1JO0O5","gain","1","","72","H","0","img/none_selected.jpg","1","0","0","0.433486002","","false","1","0.433486002","","main_expt","0.04371116513","","0.1765468105","","0.1079408374","","","","","","",""
"121","","bandit","77","414747","0.0-39.0-0.0","08369566","wem/bandit_single","A2CYD8QD1JO0O5","gain","1","","72","H","0","img/none_selected.jpg","0","0","1","0.4446307222","","false","2","0.4446307222","","main_expt","0.0204546363","","0.1569258514","","0.1605706499","","","","","","",""
"25","","bandit","78","416529","0.0-40.0-0.0","08369566","wem/bandit_single","A2CYD8QD1JO0O5","gain","1","","72","H","0","img/none_selected.jpg","1","0","0","0.4522438858","","false","3","0.4522438858","","main_expt","0.02109221713","","0.1639246388","","0.1829447669","","","","","","",""
"86","","bandit","79","418378","0.0-41.0-0.0","08369566","wem/bandit_single","A2CYD8QD1JO0O5","gain","1","","72","H","0","img/none_selected.jpg","1","0","0","0.4330109471","","false","4","0.4330109471","","main_expt","0.04448829896","","0.2130332657","","0.1756642407","","","","","","",""
"170","","bandit","80","420312","0.0-42.0-0.0","08369566","wem/bandit_single","A2CYD8QD1JO0O5","gain","1","","72","H","0","img/none_selected.jpg","0","0","1","0.4678508314","","false","5","0.4678508314","","main_expt","0.03824555068","","0.1939577492","","0.1349544936","","","","","","",""
"488","","bandit","81","422563","0.0-43.0-0.0","08369566","wem/bandit_single","A2CYD8QD1JO0O5","gain","1","","72","H","0","img/none_selected.jpg","0","0","1","0.4644602632","","false","6","0.4644602632","","main_expt","0.03028715703","","0.2419857306","","0.1356037804","","","","","","",""
"84","","bandit","82","424403","0.0-44.0-0.0","08369566","wem/bandit_single","A2CYD8QD1JO0O5","gain","1","","72","H","0","img/none_selected.jpg","0","0","1","0.4575746565","","false","7","0.4575746565","","main_expt","0.0280090558","","0.2437977828","","0.1731738011","","","","","","",""
"48","","bandit","83","426212","0.0-45.0-0.0","08369566","wem/bandit_single","A2CYD8QD1JO0O5","gain","1","","72","H","0","img/none_selected.jpg","0","0","1","0.4508833002","","false","8","0.4508833002","","main_expt","0.01994926529","","0.2910779813","","0.1697830552","","","","","","",""
"17","","bandit","84","427995","0.0-46.0-0.0","08369566","wem/bandit_single","A2CYD8QD1JO0O5","gain","1","","74","J","1","","0","0","1","0.02255652904","","false","9","0.446295775","","main_expt","0.02255652904","","0.3043628405","","0.1792782501","","","","","","",""
"442","","bandit","85","430195","0.0-47.0-0.0","08369566","wem/bandit_single","A2CYD8QD1JO0O5","gain","1","","74","J","1","","0","0","1","0.02794315976","","false","10","0.4564580261","","main_expt","0.02794315976","","0.3568141906","","0.1705688187","","","","","","",""
"69","","bandit","86","432025","0.0-48.0-0.0","08369566","wem/bandit_single","A2CYD8QD1JO0O5","gain","1","","75","K","2","","0","0","1","0.3439843329","","false","11","0.4233437492","","main_expt","0.02289966844","","0.3439843329","","0.1974022207","","","","","","",""
"71","","bandit","87","433856","0.0-49.0-0.0","08369566","wem/bandit_single","A2CYD8QD1JO0O5","gain","1","","72","H","0","img/none_selected.jpg","0","0","1","0.4129107721","","false","12","0.4129107721","","main_expt","0.01510656417","","0.2959247237","","0.1753487428","","","","","","",""
"234","","bandit","88","435847","0.0-50.0-0.0","08369566","wem/bandit_single","A2CYD8QD1JO0O5","gain","1","","76","L","3","","0","0","1","0.1858973774","","false","13","0.4188058581","","main_expt","0.01475809492","","0.2711511111","","0.1858973774","","","","","","",""
"23","","bandit","89","437628","0.0-51.0-0.0","08369566","wem/bandit_single","A2CYD8QD1JO0O5","gain","1","","75","K","2","","0","0","1","0.2351285692","","false","14","0.4542155744","","main_expt","0.00909265887","","0.2351285692","","0.1873997244","","","","","","",""
"457","","bandit","90","439840","0.0-52.0-0.0","08369566","wem/bandit_single","A2CYD8QD1JO0O5","gain","1","","72","H","0","img/none_selected.jpg","0","0","1","0.4436127815","","false","15","0.4436127815","","main_expt","0.004683339805","","0.3299180318","","0.2079034381","","","","","","",""
"192","","bandit","91","441791","0.0-53.0-0.0","08369566","wem/bandit_single","A2CYD8QD1JO0O5","gain","1","","72","H","0","img/none_selected.jpg","0","0","1","0.4255220112","","false","16","0.4255220112","","main_expt","0.007493295572","","0.3382291528","","0.2116662278","","","","","","",""
"424","","bandit","92","443974","0.0-54.0-0.0","08369566","wem/bandit_single","A2CYD8QD1JO0O5","gain","1","","72","H","0","img/none_selected.jpg","0","0","1","0.4221090449","","false","17","0.4221090449","","main_expt","0.009835384986","","0.3890963744","","0.2460799228","","","","","","",""
"260","","bandit","93","445994","0.0-55.0-0.0","08369566","wem/bandit_single","A2CYD8QD1JO0O5","gain","1","","74","J","1","","0","0","1","0.01282838009","","false","18","0.4157246332","","main_expt","0.01282838009","","0.3102907615","","0.2725156425","","","","","","",""
"32","","bandit","94","447786","0.0-56.0-0.0","08369566","wem/bandit_single","A2CYD8QD1JO0O5","gain","1","","75","K","2","","0","0","1","0.2734902963","","false","19","0.4000612909","","main_expt","0.03935122736","","0.2734902963","","0.319312936","","","","","","",""
"23","","bandit","95","449568","0.0-57.0-0.0","08369566","wem/bandit_single","A2CYD8QD1JO0O5","gain","1","","75","K","2","","1","0","0","0.2157414593","","false","20","0.4116546581","","main_expt","0.03712672215","","0.2157414593","","0.3449168397","","","","","","",""
"500","","bandit","96","451828","0.0-58.0-0.0","08369566","wem/bandit_single","A2CYD8QD1JO0O5","gain","1","","75","K","2","","0","0","1","0.2148325275","","false","21","0.4276829816","","main_expt","0.02631596187","","0.2148325275","","0.2668327531","","","","","","",""
"18","","bandit","97","453608","0.0-59.0-0.0","08369566","wem/bandit_single","A2CYD8QD1JO0O5","gain","1","","75","K","2","","0","0","1","0.1819582271","","false","22","0.3861543943","","main_expt","0.0338100911","","0.1819582271","","0.2786929748","","","","","","",""
"8","","bandit","98","455378","0.0-60.0-0.0","08369566","wem/bandit_single","A2CYD8QD1JO0O5","gain","1","","75","K","2","","0","0","1","0.1776669961","","false","23","0.3815006395","","main_expt","0.06132921526","","0.1776669961","","0.2012253143","","","","","","",""
"142","","bandit","99","457280","0.0-61.0-0.0","08369566","wem/bandit_single","A2CYD8QD1JO0O5","gain","1","","76","L","3","","0","0","1","0.1363446769","","false","24","0.4063144844","","main_expt","0.06546003458","","0.2595803745","","0.1363446769","","","","","","",""
"120","","bandit","100","459158","0.0-62.0-0.0","08369566","wem/bandit_single","A2CYD8QD1JO0O5","gain","1","","76","L","3","","0","0","1","0.1395957504","","false","25","0.3218764758","","main_expt","0.08327489459","","0.2184946748","","0.1395957504","","","","","","",""
"444","","bandit","101","461360","0.0-63.0-0.0","08369566","wem/bandit_single","A2CYD8QD1JO0O5","gain","1","","74","J","1","","0","0","1","0.06117167893","","false","26","0.3190898414","","main_expt","0.06117167893","","0.2382025465","","0.1095431569","","","","","","",""
"124","","bandit","102","463241","0.0-64.0-0.0","08369566","wem/bandit_single","A2CYD8QD1JO0O5","gain","1","","72","H","0","img/none_selected.jpg","1","0","0","0.361309168","","false","27","0.361309168","","main_expt","0.03494965278","","0.2249508913","","0.1290148999","","","","","","",""
"332","","bandit","103","465333","0.0-65.0-0.0","08369566","wem/bandit_single","A2CYD8QD1JO0O5","gain","1","","72","H","0","img/none_selected.jpg","0","0","1","0.3247985582","","false","28","0.3247985582","","main_expt","0.02964638986","","0.2388683754","","0.09304199486","","","","","","",""
"180","","bandit","104","467273","0.0-66.0-0.0","08369566","wem/bandit_single","A2CYD8QD1JO0O5","gain","1","","72","H","0","img/none_selected.jpg","1","0","0","0.3358989687","","false","29","0.3358989687","","main_expt","0.03498116837","","0.238121012","","0.1042487788","","","","","","",""
"70","","bandit","105","469103","0.0-67.0-0.0","08369566","wem/bandit_single","A2CYD8QD1JO0O5","gain","1","","72","H","0","img/none_selected.jpg","1","0","0","0.3833706669","","false","30","0.3833706669","","main_expt","0.04244048525","","0.2995264376","","0.1177759499","","","","","","",""
"154","","bandit","106","471018","0.0-68.0-0.0","08369566","wem/bandit_single","A2CYD8QD1JO0O5","gain","1","","72","H","0","img/none_selected.jpg","0","0","1","0.365606812","","false","31","0.365606812","","main_expt","0.06152315655","","0.2738636663","","0.1177925617","","","","","","",""
"44","","bandit","107","472824","0.0-69.0-0.0","08369566","wem/bandit_single","A2CYD8QD1JO0O5","gain","1","","72","H","0","img/none_selected.jpg","0","0","1","0.3376656117","","false","32","0.3376656117","","main_expt","0.04890303061","","0.3185168498","","0.08495919706","","","","","","",""
"89","","bandit","108","474676","0.0-70.0-0.0","08369566","wem/bandit_single","A2CYD8QD1JO0O5","gain","1","","75","K","2","","0","0","1","0.3160257618","","false","33","0.3632929272","","main_expt","0.06913310411","","0.3160257618","","0.09918690981","","","","","","",""
"77","","bandit","109","476513","0.0-71.0-0.0","08369566","wem/bandit_single","A2CYD8QD1JO0O5","gain","1","","72","H","0","img/none_selected.jpg","0","0","1","0.4008603673","","false","34","0.4008603673","","main_expt","0.07311713639","","0.3411570355","","0.1267106232","","","","","","",""
"486","","bandit","110","478756","0.0-72.0-0.0","08369566","wem/bandit_single","A2CYD8QD1JO0O5","gain","1","","74","J","1","","0","0","1","0.08374615962","","false","35","0.4024879816","","main_expt","0.08374615962","","0.3190481916","","0.1076928618","","","","","","",""
"114","","bandit","111","480627","0.0-73.0-0.0","08369566","wem/bandit_single","A2CYD8QD1JO0O5","gain","1","","72","H","0","img/none_selected.jpg","0","0","1","0.3740303516","","false","36","0.3740303516","","main_expt","0.08182693844","","0.3264142162","","0.1298816773","","","","","","",""
"142","","bandit","112","482529","0.0-74.0-0.0","08369566","wem/bandit_single","A2CYD8QD1JO0O5","gain","1","","76","L","3","","0","0","1","0.1459487567","","false","37","0.3728306432","","main_expt","0.1343371601","","0.3198880486","","0.1459487567","","","","","","",""
"32","","bandit","113","484318","0.0-75.0-0.0","08369566","wem/bandit_single","A2CYD8QD1JO0O5","gain","1","","76","L","3","","0","0","1","0.1339045699","","false","38","0.3805434418","","main_expt","0.155986589","","0.3683112265","","0.1339045699","","","","","","",""
"142","","bandit","114","486220","0.0-76.0-0.0","08369566","wem/bandit_single","A2CYD8QD1JO0O5","gain","1","","75","K","2","","0","0","1","0.3427238384","","false","39","0.3969568822","","main_expt","0.1477757124","","0.3427238384","","0.1345127174","","","","","","",""
"332","","bandit","115","488310","0.0-77.0-0.0","08369566","wem/bandit_single","A2CYD8QD1JO0O5","gain","1","","72","H","0","img/none_selected.jpg","1","0","0","0.3988554294","","false","40","0.3988554294","","main_expt","0.1673850924","","0.3218453083","","0.1283460502","","","","","","",""
"33","","bandit","116","490102","0.0-78.0-0.0","08369566","wem/bandit_single","A2CYD8QD1JO0O5","gain","1","","72","H","0","img/none_selected.jpg","0","0","1","0.4510691137","","false","41","0.4510691137","","main_expt","0.1798739011","","0.3085515908","","0.120913883","","","","","","",""
"222","","bandit","117","492081","0.0-79.0-0.0","08369566","wem/bandit_single","A2CYD8QD1JO0O5","gain","1","","74","J","1","","0","0","1","0.1559165864","","false","42","0.4575220824","","main_expt","0.1559165864","","0.3072415044","","0.1045942129","","","","","","",""
"192","","bandit","118","494035","0.0-80.0-0.0","08369566","wem/bandit_single","A2CYD8QD1JO0O5","gain","1","","72","H","0","img/none_selected.jpg","0","0","1","0.4425049573","","false","43","0.4425049573","","main_expt","0.1058033922","","0.272500382","","0.09432917568","","","","","","",""
"38","","bandit","119","495831","0.0-81.0-0.0","08369566","wem/bandit_single","A2CYD8QD1JO0O5","gain","1","","74","J","1","","0","0","1","0.08489334424","","false","44","0.4232077065","","main_expt","0.08489334424","","0.2865836788","","0.07221407183","","","","","","",""
"393","","bandit","120","497986","0.0-82.0-0.0","08369566","wem/bandit_single","A2CYD8QD1JO0O5","gain","1","","75","K","2","","0","0","1","0.2991622886","","false","45","0.4098430077","","main_expt","0.05905190464","","0.2991622886","","0.05666738762","","","","","","",""
"111","","bandit","121","499855","0.0-83.0-0.0","08369566","wem/bandit_single","A2CYD8QD1JO0O5","gain","1","","72","H","0","img/none_selected.jpg","1","0","0","0.4038708701","","false","46","0.4038708701","","main_expt","0.06331323714","","0.2531917612","","0.03432969329","","","","","","",""
"272","","bandit","122","501887","0.0-84.0-0.0","08369566","wem/bandit_single","A2CYD8QD1JO0O5","gain","1","","72","H","0","img/none_selected.jpg","0","0","1","0.4162646915","","false","47","0.4162646915","","main_expt","0.05657329797","","0.174020607","","0.03955917442","","","","","","",""
"190","","bandit","123","503837","0.0-85.0-0.0","08369566","wem/bandit_single","A2CYD8QD1JO0O5","gain","1","","76","L","3","","0","0","1","0.02792503423","","false","48","0.4188900116","","main_expt","0.04718629669","","0.1890064997","","0.02792503423","","","","","","",""
"64","","bandit","124","505658","0.0-86.0-0.0","08369566","wem/bandit_single","A2CYD8QD1JO0O5","gain","1","","75","K","2","","0","0","1","0.218442061","","false","49","0.4566014176","","main_expt","0.03289244517","","0.218442061","","0.03726959289","","","","","","",""
"543","","bandit","125","507960","0.0-87.0-0.0","08369566","wem/bandit_single","A2CYD8QD1JO0O5","gain","1","","76","L","3","","0","0","1","0.03358305353","","false","50","0.4447058567","","main_expt","0.03266450512","","0.1635183119","","0.03358305353","","","","","","",""
"292","","bandit","126","510011","0.0-88.0-0.0","08369566","wem/bandit_single","A2CYD8QD1JO0O5","gain","1","","75","K","2","","0","0","1","0.1366577914","","false","51","0.4304926469","","main_expt","0.03026904774","","0.1366577914","","0.03344521258","","","","","","",""
"51","","bandit","127","511820","0.0-89.0-0.0","08369566","wem/bandit_single","A2CYD8QD1JO0O5","gain","1","","75","K","2","","1","0","0","0.1797398031","","false","52","0.4221781581","","main_expt","0.03251993274","","0.1797398031","","0.04269272659","","","","","","",""
"95","","bandit","128","513672","0.0-90.0-0.0","08369566","wem/bandit_single","A2CYD8QD1JO0O5","gain","1","","75","K","2","","0","0","1","0.2893410322","","false","53","0.3687481665","","main_expt","0.03960602941","","0.2893410322","","0.023815337","","","","","","",""
"332","","bandit","129","515763","0.0-91.0-0.0","08369566","wem/bandit_single","A2CYD8QD1JO0O5","gain","1","","72","H","0","img/none_selected.jpg","0","0","1","0.3458934235","","false","54","0.3458934235","","main_expt","0.05707063203","","0.2985665456","","0.02455785224","","","","","","",""
"285","","bandit","130","517806","0.0-92.0-0.0","08369566","wem/bandit_single","A2CYD8QD1JO0O5","gain","1","","72","H","0","img/none_selected.jpg","1","0","0","0.4042580408","","false","55","0.4042580408","","main_expt","0.04044117434","","0.3336948264","","0.03998391886","","","","","","",""
"198","","bandit","131","519775","0.0-93.0-0.0","08369566","wem/bandit_single","A2CYD8QD1JO0O5","gain","1","","72","H","0","img/none_selected.jpg","1","0","0","0.4471112694","","false","56","0.4471112694","","main_expt","0.05627119328","","0.282194417","","0.06538112884","","","","","","",""
"1","","bandit","132","521536","0.0-94.0-0.0","08369566","wem/bandit_single","A2CYD8QD1JO0O5","gain","1","","72","H","0","img/none_selected.jpg","0","0","1","0.4640351361","","false","57","0.4640351361","","main_expt","0.06172895681","","0.3239389597","","0.08662171517","","","","","","",""
"391","","bandit","133","523685","0.0-95.0-0.0","08369566","wem/bandit_single","A2CYD8QD1JO0O5","gain","1","","75","K","2","","1","0","0","0.3114288274","","false","58","0.4654795878","","main_expt","0.0708730922","","0.3114288274","","0.08191290536","","","","","","",""
"354","","bandit","134","525802","0.0-96.0-0.0","08369566","wem/bandit_single","A2CYD8QD1JO0O5","gain","1","","75","K","2","","0","0","1","0.3090129124","","false","59","0.477644797","","main_expt","0.06307994893","","0.3090129124","","0.06359390603","","","","","","",""
"99","","bandit","135","527659","0.0-97.0-0.0","08369566","wem/bandit_single","A2CYD8QD1JO0O5","gain","1","","72","H","0","img/none_selected.jpg","0","0","1","0.4637057102","","false","60","0.4637057102","","main_expt","0.06865221942","","0.3273240357","","0.1113565871","","","","","","",""
"342","","bandit","136","529760","0.0-98.0-0.0","08369566","wem/bandit_single","A2CYD8QD1JO0O5","gain","1","","72","H","0","img/none_selected.jpg","1","0","0","0.4575353452","","false","61","0.4575353452","","main_expt","0.04710261487","","0.333760802","","0.1224908949","","","","","","",""
"157","","bandit","137","531675","0.0-99.0-0.0","08369566","wem/bandit_single","A2CYD8QD1JO0O5","gain","1","","72","H","0","img/none_selected.jpg","0","0","1","0.4511824808","","false","62","0.4511824808","","main_expt","0.04180279512","","0.3721083552","","0.1011510181","","","","","","",""
"137","","bandit","138","533574","0.0-100.0-0.0","08369566","wem/bandit_single","A2CYD8QD1JO0O5","gain","1","","75","K","2","","0","0","1","0.3366911892","","false","63","0.4522744543","","main_expt","0.04669584184","","0.3366911892","","0.1241823521","","","","","","",""
"69","","bandit","139","535402","0.0-101.0-0.0","08369566","wem/bandit_single","A2CYD8QD1JO0O5","gain","1","","72","H","0","img/none_selected.jpg","1","0","0","0.4534383651","","false","64","0.4534383651","","main_expt","0.04699929359","","0.352845708","","0.1277445844","","","","","","",""
"47","","bandit","140","537212","0.0-102.0-0.0","08369566","wem/bandit_single","A2CYD8QD1JO0O5","gain","1","","72","H","0","img/none_selected.jpg","1","0","0","0.4578128414","","false","65","0.4578128414","","main_expt","0.06422912444","","0.3797865956","","0.1594820305","","","","","","",""
"2","","bandit","141","538974","0.0-103.0-0.0","08369566","wem/bandit_single","A2CYD8QD1JO0O5","gain","1","","72","H","0","img/none_selected.jpg","1","0","0","0.4675149648","","false","66","0.4675149648","","main_expt","0.09107067683","","0.3776123686","","0.1902728197","","","","","","",""
"92","","bandit","142","540829","0.0-104.0-0.0","08369566","wem/bandit_single","A2CYD8QD1JO0O5","gain","1","","72","H","0","img/none_selected.jpg","0","0","1","0.4801185054","","false","67","0.4801185054","","main_expt","0.1295134299","","0.3520302909","","0.1915604568","","","","","","",""
"22","","bandit","143","542612","0.0-105.0-0.0","08369566","wem/bandit_single","A2CYD8QD1JO0O5","gain","1","","75","K","2","","1","0","0","0.3563070861","","false","68","0.4853911876","","main_expt","0.1501953896","","0.3563070861","","0.2292904293","","","","","","",""
"413","","bandit","144","544782","0.0-106.0-0.0","08369566","wem/bandit_single","A2CYD8QD1JO0O5","gain","1","","75","K","2","","0","0","1","0.3773129781","","false","69","0.45952887","","main_expt","0.2120393587","","0.3773129781","","0.2982444272","","","","","","",""
"151","","bandit","145","546693","0.0-107.0-0.0","08369566","wem/bandit_single","A2CYD8QD1JO0O5","gain","1","","74","J","1","","0","0","1","0.2046372205","","false","70","0.4519788387","","main_expt","0.2046372205","","0.3620092878","","0.2038928517","","","","","","",""
"16","","bandit","146","548467","0.0-108.0-0.0","08369566","wem/bandit_single","A2CYD8QD1JO0O5","gain","1","","76","L","3","","1","0","0","0.2470144531","","false","71","0.4644284496","","main_expt","0.1711657315","","0.3689610789","","0.2470144531","","","","","","",""
"138","","bandit","147","550363","0.0-109.0-0.0","08369566","wem/bandit_single","A2CYD8QD1JO0O5","gain","1","","72","H","0","img/none_selected.jpg","0","0","1","0.4275080271","","false","72","0.4275080271","","main_expt","0.1804367846","","0.335535794","","0.2339224101","","","","","","",""
"52","","bandit","148","552173","0.0-110.0-0.0","08369566","wem/bandit_single","A2CYD8QD1JO0O5","gain","1","","76","L","3","","1","0","0","0.198403553","","false","73","0.4333248441","","main_expt","0.1582310148","","0.3669127126","","0.198403553","","","","","","",""
"14","","bandit","149","553947","0.0-111.0-0.0","08369566","wem/bandit_single","A2CYD8QD1JO0O5","gain","1","","76","L","3","","0","0","1","0.2162510441","","false","74","0.4272577829","","main_expt","0.1300952354","","0.3360165716","","0.2162510441","","","","","","",""
"54","","bandit","150","555763","0.0-112.0-0.0","08369566","wem/bandit_single","A2CYD8QD1JO0O5","gain","1","","75","K","2","","0","0","1","0.3379177146","","false","75","0.353629049","","main_expt","0.1414689969","","0.3379177146","","0.2467290531","","","","","","",""
"101","","bandit","151","557623","0.0-113.0-0.0","08369566","wem/bandit_single","A2CYD8QD1JO0O5","gain","1","","72","H","0","img/none_selected.jpg","1","0","0","0.3526453175","","false","76","0.3526453175","","main_expt","0.1315789974","","0.3489784935","","0.2199510863","","","","","","",""
"25","","bandit","152","559405","0.0-114.0-0.0","08369566","wem/bandit_single","A2CYD8QD1JO0O5","gain","1","","72","H","0","img/none_selected.jpg","1","0","0","0.397337216","","false","77","0.397337216","","main_expt","0.1054244057","","0.2843927136","","0.1600424727","","","","","","",""
"29","","bandit","153","561192","0.0-115.0-0.0","08369566","wem/bandit_single","A2CYD8QD1JO0O5","gain","1","","72","H","0","img/none_selected.jpg","0","0","1","0.3747850168","","false","78","0.3747850168","","main_expt","0.1028875903","","0.2585585406","","0.1366877547","","","","","","",""
"3064","","bandit","154","566015","0.0-116.0-0.0","08369566","wem/bandit_single","A2CYD8QD1JO0O5","gain","1","","75","K","2","","0","0","1","0.2211992803","","false","79","0.3500135026","","main_expt","0.1010795136","","0.2211992803","","0.1608027171","","","","","","",""
"601","","bandit","155","568380","0.0-117.0-0.0","08369566","wem/bandit_single","A2CYD8QD1JO0O5","gain","1","","76","L","3","","0","0","1","0.2004121585","","false","80","0.3362224365","","main_expt","0.09661145037","","0.1670678668","","0.2004121585","","","","","","",""
"95","","bandit","156","570233","0.0-118.0-0.0","08369566","wem/bandit_single","A2CYD8QD1JO0O5","gain","1","","72","H","0","img/none_selected.jpg","0","0","1","0.3626400229","","false","81","0.3626400229","","main_expt","0.06079528701","","0.1536487801","","0.2100463009","","","","","","",""
"120","","bandit","157","572111","0.0-119.0-0.0","08369566","wem/bandit_single","A2CYD8QD1JO0O5","gain","1","","72","H","0","img/none_selected.jpg","0","0","1","0.3433004166","","false","82","0.3433004166","","main_expt","0.0561923849","","0.164055667","","0.2313995655","","","","","","",""
"30","","bandit","158","573900","0.0-120.0-0.0","08369566","wem/bandit_single","A2CYD8QD1JO0O5","gain","1","","74","J","1","","0","0","1","0.05471979201","","false","83","0.3564809269","","main_expt","0.05471979201","","0.1795096781","","0.1805974068","","","","","","",""
"80","","bandit","159","575740","0.0-121.0-0.0","08369566","wem/bandit_single","A2CYD8QD1JO0O5","gain","1","","72","H","0","img/none_selected.jpg","0","0","1","0.3403656385","","false","84","0.3403656385","","main_expt","0.04961315052","","0.1568762326","","0.1351257884","","","","","","",""
"534","","bandit","160","578034","0.0-122.0-0.0","08369566","wem/bandit_single","A2CYD8QD1JO0O5","gain","1","","75","K","2","","0","0","1","0.1857208284","","false","85","0.3009252634","","main_expt","0.05195310968","","0.1857208284","","0.1372280885","","","","","","",""
"18","","bandit","161","579817","0.0-123.0-0.0","08369566","wem/bandit_single","A2CYD8QD1JO0O5","gain","1","","75","K","2","","0","0","1","0.2180329602","","false","86","0.3067316121","","main_expt","0.05385113756","","0.2180329602","","0.1685840628","","","","","","",""
"267","","bandit","162","581845","0.0-124.0-0.0","08369566","wem/bandit_single","A2CYD8QD1JO0O5","gain","1","","75","K","2","","0","0","1","0.1893737279","","false","87","0.3073916088","","main_expt","0.08202519069","","0.1893737279","","0.1654340797","","","","","","",""
"132","","bandit","163","583739","0.0-125.0-0.0","08369566","wem/bandit_single","A2CYD8QD1JO0O5","gain","1","","76","L","3","","0","0","1","0.1870328522","","false","88","0.301504441","","main_expt","0.04873944257","","0.2309201776","","0.1870328522","","","","","","",""
"41","","bandit","164","585540","0.0-126.0-0.0","08369566","wem/bandit_single","A2CYD8QD1JO0O5","gain","1","","76","L","3","","0","0","1","0.1786415591","","false","89","0.3324072184","","main_expt","0.05553778571","","0.2368651839","","0.1786415591","","","","","","",""
"47","","bandit","165","587347","0.0-127.0-0.0","08369566","wem/bandit_single","A2CYD8QD1JO0O5","gain","1","","75","K","2","","0","0","1","0.2459093935","","false","90","0.3245139686","","main_expt","0.04980790846","","0.2459093935","","0.2293974223","","","","","","",""
"38","","bandit","166","589146","0.0-128.0-0.0","08369566","wem/bandit_single","A2CYD8QD1JO0O5","gain","1","","75","K","2","","0","0","1","0.2371609774","","false","91","0.3310751299","","main_expt","0.05804880768","","0.2371609774","","0.2407797963","","","","","","",""
"1","","bandit","167","590908","0.0-129.0-0.0","08369566","wem/bandit_single","A2CYD8QD1JO0O5","gain","1","","75","K","2","","0","0","1","0.260478489","","false","92","0.3717444616","","main_expt","0.0614883172","","0.260478489","","0.2337544695","","","","","","",""
"23","","bandit","168","592687","0.0-130.0-0.0","08369566","wem/bandit_single","A2CYD8QD1JO0O5","gain","1","","72","H","0","img/none_selected.jpg","0","0","1","0.3846532122","","false","93","0.3846532122","","main_expt","0.0764333552","","0.2595992258","","0.2589688886","","","","","","",""
"571","","bandit","169","595020","0.0-131.0-0.0","08369566","wem/bandit_single","A2CYD8QD1JO0O5","gain","1","","72","H","0","img/none_selected.jpg","0","0","1","0.4017211595","","false","94","0.4017211595","","main_expt","0.1280824273","","0.206568391","","0.2699529923","","","","","","",""
"222","","bandit","170","597001","0.0-132.0-0.0","08369566","wem/bandit_single","A2CYD8QD1JO0O5","gain","1","","75","K","2","","1","0","0","0.1846794781","","false","95","0.3736639641","","main_expt","0.1191245721","","0.1846794781","","0.2626559999","","","","","","",""
"50","","bandit","171","598820","0.0-133.0-0.0","08369566","wem/bandit_single","A2CYD8QD1JO0O5","gain","1","","75","K","2","","1","0","0","0.2484851932","","false","96","0.3220453652","","main_expt","0.08526153109","","0.2484851932","","0.2196428224","","","","","","",""
"181","","bandit","172","600760","0.0-134.0-0.0","08369566","wem/bandit_single","A2CYD8QD1JO0O5","gain","1","","72","H","0","img/none_selected.jpg","0","0","1","0.2964534367","","false","97","0.2964534367","","main_expt","0.0775518538","","0.198145661","","0.1922289922","","","","","","",""
"294","","bandit","173","602815","0.0-135.0-0.0","08369566","wem/bandit_single","A2CYD8QD1JO0O5","gain","1","","72","H","0","img/none_selected.jpg","1","0","0","0.3388366936","","false","98","0.3388366936","","main_expt","0.08824897118","","0.1738253929","","0.2328023708","","","","","","",""
"73","","bandit","174","604651","0.0-136.0-0.0","08369566","wem/bandit_single","A2CYD8QD1JO0O5","gain","1","","72","H","0","img/none_selected.jpg","1","0","0","0.4233536788","","false","99","0.4233536788","","main_expt","0.08912321317","","0.1261523865","","0.2606341713","","","","","","",""
"52","","bandit","175","606461","0.0-137.0-0.0","08369566","wem/bandit_single","A2CYD8QD1JO0O5","gain","1","","72","H","0","img/none_selected.jpg","0","0","1","0.3799029244","","false","100","0.3799029244","","main_expt","0.1217067293","","0.1368684177","","0.310387162","","","","","","",""
"574","","bandit","176","608795","0.0-138.0-0.0","08369566","wem/bandit_single","A2CYD8QD1JO0O5","gain","1","","75","K","2","","0","0","1","0.1262970555","","false","101","0.3644029447","","main_expt","0.08537200695","","0.1262970555","","0.3802628165","","","","","","",""
"282","","bandit","177","610837","0.0-139.0-0.0","08369566","wem/bandit_single","A2CYD8QD1JO0O5","gain","1","","76","L","3","","1","0","0","0.4133848668","","false","102","0.3414838768","","main_expt","0.09606980913","","0.1022564356","","0.4133848668","","","","","","",""
"71","","bandit","178","612668","0.0-140.0-0.0","08369566","wem/bandit_single","A2CYD8QD1JO0O5","gain","1","","76","L","3","","0","0","1","0.4352089555","","false","103","0.3691073091","","main_expt","0.09968925047","","0.07046703442","","0.4352089555","","","","","","",""
"123","","bandit","179","614550","0.0-141.0-0.0","08369566","wem/bandit_single","A2CYD8QD1JO0O5","gain","1","","75","K","2","","0","0","1","0.08582175226","","false","104","0.3386210986","","main_expt","0.1070137741","","0.08582175226","","0.4248252031","","","","","","",""
"98","","bandit","180","616408","0.0-142.0-0.0","08369566","wem/bandit_single","A2CYD8QD1JO0O5","gain","1","","72","H","0","img/none_selected.jpg","1","0","0","0.3517858304","","false","105","0.3517858304","","main_expt","0.1086060941","","0.08910626196","","0.4382512542","","","","","","",""
"12","","bandit","181","618178","0.0-143.0-0.0","08369566","wem/bandit_single","A2CYD8QD1JO0O5","gain","1","","72","H","0","img/none_selected.jpg","0","0","1","0.4016578568","","false","106","0.4016578568","","main_expt","0.1006724549","","0.09380004764","","0.4551412652","","","","","","",""
"177","","bandit","182","620118","0.0-144.0-0.0","08369566","wem/bandit_single","A2CYD8QD1JO0O5","gain","1","","74","J","1","","0","0","1","0.07769839914","","false","107","0.3951748439","","main_expt","0.07769839914","","0.08916311959","","0.4481373055","","","","","","",""
"64","","bandit","183","621941","0.0-145.0-0.0","08369566","wem/bandit_single","A2CYD8QD1JO0O5","gain","1","","75","K","2","","0","0","1","0.1635033392","","false","108","0.3933810371","","main_expt","0.09470950607","","0.1635033392","","0.4611843773","","","","","","",""
"199","","bandit","184","623910","0.0-146.0-0.0","08369566","wem/bandit_single","A2CYD8QD1JO0O5","gain","1","","72","H","0","img/none_selected.jpg","0","0","1","0.3961603237","","false","109","0.3961603237","","main_expt","0.1117426234","","0.1923408453","","0.416280782","","","","","","",""
"134","","bandit","185","625807","0.0-147.0-0.0","08369566","wem/bandit_single","A2CYD8QD1JO0O5","gain","1","","76","L","3","","0","0","1","0.3959176693","","false","110","0.3933476799","","main_expt","0.1190643529","","0.1668397223","","0.3959176693","","","","","","",""
"117","","bandit","186","627682","0.0-148.0-0.0","08369566","wem/bandit_single","A2CYD8QD1JO0O5","gain","1","","75","K","2","","0","0","1","0.1254506171","","false","111","0.3953313537","","main_expt","0.1605091549","","0.1254506171","","0.3881072513","","","","","","",""
"80","","bandit","187","629523","0.0-149.0-0.0","08369566","wem/bandit_single","A2CYD8QD1JO0O5","gain","1","","75","K","2","","0","0","1","0.1596839241","","false","112","0.3398422341","","main_expt","0.1531505469","","0.1596839241","","0.3430735849","","","","","","",""
"491","","bandit","188","631778","0.0-150.0-0.0","08369566","wem/bandit_single","A2CYD8QD1JO0O5","gain","1","","74","J","1","","0","0","1","0.1796188848","","false","113","0.375538402","","main_expt","0.1796188848","","0.1986187203","","0.3036143476","","","","","","",""
"434","","bandit","189","633974","0.0-151.0-0.0","08369566","wem/bandit_single","A2CYD8QD1JO0O5","gain","1","","72","H","0","img/none_selected.jpg","0","0","1","0.3629483147","","false","114","0.3629483147","","main_expt","0.1820080726","","0.2334514198","","0.3581708668","","","","","","",""
"74","","bandit","190","635812","0.0-152.0-0.0","08369566","wem/bandit_single","A2CYD8QD1JO0O5","gain","1","","72","H","0","img/none_selected.jpg","1","0","0","0.2969550108","","false","115","0.2969550108","","main_expt","0.2050936175","","0.1892672839","","0.2948471219","","","","","","",""
"137","","bandit","191","637712","0.0-153.0-0.0","08369566","wem/bandit_single","A2CYD8QD1JO0O5","gain","1","","72","H","0","img/none_selected.jpg","1","0","0","0.260261953","","false","116","0.260261953","","main_expt","0.2071503316","","0.1507180646","","0.2711132382","","","","","","",""
"90","","bandit","192","639562","0.0-154.0-0.0","08369566","wem/bandit_single","A2CYD8QD1JO0O5","gain","1","","76","L","3","","0","0","1","0.3124997295","","false","117","0.2626326191","","main_expt","0.2359882763","","0.1830546279","","0.3124997295","","","","","","",""
"114","","bandit","193","641435","0.0-155.0-0.0","08369566","wem/bandit_single","A2CYD8QD1JO0O5","gain","1","","72","H","0","img/none_selected.jpg","0","0","1","0.2933310536","","false","118","0.2933310536","","main_expt","0.2388261631","","0.1415506149","","0.3888019654","","","","","","",""
"218","","bandit","194","643414","0.0-156.0-0.0","08369566","wem/bandit_single","A2CYD8QD1JO0O5","gain","1","","75","K","2","","0","0","1","0.1814909568","","false","119","0.2469992957","","main_expt","0.2470137322","","0.1814909568","","0.3695751837","","","","","","",""
"493","","bandit","195","645671","0.0-157.0-0.0","08369566","wem/bandit_single","A2CYD8QD1JO0O5","gain","1","","75","K","2","","0","0","1","0.1900691043","","false","120","0.2186909282","","main_expt","0.209676098","","0.1900691043","","0.3471196364","","","","","","",""
"130","","bandit","196","647560","0.0-158.0-0.0","08369566","wem/bandit_single","A2CYD8QD1JO0O5","gain","1","","72","H","0","img/none_selected.jpg","1","0","0","0.1915374776","","false","121","0.1915374776","","main_expt","0.2058519679","","0.2002257321","","0.3164400491","","","","","","",""
"31","","bandit","197","649349","0.0-159.0-0.0","08369566","wem/bandit_single","A2CYD8QD1JO0O5","gain","1","","72","H","0","img/none_selected.jpg","0","0","1","0.1666700693","","false","122","0.1666700693","","main_expt","0.1409467191","","0.2000360786","","0.3565888941","","","","","","",""
"151","","bandit","198","651261","0.0-160.0-0.0","08369566","wem/bandit_single","A2CYD8QD1JO0O5","gain","1","","75","K","2","","0","0","1","0.1656706666","","false","123","0.1779758636","","main_expt","0.08785727187","","0.1656706666","","0.3293983066","","","","","","",""
"140","","bandit","199","653162","0.0-161.0-0.0","08369566","wem/bandit_single","A2CYD8QD1JO0O5","gain","1","","72","H","0","img/none_selected.jpg","1","0","0","0.2483730269","","false","124","0.2483730269","","main_expt","0.1153756664","","0.2433115295","","0.3202360925","","","","","","",""
"92","","bandit","200","655011","0.0-162.0-0.0","08369566","wem/bandit_single","A2CYD8QD1JO0O5","gain","1","","72","H","0","img/none_selected.jpg","1","0","0","0.2274485556","","false","125","0.2274485556","","main_expt","0.1211147435","","0.1810024247","","0.3478690395","","","","","","",""
"92","","bandit","201","656862","0.0-163.0-0.0","08369566","wem/bandit_single","A2CYD8QD1JO0O5","gain","1","","75","K","2","","1","0","0","0.2138299762","","false","126","0.2506805994","","main_expt","0.1434737457","","0.2138299762","","0.3312811416","","","","","","",""
"56","","bandit","202","658675","0.0-164.0-0.0","08369566","wem/bandit_single","A2CYD8QD1JO0O5","gain","1","","72","H","0","img/none_selected.jpg","0","0","1","0.2520497492","","false","127","0.2520497492","","main_expt","0.1970801631","","0.1993304114","","0.2641060438","","","","","","",""
"603","","bandit","203","661040","0.0-165.0-0.0","08369566","wem/bandit_single","A2CYD8QD1JO0O5","gain","1","","72","H","0","img/none_selected.jpg","0","0","1","0.1948091286","","false","128","0.1948091286","","main_expt","0.2891253811","","0.2602773644","","0.2239657692","","","","","","",""
"17","","bandit","204","662817","0.0-166.0-0.0","08369566","wem/bandit_single","A2CYD8QD1JO0O5","gain","1","","75","K","2","","0","0","1","0.2960784606","","false","129","0.1749799719","","main_expt","0.2389970352","","0.2960784606","","0.2243581634","","","","","","",""
"250","","bandit","205","664830","0.0-167.0-0.0","08369566","wem/bandit_single","A2CYD8QD1JO0O5","gain","1","","74","J","1","","0","0","1","0.2613596901","","false","130","0.1950546205","","main_expt","0.2613596901","","0.2720271615","","0.2215765871","","","","","","",""
"126","","bandit","206","666731","0.0-168.0-0.0","08369566","wem/bandit_single","A2CYD8QD1JO0O5","gain","1","","76","L","3","","0","0","1","0.1796651873","","false","131","0.2501377387","","main_expt","0.2254289723","","0.2403459828","","0.1796651873","","","","","","",""
"96","","bandit","207","668591","0.0-169.0-0.0","08369566","wem/bandit_single","A2CYD8QD1JO0O5","gain","1","","72","H","0","img/none_selected.jpg","1","0","0","0.2275015869","","false","132","0.2275015869","","main_expt","0.2759434303","","0.2261584059","","0.1946412172","","","","","","",""
"120","","bandit","208","670474","0.0-170.0-0.0","08369566","wem/bandit_single","A2CYD8QD1JO0O5","gain","1","","75","K","2","","0","0","1","0.225512635","","false","133","0.1961271051","","main_expt","0.3153186182","","0.225512635","","0.2390261597","","","","","","",""
"110","","bandit","209","672348","0.0-171.0-0.0","08369566","wem/bandit_single","A2CYD8QD1JO0O5","gain","1","","72","H","0","img/none_selected.jpg","0","0","1","0.2508816485","","false","134","0.2508816485","","main_expt","0.2950667763","","0.2119287539","","0.227958871","","","","","","",""
"122","","bandit","210","674235","0.0-172.0-0.0","08369566","wem/bandit_single","A2CYD8QD1JO0O5","gain","1","","72","H","0","img/none_selected.jpg","0","0","1","0.3394706536","","false","135","0.3394706536","","main_expt","0.3307223606","","0.1980603764","","0.2312014448","","","","","","",""
"40","","bandit","211","676036","0.0-173.0-0.0","08369566","wem/bandit_single","A2CYD8QD1JO0O5","gain","1","","72","H","0","img/none_selected.jpg","0","0","1","0.2837829406","","false","136","0.2837829406","","main_expt","0.3298223854","","0.2325476757","","0.27599984","","","","","","",""
"359","","bandit","212","678158","0.0-174.0-0.0","08369566","wem/bandit_single","A2CYD8QD1JO0O5","gain","1","","75","K","2","","1","0","0","0.2334264213","","false","137","0.3024244849","","main_expt","0.3330531331","","0.2334264213","","0.2313694212","","","","","","",""
"9","","bandit","213","679927","0.0-175.0-0.0","08369566","wem/bandit_single","A2CYD8QD1JO0O5","gain","1","","75","K","2","","1","0","0","0.3107735177","","false","138","0.3473265679","","main_expt","0.292929501","","0.3107735177","","0.1816115857","","","","","","",""
"202","","bandit","214","681889","0.0-176.0-0.0","08369566","wem/bandit_single","A2CYD8QD1JO0O5","gain","1","","72","H","0","img/none_selected.jpg","0","0","1","0.2828336224","","false","139","0.2828336224","","main_expt","0.2849421758","","0.3374098654","","0.1658496667","","","","","","",""
"251","","bandit","215","683901","0.0-177.0-0.0","08369566","wem/bandit_single","A2CYD8QD1JO0O5","gain","1","","76","L","3","","0","0","1","0.1644365985","","false","140","0.3238397914","","main_expt","0.3149573531","","0.3401298673","","0.1644365985","","","","","","",""
"396","","bandit","216","686055","0.0-178.0-0.0","08369566","wem/bandit_single","A2CYD8QD1JO0O5","gain","1","","74","J","1","","1","0","0","0.2937847178","","false","141","0.3490905252","","main_expt","0.2937847178","","0.363539884","","0.16055167","","","","","","",""
"91","","bandit","217","687907","0.0-179.0-0.0","08369566","wem/bandit_single","A2CYD8QD1JO0O5","gain","1","","72","H","0","img/none_selected.jpg","0","0","1","0.337853111","","false","142","0.337853111","","main_expt","0.2695919138","","0.3207651517","","0.1426499966","","","","","","",""
"1165","","bandit","218","690834","0.0-180.0-0.0","08369566","wem/bandit_single","A2CYD8QD1JO0O5","gain","1","","72","H","0","img/none_selected.jpg","1","0","0","0.3475703167","","false","143","0.3475703167","","main_expt","0.206179854","","0.2976941359","","0.1133276474","","","","","","",""
"51","","bandit","219","692647","0.0-181.0-0.0","08369566","wem/bandit_single","A2CYD8QD1JO0O5","gain","1","","75","K","2","","1","0","0","0.2405576463","","false","144","0.3809945211","","main_expt","0.2123329462","","0.2405576463","","0.1351054788","","","","","","",""
"8","","bandit","220","694415","0.0-182.0-0.0","08369566","wem/bandit_single","A2CYD8QD1JO0O5","gain","1","","72","H","0","img/none_selected.jpg","0","0","1","0.3842622547","","false","145","0.3842622547","","main_expt","0.2144195617","","0.2513929943","","0.1703546958","","","","","","",""
"0","","bandit","221","696176","0.0-183.0-0.0","08369566","wem/bandit_single","A2CYD8QD1JO0O5","gain","1","","75","K","2","","1","0","0","0.2665850657","","false","146","0.4068715463","","main_expt","0.2264269311","","0.2665850657","","0.1382352341","","","","","","",""
"276","","bandit","222","698218","0.0-184.0-0.0","08369566","wem/bandit_single","A2CYD8QD1JO0O5","gain","1","","72","H","0","img/none_selected.jpg","0","0","1","0.3690267696","","false","147","0.3690267696","","main_expt","0.2458089499","","0.2742171136","","0.1111211324","","","","","","",""
"27","","bandit","223","700010","0.0-185.0-0.0","08369566","wem/bandit_single","A2CYD8QD1JO0O5","gain","1","","75","K","2","","0","0","1","0.2504516377","","false","148","0.3999465919","","main_expt","0.2581131455","","0.2504516377","","0.1046256567","","","","","","",""
"299","","bandit","224","702073","0.0-186.0-0.0","08369566","wem/bandit_single","A2CYD8QD1JO0O5","gain","1","","76","L","3","","0","0","1","0.09450025474","","false","149","0.3823047489","","main_expt","0.2055420423","","0.2749888299","","0.09450025474","","","","","","",""
"145","","bandit","225","703978","0.0-187.0-0.0","08369566","wem/bandit_single","A2CYD8QD1JO0O5","gain","1","","74","J","1","","0","0","1","0.2196547661","","false","150","0.3970301866","","main_expt","0.2196547661","","0.2199302859","","0.08682851814","","","","","","",""
"24","","bandit","226","705763","0.0-188.0-0.0","08369566","wem/bandit_single","A2CYD8QD1JO0O5","gain","1","","72","H","0","img/none_selected.jpg","0","0","1","0.4141828336","","false","151","0.4141828336","","main_expt","0.2311854424","","0.228921305","","0.0775356828","","","","","","",""
"98","","bandit","227","707624","0.0-189.0-0.0","08369566","wem/bandit_single","A2CYD8QD1JO0O5","gain","1","","72","H","0","img/none_selected.jpg","1","0","0","0.4233092002","","false","152","0.4233092002","","main_expt","0.2692750042","","0.1858313389","","0.08719832593","","","","","","",""
"304","","bandit","228","709686","0.0-190.0-0.0","08369566","wem/bandit_single","A2CYD8QD1JO0O5","gain","1","","75","K","2","","1","0","0","0.2253380596","","false","153","0.3961827626","","main_expt","0.3209664266","","0.2253380596","","0.06950392785","","","","","","",""
"3","","bandit","229","711448","0.0-191.0-0.0","08369566","wem/bandit_single","A2CYD8QD1JO0O5","gain","1","","75","K","2","","0","0","1","0.1787374968","","false","154","0.4023640633","","main_expt","0.2633096479","","0.1787374968","","0.09734883616","","","","","","",""
"88","","bandit","230","713300","0.0-192.0-0.0","08369566","wem/bandit_single","A2CYD8QD1JO0O5","gain","1","","72","H","0","img/none_selected.jpg","1","0","0","0.3927422998","","false","155","0.3927422998","","main_expt","0.2611493198","","0.1026625787","","0.1078867986","","","","","","",""
"199","","bandit","231","715262","0.0-193.0-0.0","08369566","wem/bandit_single","A2CYD8QD1JO0O5","gain","1","","72","H","0","img/none_selected.jpg","0","0","1","0.3696188161","","false","156","0.3696188161","","main_expt","0.2556392324","","0.1201393653","","0.09294383108","","","","","","",""
"8","","bandit","232","717043","0.0-194.0-0.0","08369566","wem/bandit_single","A2CYD8QD1JO0O5","gain","1","","75","K","2","","0","0","1","0.1601810659","","false","157","0.3562863837","","main_expt","0.2237912435","","0.1601810659","","0.1344904143","","","","","","",""
"75","","bandit","233","718883","0.0-195.0-0.0","08369566","wem/bandit_single","A2CYD8QD1JO0O5","gain","1","","72","H","0","img/none_selected.jpg","1","0","0","0.3891013447","","false","158","0.3891013447","","main_expt","0.2269937079","","0.2178666355","","0.1682501471","","","","","","",""
"116","","bandit","234","720765","0.0-196.0-0.0","08369566","wem/bandit_single","A2CYD8QD1JO0O5","gain","1","","72","H","0","img/none_selected.jpg","0","0","1","0.3771509201","","false","159","0.3771509201","","main_expt","0.2244600926","","0.2088119712","","0.1859978291","","","","","","",""
"147","","bandit","235","722687","0.0-197.0-0.0","08369566","wem/bandit_single","A2CYD8QD1JO0O5","gain","1","","72","H","0","img/none_selected.jpg","1","0","0","0.3677966378","","false","160","0.3677966378","","main_expt","0.231654425","","0.2853399033","","0.1169857497","","","","","","",""
"65","","bandit","236","724517","0.0-198.0-0.0","08369566","wem/bandit_single","A2CYD8QD1JO0O5","gain","1","","75","K","2","","1","0","0","0.2755093387","","false","161","0.3691576932","","main_expt","0.2415747561","","0.2755093387","","0.1131976547","","","","","","",""
"103","","bandit","237","726389","0.0-199.0-0.0","08369566","wem/bandit_single","A2CYD8QD1JO0O5","gain","1","","75","K","2","","1","0","0","0.2706635439","","false","162","0.3102253273","","main_expt","0.1807921844","","0.2706635439","","0.1560378341","","","","","","",""
"115","","bandit","238","728273","0.0-200.0-0.0","08369566","wem/bandit_single","A2CYD8QD1JO0O5","gain","1","","72","H","0","img/none_selected.jpg","0","0","1","0.3361037566","","false","163","0.3361037566","","main_expt","0.1986212186","","0.2856851073","","0.1200759877","","","","","","",""
"194","","bandit","239","730231","0.0-201.0-0.0","08369566","wem/bandit_single","A2CYD8QD1JO0O5","gain","1","","75","K","2","","0","0","1","0.3188827228","","false","164","0.3097300036","","main_expt","0.1799022971","","0.3188827228","","0.1198838954","","","","","","",""
"106","","bandit","240","732105","0.0-202.0-0.0","08369566","wem/bandit_single","A2CYD8QD1JO0O5","gain","1","","74","J","1","","0","0","1","0.2610149466","","false","165","0.3234169084","","main_expt","0.2610149466","","0.3258940933","","0.1397308529","","","","","","",""
"319","","bandit","241","734184","0.0-203.0-0.0","08369566","wem/bandit_single","A2CYD8QD1JO0O5","gain","1","","76","L","3","","0","0","1","0.1506282743","","false","166","0.3201458278","","main_expt","0.2673729835","","0.3525092479","","0.1506282743","","","","","","",""
"102","","bandit","242","736053","0.0-204.0-0.0","08369566","wem/bandit_single","A2CYD8QD1JO0O5","gain","1","","72","H","0","img/none_selected.jpg","0","0","1","0.366643239","","false","167","0.366643239","","main_expt","0.169486101","","0.3919017073","","0.1407574557","","","","","","",""
"354","","bandit","243","738170","0.0-205.0-0.0","08369566","wem/bandit_single","A2CYD8QD1JO0O5","gain","1","","72","H","0","img/none_selected.jpg","0","0","1","0.3877512758","","false","168","0.3877512758","","main_expt","0.1997030364","","0.3855955566","","0.1217255528","","","","","","",""
"219","","bandit","244","740152","0.0-206.0-0.0","08369566","wem/bandit_single","A2CYD8QD1JO0O5","gain","1","","75","K","2","","1","0","0","0.3882436634","","false","169","0.3733196812","","main_expt","0.2391799942","","0.3882436634","","0.118108524","","","","","","",""
"59","","bandit","245","741974","0.0-207.0-0.0","08369566","wem/bandit_single","A2CYD8QD1JO0O5","gain","1","","75","K","2","","1","0","0","0.4096789578","","false","170","0.3616719183","","main_expt","0.2239577552","","0.4096789578","","0.0750780909","","","","","","",""
"427","","bandit","246","744164","0.0-208.0-0.0","08369566","wem/bandit_single","A2CYD8QD1JO0O5","gain","1","","72","H","0","img/none_selected.jpg","0","0","1","0.3222484871","","false","171","0.3222484871","","main_expt","0.2175962327","","0.4326257363","","0.07048665386","","","","","","",""
"27","","bandit","247","745954","0.0-209.0-0.0","08369566","wem/bandit_single","A2CYD8QD1JO0O5","gain","1","","76","L","3","","0","0","1","0.09439478605","","false","172","0.2849842628","","main_expt","0.2061205584","","0.4381189537","","0.09439478605","","","","","","",""
"143","","bandit","248","747859","0.0-210.0-0.0","08369566","wem/bandit_single","A2CYD8QD1JO0O5","gain","1","","75","K","2","","0","0","1","0.3823577146","","false","173","0.2896949147","","main_expt","0.1787022686","","0.3823577146","","0.05932603211","","","","","","",""
"90","","bandit","249","749708","0.0-211.0-0.0","08369566","wem/bandit_single","A2CYD8QD1JO0O5","gain","1","","72","H","0","img/none_selected.jpg","0","0","1","0.260829927","","false","174","0.260829927","","main_expt","0.1782801474","","0.4155511425","","0.1019229976","","","","","","",""
"83","","bandit","250","751558","0.0-212.0-0.0","08369566","wem/bandit_single","A2CYD8QD1JO0O5","gain","1","","72","H","0","img/none_selected.jpg","0","0","1","0.1608433896","","false","175","0.1608433896","","main_expt","0.1723114597","","0.4391025654","","0.1270031357","","","","","","",""
"153","","bandit","251","753475","0.0-213.0-0.0","08369566","wem/bandit_single","A2CYD8QD1JO0O5","gain","1","","75","K","2","","1","0","0","0.4654332747","","false","176","0.1924323662","","main_expt","0.1714247165","","0.4654332747","","0.1519507126","","","","","","",""
"22","","bandit","252","755261","0.0-214.0-0.0","08369566","wem/bandit_single","A2CYD8QD1JO0O5","gain","1","","75","K","2","","0","0","1","0.4862166952","","false","177","0.1942299772","","main_expt","0.2003569552","","0.4862166952","","0.2645819263","","","","","","",""
"335","","bandit","253","757354","0.0-215.0-0.0","08369566","wem/bandit_single","A2CYD8QD1JO0O5","gain","1","","72","H","0","img/none_selected.jpg","0","0","1","0.2266891382","","false","178","0.2266891382","","main_expt","0.1848954505","","0.4878504479","","0.2497033982","","","","","","",""
"35","","bandit","254","759147","0.0-216.0-0.0","08369566","wem/bandit_single","A2CYD8QD1JO0O5","gain","1","","72","H","0","img/none_selected.jpg","0","0","1","0.193755509","","false","179","0.193755509","","main_expt","0.120488448","","0.4925433574","","0.2464833147","","","","","","",""
"146","","bandit","255","761056","0.0-217.0-0.0","08369566","wem/bandit_single","A2CYD8QD1JO0O5","gain","1","","74","J","1","","0","0","1","0.09518531587","","false","180","0.2143300014","","main_expt","0.09518531587","","0.4863546804","","0.191435525","","","","","","",""
"304","","bandit","256","763119","0.0-218.0-0.0","08369566","wem/bandit_single","A2CYD8QD1JO0O5","gain","1","","75","K","2","","1","0","0","0.4898831258","","false","181","0.1996101457","","main_expt","0.1110105533","","0.4898831258","","0.2095150634","","","","","","",""
"354","","bandit","257","765232","0.0-219.0-0.0","08369566","wem/bandit_single","A2CYD8QD1JO0O5","gain","1","","75","K","2","","0","0","1","0.4702328405","","false","182","0.220362663","","main_expt","0.1321710188","","0.4702328405","","0.2238619417","","","","","","",""
"83","","bandit","258","767090","0.0-220.0-0.0","08369566","wem/bandit_single","A2CYD8QD1JO0O5","gain","1","","76","L","3","","0","0","1","0.172430875","","false","183","0.2087999581","","main_expt","0.07205074818","","0.4443650637","","0.172430875","","","","","","",""
"23","","bandit","259","768881","0.0-221.0-0.0","08369566","wem/bandit_single","A2CYD8QD1JO0O5","gain","1","","76","L","3","","0","0","1","0.1537152065","","false","184","0.2693368533","","main_expt","0.08140980564","","0.4395551327","","0.1537152065","","","","","","",""
"187","","bandit","260","770840","0.0-222.0-0.0","08369566","wem/bandit_single","A2CYD8QD1JO0O5","gain","1","","75","K","2","","1","0","0","0.427498872","","false","185","0.3177788722","","main_expt","0.07005875891","","0.427498872","","0.1089078126","","","","","","",""
"27","","bandit","261","772628","0.0-223.0-0.0","08369566","wem/bandit_single","A2CYD8QD1JO0O5","gain","1","","75","K","2","","0","0","1","0.4126395781","","false","186","0.3093747324","","main_expt","0.04712836877","","0.4126395781","","0.1150542287","","","","","","",""
"121","","bandit","262","774510","0.0-224.0-0.0","08369566","wem/bandit_single","A2CYD8QD1JO0O5","gain","1","","74","J","1","","1","0","0","0.07097221374","","false","187","0.3361469263","","main_expt","0.07097221374","","0.4059631444","","0.07877539194","","","","","","",""
"122","","bandit","263","776396","0.0-225.0-0.0","08369566","wem/bandit_single","A2CYD8QD1JO0O5","gain","1","","74","J","1","","0","0","1","0.04255461481","","false","188","0.3096611705","","main_expt","0.04255461481","","0.4007853126","","0.06234325246","","","","","","",""
"326","","bandit","264","778484","0.0-226.0-0.0","08369566","wem/bandit_single","A2CYD8QD1JO0O5","gain","1","","72","H","0","img/none_selected.jpg","0","0","1","0.298651231","","false","189","0.298651231","","main_expt","0.03834091028","","0.4208201059","","0.07748383332","","","","","","",""
"45","","bandit","265","780294","0.0-227.0-0.0","08369566","wem/bandit_single","A2CYD8QD1JO0O5","gain","1","","72","H","0","img/none_selected.jpg","1","0","0","0.3361123746","","false","190","0.3361123746","","main_expt","0.03101500858","","0.4249824956","","0.08864116925","","","","","","",""
"111","","bandit","266","782168","0.0-228.0-0.0","08369566","wem/bandit_single","A2CYD8QD1JO0O5","gain","1","","72","H","0","img/none_selected.jpg","0","0","1","0.3529126189","","false","191","0.3529126189","","main_expt","0.05137759752","","0.4519194686","","0.1114019665","","","","","","",""
"27","","bandit","267","783955","0.0-229.0-0.0","08369566","wem/bandit_single","A2CYD8QD1JO0O5","gain","1","","75","K","2","","0","0","1","0.449072141","","false","192","0.3806900048","","main_expt","0.05101019331","","0.449072141","","0.0944181321","","","","","","",""
"110","","bandit","268","785826","0.0-230.0-0.0","08369566","wem/bandit_single","A2CYD8QD1JO0O5","gain","1","","72","H","0","img/none_selected.jpg","0","0","1","0.3191299148","","false","193","0.3191299148","","main_expt","0.0408087357","","0.4069092802","","0.09015445577","","","","","","",""
"112","","bandit","269","787698","0.0-231.0-0.0","08369566","wem/bandit_single","A2CYD8QD1JO0O5","gain","1","","72","H","0","img/none_selected.jpg","0","0","1","0.3350705725","","false","194","0.3350705725","","main_expt","0.04787233925","","0.399300076","","0.09569888082","","","","","","",""
"72","","bandit","270","789530","0.0-232.0-0.0","08369566","wem/bandit_single","A2CYD8QD1JO0O5","gain","1","","74","J","1","","0","0","1","0.07297342555","","false","195","0.3579412151","","main_expt","0.07297342555","","0.4028519225","","0.1521563302","","","","","","",""
"191","","bandit","271","791481","0.0-233.0-0.0","08369566","wem/bandit_single","A2CYD8QD1JO0O5","gain","1","","75","K","2","","1","0","0","0.3708283831","","false","196","0.4135102269","","main_expt","0.1090796252","","0.3708283831","","0.1612876033","","","","","","",""
"375","","bandit","272","793615","0.0-234.0-0.0","08369566","wem/bandit_single","A2CYD8QD1JO0O5","gain","1","","75","K","2","","1","0","0","0.3992028251","","false","197","0.4368922102","","main_expt","0.1141593934","","0.3992028251","","0.1818980103","","","","","","",""
"40","","bandit","273","795417","0.0-235.0-0.0","08369566","wem/bandit_single","A2CYD8QD1JO0O5","gain","1","","76","L","3","","0","0","1","0.1426991491","","false","198","0.4329908538","","main_expt","0.1247063377","","0.3662313723","","0.1426991491","","","","","","",""
"340","","bandit","274","797519","0.0-236.0-0.0","08369566","wem/bandit_single","A2CYD8QD1JO0O5","gain","1","","72","H","0","img/none_selected.jpg","1","0","0","0.4458308372","","false","199","0.4458308372","","main_expt","0.1324590526","","0.3667285709","","0.1339470975","","","","","","",""
"31","","bandit","275","799309","0.0-237.0-0.0","08369566","wem/bandit_single","A2CYD8QD1JO0O5","gain","1","","72","H","0","img/none_selected.jpg","0","0","1","0.4535445428","","false","200","0.4535445428","","main_expt","0.1062358191","","0.365396467","","0.1615481579","","","","","","",""
"313","","bandit","276","801383","0.0-238.0-0.0","08369566","wem/bandit_single","A2CYD8QD1JO0O5","gain","1","","74","J","1","","1","0","0","0.1027729413","","false","201","0.4258040833","","main_expt","0.1027729413","","0.3413602931","","0.1889616495","","","","","","",""
"72","","bandit","277","803217","0.0-239.0-0.0","08369566","wem/bandit_single","A2CYD8QD1JO0O5","gain","1","","75","K","2","","1","0","0","0.3655369163","","false","202","0.413157784","","main_expt","0.09207086273","","0.3655369163","","0.2043886565","","","","","","",""
"419","","bandit","278","805403","0.0-240.0-0.0","08369566","wem/bandit_single","A2CYD8QD1JO0O5","gain","1","","75","K","2","","0","0","1","0.3301706169","","false","203","0.358983575","","main_expt","0.1409949376","","0.3301706169","","0.2274570119","","","","","","",""
"93","","bandit","279","807261","0.0-241.0-0.0","08369566","wem/bandit_single","A2CYD8QD1JO0O5","gain","1","","72","H","0","img/none_selected.jpg","0","0","1","0.3354839288","","false","204","0.3354839288","","main_expt","0.2067441942","","0.3305557625","","0.1795680912","","","","","","",""
"37","","bandit","280","809061","0.0-242.0-0.0","08369566","wem/bandit_single","A2CYD8QD1JO0O5","gain","1","","74","J","1","","0","0","1","0.2171549514","","false","205","0.3814446138","","main_expt","0.2171549514","","0.3332543728","","0.1823506393","","","","","","",""
"100","","bandit","281","810924","0.0-243.0-0.0","08369566","wem/bandit_single","A2CYD8QD1JO0O5","gain","1","","75","K","2","","0","0","1","0.270761893","","false","206","0.4069937863","","main_expt","0.1399251859","","0.270761893","","0.1401809595","","","","","","",""
"109","","bandit","282","812794","0.0-244.0-0.0","08369566","wem/bandit_single","A2CYD8QD1JO0O5","gain","1","","75","K","2","","1","0","0","0.2595670132","","false","207","0.4261201247","","main_expt","0.1700254018","","0.2595670132","","0.1651993972","","","","","","",""
"375","","bandit","283","814928","0.0-245.0-0.0","08369566","wem/bandit_single","A2CYD8QD1JO0O5","gain","1","","75","K","2","","0","0","1","0.2772442529","","false","208","0.4105702951","","main_expt","0.1831619311","","0.2772442529","","0.1803987852","","","","","","",""
"219","","bandit","284","816910","0.0-246.0-0.0","08369566","wem/bandit_single","A2CYD8QD1JO0O5","gain","1","","72","H","0","img/none_selected.jpg","0","0","1","0.402481318","","false","209","0.402481318","","main_expt","0.151215806","","0.2654441326","","0.1470434113","","","","","","",""
"31","","bandit","285","818705","0.0-247.0-0.0","08369566","wem/bandit_single","A2CYD8QD1JO0O5","gain","1","","76","L","3","","0","0","1","0.1375860563","","false","210","0.4378094136","","main_expt","0.1841878728","","0.2475709295","","0.1375860563","","","","","","",""
"235","","bandit","286","820715","0.0-248.0-0.0","08369566","wem/bandit_single","A2CYD8QD1JO0O5","gain","1","","74","J","1","","0","0","1","0.190591144","","false","211","0.4174257438","","main_expt","0.190591144","","0.1836637302","","0.1181257803","","","","","","",""
"78","","bandit","287","822555","0.0-249.0-0.0","08369566","wem/bandit_single","A2CYD8QD1JO0O5","gain","1","","75","K","2","","0","0","1","0.2018671691","","false","212","0.4235695044","","main_expt","0.2024219406","","0.2018671691","","0.1284194295","","","","","","",""
"40","","bandit","288","824356","0.0-250.0-0.0","08369566","wem/bandit_single","A2CYD8QD1JO0O5","gain","1","","74","J","1","","1","0","0","0.1985525674","","false","213","0.4112054282","","main_expt","0.1985525674","","0.1807811906","","0.1088774305","","","","","","",""
"333","","bandit","289","826450","0.0-251.0-0.0","08369566","wem/bandit_single","A2CYD8QD1JO0O5","gain","1","","74","J","1","","0","0","1","0.1940352924","","false","214","0.3986702209","","main_expt","0.1940352924","","0.2432807767","","0.07230623063","","","","","","",""
"140","","bandit","290","828351","0.0-252.0-0.0","08369566","wem/bandit_single","A2CYD8QD1JO0O5","gain","1","","76","L","3","","0","0","1","0.07963887701","","false","215","0.4379561577","","main_expt","0.1155678072","","0.2167976264","","0.07963887701","","","","","","",""
"112","","bandit","291","830222","0.0-253.0-0.0","08369566","wem/bandit_single","A2CYD8QD1JO0O5","gain","1","","74","J","1","","0","0","1","0.08288275022","","false","216","0.425003275","","main_expt","0.08288275022","","0.2963745884","","0.0792987172","","","","","","",""
"21","","bandit","292","832004","0.0-254.0-0.0","08369566","wem/bandit_single","A2CYD8QD1JO0O5","gain","1","","75","K","2","","0","0","1","0.2704200786","","false","217","0.4398514333","","main_expt","0.1108164962","","0.2704200786","","0.07576557353","","","","","","",""
"243","","bandit","293","834017","0.0-255.0-0.0","08369566","wem/bandit_single","A2CYD8QD1JO0O5","gain","1","","76","L","3","","0","0","1","0.05946619603","","false","218","0.4307107256","","main_expt","0.1166222362","","0.2057322541","","0.05946619603","","","","","","",""
"264","","bandit","294","836045","0.0-256.0-0.0","08369566","wem/bandit_single","A2CYD8QD1JO0O5","gain","1","","74","J","1","","0","0","1","0.1441412427","","false","219","0.4236121262","","main_expt","0.1441412427","","0.2143414454","","0.07419684477","","","","","","",""
"313","","bandit","295","838122","0.0-257.0-0.0","08369566","wem/bandit_single","A2CYD8QD1JO0O5","gain","1","","72","H","0","img/none_selected.jpg","1","0","0","0.4020148519","","false","220","0.4020148519","","main_expt","0.1460318591","","0.1630835619","","0.09297922461","","","","","","",""
"632","","bandit","296","840518","0.0-258.0-0.0","08369566","wem/bandit_single","A2CYD8QD1JO0O5","gain","1","","75","K","2","","0","0","1","0.1536312793","","false","221","0.4073181559","","main_expt","0.1068666799","","0.1536312793","","0.1429286242","","","","","","",""
"153","","bandit","297","842430","0.0-259.0-0.0","08369566","wem/bandit_single","A2CYD8QD1JO0O5","gain","1","","72","H","0","img/none_selected.jpg","1","0","0","0.3651123295","","false","222","0.3651123295","","main_expt","0.1101844092","","0.2214617817","","0.1708286753","","","","","","",""
"379","","bandit","298","844574","0.0-260.0-0.0","08369566","wem/bandit_single","A2CYD8QD1JO0O5","gain","1","","72","H","0","img/none_selected.jpg","0","0","1","0.3836441325","","false","223","0.3836441325","","main_expt","0.0707480467","","0.2273662723","","0.1461267001","","","","","","",""
"44","","bandit","299","846377","0.0-261.0-0.0","08369566","wem/bandit_single","A2CYD8QD1JO0O5","gain","1","","74","J","1","","0","0","1","0.06117493494","","false","224","0.3982756155","","main_expt","0.06117493494","","0.1894352557","","0.144808321","","","","","","",""
"394","","bandit","300","848537","0.0-262.0-0.0","08369566","wem/bandit_single","A2CYD8QD1JO0O5","gain","1","","75","K","2","","0","0","1","0.1292085382","","false","225","0.3942448394","","main_expt","0.0615688762","","0.1292085382","","0.1890777341","","","","","","",""
"29","","bandit","301","850328","0.0-263.0-0.0","08369566","wem/bandit_single","A2CYD8QD1JO0O5","gain","1","","76","L","3","","0","0","1","0.1442837472","","false","226","0.4169515918","","main_expt","0.05052633559","","0.1530858041","","0.1442837472","","","","","","",""
"56","","bandit","302","852150","0.0-264.0-0.0","08369566","wem/bandit_single","A2CYD8QD1JO0O5","gain","1","","75","K","2","","0","0","1","0.1593334253","","false","227","0.4204191544","","main_expt","0.05726050712","","0.1593334253","","0.1425852804","","","","","","",""
"41","","bandit","303","853951","0.0-265.0-0.0","08369566","wem/bandit_single","A2CYD8QD1JO0O5","gain","1","","75","K","2","","0","0","1","0.1247523642","","false","228","0.4091886","","main_expt","0.0758768547","","0.1247523642","","0.1116716659","","","","","","",""
"81","","bandit","304","855793","0.0-266.0-0.0","08369566","wem/bandit_single","A2CYD8QD1JO0O5","gain","1","","74","J","1","","1","0","0","0.07022353505","","false","229","0.407276644","","main_expt","0.07022353505","","0.1463700977","","0.1206121499","","","","","","",""
"78","","bandit","305","857642","0.0-267.0-0.0","08369566","wem/bandit_single","A2CYD8QD1JO0O5","gain","1","","74","J","1","","0","0","1","0.06577032649","","false","230","0.4254558538","","main_expt","0.06577032649","","0.1402324221","","0.1168532629","","","","","","",""
"137","","bandit","306","859540","0.0-268.0-0.0","08369566","wem/bandit_single","A2CYD8QD1JO0O5","gain","1","","72","H","0","img/none_selected.jpg","1","0","0","0.4259586803","","false","231","0.4259586803","","main_expt","0.06313303242","","0.1914784592","","0.0916199044","","","","","","",""
"291","","bandit","307","861601","0.0-269.0-0.0","08369566","wem/bandit_single","A2CYD8QD1JO0O5","gain","1","","72","H","0","img/none_selected.jpg","1","0","0","0.4429649496","","false","232","0.4429649496","","main_expt","0.05490827263","","0.1507361932","","0.09573807812","","","","","","",""
"97","","bandit","308","863463","0.0-270.0-0.0","08369566","wem/bandit_single","A2CYD8QD1JO0O5","gain","1","","72","H","0","img/none_selected.jpg","0","0","1","0.4456598826","","false","233","0.4456598826","","main_expt","0.04200611561","","0.1902650793","","0.1246926578","","","","","","",""
"78","","bandit","309","865305","0.0-271.0-0.0","08369566","wem/bandit_single","A2CYD8QD1JO0O5","gain","1","","74","J","1","","0","0","1","0.0550058871","","false","234","0.4504169918","","main_expt","0.0550058871","","0.2663902881","","0.122457211","","","","","","",""
"42","","bandit","310","867116","0.0-272.0-0.0","08369566","wem/bandit_single","A2CYD8QD1JO0O5","gain","1","","75","K","2","","0","0","1","0.257874652","","false","235","0.4255816076","","main_expt","0.06273227262","","0.257874652","","0.1561374187","","","","","","",""
"2","","bandit","311","868883","0.0-273.0-0.0","08369566","wem/bandit_single","A2CYD8QD1JO0O5","gain","1","","75","K","2","","1","0","0","0.2134416149","","false","236","0.4262424011","","main_expt","0.09869136657","","0.2134416149","","0.1726763947","","","","","","",""
"281","","bandit","312","870931","0.0-274.0-0.0","08369566","wem/bandit_single","A2CYD8QD1JO0O5","gain","1","","75","K","2","","0","0","1","0.1655180868","","false","237","0.4314914545","","main_expt","0.06464195797","","0.1655180868","","0.163453789","","","","","","",""
"296","","bandit","313","872994","0.0-275.0-0.0","08369566","wem/bandit_single","A2CYD8QD1JO0O5","gain","1","","76","L","3","","0","0","1","0.1511244057","","false","238","0.4580147213","","main_expt","0.1092425733","","0.1528926348","","0.1511244057","","","","","","",""
"152","","bandit","314","874907","0.0-276.0-0.0","08369566","wem/bandit_single","A2CYD8QD1JO0O5","gain","1","","74","J","1","","0","0","1","0.08920017271","","false","239","0.4437162142","","main_expt","0.08920017271","","0.1594670864","","0.1170855371","","","","","","",""
"86","","bandit","315","876758","0.0-277.0-0.0","08369566","wem/bandit_single","A2CYD8QD1JO0O5","gain","1","","72","H","0","img/none_selected.jpg","1","0","0","0.4423909474","","false","240","0.4423909474","","main_expt","0.138477068","","0.104293197","","0.1281478965","","","","","","",""
"293","","bandit","316","878811","0.0-278.0-0.0","08369566","wem/bandit_single","A2CYD8QD1JO0O5","gain","1","","72","H","0","img/none_selected.jpg","1","0","0","0.4542424264","","false","241","0.4542424264","","main_expt","0.1249513709","","0.07968297136","","0.1579661802","","","","","","",""
"123","","bandit","317","880695","0.0-279.0-0.0","08369566","wem/bandit_single","A2CYD8QD1JO0O5","gain","1","","74","J","1","","0","0","1","0.09754639251","","false","242","0.4659063812","","main_expt","0.09754639251","","0.07079416442","","0.1345462726","","","","","","",""
"47","","bandit","318","882506","0.0-280.0-0.0","08369566","wem/bandit_single","A2CYD8QD1JO0O5","gain","1","","75","K","2","","0","0","1","0.08709770617","","false","243","0.4702771719","","main_expt","0.1223474156","","0.08709770617","","0.1793426478","","","","","","",""
"85","","bandit","319","884355","0.0-281.0-0.0","08369566","wem/bandit_single","A2CYD8QD1JO0O5","gain","1","","75","K","2","","0","0","1","0.08252109256","","false","244","0.4678480784","","main_expt","0.1004902073","","0.08252109256","","0.1623289848","","","","","","",""
"90","","bandit","320","886206","0.0-282.0-0.0","08369566","wem/bandit_single","A2CYD8QD1JO0O5","gain","1","","76","L","3","","0","0","1","0.1638267454","","false","245","0.4608336118","","main_expt","0.09372717231","","0.07130924754","","0.1638267454","","","","","","",""
"59","","bandit","321","888028","0.0-283.0-0.0","08369566","wem/bandit_single","A2CYD8QD1JO0O5","gain","1","","76","L","3","","1","0","0","0.1794660524","","false","246","0.4455928316","","main_expt","0.1004977064","","0.06886742221","","0.1794660524","","","","","","",""
"72","","bandit","322","889859","0.0-284.0-0.0","08369566","wem/bandit_single","A2CYD8QD1JO0O5","gain","1","","75","K","2","","0","0","1","0.064138504","","false","247","0.4322927154","","main_expt","0.09336015453","","0.064138504","","0.1751092572","","","","","","",""
"131","","bandit","323","891752","0.0-285.0-0.0","08369566","wem/bandit_single","A2CYD8QD1JO0O5","gain","1","","75","K","2","","0","0","1","0.05051083443","","false","248","0.4293825987","","main_expt","0.09552903486","","0.05051083443","","0.188480637","","","","","","",""
"129","","bandit","324","893645","0.0-286.0-0.0","08369566","wem/bandit_single","A2CYD8QD1JO0O5","gain","1","","74","J","1","","0","0","1","0.1087111068","","false","249","0.4338924945","","main_expt","0.1087111068","","0.05514480776","","0.1718025207","","","","","","",""
"365","","bandit","325","895779","0.0-287.0-0.0","08369566","wem/bandit_single","A2CYD8QD1JO0O5","gain","1","","74","J","1","","0","0","1","0.08296073337","","false","250","0.4356531551","","main_expt","0.08296073337","","0.02780796002","","0.1377417152","","","","","","",""
"73","","bandit","326","897617","0.0-288.0-0.0","08369566","wem/bandit_single","A2CYD8QD1JO0O5","gain","1","","72","H","0","img/none_selected.jpg","1","0","0","0.4561881598","","false","251","0.4561881598","","main_expt","0.08988728922","","0.02786711831","","0.1623098307","","","","","","",""
"23","","bandit","327","899397","0.0-289.0-0.0","08369566","wem/bandit_single","A2CYD8QD1JO0O5","gain","1","","72","H","0","img/none_selected.jpg","0","0","1","0.4517263236","","false","252","0.4517263236","","main_expt","0.07043490844","","0.03881205422","","0.1702242208","","","","","","",""
"55","","bandit","328","901220","0.0-290.0-0.0","08369566","wem/bandit_single","A2CYD8QD1JO0O5","gain","1","","72","H","0","img/none_selected.jpg","0","0","1","0.4280730872","","false","253","0.4280730872","","main_expt","0.06648959932","","0.03211176865","","0.1571297736","","","","","","",""
"56","","bandit","329","903044","0.0-291.0-0.0","08369566","wem/bandit_single","A2CYD8QD1JO0O5","gain","1","","74","J","1","","0","0","1","0.04750248463","","false","254","0.3976691957","","main_expt","0.04750248463","","0.02501863174","","0.1311762281","","","","","","",""
"64","","bandit","330","904883","0.0-292.0-0.0","08369566","wem/bandit_single","A2CYD8QD1JO0O5","gain","1","","75","K","2","","0","0","1","0.03845468041","","false","255","0.3920211634","","main_expt","0.0685067328","","0.03845468041","","0.1262313745","","","","","","",""
"108","","bandit","331","906754","0.0-293.0-0.0","08369566","wem/bandit_single","A2CYD8QD1JO0O5","gain","1","","76","L","3","","0","0","1","0.08888936201","","false","256","0.3802568344","","main_expt","0.06106940649","","0.03093107714","","0.08888936201","","","","","","",""
"101","","bandit","332","908616","0.0-294.0-0.0","08369566","wem/bandit_single","A2CYD8QD1JO0O5","gain","1","","75","K","2","","0","0","1","0.02284381284","","false","257","0.4153547565","","main_expt","0.03925251802","","0.02284381284","","0.1016624202","","","","","","",""
"48","","bandit","333","910428","0.0-295.0-0.0","08369566","wem/bandit_single","A2CYD8QD1JO0O5","gain","1","","74","J","1","","0","0","1","0.07528758783","","false","258","0.412770775","","main_expt","0.07528758783","","0.01195927332","","0.1201960749","","","","","","",""
"122","","bandit","334","912322","0.0-296.0-0.0","08369566","wem/bandit_single","A2CYD8QD1JO0O5","gain","1","","72","H","0","img/none_selected.jpg","0","0","1","0.4364469878","","false","259","0.4364469878","","main_expt","0.06168900656","","0.009837890866","","0.09869940493","","","","","","",""
"79","","bandit","335","914163","0.0-297.0-0.0","08369566","wem/bandit_single","A2CYD8QD1JO0O5","gain","1","","72","H","0","img/none_selected.jpg","0","0","1","0.4143686848","","false","260","0.4143686848","","main_expt","0.05358732337","","0.01652501309","","0.140367269","","","","","","",""
"435","","bandit","336","916366","0.0-298.0-0.0","08369566","wem/bandit_single","A2CYD8QD1JO0O5","gain","1","","74","J","1","","0","0","1","0.05974294151","","false","261","0.3932103286","","main_expt","0.05974294151","","0.0246934762","","0.107121031","","","","","","",""
"62","","bandit","337","918197","0.0-299.0-0.0","08369566","wem/bandit_single","A2CYD8QD1JO0O5","gain","1","","75","K","2","","0","0","1","0.02217338967","","false","262","0.4299042069","","main_expt","0.0656558392","","0.02217338967","","0.142880744","","","","","","",""
"6","","bandit","338","919972","0.0-300.0-0.0","08369566","wem/bandit_single","A2CYD8QD1JO0O5","gain","1","","75","K","2","","0","0","1","0.02538488248","","false","263","0.3864913748","","main_expt","0.08006927963","","0.02538488248","","0.1398656543","","","","","","",""
"416","","bandit","339","922151","0.0-301.0-0.0","08369566","wem/bandit_single","A2CYD8QD1JO0O5","gain","1","","74","J","1","","0","0","1","0.07803510261","","false","264","0.3721946297","","main_expt","0.07803510261","","0.03542132602","","0.185630342","","","","","","",""
"41","","bandit","340","923952","0.0-302.0-0.0","08369566","wem/bandit_single","A2CYD8QD1JO0O5","gain","1","","76","L","3","","0","0","1","0.1483619715","","false","265","0.3326379545","","main_expt","0.08917846028","","0.03052618628","","0.1483619715","","","","","","",""
"99","","bandit","341","925816","0.0-303.0-0.0","08369566","wem/bandit_single","A2CYD8QD1JO0O5","gain","1","","72","H","0","img/none_selected.jpg","0","0","1","0.3337002386","","false","266","0.3337002386","","main_expt","0.1562168236","","0.02388326919","","0.1677753502","","","","","","",""
"34","","bandit","342","927616","0.0-304.0-0.0","08369566","wem/bandit_single","A2CYD8QD1JO0O5","gain","1","","74","J","1","","0","0","1","0.1873085091","","false","267","0.3044940876","","main_expt","0.1873085091","","0.01496915784","","0.1748953786","","","","","","",""
"36","","bandit","343","929418","0.0-305.0-0.0","08369566","wem/bandit_single","A2CYD8QD1JO0O5","gain","1","","75","K","2","","0","0","1","0.01735494223","","false","268","0.2966269971","","main_expt","0.1850807086","","0.01735494223","","0.152215306","","","","","","",""
"144","","bandit","344","931329","0.0-306.0-0.0","08369566","wem/bandit_single","A2CYD8QD1JO0O5","gain","1","","72","H","0","img/none_selected.jpg","0","0","1","0.2617435325","","false","269","0.2617435325","","main_expt","0.1461958128","","0.01365938384","","0.1420691147","","","","","","",""
"27","","bandit","345","933132","0.0-307.0-0.0","08369566","wem/bandit_single","A2CYD8QD1JO0O5","gain","1","","72","H","0","img/none_selected.jpg","0","0","1","0.2599280147","","false","270","0.2599280147","","main_expt","0.1348565207","","0.01871615964","","0.1338049101","","","","","","",""
"65","","bandit","346","934973","0.0-308.0-0.0","08369566","wem/bandit_single","A2CYD8QD1JO0O5","gain","1","","74","J","1","","0","0","1","0.1588166083","","false","271","0.2499936179","","main_expt","0.1588166083","","0.01663887187","","0.1178923734","","","","","","",""
"10","","bandit","347","936749","0.0-309.0-0.0","08369566","wem/bandit_single","A2CYD8QD1JO0O5","gain","1","","75","K","2","","0","0","1","0.01973971225","","false","272","0.2703142459","","main_expt","0.1288650497","","0.01973971225","","0.1436833609","","","","","","",""
"135","","bandit","348","938645","0.0-310.0-0.0","08369566","wem/bandit_single","A2CYD8QD1JO0O5","gain","1","","76","L","3","","0","0","1","0.1917782062","","false","273","0.2835249431","","main_expt","0.1414039315","","0.01954424634","","0.1917782062","","","","","","",""
"350","","bandit","349","940759","0.0-311.0-0.0","08369566","wem/bandit_single","A2CYD8QD1JO0O5","gain","1","","76","L","3","","0","0","1","0.1657285368","","false","274","0.2906451875","","main_expt","0.1132613661","","0.008862655739","","0.1657285368","","","","","","",""
"101","","bandit","350","942631","0.0-312.0-0.0","08369566","wem/bandit_single","A2CYD8QD1JO0O5","gain","1","","75","K","2","","0","0","1","0.0094605031","","false","275","0.2670480505","","main_expt","0.1396690899","","0.0094605031","","0.1420329436","","","","","","",""
"32","","bandit","351","944433","0.0-313.0-0.0","08369566","wem/bandit_single","A2CYD8QD1JO0O5","gain","1","","74","J","1","","0","0","1","0.1109816737","","false","276","0.2358592403","","main_expt","0.1109816737","","0.01191149084","","0.1369756733","","","","","","",""
"24","","bandit","352","946237","0.0-314.0-0.0","08369566","wem/bandit_single","A2CYD8QD1JO0O5","gain","1","","74","J","1","","0","0","1","0.08046464388","","false","277","0.1877967456","","main_expt","0.08046464388","","0.00904810236","","0.1781068979","","","","","","",""
"381","","bandit","353","948393","0.0-315.0-0.0","08369566","wem/bandit_single","A2CYD8QD1JO0O5","gain","1","","74","J","1","","0","0","1","0.07407019324","","false","278","0.1537245983","","main_expt","0.07407019324","","0.007795284796","","0.248352092","","","","","","",""
"326","","bandit","354","950500","0.0-316.0-0.0","08369566","wem/bandit_single","A2CYD8QD1JO0O5","gain","1","","74","J","1","","0","0","1","0.06478755197","","false","279","0.1662011111","","main_expt","0.06478755197","","0.01747653863","","0.263219496","","","","","","",""
"59","","bandit","355","952322","0.0-317.0-0.0","08369566","wem/bandit_single","A2CYD8QD1JO0O5","gain","1","","75","K","2","","0","0","1","0.02326096521","","false","280","0.1622625537","","main_expt","0.04895059186","","0.02326096521","","0.210776847","","","","","","",""
"30","","bandit","356","954139","0.0-318.0-0.0","08369566","wem/bandit_single","A2CYD8QD1JO0O5","gain","1","","72","H","0","img/none_selected.jpg","0","0","1","0.2160365104","","false","281","0.2160365104","","main_expt","0.04598133094","","0.03290281633","","0.1901401854","","","","","","",""
"159","","bandit","357","956069","0.0-319.0-0.0","08369566","wem/bandit_single","A2CYD8QD1JO0O5","gain","1","","76","L","3","","0","0","1","0.1692674388","","false","282","0.2031844556","","main_expt","0.0454431083","","0.03647511751","","0.1692674388","","","","","","",""
"29","","bandit","358","957875","0.0-320.0-0.0","08369566","wem/bandit_single","A2CYD8QD1JO0O5","gain","1","","76","L","3","","0","0","1","0.1697823826","","false","283","0.236778666","","main_expt","0.0377119091","","0.0381479171","","0.1697823826","","","","","","",""
"49","","bandit","359","959690","0.0-321.0-0.0","08369566","wem/bandit_single","A2CYD8QD1JO0O5","gain","1","","76","L","3","","0","0","1","0.1647860582","","false","284","0.2082896542","","main_expt","0.0346676025","","0.04237273713","","0.1647860582","","","","","","",""
"79","","bandit","360","961529","0.0-322.0-0.0","08369566","wem/bandit_single","A2CYD8QD1JO0O5","gain","1","","75","K","2","","1","0","0","0.08736605616","","false","285","0.1682052712","","main_expt","0.03394591187","","0.08736605616","","0.2346467376","","","","","","",""
"911","","bandit","361","964210","0.0-323.0-0.0","08369566","wem/bandit_single","A2CYD8QD1JO0O5","gain","1","","75","K","2","","0","0","1","0.149418319","","false","286","0.1287852917","","main_expt","0.03437308726","","0.149418319","","0.1651037306","","","","","","",""
"92","","bandit","362","966071","0.0-324.0-0.0","08369566","wem/bandit_single","A2CYD8QD1JO0O5","gain","1","","72","H","0","img/none_selected.jpg","0","0","1","0.0739145169","","false","287","0.0739145169","","main_expt","0.043905831","","0.2149685411","","0.113933185","","","","","","",""
"59","","bandit","363","967901","0.0-325.0-0.0","08369566","wem/bandit_single","A2CYD8QD1JO0O5","gain","1","","74","J","1","","0","0","1","0.02064047927","","false","288","0.08295252225","","main_expt","0.02064047927","","0.181398065","","0.08260993421","","","","","","",""
"14","","bandit","364","969682","0.0-326.0-0.0","08369566","wem/bandit_single","A2CYD8QD1JO0O5","gain","1","","74","J","1","","0","0","1","0.0250169619","","false","289","0.0479508895","","main_expt","0.0250169619","","0.1523032639","","0.07260323305","","","","","","",""
"78","","bandit","365","971524","0.0-327.0-0.0","08369566","wem/bandit_single","A2CYD8QD1JO0O5","gain","1","","75","K","2","","0","0","1","0.1404761367","","false","290","0.05498143303","","main_expt","0.04785043425","","0.1404761367","","0.06306400378","","","","","","",""
"34","","bandit","366","973323","0.0-328.0-0.0","08369566","wem/bandit_single","A2CYD8QD1JO0O5","gain","1","","75","K","2","","1","0","0","0.1639955189","","false","291","0.06238518006","","main_expt","0.05997729544","","0.1639955189","","0.06173149747","","","","","","",""
"87","","bandit","367","975176","0.0-329.0-0.0","08369566","wem/bandit_single","A2CYD8QD1JO0O5","gain","1","","76","L","3","","0","0","1","0.049421281","","false","292","0.06246846358","","main_expt","0.08013724224","","0.1365824739","","0.049421281","","","","","","",""
"88","","bandit","368","977026","0.0-330.0-0.0","08369566","wem/bandit_single","A2CYD8QD1JO0O5","gain","1","","76","L","3","","0","0","1","0.04661139695","","false","293","0.0635142122","","main_expt","0.08257915178","","0.2190436779","","0.04661139695","","","","","","",""
"122","","bandit","369","978908","0.0-331.0-0.0","08369566","wem/bandit_single","A2CYD8QD1JO0O5","gain","1","","74","J","1","","0","0","1","0.07979116831","","false","294","0.1078883856","","main_expt","0.07979116831","","0.2961987497","","0.05266196286","","","","","","",""
"363","","bandit","370","981033","0.0-332.0-0.0","08369566","wem/bandit_single","A2CYD8QD1JO0O5","gain","1","","74","J","1","","0","0","1","0.1168190604","","false","295","0.1065048767","","main_expt","0.1168190604","","0.3422413176","","0.0541153793","","","","","","",""
