"rt","responses","trial_type","trial_index","time_elapsed","internal_node_id","subjID","study","MID","cond","drift","key_press","respCharCode","respKey","respChoiceNum","respChoice","gems","bombs","no_reward","GemPrChosen","BombPrChosen","practice","trial_counter","WinPr_0","LosePr_0","trial_label","WinPr_1","LosePr_1","WinPr_2","LosePr_2","WinPr_3","LosePr_3","Q0","Q1","Q2","gender","age","ethnicity"
"34677","{""Q0"":""A1A1BYX3OAXANM""}","survey-text","0","34691","0.0-0.0","09478422","wem/bandit_single","A1A1BYX3OAXANM","gain","8","","","","","","","","","","","","","","","","","","","","","","","","","","",""
"1847","","text","1","37548","0.0-1.0","09478422","wem/bandit_single","A1A1BYX3OAXANM","gain","8","32","","","","","","","","","","","","","","","","","","","","","","","","","",""
"12277","","text","2","49829","0.0-2.0","09478422","wem/bandit_single","A1A1BYX3OAXANM","gain","8","32","","","","","","","","","","","","","","","","","","","","","","","","","",""
"27052","","text","3","76885","0.0-3.0","09478422","wem/bandit_single","A1A1BYX3OAXANM","gain","8","32","","","","","","","","","","","","","","","","","","","","","","","","","",""
"14406","","text","4","91296","0.0-4.0","09478422","wem/bandit_single","A1A1BYX3OAXANM","gain","8","32","","","","","","","","","","","","","","","","","","","","","","","","","",""
"9838","","text","5","101138","0.0-5.0","09478422","wem/bandit_single","A1A1BYX3OAXANM","gain","8","32","","","","","","","","","","","","","","","","","","","","","","","","","",""
"5389","","text","6","106531","0.0-6.0","09478422","wem/bandit_single","A1A1BYX3OAXANM","gain","8","32","","","","","","","","","","","","","","","","","","","","","","","","","",""
"4772","","text","7","111309","0.0-7.0","09478422","wem/bandit_single","A1A1BYX3OAXANM","gain","8","32","","","","","","","","","","","","","","","","","","","","","","","","","",""
"4753","","text","8","116066","0.0-8.0","09478422","wem/bandit_single","A1A1BYX3OAXANM","gain","8","32","","","","","","","","","","","","","","","","","","","","","","","","","",""
"5704","","text","9","121774","0.0-9.0","09478422","wem/bandit_single","A1A1BYX3OAXANM","gain","8","32","","","","","","","","","","","","","","","","","","","","","","","","","",""
"3558","","text","10","125334","0.0-10.0","09478422","wem/bandit_single","A1A1BYX3OAXANM","gain","8","32","","","","","","","","","","","","","","","","","","","","","","","","","",""
"7005","","text","11","132342","0.0-11.0","09478422","wem/bandit_single","A1A1BYX3OAXANM","gain","8","32","","","","","","","","","","","","","","","","","","","","","","","","","",""
"2748","","bandit","12","136642","0.0-12.0-0.0","09478422","wem/bandit_single","A1A1BYX3OAXANM","gain","8","","74","J","0","img/none_selected_demo.jpg","0","0","1","0","0","true","0","0","0","","","","","","","","","","","","",""
"1566","","bandit","13","139994","0.0-13.0-0.0","09478422","wem/bandit_single","A1A1BYX3OAXANM","gain","8","","75","K","0","img/none_selected_demo.jpg","0","0","1","0","0","true","0","0","0","","","","","","","","","","","","",""
"2841","","text","14","143099","0.0-14.0","09478422","wem/bandit_single","A1A1BYX3OAXANM","gain","8","32","","","","","","","","","","","","","","","","","","","","","","","","","",""
"1742","","text","15","144845","0.0-15.0","09478422","wem/bandit_single","A1A1BYX3OAXANM","gain","8","32","","","","","","","","","","","","","","","","","","","","","","","","","",""
"3129","","text","16","147978","0.0-16.0","09478422","wem/bandit_single","A1A1BYX3OAXANM","gain","8","32","","","","","","","","","","","","","","","","","","","","","","","","","",""
"3181","","text","17","151162","0.0-17.0","09478422","wem/bandit_single","A1A1BYX3OAXANM","gain","8","32","","","","","","","","","","","","","","","","","","","","","","","","","",""
"2336","","bandit","18","155016","0.0-18.0-0.0","09478422","wem/bandit_single","A1A1BYX3OAXANM","gain","8","","74","J","0","img/none_selected_demo.jpg","1","0","0","0.8","0","true","0","0.8","0","80_20_practice","0.2","0","","","","","","","","","",""
"1662","","bandit","19","158469","0.0-18.0-1.0","09478422","wem/bandit_single","A1A1BYX3OAXANM","gain","8","","75","K","1","","0","0","1","0.2","0","true","0","0.8","0","80_20_practice","0.2","0","","","","","","","","","",""
"7048","","bandit","20","167304","0.0-18.0-2.0","09478422","wem/bandit_single","A1A1BYX3OAXANM","gain","8","","74","J","0","img/none_selected_demo.jpg","0","0","1","0.8","0","true","0","0.8","0","80_20_practice","0.2","0","","","","","","","","","",""
"1243","","bandit","21","170346","0.0-18.0-3.0","09478422","wem/bandit_single","A1A1BYX3OAXANM","gain","8","","75","K","1","","0","0","1","0.2","0","true","0","0.8","0","80_20_practice","0.2","0","","","","","","","","","",""
"908","","bandit","22","173058","0.0-18.0-4.0","09478422","wem/bandit_single","A1A1BYX3OAXANM","gain","8","","74","J","0","img/none_selected_demo.jpg","0","0","1","0.8","0","true","0","0.8","0","80_20_practice","0.2","0","","","","","","","","","",""
"238","","bandit","23","175076","0.0-18.0-5.0","09478422","wem/bandit_single","A1A1BYX3OAXANM","gain","8","","75","K","1","","0","0","1","0.2","0","true","0","0.8","0","80_20_practice","0.2","0","","","","","","","","","",""
"8793","","bandit","24","185641","0.0-18.0-6.0","09478422","wem/bandit_single","A1A1BYX3OAXANM","gain","8","","74","J","0","img/none_selected_demo.jpg","1","0","0","0.8","0","true","0","0.8","0","80_20_practice","0.2","0","","","","","","","","","",""
"3924","","bandit","25","191338","0.0-18.0-7.0","09478422","wem/bandit_single","A1A1BYX3OAXANM","gain","8","","75","K","1","","0","0","1","0.2","0","true","0","0.8","0","80_20_practice","0.2","0","","","","","","","","","",""
"20732","","bandit","26","213870","0.0-18.0-8.0","09478422","wem/bandit_single","A1A1BYX3OAXANM","gain","8","","74","J","0","img/none_selected_demo.jpg","1","0","0","0.8","0","true","0","0.8","0","80_20_practice","0.2","0","","","","","","","","","",""
"1658","","bandit","27","217315","0.0-18.0-9.0","09478422","wem/bandit_single","A1A1BYX3OAXANM","gain","8","","75","K","1","","0","0","1","0.2","0","true","0","0.8","0","80_20_practice","0.2","0","","","","","","","","","",""
"6359","","bandit","28","225454","0.0-18.0-10.0","09478422","wem/bandit_single","A1A1BYX3OAXANM","gain","8","","74","J","0","img/none_selected_demo.jpg","0","0","1","0.8","0","true","0","0.8","0","80_20_practice","0.2","0","","","","","","","","","",""
"2127","","bandit","29","229379","0.0-18.0-11.0","09478422","wem/bandit_single","A1A1BYX3OAXANM","gain","8","","74","J","0","img/none_selected_demo.jpg","1","0","0","0.8","0","true","0","0.8","0","80_20_practice","0.2","0","","","","","","","","","",""
"649","","bandit","30","231826","0.0-18.0-12.0","09478422","wem/bandit_single","A1A1BYX3OAXANM","gain","8","","75","K","1","","0","0","1","0.2","0","true","0","0.8","0","80_20_practice","0.2","0","","","","","","","","","",""
"335","","bandit","31","233942","0.0-18.0-13.0","09478422","wem/bandit_single","A1A1BYX3OAXANM","gain","8","","75","K","1","","0","0","1","0.2","0","true","0","0.8","0","80_20_practice","0.2","0","","","","","","","","","",""
"193","","bandit","32","235916","0.0-18.0-14.0","09478422","wem/bandit_single","A1A1BYX3OAXANM","gain","8","","74","J","0","img/none_selected_demo.jpg","0","0","1","0.8","0","true","0","0.8","0","80_20_practice","0.2","0","","","","","","","","","",""
"755","","bandit","33","238473","0.0-18.0-15.0","09478422","wem/bandit_single","A1A1BYX3OAXANM","gain","8","","74","J","0","img/none_selected_demo.jpg","1","0","0","0.8","0","true","0","0.8","0","80_20_practice","0.2","0","","","","","","","","","",""
"685","","bandit","34","240943","0.0-18.0-16.0","09478422","wem/bandit_single","A1A1BYX3OAXANM","gain","8","","75","K","1","","0","0","1","0.2","0","true","0","0.8","0","80_20_practice","0.2","0","","","","","","","","","",""
"211","","bandit","35","242947","0.0-18.0-17.0","09478422","wem/bandit_single","A1A1BYX3OAXANM","gain","8","","75","K","1","","0","0","1","0.2","0","true","0","0.8","0","80_20_practice","0.2","0","","","","","","","","","",""
"169","","bandit","36","244898","0.0-18.0-18.0","09478422","wem/bandit_single","A1A1BYX3OAXANM","gain","8","","74","J","0","img/none_selected_demo.jpg","1","0","0","0.8","0","true","0","0.8","0","80_20_practice","0.2","0","","","","","","","","","",""
"87","","bandit","37","246797","0.0-18.0-19.0","09478422","wem/bandit_single","A1A1BYX3OAXANM","gain","8","","74","J","0","img/none_selected_demo.jpg","0","0","1","0.8","0","true","0","0.8","0","80_20_practice","0.2","0","","","","","","","","","",""
"5373","","text","38","252443","0.0-19.0","09478422","wem/bandit_single","A1A1BYX3OAXANM","gain","8","32","","","","","","","","","","","","","","","","","","","","","","","","","",""
"1804","","bandit","39","255775","0.0-20.0-0.0","09478422","wem/bandit_single","A1A1BYX3OAXANM","gain","8","","74","J","0","img/none_selected_demo.jpg","0","0","1","0","0","true","0","0","0","","0","0","","","","","","","","","",""
"9521","","text","40","265554","0.0-21.0","09478422","wem/bandit_single","A1A1BYX3OAXANM","gain","8","74","","","","","","","","","","","","","","","","","","","","","","","","","",""
"3422","","text","41","268985","0.0-22.0","09478422","wem/bandit_single","A1A1BYX3OAXANM","gain","8","32","","","","","","","","","","","","","","","","","","","","","","","","","",""
"3347","","text","42","272341","0.0-23.0","09478422","wem/bandit_single","A1A1BYX3OAXANM","gain","8","32","","","","","","","","","","","","","","","","","","","","","","","","","",""
"2473","","text","43","274819","0.0-24.0","09478422","wem/bandit_single","A1A1BYX3OAXANM","gain","8","32","","","","","","","","","","","","","","","","","","","","","","","","","",""
"9559","","text","44","284384","0.0-25.0","09478422","wem/bandit_single","A1A1BYX3OAXANM","gain","8","32","","","","","","","","","","","","","","","","","","","","","","","","","",""
"2529","","text","45","286920","0.0-26.0","09478422","wem/bandit_single","A1A1BYX3OAXANM","gain","8","32","","","","","","","","","","","","","","","","","","","","","","","","","",""
"3164","","text","46","290090","0.0-27.0","09478422","wem/bandit_single","A1A1BYX3OAXANM","gain","8","32","","","","","","","","","","","","","","","","","","","","","","","","","",""
"4759","","text","47","294854","0.0-28.0","09478422","wem/bandit_single","A1A1BYX3OAXANM","gain","8","32","","","","","","","","","","","","","","","","","","","","","","","","","",""
"2583","","text","48","297442","0.0-29.0","09478422","wem/bandit_single","A1A1BYX3OAXANM","gain","8","32","","","","","","","","","","","","","","","","","","","","","","","","","",""
"2493","","text","49","299939","0.0-30.0","09478422","wem/bandit_single","A1A1BYX3OAXANM","gain","8","32","","","","","","","","","","","","","","","","","","","","","","","","","",""
"6760","","text","50","306705","0.0-31.0","09478422","wem/bandit_single","A1A1BYX3OAXANM","gain","8","32","","","","","","","","","","","","","","","","","","","","","","","","","",""
"1402","","bandit","51","309630","0.0-32.0-0.0","09478422","wem/bandit_single","A1A1BYX3OAXANM","gain","8","","72","H","0","img/none_selected.jpg","1","0","0","0.8","0","true","0","0.8","0","full_practice","0.2","0","0.6","0","0.2","0","","","","","",""
"603","","bandit","52","312014","0.0-32.0-1.0","09478422","wem/bandit_single","A1A1BYX3OAXANM","gain","8","","74","J","1","","0","0","1","0.2","0","true","0","0.8","0","full_practice","0.2","0","0.6","0","0.2","0","","","","","",""
"198","","bandit","53","314008","0.0-32.0-2.0","09478422","wem/bandit_single","A1A1BYX3OAXANM","gain","8","","75","K","2","","1","0","0","0.6","0","true","0","0.8","0","full_practice","0.2","0","0.6","0","0.2","0","","","","","",""
"214","","bandit","54","315996","0.0-32.0-3.0","09478422","wem/bandit_single","A1A1BYX3OAXANM","gain","8","","76","L","3","","0","0","1","0.2","0","true","0","0.8","0","full_practice","0.2","0","0.6","0","0.2","0","","","","","",""
"589","","bandit","55","318374","0.0-32.0-4.0","09478422","wem/bandit_single","A1A1BYX3OAXANM","gain","8","","72","H","0","img/none_selected.jpg","1","0","0","0.8","0","true","0","0.8","0","full_practice","0.2","0","0.6","0","0.2","0","","","","","",""
"222","","bandit","56","320386","0.0-32.0-5.0","09478422","wem/bandit_single","A1A1BYX3OAXANM","gain","8","","72","H","0","img/none_selected.jpg","0","0","1","0.8","0","true","0","0.8","0","full_practice","0.2","0","0.6","0","0.2","0","","","","","",""
"117","","bandit","57","322290","0.0-32.0-6.0","09478422","wem/bandit_single","A1A1BYX3OAXANM","gain","8","","75","K","2","","1","0","0","0.6","0","true","0","0.8","0","full_practice","0.2","0","0.6","0","0.2","0","","","","","",""
"1153","","bandit","58","325211","0.0-32.0-7.0","09478422","wem/bandit_single","A1A1BYX3OAXANM","gain","8","","74","J","1","","0","0","1","0.2","0","true","0","0.8","0","full_practice","0.2","0","0.6","0","0.2","0","","","","","",""
"860","","bandit","59","327853","0.0-32.0-8.0","09478422","wem/bandit_single","A1A1BYX3OAXANM","gain","8","","76","L","3","","1","0","0","0.2","0","true","0","0.8","0","full_practice","0.2","0","0.6","0","0.2","0","","","","","",""
"271","","bandit","60","329920","0.0-32.0-9.0","09478422","wem/bandit_single","A1A1BYX3OAXANM","gain","8","","76","L","3","","1","0","0","0.2","0","true","0","0.8","0","full_practice","0.2","0","0.6","0","0.2","0","","","","","",""
"211","","bandit","61","331911","0.0-32.0-10.0","09478422","wem/bandit_single","A1A1BYX3OAXANM","gain","8","","76","L","3","","0","0","1","0.2","0","true","0","0.8","0","full_practice","0.2","0","0.6","0","0.2","0","","","","","",""
"884","","bandit","62","334576","0.0-32.0-11.0","09478422","wem/bandit_single","A1A1BYX3OAXANM","gain","8","","72","H","0","img/none_selected.jpg","1","0","0","0.8","0","true","0","0.8","0","full_practice","0.2","0","0.6","0","0.2","0","","","","","",""
"1361","","bandit","63","337788","0.0-32.0-12.0","09478422","wem/bandit_single","A1A1BYX3OAXANM","gain","8","","76","L","3","","0","0","1","0.2","0","true","0","0.8","0","full_practice","0.2","0","0.6","0","0.2","0","","","","","",""
"9627","","bandit","64","349547","0.0-32.0-13.0","09478422","wem/bandit_single","A1A1BYX3OAXANM","gain","8","","72","H","0","img/none_selected.jpg","1","0","0","0.8","0","true","0","0.8","0","full_practice","0.2","0","0.6","0","0.2","0","","","","","",""
"194","","bandit","65","351529","0.0-32.0-14.0","09478422","wem/bandit_single","A1A1BYX3OAXANM","gain","8","","72","H","0","img/none_selected.jpg","0","0","1","0.8","0","true","0","0.8","0","full_practice","0.2","0","0.6","0","0.2","0","","","","","",""
"178","","bandit","66","353506","0.0-32.0-15.0","09478422","wem/bandit_single","A1A1BYX3OAXANM","gain","8","","72","H","0","img/none_selected.jpg","1","0","0","0.8","0","true","0","0.8","0","full_practice","0.2","0","0.6","0","0.2","0","","","","","",""
"371","","bandit","67","355657","0.0-32.0-16.0","09478422","wem/bandit_single","A1A1BYX3OAXANM","gain","8","","74","J","1","","0","0","1","0.2","0","true","0","0.8","0","full_practice","0.2","0","0.6","0","0.2","0","","","","","",""
"115","","bandit","68","357562","0.0-32.0-17.0","09478422","wem/bandit_single","A1A1BYX3OAXANM","gain","8","","74","J","1","","1","0","0","0.2","0","true","0","0.8","0","full_practice","0.2","0","0.6","0","0.2","0","","","","","",""
"1380","","bandit","69","360730","0.0-32.0-18.0","09478422","wem/bandit_single","A1A1BYX3OAXANM","gain","8","","75","K","2","","1","0","0","0.6","0","true","0","0.8","0","full_practice","0.2","0","0.6","0","0.2","0","","","","","",""
"316","","bandit","70","362848","0.0-32.0-19.0","09478422","wem/bandit_single","A1A1BYX3OAXANM","gain","8","","76","L","3","","0","0","1","0.2","0","true","0","0.8","0","full_practice","0.2","0","0.6","0","0.2","0","","","","","",""
"4644","","text","71","367764","0.0-33.0","09478422","wem/bandit_single","A1A1BYX3OAXANM","gain","8","32","","","","","","","","","","","","","","","","","","","","","","","","","",""
"10348","","text","72","379124","0.0-34.0","09478422","wem/bandit_single","A1A1BYX3OAXANM","gain","8","32","","","","","","","","","","","","","","","","","","","","","","","","","",""
"10518","","text","73","389652","0.0-35.0","09478422","wem/bandit_single","A1A1BYX3OAXANM","gain","8","32","","","","","","","","","","","","","","","","","","","","","","","","","",""
"7869","","text","74","397528","0.0-36.0","09478422","wem/bandit_single","A1A1BYX3OAXANM","gain","8","32","","","","","","","","","","","","","","","","","","","","","","","","","",""
"2873","","text","75","400406","0.0-37.0","09478422","wem/bandit_single","A1A1BYX3OAXANM","gain","8","32","","","","","","","","","","","","","","","","","","","","","","","","","",""
"2096","","bandit","76","404017","0.0-38.0-0.0","09478422","wem/bandit_single","A1A1BYX3OAXANM","gain","8","","72","H","0","img/none_selected.jpg","1","0","0","0.4519399214","","false","1","0.4519399214","","main_expt","0.2726752288","","0.2895646149","","0.461186604","","","","","","",""
"849","","bandit","77","406664","0.0-39.0-0.0","09478422","wem/bandit_single","A1A1BYX3OAXANM","gain","8","","74","J","1","","1","0","0","0.2373300031","","false","2","0.4414774062","","main_expt","0.2373300031","","0.3162770887","","0.4745384616","","","","","","",""
"344","","bandit","78","408793","0.0-40.0-0.0","09478422","wem/bandit_single","A1A1BYX3OAXANM","gain","8","","75","K","2","","1","0","0","0.3445892231","","false","3","0.4248782664","","main_expt","0.2268539811","","0.3445892231","","0.476270309","","","","","","",""
"234","","bandit","79","410805","0.0-41.0-0.0","09478422","wem/bandit_single","A1A1BYX3OAXANM","gain","8","","76","L","3","","0","0","1","0.4750198572","","false","4","0.3797460064","","main_expt","0.2312911009","","0.318720175","","0.4750198572","","","","","","",""
"624","","bandit","80","413215","0.0-42.0-0.0","09478422","wem/bandit_single","A1A1BYX3OAXANM","gain","8","","72","H","0","img/none_selected.jpg","0","0","1","0.3747955817","","false","5","0.3747955817","","main_expt","0.1875260819","","0.2768356494","","0.4711191004","","","","","","",""
"243","","bandit","81","415250","0.0-43.0-0.0","09478422","wem/bandit_single","A1A1BYX3OAXANM","gain","8","","74","J","1","","0","0","1","0.190272436","","false","6","0.3434652127","","main_expt","0.190272436","","0.2660169375","","0.4561500297","","","","","","",""
"172","","bandit","82","417217","0.0-44.0-0.0","09478422","wem/bandit_single","A1A1BYX3OAXANM","gain","8","","75","K","2","","0","0","1","0.3364590491","","false","7","0.3450192323","","main_expt","0.1912500229","","0.3364590491","","0.4549462182","","","","","","",""
"217","","bandit","83","419229","0.0-45.0-0.0","09478422","wem/bandit_single","A1A1BYX3OAXANM","gain","8","","76","L","3","","0","0","1","0.4738433377","","false","8","0.3319287687","","main_expt","0.2317086102","","0.2814314702","","0.4738433377","","","","","","",""
"415","","bandit","84","421437","0.0-46.0-0.0","09478422","wem/bandit_single","A1A1BYX3OAXANM","gain","8","","72","H","0","img/none_selected.jpg","1","0","0","0.3592879842","","false","9","0.3592879842","","main_expt","0.2732709622","","0.172204453","","0.4719526371","","","","","","",""
"355","","bandit","85","423584","0.0-47.0-0.0","09478422","wem/bandit_single","A1A1BYX3OAXANM","gain","8","","74","J","1","","0","0","1","0.2369361721","","false","10","0.4119036765","","main_expt","0.2369361721","","0.1714760066","","0.4102917743","","","","","","",""
"543","","bandit","86","425921","0.0-48.0-0.0","09478422","wem/bandit_single","A1A1BYX3OAXANM","gain","8","","76","L","3","","1","0","0","0.4247485268","","false","11","0.440335537","","main_expt","0.2428480584","","0.1477319919","","0.4247485268","","","","","","",""
"698","","bandit","87","428418","0.0-49.0-0.0","09478422","wem/bandit_single","A1A1BYX3OAXANM","gain","8","","75","K","2","","0","0","1","0.1195530135","","false","12","0.4198069009","","main_expt","0.3127978045","","0.1195530135","","0.3805001106","","","","","","",""
"870","","bandit","88","431069","0.0-50.0-0.0","09478422","wem/bandit_single","A1A1BYX3OAXANM","gain","8","","72","H","0","img/none_selected.jpg","1","0","0","0.4095272681","","false","13","0.4095272681","","main_expt","0.3411181312","","0.1097065617","","0.3922463094","","","","","","",""
"462","","bandit","89","433329","0.0-51.0-0.0","09478422","wem/bandit_single","A1A1BYX3OAXANM","gain","8","","76","L","3","","0","0","1","0.3385893542","","false","14","0.4393311008","","main_expt","0.3547490374","","0.1146709003","","0.3385893542","","","","","","",""
"258","","bandit","90","435373","0.0-52.0-0.0","09478422","wem/bandit_single","A1A1BYX3OAXANM","gain","8","","72","H","0","img/none_selected.jpg","0","0","1","0.4232641195","","false","15","0.4232641195","","main_expt","0.3447780093","","0.105598426","","0.2580729479","","","","","","",""
"314","","bandit","91","437486","0.0-53.0-0.0","09478422","wem/bandit_single","A1A1BYX3OAXANM","gain","8","","76","L","3","","0","0","1","0.3126944558","","false","16","0.408879381","","main_expt","0.3451486401","","0.1085338479","","0.3126944558","","","","","","",""
"318","","bandit","92","439594","0.0-54.0-0.0","09478422","wem/bandit_single","A1A1BYX3OAXANM","gain","8","","72","H","0","img/none_selected.jpg","1","0","0","0.376774317","","false","17","0.376774317","","main_expt","0.3788599072","","0.1267686316","","0.3693960878","","","","","","",""
"195","","bandit","93","441585","0.0-55.0-0.0","09478422","wem/bandit_single","A1A1BYX3OAXANM","gain","8","","72","H","0","img/none_selected.jpg","0","0","1","0.4245824949","","false","18","0.4245824949","","main_expt","0.3977159439","","0.2161611973","","0.3881723811","","","","","","",""
"167","","bandit","94","443521","0.0-56.0-0.0","09478422","wem/bandit_single","A1A1BYX3OAXANM","gain","8","","72","H","0","img/none_selected.jpg","1","0","0","0.4391895307","","false","19","0.4391895307","","main_expt","0.3885232362","","0.2028493804","","0.3762380044","","","","","","",""
"145","","bandit","95","445464","0.0-57.0-0.0","09478422","wem/bandit_single","A1A1BYX3OAXANM","gain","8","","72","H","0","img/none_selected.jpg","0","0","1","0.4621127774","","false","20","0.4621127774","","main_expt","0.3985462001","","0.2258994585","","0.3842023068","","","","","","",""
"114","","bandit","96","447382","0.0-58.0-0.0","09478422","wem/bandit_single","A1A1BYX3OAXANM","gain","8","","72","H","0","img/none_selected.jpg","1","0","0","0.4621164646","","false","21","0.4621164646","","main_expt","0.349749023","","0.1591174119","","0.3509270449","","","","","","",""
"820","","bandit","97","450002","0.0-59.0-0.0","09478422","wem/bandit_single","A1A1BYX3OAXANM","gain","8","","72","H","0","img/none_selected.jpg","0","0","1","0.4347396303","","false","22","0.4347396303","","main_expt","0.3437713834","","0.1526874152","","0.3777441782","","","","","","",""
"973","","bandit","98","452763","0.0-60.0-0.0","09478422","wem/bandit_single","A1A1BYX3OAXANM","gain","8","","74","J","1","","0","0","1","0.3608333873","","false","23","0.43496863","","main_expt","0.3608333873","","0.1461335862","","0.3799964268","","","","","","",""
"295","","bandit","99","454853","0.0-61.0-0.0","09478422","wem/bandit_single","A1A1BYX3OAXANM","gain","8","","75","K","2","","0","0","1","0.194032511","","false","24","0.43684491","","main_expt","0.3832767268","","0.194032511","","0.4097073291","","","","","","",""
"162","","bandit","100","456805","0.0-62.0-0.0","09478422","wem/bandit_single","A1A1BYX3OAXANM","gain","8","","72","H","0","img/none_selected.jpg","0","0","1","0.3785768995","","false","25","0.3785768995","","main_expt","0.3839685871","","0.1913779305","","0.4196977393","","","","","","",""
"513","","bandit","101","459119","0.0-63.0-0.0","09478422","wem/bandit_single","A1A1BYX3OAXANM","gain","8","","72","H","0","img/none_selected.jpg","0","0","1","0.3754964585","","false","26","0.3754964585","","main_expt","0.3871157951","","0.2830828826","","0.3798545817","","","","","","",""
"131","","bandit","102","461031","0.0-64.0-0.0","09478422","wem/bandit_single","A1A1BYX3OAXANM","gain","8","","76","L","3","","0","0","1","0.3531061786","","false","27","0.3964499655","","main_expt","0.4093540125","","0.3268824087","","0.3531061786","","","","","","",""
"159","","bandit","103","463003","0.0-65.0-0.0","09478422","wem/bandit_single","A1A1BYX3OAXANM","gain","8","","76","L","3","","0","0","1","0.3327392046","","false","28","0.4243602908","","main_expt","0.3781829904","","0.3092871108","","0.3327392046","","","","","","",""
"478","","bandit","104","465267","0.0-66.0-0.0","09478422","wem/bandit_single","A1A1BYX3OAXANM","gain","8","","75","K","2","","0","0","1","0.299803321","","false","29","0.4296462108","","main_expt","0.3633234486","","0.299803321","","0.2799969064","","","","","","",""
"133","","bandit","105","467184","0.0-67.0-0.0","09478422","wem/bandit_single","A1A1BYX3OAXANM","gain","8","","75","K","2","","0","0","1","0.3318792252","","false","30","0.4442153724","","main_expt","0.395486831","","0.3318792252","","0.225268033","","","","","","",""
"93","","bandit","106","469056","0.0-68.0-0.0","09478422","wem/bandit_single","A1A1BYX3OAXANM","gain","8","","74","J","1","","1","0","0","0.353932484","","false","31","0.4425075274","","main_expt","0.353932484","","0.3274080626","","0.2195205817","","","","","","",""
"123","","bandit","107","470955","0.0-69.0-0.0","09478422","wem/bandit_single","A1A1BYX3OAXANM","gain","8","","74","J","1","","0","0","1","0.3902442546","","false","32","0.4038806219","","main_expt","0.3902442546","","0.3233555863","","0.2569702332","","","","","","",""
"210","","bandit","108","472947","0.0-70.0-0.0","09478422","wem/bandit_single","A1A1BYX3OAXANM","gain","8","","74","J","1","","1","0","0","0.3727342875","","false","33","0.4283701542","","main_expt","0.3727342875","","0.3836123675","","0.2914027765","","","","","","",""
"89","","bandit","109","474830","0.0-71.0-0.0","09478422","wem/bandit_single","A1A1BYX3OAXANM","gain","8","","74","J","1","","0","0","1","0.3940120807","","false","34","0.4332078231","","main_expt","0.3940120807","","0.4200589335","","0.2667004126","","","","","","",""
"70","","bandit","110","476681","0.0-72.0-0.0","09478422","wem/bandit_single","A1A1BYX3OAXANM","gain","8","","74","J","1","","1","0","0","0.3682756201","","false","35","0.3861361583","","main_expt","0.3682756201","","0.4280145355","","0.3112773703","","","","","","",""
"69","","bandit","111","478548","0.0-73.0-0.0","09478422","wem/bandit_single","A1A1BYX3OAXANM","gain","8","","74","J","1","","1","0","0","0.4136743311","","false","36","0.3176889815","","main_expt","0.4136743311","","0.3696194815","","0.3158013471","","","","","","",""
"1500","","bandit","112","481823","0.0-74.0-0.0","09478422","wem/bandit_single","A1A1BYX3OAXANM","gain","8","","74","J","1","","0","0","1","0.449594317","","false","37","0.3333355096","","main_expt","0.449594317","","0.3567242832","","0.3348696363","","","","","","",""
"147","","bandit","113","483762","0.0-75.0-0.0","09478422","wem/bandit_single","A1A1BYX3OAXANM","gain","8","","74","J","1","","1","0","0","0.4427192246","","false","38","0.3613286773","","main_expt","0.4427192246","","0.3139752797","","0.2967031697","","","","","","",""
"62","","bandit","114","485653","0.0-76.0-0.0","09478422","wem/bandit_single","A1A1BYX3OAXANM","gain","8","","74","J","1","","0","0","1","0.4375360897","","false","39","0.3354588101","","main_expt","0.4375360897","","0.2884672813","","0.2816090282","","","","","","",""
"90","","bandit","115","487553","0.0-77.0-0.0","09478422","wem/bandit_single","A1A1BYX3OAXANM","gain","8","","74","J","1","","1","0","0","0.452648821","","false","40","0.4044898685","","main_expt","0.452648821","","0.3253538103","","0.2900329111","","","","","","",""
"743","","bandit","116","490089","0.0-78.0-0.0","09478422","wem/bandit_single","A1A1BYX3OAXANM","gain","8","","74","J","1","","1","0","0","0.4689255384","","false","41","0.3615903795","","main_expt","0.4689255384","","0.2782289032","","0.3160732104","","","","","","",""
"999","","bandit","117","492884","0.0-79.0-0.0","09478422","wem/bandit_single","A1A1BYX3OAXANM","gain","8","","74","J","1","","0","0","1","0.470096522","","false","42","0.3239257876","","main_expt","0.470096522","","0.2378060085","","0.370849222","","","","","","",""
"1444","","bandit","118","496101","0.0-80.0-0.0","09478422","wem/bandit_single","A1A1BYX3OAXANM","gain","8","","74","J","1","","0","0","1","0.4349244256","","false","43","0.2907144625","","main_expt","0.4349244256","","0.2250536993","","0.385301305","","","","","","",""
"88","","bandit","119","497983","0.0-81.0-0.0","09478422","wem/bandit_single","A1A1BYX3OAXANM","gain","8","","74","J","1","","0","0","1","0.4316966947","","false","44","0.2937558929","","main_expt","0.4316966947","","0.2132249492","","0.416838688","","","","","","",""
"130","","bandit","120","499913","0.0-82.0-0.0","09478422","wem/bandit_single","A1A1BYX3OAXANM","gain","8","","75","K","2","","0","0","1","0.2669052982","","false","45","0.3667346614","","main_expt","0.4526201082","","0.2669052982","","0.3927526088","","","","","","",""
"125","","bandit","121","501831","0.0-83.0-0.0","09478422","wem/bandit_single","A1A1BYX3OAXANM","gain","8","","75","K","2","","0","0","1","0.259601005","","false","46","0.4084803937","","main_expt","0.4696962879","","0.259601005","","0.3789336214","","","","","","",""
"9","","bandit","122","503639","0.0-84.0-0.0","09478422","wem/bandit_single","A1A1BYX3OAXANM","gain","8","","75","K","2","","1","0","0","0.2442503122","","false","47","0.3956447052","","main_expt","0.4591824552","","0.2442503122","","0.3994803113","","","","","","",""
"152","","bandit","123","505602","0.0-85.0-0.0","09478422","wem/bandit_single","A1A1BYX3OAXANM","gain","8","","75","K","2","","1","0","0","0.2427668164","","false","48","0.3859230678","","main_expt","0.4548607847","","0.2427668164","","0.3570668153","","","","","","",""
"0","","bandit","124","507386","0.0-86.0-0.0","09478422","wem/bandit_single","A1A1BYX3OAXANM","gain","8","","75","K","2","","0","0","1","0.218731525","","false","49","0.394993817","","main_expt","0.4625410341","","0.218731525","","0.3500417472","","","","","","",""
"92","","bandit","125","509257","0.0-87.0-0.0","09478422","wem/bandit_single","A1A1BYX3OAXANM","gain","8","","75","K","2","","0","0","1","0.2187604329","","false","50","0.4358915385","","main_expt","0.4620574215","","0.2187604329","","0.3110114061","","","","","","",""
"115","","bandit","126","511149","0.0-88.0-0.0","09478422","wem/bandit_single","A1A1BYX3OAXANM","gain","8","","75","K","2","","0","0","1","0.2764450854","","false","51","0.4437026926","","main_expt","0.4573118055","","0.2764450854","","0.3165374422","","","","","","",""
"425","","bandit","127","513367","0.0-89.0-0.0","09478422","wem/bandit_single","A1A1BYX3OAXANM","gain","8","","75","K","2","","1","0","0","0.2735561336","","false","52","0.4357441266","","main_expt","0.4577170033","","0.2735561336","","0.3212783944","","","","","","",""
"145","","bandit","128","515303","0.0-90.0-0.0","09478422","wem/bandit_single","A1A1BYX3OAXANM","gain","8","","75","K","2","","0","0","1","0.2558353256","","false","53","0.3926545571","","main_expt","0.4599667981","","0.2558353256","","0.3079714244","","","","","","",""
"152","","bandit","129","517242","0.0-91.0-0.0","09478422","wem/bandit_single","A1A1BYX3OAXANM","gain","8","","75","K","2","","0","0","1","0.2856473895","","false","54","0.3841940555","","main_expt","0.4598989899","","0.2856473895","","0.3538619638","","","","","","",""
"407","","bandit","130","519454","0.0-92.0-0.0","09478422","wem/bandit_single","A1A1BYX3OAXANM","gain","8","","75","K","2","","1","0","0","0.3110799389","","false","55","0.3733442546","","main_expt","0.4371040197","","0.3110799389","","0.3390258849","","","","","","",""
"1181","","bandit","131","522430","0.0-93.0-0.0","09478422","wem/bandit_single","A1A1BYX3OAXANM","gain","8","","75","K","2","","0","0","1","0.2862995849","","false","56","0.3500738246","","main_expt","0.3889704242","","0.2862995849","","0.3282580673","","","","","","",""
"1523","","bandit","132","525746","0.0-94.0-0.0","09478422","wem/bandit_single","A1A1BYX3OAXANM","gain","8","","72","H","0","img/none_selected.jpg","0","0","1","0.3265916347","","false","57","0.3265916347","","main_expt","0.4089883961","","0.3029349154","","0.3014999451","","","","","","",""
"302","","bandit","133","527824","0.0-95.0-0.0","09478422","wem/bandit_single","A1A1BYX3OAXANM","gain","8","","72","H","0","img/none_selected.jpg","0","0","1","0.3203483638","","false","58","0.3203483638","","main_expt","0.3682078294","","0.282602966","","0.2895525025","","","","","","",""
"144","","bandit","134","529761","0.0-96.0-0.0","09478422","wem/bandit_single","A1A1BYX3OAXANM","gain","8","","72","H","0","img/none_selected.jpg","0","0","1","0.258324817","","false","59","0.258324817","","main_expt","0.426053772","","0.3271218703","","0.2538740387","","","","","","",""
"173","","bandit","135","531718","0.0-97.0-0.0","09478422","wem/bandit_single","A1A1BYX3OAXANM","gain","8","","72","H","0","img/none_selected.jpg","0","0","1","0.2527557167","","false","60","0.2527557167","","main_expt","0.4175969639","","0.2978757068","","0.2509640494","","","","","","",""
"321","","bandit","136","533833","0.0-98.0-0.0","09478422","wem/bandit_single","A1A1BYX3OAXANM","gain","8","","76","L","3","","0","0","1","0.1930295055","","false","61","0.2925705146","","main_expt","0.4124946444","","0.1922553384","","0.1930295055","","","","","","",""
"147","","bandit","137","535766","0.0-99.0-0.0","09478422","wem/bandit_single","A1A1BYX3OAXANM","gain","8","","76","L","3","","0","0","1","0.1259826115","","false","62","0.310648962","","main_expt","0.4077217862","","0.1408400783","","0.1259826115","","","","","","",""
"107","","bandit","138","537677","0.0-100.0-0.0","09478422","wem/bandit_single","A1A1BYX3OAXANM","gain","8","","76","L","3","","0","0","1","0.1388804293","","false","63","0.3175489896","","main_expt","0.4258821936","","0.1779610645","","0.1388804293","","","","","","",""
"918","","bandit","139","540394","0.0-101.0-0.0","09478422","wem/bandit_single","A1A1BYX3OAXANM","gain","8","","76","L","3","","0","0","1","0.1412297375","","false","64","0.2756852574","","main_expt","0.4314195329","","0.1733040919","","0.1412297375","","","","","","",""
"345","","bandit","140","542522","0.0-102.0-0.0","09478422","wem/bandit_single","A1A1BYX3OAXANM","gain","8","","75","K","2","","0","0","1","0.1669650696","","false","65","0.2798966648","","main_expt","0.4174082156","","0.1669650696","","0.07856201072","","","","","","",""
"115","","bandit","141","544438","0.0-103.0-0.0","09478422","wem/bandit_single","A1A1BYX3OAXANM","gain","8","","75","K","2","","0","0","1","0.1439674443","","false","66","0.2440426105","","main_expt","0.4396479182","","0.1439674443","","0.04493535693","","","","","","",""
"127","","bandit","142","546342","0.0-104.0-0.0","09478422","wem/bandit_single","A1A1BYX3OAXANM","gain","8","","75","K","2","","0","0","1","0.1892066175","","false","67","0.2630461485","","main_expt","0.4080198752","","0.1892066175","","0.06268984171","","","","","","",""
"27","","bandit","143","548171","0.0-105.0-0.0","09478422","wem/bandit_single","A1A1BYX3OAXANM","gain","8","","75","K","2","","0","0","1","0.1994174399","","false","68","0.2456224984","","main_expt","0.4137299856","","0.1994174399","","0.0976634122","","","","","","",""
"650","","bandit","144","550607","0.0-106.0-0.0","09478422","wem/bandit_single","A1A1BYX3OAXANM","gain","8","","75","K","2","","0","0","1","0.1624567358","","false","69","0.328759159","","main_expt","0.3938947582","","0.1624567358","","0.1303859095","","","","","","",""
"132","","bandit","145","552536","0.0-107.0-0.0","09478422","wem/bandit_single","A1A1BYX3OAXANM","gain","8","","74","J","1","","0","0","1","0.3876621225","","false","70","0.3063762308","","main_expt","0.3876621225","","0.203142037","","0.09159795462","","","","","","",""
"1075","","bandit","146","555410","0.0-108.0-0.0","09478422","wem/bandit_single","A1A1BYX3OAXANM","gain","8","","74","J","1","","1","0","0","0.3788053019","","false","71","0.3509026903","","main_expt","0.3788053019","","0.218187973","","0.07422050438","","","","","","",""
"95","","bandit","147","557313","0.0-109.0-0.0","09478422","wem/bandit_single","A1A1BYX3OAXANM","gain","8","","74","J","1","","0","0","1","0.3632611749","","false","72","0.3695940198","","main_expt","0.3632611749","","0.2357875668","","0.05420033029","","","","","","",""
"143","","bandit","148","559265","0.0-110.0-0.0","09478422","wem/bandit_single","A1A1BYX3OAXANM","gain","8","","74","J","1","","0","0","1","0.3121818875","","false","73","0.3532210052","","main_expt","0.3121818875","","0.1951490082","","0.04794676006","","","","","","",""
"123","","bandit","149","561178","0.0-111.0-0.0","09478422","wem/bandit_single","A1A1BYX3OAXANM","gain","8","","74","J","1","","1","0","0","0.3385624816","","false","74","0.3780170277","","main_expt","0.3385624816","","0.208621177","","0.03645121522","","","","","","",""
"44","","bandit","150","563000","0.0-112.0-0.0","09478422","wem/bandit_single","A1A1BYX3OAXANM","gain","8","","74","J","1","","0","0","1","0.3393964734","","false","75","0.3141643986","","main_expt","0.3393964734","","0.2016482668","","0.04346784694","","","","","","",""
"175","","bandit","151","564951","0.0-113.0-0.0","09478422","wem/bandit_single","A1A1BYX3OAXANM","gain","8","","74","J","1","","1","0","0","0.3489067358","","false","76","0.3520496016","","main_expt","0.3489067358","","0.2495615647","","0.05697420644","","","","","","",""
"42","","bandit","152","566782","0.0-114.0-0.0","09478422","wem/bandit_single","A1A1BYX3OAXANM","gain","8","","74","J","1","","0","0","1","0.3502211764","","false","77","0.2628688268","","main_expt","0.3502211764","","0.2225386599","","0.05831686642","","","","","","",""
"89","","bandit","153","568649","0.0-115.0-0.0","09478422","wem/bandit_single","A1A1BYX3OAXANM","gain","8","","74","J","1","","0","0","1","0.2979424841","","false","78","0.2856335909","","main_expt","0.2979424841","","0.2525784454","","0.0396837938","","","","","","",""
"1028","","bandit","154","571462","0.0-116.0-0.0","09478422","wem/bandit_single","A1A1BYX3OAXANM","gain","8","","74","J","1","","1","0","0","0.2779986596","","false","79","0.3052483479","","main_expt","0.2779986596","","0.2691825077","","0.03651397352","","","","","","",""
"104","","bandit","155","573351","0.0-117.0-0.0","09478422","wem/bandit_single","A1A1BYX3OAXANM","gain","8","","74","J","1","","0","0","1","0.2681941829","","false","80","0.2809417262","","main_expt","0.2681941829","","0.2749696362","","0.0570793957","","","","","","",""
"84","","bandit","156","575257","0.0-118.0-0.0","09478422","wem/bandit_single","A1A1BYX3OAXANM","gain","8","","74","J","1","","0","0","1","0.2536714586","","false","81","0.2639407754","","main_expt","0.2536714586","","0.291945729","","0.05597964966","","","","","","",""
"1158","","bandit","157","578190","0.0-119.0-0.0","09478422","wem/bandit_single","A1A1BYX3OAXANM","gain","8","","74","J","1","","1","0","0","0.1904528106","","false","82","0.3352417475","","main_expt","0.1904528106","","0.2804178179","","0.0589745046","","","","","","",""
"69","","bandit","158","580039","0.0-120.0-0.0","09478422","wem/bandit_single","A1A1BYX3OAXANM","gain","8","","74","J","1","","0","0","1","0.2497062266","","false","83","0.3246721101","","main_expt","0.2497062266","","0.2253075454","","0.04461225985","","","","","","",""
"133","","bandit","159","581981","0.0-121.0-0.0","09478422","wem/bandit_single","A1A1BYX3OAXANM","gain","8","","74","J","1","","0","0","1","0.2960017758","","false","84","0.3082112656","","main_expt","0.2960017758","","0.2475548924","","0.04600221485","","","","","","",""
"131","","bandit","160","583917","0.0-122.0-0.0","09478422","wem/bandit_single","A1A1BYX3OAXANM","gain","8","","74","J","1","","0","0","1","0.2677312645","","false","85","0.2733186338","","main_expt","0.2677312645","","0.2443994903","","0.04782026086","","","","","","",""
"381","","bandit","161","586113","0.0-123.0-0.0","09478422","wem/bandit_single","A1A1BYX3OAXANM","gain","8","","74","J","1","","1","0","0","0.2764415163","","false","86","0.2595222796","","main_expt","0.2764415163","","0.2112262296","","0.05551660222","","","","","","",""
"142","","bandit","162","588059","0.0-124.0-0.0","09478422","wem/bandit_single","A1A1BYX3OAXANM","gain","8","","74","J","1","","0","0","1","0.324022149","","false","87","0.2256999028","","main_expt","0.324022149","","0.2188998383","","0.04708869331","","","","","","",""
"82","","bandit","163","589917","0.0-125.0-0.0","09478422","wem/bandit_single","A1A1BYX3OAXANM","gain","8","","74","J","1","","0","0","1","0.3109963835","","false","88","0.1990670624","","main_expt","0.3109963835","","0.2197891412","","0.02844544313","","","","","","",""
"413","","bandit","164","592118","0.0-126.0-0.0","09478422","wem/bandit_single","A1A1BYX3OAXANM","gain","8","","74","J","1","","1","0","0","0.324941543","","false","89","0.2125628639","","main_expt","0.324941543","","0.1264972534","","0.02947982339","","","","","","",""
"91","","bandit","165","594004","0.0-127.0-0.0","09478422","wem/bandit_single","A1A1BYX3OAXANM","gain","8","","74","J","1","","0","0","1","0.3309337967","","false","90","0.2335475446","","main_expt","0.3309337967","","0.09492746395","","0.01544371513","","","","","","",""
"90","","bandit","166","595889","0.0-128.0-0.0","09478422","wem/bandit_single","A1A1BYX3OAXANM","gain","8","","74","J","1","","0","0","1","0.2419508287","","false","91","0.2803997126","","main_expt","0.2419508287","","0.0779798764","","0.02662688154","","","","","","",""
"54","","bandit","167","597738","0.0-129.0-0.0","09478422","wem/bandit_single","A1A1BYX3OAXANM","gain","8","","74","J","1","","0","0","1","0.2040869203","","false","92","0.2771315147","","main_expt","0.2040869203","","0.1178574791","","0.03471523835","","","","","","",""
"1458","","bandit","168","600976","0.0-130.0-0.0","09478422","wem/bandit_single","A1A1BYX3OAXANM","gain","8","","74","J","1","","0","0","1","0.1936143615","","false","93","0.3069544445","","main_expt","0.1936143615","","0.1199697814","","0.0252433293","","","","","","",""
"55","","bandit","169","602830","0.0-131.0-0.0","09478422","wem/bandit_single","A1A1BYX3OAXANM","gain","8","","74","J","1","","0","0","1","0.2296452841","","false","94","0.2585327286","","main_expt","0.2296452841","","0.1351842626","","0.02873343753","","","","","","",""
"841","","bandit","170","605469","0.0-132.0-0.0","09478422","wem/bandit_single","A1A1BYX3OAXANM","gain","8","","72","H","0","img/none_selected.jpg","1","0","0","0.2043747222","","false","95","0.2043747222","","main_expt","0.3009770616","","0.1229387465","","0.03754278977","","","","","","",""
"117","","bandit","171","607360","0.0-133.0-0.0","09478422","wem/bandit_single","A1A1BYX3OAXANM","gain","8","","72","H","0","img/none_selected.jpg","0","0","1","0.2149370614","","false","96","0.2149370614","","main_expt","0.3664634414","","0.1341504272","","0.02045008397","","","","","","",""
"134","","bandit","172","609300","0.0-134.0-0.0","09478422","wem/bandit_single","A1A1BYX3OAXANM","gain","8","","72","H","0","img/none_selected.jpg","0","0","1","0.1294523689","","false","97","0.1294523689","","main_expt","0.3476641925","","0.08646330057","","0.01282395838","","","","","","",""
"94","","bandit","173","611188","0.0-135.0-0.0","09478422","wem/bandit_single","A1A1BYX3OAXANM","gain","8","","72","H","0","img/none_selected.jpg","0","0","1","0.1653870254","","false","98","0.1653870254","","main_expt","0.3885632826","","0.07731746448","","0.02206163243","","","","","","",""
"802","","bandit","174","613787","0.0-136.0-0.0","09478422","wem/bandit_single","A1A1BYX3OAXANM","gain","8","","72","H","0","img/none_selected.jpg","1","0","0","0.187235433","","false","99","0.187235433","","main_expt","0.3222143249","","0.05048608161","","0.03016500256","","","","","","",""
"130","","bandit","175","615707","0.0-137.0-0.0","09478422","wem/bandit_single","A1A1BYX3OAXANM","gain","8","","72","H","0","img/none_selected.jpg","0","0","1","0.1583251777","","false","100","0.1583251777","","main_expt","0.3386714995","","0.03970728334","","0.03237578522","","","","","","",""
"4","","bandit","176","617505","0.0-138.0-0.0","09478422","wem/bandit_single","A1A1BYX3OAXANM","gain","8","","72","H","0","img/none_selected.jpg","0","0","1","0.1337381207","","false","101","0.1337381207","","main_expt","0.3131396166","","0.02108340439","","0.03241037075","","","","","","",""
"539","","bandit","177","619833","0.0-139.0-0.0","09478422","wem/bandit_single","A1A1BYX3OAXANM","gain","8","","72","H","0","img/none_selected.jpg","1","0","0","0.1163639012","","false","102","0.1163639012","","main_expt","0.3417288757","","0.05244648731","","0.06000215667","","","","","","",""
"105","","bandit","178","621721","0.0-140.0-0.0","09478422","wem/bandit_single","A1A1BYX3OAXANM","gain","8","","72","H","0","img/none_selected.jpg","0","0","1","0.1118657557","","false","103","0.1118657557","","main_expt","0.3582654759","","0.04574159302","","0.08726741307","","","","","","",""
"1512","","bandit","179","625024","0.0-141.0-0.0","09478422","wem/bandit_single","A1A1BYX3OAXANM","gain","8","","72","H","0","img/none_selected.jpg","0","0","1","0.1501499683","","false","104","0.1501499683","","main_expt","0.3409136392","","0.05033190662","","0.1067467257","","","","","","",""
"708","","bandit","180","627527","0.0-142.0-0.0","09478422","wem/bandit_single","A1A1BYX3OAXANM","gain","8","","72","H","0","img/none_selected.jpg","0","0","1","0.1354733374","","false","105","0.1354733374","","main_expt","0.3532992837","","0.1076128494","","0.1004566838","","","","","","",""
"155","","bandit","181","629466","0.0-143.0-0.0","09478422","wem/bandit_single","A1A1BYX3OAXANM","gain","8","","72","H","0","img/none_selected.jpg","0","0","1","0.1727398631","","false","106","0.1727398631","","main_expt","0.335683565","","0.06740855405","","0.1055318719","","","","","","",""
"58","","bandit","182","631342","0.0-144.0-0.0","09478422","wem/bandit_single","A1A1BYX3OAXANM","gain","8","","72","H","0","img/none_selected.jpg","0","0","1","0.1474174257","","false","107","0.1474174257","","main_expt","0.3924059951","","0.06658027063","","0.1236328269","","","","","","",""
"671","","bandit","183","633816","0.0-145.0-0.0","09478422","wem/bandit_single","A1A1BYX3OAXANM","gain","8","","75","K","2","","0","0","1","0.0777756245","","false","108","0.1683059408","","main_expt","0.3626054341","","0.0777756245","","0.1301170461","","","","","","",""
"91","","bandit","184","635702","0.0-146.0-0.0","09478422","wem/bandit_single","A1A1BYX3OAXANM","gain","8","","75","K","2","","0","0","1","0.1117823495","","false","109","0.1972223025","","main_expt","0.3806857721","","0.1117823495","","0.1507941036","","","","","","",""
"104","","bandit","185","637590","0.0-147.0-0.0","09478422","wem/bandit_single","A1A1BYX3OAXANM","gain","8","","75","K","2","","0","0","1","0.08710900622","","false","110","0.2085186414","","main_expt","0.3452619283","","0.08710900622","","0.1647590848","","","","","","",""
"613","","bandit","186","639984","0.0-148.0-0.0","09478422","wem/bandit_single","A1A1BYX3OAXANM","gain","8","","75","K","2","","0","0","1","0.107183683","","false","111","0.1811180602","","main_expt","0.3653509784","","0.107183683","","0.1574612326","","","","","","",""
"133","","bandit","187","641918","0.0-149.0-0.0","09478422","wem/bandit_single","A1A1BYX3OAXANM","gain","8","","75","K","2","","0","0","1","0.1099425133","","false","112","0.222295219","","main_expt","0.3435522482","","0.1099425133","","0.1406493921","","","","","","",""
"1291","","bandit","188","645006","0.0-150.0-0.0","09478422","wem/bandit_single","A1A1BYX3OAXANM","gain","8","","76","L","3","","0","0","1","0.1367300214","","false","113","0.254178783","","main_expt","0.3424956272","","0.1457634924","","0.1367300214","","","","","","",""
"154","","bandit","189","646956","0.0-151.0-0.0","09478422","wem/bandit_single","A1A1BYX3OAXANM","gain","8","","76","L","3","","1","0","0","0.1534665218","","false","114","0.2315882939","","main_expt","0.3353894863","","0.09824844824","","0.1534665218","","","","","","",""
"284","","bandit","190","649024","0.0-152.0-0.0","09478422","wem/bandit_single","A1A1BYX3OAXANM","gain","8","","76","L","3","","0","0","1","0.1890238391","","false","115","0.2079629003","","main_expt","0.3965113255","","0.07202874502","","0.1890238391","","","","","","",""
"277","","bandit","191","651084","0.0-153.0-0.0","09478422","wem/bandit_single","A1A1BYX3OAXANM","gain","8","","76","L","3","","0","0","1","0.1480670238","","false","116","0.2117584369","","main_expt","0.3889101716","","0.08386797302","","0.1480670238","","","","","","",""
"513","","bandit","192","653384","0.0-154.0-0.0","09478422","wem/bandit_single","A1A1BYX3OAXANM","gain","8","","76","L","3","","0","0","1","0.1450369027","","false","117","0.1897465023","","main_expt","0.412290601","","0.1223406282","","0.1450369027","","","","","","",""
"141","","bandit","193","655307","0.0-155.0-0.0","09478422","wem/bandit_single","A1A1BYX3OAXANM","gain","8","","76","L","3","","0","0","1","0.1525061225","","false","118","0.2162179109","","main_expt","0.4090296977","","0.1131974311","","0.1525061225","","","","","","",""
"208","","bandit","194","657307","0.0-156.0-0.0","09478422","wem/bandit_single","A1A1BYX3OAXANM","gain","8","","76","L","3","","0","0","1","0.1327940691","","false","119","0.1954464435","","main_expt","0.3900906375","","0.1214903214","","0.1327940691","","","","","","",""
"465","","bandit","195","659568","0.0-157.0-0.0","09478422","wem/bandit_single","A1A1BYX3OAXANM","gain","8","","76","L","3","","0","0","1","0.1517026744","","false","120","0.2433439763","","main_expt","0.3722828095","","0.1379734046","","0.1517026744","","","","","","",""
"162","","bandit","196","661526","0.0-158.0-0.0","09478422","wem/bandit_single","A1A1BYX3OAXANM","gain","8","","76","L","3","","0","0","1","0.09770447215","","false","121","0.2093375247","","main_expt","0.3593952677","","0.1537473387","","0.09770447215","","","","","","",""
"604","","bandit","197","663937","0.0-159.0-0.0","09478422","wem/bandit_single","A1A1BYX3OAXANM","gain","8","","74","J","1","","0","0","1","0.3670381393","","false","122","0.2030857612","","main_expt","0.3670381393","","0.1654199468","","0.1084092314","","","","","","",""
"43","","bandit","198","665778","0.0-160.0-0.0","09478422","wem/bandit_single","A1A1BYX3OAXANM","gain","8","","74","J","1","","0","0","1","0.3587286137","","false","123","0.1810532848","","main_expt","0.3587286137","","0.1908187881","","0.1828660492","","","","","","",""
"718","","bandit","199","668297","0.0-161.0-0.0","09478422","wem/bandit_single","A1A1BYX3OAXANM","gain","8","","74","J","1","","0","0","1","0.3492740793","","false","124","0.1582229448","","main_expt","0.3492740793","","0.2229551501","","0.1743556658","","","","","","",""
"67","","bandit","200","670148","0.0-162.0-0.0","09478422","wem/bandit_single","A1A1BYX3OAXANM","gain","8","","74","J","1","","0","0","1","0.3031262708","","false","125","0.1223239468","","main_expt","0.3031262708","","0.2354127912","","0.2091647646","","","","","","",""
"218","","bandit","201","672146","0.0-163.0-0.0","09478422","wem/bandit_single","A1A1BYX3OAXANM","gain","8","","74","J","1","","1","0","0","0.3272336491","","false","126","0.08912034734","","main_expt","0.3272336491","","0.25119817","","0.2089783764","","","","","","",""
"180","","bandit","202","674130","0.0-164.0-0.0","09478422","wem/bandit_single","A1A1BYX3OAXANM","gain","8","","74","J","1","","1","0","0","0.3153677968","","false","127","0.05948163","","main_expt","0.3153677968","","0.2312690923","","0.21334071","","","","","","",""
"228","","bandit","203","676151","0.0-165.0-0.0","09478422","wem/bandit_single","A1A1BYX3OAXANM","gain","8","","74","J","1","","0","0","1","0.3317710332","","false","128","0.06525821595","","main_expt","0.3317710332","","0.2741150261","","0.1916283041","","","","","","",""
"581","","bandit","204","678542","0.0-166.0-0.0","09478422","wem/bandit_single","A1A1BYX3OAXANM","gain","8","","74","J","1","","0","0","1","0.3818586719","","false","129","0.04677418535","","main_expt","0.3818586719","","0.2804264122","","0.1810604207","","","","","","",""
"255","","bandit","205","680595","0.0-167.0-0.0","09478422","wem/bandit_single","A1A1BYX3OAXANM","gain","8","","74","J","1","","1","0","0","0.3778611376","","false","130","0.04931785787","","main_expt","0.3778611376","","0.2746384559","","0.1492319935","","","","","","",""
"232","","bandit","206","682608","0.0-168.0-0.0","09478422","wem/bandit_single","A1A1BYX3OAXANM","gain","8","","74","J","1","","0","0","1","0.3745485054","","false","131","0.03231589458","","main_expt","0.3745485054","","0.3052944487","","0.129351286","","","","","","",""
"204","","bandit","207","684615","0.0-169.0-0.0","09478422","wem/bandit_single","A1A1BYX3OAXANM","gain","8","","74","J","1","","0","0","1","0.3901944836","","false","132","0.0374336399","","main_expt","0.3901944836","","0.2871604017","","0.1020216346","","","","","","",""
"114","","bandit","208","686543","0.0-170.0-0.0","09478422","wem/bandit_single","A1A1BYX3OAXANM","gain","8","","74","J","1","","1","0","0","0.3245875462","","false","133","0.04583961862","","main_expt","0.3245875462","","0.2262434135","","0.1100395313","","","","","","",""
"209","","bandit","209","688549","0.0-171.0-0.0","09478422","wem/bandit_single","A1A1BYX3OAXANM","gain","8","","74","J","1","","0","0","1","0.2794858075","","false","134","0.04150300199","","main_expt","0.2794858075","","0.2020687113","","0.1078381017","","","","","","",""
"765","","bandit","210","691122","0.0-172.0-0.0","09478422","wem/bandit_single","A1A1BYX3OAXANM","gain","8","","74","J","1","","0","0","1","0.2867414221","","false","135","0.04663842542","","main_expt","0.2867414221","","0.2168620662","","0.1093486249","","","","","","",""
"146","","bandit","211","693061","0.0-173.0-0.0","09478422","wem/bandit_single","A1A1BYX3OAXANM","gain","8","","74","J","1","","1","0","0","0.2388941587","","false","136","0.06291357963","","main_expt","0.2388941587","","0.151139006","","0.1246456113","","","","","","",""
"142","","bandit","212","694997","0.0-174.0-0.0","09478422","wem/bandit_single","A1A1BYX3OAXANM","gain","8","","74","J","1","","0","0","1","0.2301747732","","false","137","0.0848669819","","main_expt","0.2301747732","","0.1452995234","","0.1167447495","","","","","","",""
"181","","bandit","213","696967","0.0-175.0-0.0","09478422","wem/bandit_single","A1A1BYX3OAXANM","gain","8","","74","J","1","","0","0","1","0.2344721482","","false","138","0.1250360552","","main_expt","0.2344721482","","0.1599176777","","0.1357570265","","","","","","",""
"610","","bandit","214","699367","0.0-176.0-0.0","09478422","wem/bandit_single","A1A1BYX3OAXANM","gain","8","","74","J","1","","0","0","1","0.2351335283","","false","139","0.122190115","","main_expt","0.2351335283","","0.1704699841","","0.1616689495","","","","","","",""
"242","","bandit","215","701431","0.0-177.0-0.0","09478422","wem/bandit_single","A1A1BYX3OAXANM","gain","8","","74","J","1","","0","0","1","0.2876903143","","false","140","0.08666030548","","main_expt","0.2876903143","","0.1142956015","","0.1979747013","","","","","","",""
"186","","bandit","216","703395","0.0-178.0-0.0","09478422","wem/bandit_single","A1A1BYX3OAXANM","gain","8","","74","J","1","","0","0","1","0.2865732071","","false","141","0.09967801986","","main_expt","0.2865732071","","0.1206890816","","0.1708965128","","","","","","",""
"775","","bandit","217","706001","0.0-179.0-0.0","09478422","wem/bandit_single","A1A1BYX3OAXANM","gain","8","","75","K","2","","0","0","1","0.1324259923","","false","142","0.1125289611","","main_expt","0.248943806","","0.1324259923","","0.204481367","","","","","","",""
"319","","bandit","218","708125","0.0-180.0-0.0","09478422","wem/bandit_single","A1A1BYX3OAXANM","gain","8","","75","K","2","","0","0","1","0.09892217097","","false","143","0.1467602081","","main_expt","0.2839045407","","0.09892217097","","0.1861099789","","","","","","",""
"190","","bandit","219","710114","0.0-181.0-0.0","09478422","wem/bandit_single","A1A1BYX3OAXANM","gain","8","","75","K","2","","0","0","1","0.1577744197","","false","144","0.1467522766","","main_expt","0.3150250783","","0.1577744197","","0.1956465744","","","","","","",""
"223","","bandit","220","712139","0.0-182.0-0.0","09478422","wem/bandit_single","A1A1BYX3OAXANM","gain","8","","75","K","2","","0","0","1","0.1392006829","","false","145","0.118212248","","main_expt","0.3090395899","","0.1392006829","","0.2622876922","","","","","","",""
"1137","","bandit","221","715044","0.0-183.0-0.0","09478422","wem/bandit_single","A1A1BYX3OAXANM","gain","8","","72","H","0","img/none_selected.jpg","0","0","1","0.1089879874","","false","146","0.1089879874","","main_expt","0.3122039877","","0.1262993523","","0.304745079","","","","","","",""
"256","","bandit","222","717122","0.0-184.0-0.0","09478422","wem/bandit_single","A1A1BYX3OAXANM","gain","8","","72","H","0","img/none_selected.jpg","0","0","1","0.1200469816","","false","147","0.1200469816","","main_expt","0.2959619691","","0.1970652478","","0.2888799162","","","","","","",""
"293","","bandit","223","719193","0.0-185.0-0.0","09478422","wem/bandit_single","A1A1BYX3OAXANM","gain","8","","72","H","0","img/none_selected.jpg","0","0","1","0.1276189258","","false","148","0.1276189258","","main_expt","0.2395536641","","0.2502259542","","0.2290209364","","","","","","",""
"272","","bandit","224","721267","0.0-186.0-0.0","09478422","wem/bandit_single","A1A1BYX3OAXANM","gain","8","","72","H","0","img/none_selected.jpg","0","0","1","0.1280703092","","false","149","0.1280703092","","main_expt","0.2650868272","","0.264890558","","0.1626908122","","","","","","",""
"186","","bandit","225","723249","0.0-187.0-0.0","09478422","wem/bandit_single","A1A1BYX3OAXANM","gain","8","","72","H","0","img/none_selected.jpg","0","0","1","0.1260403861","","false","150","0.1260403861","","main_expt","0.2986082654","","0.2458403893","","0.1958031623","","","","","","",""
"312","","bandit","226","725336","0.0-188.0-0.0","09478422","wem/bandit_single","A1A1BYX3OAXANM","gain","8","","76","L","3","","0","0","1","0.2110526716","","false","151","0.1472493067","","main_expt","0.2843767109","","0.3021038309","","0.2110526716","","","","","","",""
"231","","bandit","227","727367","0.0-189.0-0.0","09478422","wem/bandit_single","A1A1BYX3OAXANM","gain","8","","76","L","3","","0","0","1","0.239542308","","false","152","0.1256460397","","main_expt","0.2910803031","","0.2863751765","","0.239542308","","","","","","",""
"180","","bandit","228","729333","0.0-190.0-0.0","09478422","wem/bandit_single","A1A1BYX3OAXANM","gain","8","","76","L","3","","0","0","1","0.2781725502","","false","153","0.1567097088","","main_expt","0.2910028656","","0.250244768","","0.2781725502","","","","","","",""
"222","","bandit","229","731362","0.0-191.0-0.0","09478422","wem/bandit_single","A1A1BYX3OAXANM","gain","8","","76","L","3","","0","0","1","0.228047793","","false","154","0.1473662378","","main_expt","0.2845613835","","0.2127808211","","0.228047793","","","","","","",""
"180","","bandit","230","733336","0.0-192.0-0.0","09478422","wem/bandit_single","A1A1BYX3OAXANM","gain","8","","76","L","3","","0","0","1","0.2683949018","","false","155","0.1466549972","","main_expt","0.2707345723","","0.205053704","","0.2683949018","","","","","","",""
"211","","bandit","231","735334","0.0-193.0-0.0","09478422","wem/bandit_single","A1A1BYX3OAXANM","gain","8","","75","K","2","","0","0","1","0.1648482415","","false","156","0.1127453184","","main_expt","0.3156720475","","0.1648482415","","0.3192141369","","","","","","",""
"217","","bandit","232","737352","0.0-194.0-0.0","09478422","wem/bandit_single","A1A1BYX3OAXANM","gain","8","","75","K","2","","1","0","0","0.1888047422","","false","157","0.1577506677","","main_expt","0.3101066834","","0.1888047422","","0.3402823895","","","","","","",""
"169","","bandit","233","739308","0.0-195.0-0.0","09478422","wem/bandit_single","A1A1BYX3OAXANM","gain","8","","75","K","2","","1","0","0","0.1759444775","","false","158","0.177177298","","main_expt","0.3236654942","","0.1759444775","","0.2944958958","","","","","","",""
"608","","bandit","234","741717","0.0-196.0-0.0","09478422","wem/bandit_single","A1A1BYX3OAXANM","gain","8","","75","K","2","","0","0","1","0.2066832709","","false","159","0.1693510486","","main_expt","0.2735657487","","0.2066832709","","0.3007248388","","","","","","",""
"78","","bandit","235","743617","0.0-197.0-0.0","09478422","wem/bandit_single","A1A1BYX3OAXANM","gain","8","","75","K","2","","1","0","0","0.2570817279","","false","160","0.1230292859","","main_expt","0.2384912546","","0.2570817279","","0.3179332055","","","","","","",""
"118","","bandit","236","745532","0.0-198.0-0.0","09478422","wem/bandit_single","A1A1BYX3OAXANM","gain","8","","75","K","2","","0","0","1","0.2244749933","","false","161","0.07903667538","","main_expt","0.2615252743","","0.2244749933","","0.2506164635","","","","","","",""
"1152","","bandit","237","748495","0.0-199.0-0.0","09478422","wem/bandit_single","A1A1BYX3OAXANM","gain","8","","75","K","2","","0","0","1","0.23263707","","false","162","0.1136507332","","main_expt","0.2187643747","","0.23263707","","0.2858836385","","","","","","",""
"175","","bandit","238","750476","0.0-200.0-0.0","09478422","wem/bandit_single","A1A1BYX3OAXANM","gain","8","","75","K","2","","0","0","1","0.2287127565","","false","163","0.1137116213","","main_expt","0.1909081127","","0.2287127565","","0.2848163613","","","","","","",""
"105","","bandit","239","752383","0.0-201.0-0.0","09478422","wem/bandit_single","A1A1BYX3OAXANM","gain","8","","75","K","2","","0","0","1","0.2303253206","","false","164","0.1254102563","","main_expt","0.1808716434","","0.2303253206","","0.2688566635","","","","","","",""
"591","","bandit","240","754759","0.0-202.0-0.0","09478422","wem/bandit_single","A1A1BYX3OAXANM","gain","8","","75","K","2","","0","0","1","0.2771057403","","false","165","0.1216805934","","main_expt","0.2118073572","","0.2771057403","","0.2921202554","","","","","","",""
"104","","bandit","241","756661","0.0-203.0-0.0","09478422","wem/bandit_single","A1A1BYX3OAXANM","gain","8","","75","K","2","","0","0","1","0.2371810998","","false","166","0.1291529517","","main_expt","0.2410554973","","0.2371810998","","0.3143591269","","","","","","",""
"589","","bandit","242","759053","0.0-204.0-0.0","09478422","wem/bandit_single","A1A1BYX3OAXANM","gain","8","","75","K","2","","0","0","1","0.2349122652","","false","167","0.1535345887","","main_expt","0.2574005288","","0.2349122652","","0.2892924204","","","","","","",""
"124","","bandit","243","760968","0.0-205.0-0.0","09478422","wem/bandit_single","A1A1BYX3OAXANM","gain","8","","75","K","2","","0","0","1","0.1959020284","","false","168","0.1435034989","","main_expt","0.2729884233","","0.1959020284","","0.2786305655","","","","","","",""
"535","","bandit","244","763289","0.0-206.0-0.0","09478422","wem/bandit_single","A1A1BYX3OAXANM","gain","8","","75","K","2","","0","0","1","0.1899859579","","false","169","0.1957458285","","main_expt","0.2625821735","","0.1899859579","","0.246803054","","","","","","",""
"80","","bandit","245","765175","0.0-207.0-0.0","09478422","wem/bandit_single","A1A1BYX3OAXANM","gain","8","","74","J","1","","0","0","1","0.3100542845","","false","170","0.1308867566","","main_expt","0.3100542845","","0.2213833812","","0.2375021307","","","","","","",""
"124","","bandit","246","767086","0.0-208.0-0.0","09478422","wem/bandit_single","A1A1BYX3OAXANM","gain","8","","74","J","1","","0","0","1","0.3083945368","","false","171","0.1422271972","","main_expt","0.3083945368","","0.1589997081","","0.2965678991","","","","","","",""
"144","","bandit","247","769005","0.0-209.0-0.0","09478422","wem/bandit_single","A1A1BYX3OAXANM","gain","8","","74","J","1","","0","0","1","0.3929186772","","false","172","0.1541925874","","main_expt","0.3929186772","","0.1669714507","","0.2696718616","","","","","","",""
"110","","bandit","248","770916","0.0-210.0-0.0","09478422","wem/bandit_single","A1A1BYX3OAXANM","gain","8","","74","J","1","","1","0","0","0.4107736206","","false","173","0.1416394444","","main_expt","0.4107736206","","0.1699847696","","0.2576521005","","","","","","",""
"268","","bandit","249","772987","0.0-211.0-0.0","09478422","wem/bandit_single","A1A1BYX3OAXANM","gain","8","","74","J","1","","0","0","1","0.4267170337","","false","174","0.1207830423","","main_expt","0.4267170337","","0.202136981","","0.2839516933","","","","","","",""
"186","","bandit","250","774969","0.0-212.0-0.0","09478422","wem/bandit_single","A1A1BYX3OAXANM","gain","8","","74","J","1","","1","0","0","0.420504823","","false","175","0.1636312712","","main_expt","0.420504823","","0.1863880777","","0.2932452363","","","","","","",""
"114","","bandit","251","776887","0.0-213.0-0.0","09478422","wem/bandit_single","A1A1BYX3OAXANM","gain","8","","74","J","1","","0","0","1","0.3956962169","","false","176","0.186569684","","main_expt","0.3956962169","","0.1426909825","","0.3118313574","","","","","","",""
"162","","bandit","252","778856","0.0-214.0-0.0","09478422","wem/bandit_single","A1A1BYX3OAXANM","gain","8","","74","J","1","","0","0","1","0.3834761318","","false","177","0.1089038478","","main_expt","0.3834761318","","0.1335645184","","0.3378695823","","","","","","",""
"121","","bandit","253","780767","0.0-215.0-0.0","09478422","wem/bandit_single","A1A1BYX3OAXANM","gain","8","","74","J","1","","1","0","0","0.4167112469","","false","178","0.08465244813","","main_expt","0.4167112469","","0.09719791569","","0.3234122319","","","","","","",""
"148","","bandit","254","782700","0.0-216.0-0.0","09478422","wem/bandit_single","A1A1BYX3OAXANM","gain","8","","74","J","1","","0","0","1","0.4370197561","","false","179","0.1015747644","","main_expt","0.4370197561","","0.07123289457","","0.3281528324","","","","","","",""
"305","","bandit","255","784784","0.0-217.0-0.0","09478422","wem/bandit_single","A1A1BYX3OAXANM","gain","8","","74","J","1","","0","0","1","0.3776598584","","false","180","0.1277953302","","main_expt","0.3776598584","","0.05555663239","","0.340497037","","","","","","",""
"96","","bandit","256","786706","0.0-218.0-0.0","09478422","wem/bandit_single","A1A1BYX3OAXANM","gain","8","","74","J","1","","0","0","1","0.3636519722","","false","181","0.1854921141","","main_expt","0.3636519722","","0.04396828199","","0.3007371283","","","","","","",""
"468","","bandit","257","788972","0.0-219.0-0.0","09478422","wem/bandit_single","A1A1BYX3OAXANM","gain","8","","74","J","1","","0","0","1","0.3246411676","","false","182","0.2273529654","","main_expt","0.3246411676","","0.02691259782","","0.3190136055","","","","","","",""
"672","","bandit","258","791453","0.0-220.0-0.0","09478422","wem/bandit_single","A1A1BYX3OAXANM","gain","8","","74","J","1","","1","0","0","0.3187018958","","false","183","0.2600234541","","main_expt","0.3187018958","","0.04807599522","","0.322323442","","","","","","",""
"207","","bandit","259","793443","0.0-221.0-0.0","09478422","wem/bandit_single","A1A1BYX3OAXANM","gain","8","","74","J","1","","1","0","0","0.3497063737","","false","184","0.2689652485","","main_expt","0.3497063737","","0.05076165442","","0.3086696071","","","","","","",""
"232","","bandit","260","795488","0.0-222.0-0.0","09478422","wem/bandit_single","A1A1BYX3OAXANM","gain","8","","74","J","1","","0","0","1","0.3334532315","","false","185","0.2646203852","","main_expt","0.3334532315","","0.1128087831","","0.3146814862","","","","","","",""
"318","","bandit","261","797596","0.0-223.0-0.0","09478422","wem/bandit_single","A1A1BYX3OAXANM","gain","8","","74","J","1","","1","0","0","0.3511592443","","false","186","0.2038557162","","main_expt","0.3511592443","","0.1592260056","","0.3353274036","","","","","","",""
"234","","bandit","262","799639","0.0-224.0-0.0","09478422","wem/bandit_single","A1A1BYX3OAXANM","gain","8","","74","J","1","","0","0","1","0.3758503369","","false","187","0.2643634763","","main_expt","0.3758503369","","0.2195828404","","0.331036234","","","","","","",""
"114","","bandit","263","801549","0.0-225.0-0.0","09478422","wem/bandit_single","A1A1BYX3OAXANM","gain","8","","74","J","1","","1","0","0","0.3951098987","","false","188","0.2137054787","","main_expt","0.3951098987","","0.214856838","","0.3061178756","","","","","","",""
"163","","bandit","264","803491","0.0-226.0-0.0","09478422","wem/bandit_single","A1A1BYX3OAXANM","gain","8","","74","J","1","","1","0","0","0.3766733461","","false","189","0.2349639762","","main_expt","0.3766733461","","0.2103369464","","0.3455914038","","","","","","",""
"146","","bandit","265","805418","0.0-227.0-0.0","09478422","wem/bandit_single","A1A1BYX3OAXANM","gain","8","","74","J","1","","0","0","1","0.3974997784","","false","190","0.2067261929","","main_expt","0.3974997784","","0.1932940482","","0.3734842368","","","","","","",""
"91","","bandit","266","807301","0.0-228.0-0.0","09478422","wem/bandit_single","A1A1BYX3OAXANM","gain","8","","74","J","1","","0","0","1","0.4174686418","","false","191","0.275245882","","main_expt","0.4174686418","","0.2285646161","","0.3648323685","","","","","","",""
"1239","","bandit","267","810327","0.0-229.0-0.0","09478422","wem/bandit_single","A1A1BYX3OAXANM","gain","8","","74","J","1","","0","0","1","0.3963748123","","false","192","0.306220044","","main_expt","0.3963748123","","0.2589031043","","0.3339781981","","","","","","",""
"1113","","bandit","268","813244","0.0-230.0-0.0","09478422","wem/bandit_single","A1A1BYX3OAXANM","gain","8","","74","J","1","","0","0","1","0.3921748604","","false","193","0.3035773814","","main_expt","0.3921748604","","0.2195537535","","0.3342714415","","","","","","",""
"287","","bandit","269","815323","0.0-231.0-0.0","09478422","wem/bandit_single","A1A1BYX3OAXANM","gain","8","","74","J","1","","0","0","1","0.3580841109","","false","194","0.2510827831","","main_expt","0.3580841109","","0.2027550427","","0.3241295504","","","","","","",""
"1436","","bandit","270","818569","0.0-232.0-0.0","09478422","wem/bandit_single","A1A1BYX3OAXANM","gain","8","","74","J","1","","1","0","0","0.3508589263","","false","195","0.2455858858","","main_expt","0.3508589263","","0.1862287394","","0.3116310431","","","","","","",""
"272","","bandit","271","820633","0.0-233.0-0.0","09478422","wem/bandit_single","A1A1BYX3OAXANM","gain","8","","74","J","1","","0","0","1","0.3580593089","","false","196","0.2514601016","","main_expt","0.3580593089","","0.1892299528","","0.3757707762","","","","","","",""
"295","","bandit","272","822736","0.0-234.0-0.0","09478422","wem/bandit_single","A1A1BYX3OAXANM","gain","8","","74","J","1","","0","0","1","0.325214339","","false","197","0.2735270373","","main_expt","0.325214339","","0.2217707201","","0.3510132286","","","","","","",""
"69","","bandit","273","824604","0.0-235.0-0.0","09478422","wem/bandit_single","A1A1BYX3OAXANM","gain","8","","74","J","1","","1","0","0","0.3214736551","","false","198","0.1856542716","","main_expt","0.3214736551","","0.2622368769","","0.3775824693","","","","","","",""
"84","","bandit","274","826505","0.0-236.0-0.0","09478422","wem/bandit_single","A1A1BYX3OAXANM","gain","8","","74","J","1","","0","0","1","0.3134841864","","false","199","0.1439471636","","main_expt","0.3134841864","","0.2566369559","","0.3591355879","","","","","","",""
"186","","bandit","275","828504","0.0-237.0-0.0","09478422","wem/bandit_single","A1A1BYX3OAXANM","gain","8","","74","J","1","","0","0","1","0.3484934822","","false","200","0.1920673188","","main_expt","0.3484934822","","0.2405232655","","0.4329566742","","","","","","",""
"136","","bandit","276","830435","0.0-238.0-0.0","09478422","wem/bandit_single","A1A1BYX3OAXANM","gain","8","","74","J","1","","0","0","1","0.3509587021","","false","201","0.2139557707","","main_expt","0.3509587021","","0.191632201","","0.4316294991","","","","","","",""
"72","","bandit","277","832302","0.0-239.0-0.0","09478422","wem/bandit_single","A1A1BYX3OAXANM","gain","8","","74","J","1","","1","0","0","0.3472711197","","false","202","0.2411081829","","main_expt","0.3472711197","","0.1860277461","","0.4446061493","","","","","","",""
"164","","bandit","278","834246","0.0-240.0-0.0","09478422","wem/bandit_single","A1A1BYX3OAXANM","gain","8","","74","J","1","","0","0","1","0.3501901851","","false","203","0.2229679022","","main_expt","0.3501901851","","0.1959395152","","0.4350640844","","","","","","",""
"116","","bandit","279","836173","0.0-241.0-0.0","09478422","wem/bandit_single","A1A1BYX3OAXANM","gain","8","","74","J","1","","0","0","1","0.4021923856","","false","204","0.2094072873","","main_expt","0.4021923856","","0.1909798814","","0.4511953558","","","","","","",""
"95","","bandit","280","838057","0.0-242.0-0.0","09478422","wem/bandit_single","A1A1BYX3OAXANM","gain","8","","74","J","1","","0","0","1","0.4103624794","","false","205","0.2061243076","","main_expt","0.4103624794","","0.1952925147","","0.4444608137","","","","","","",""
"109","","bandit","281","839987","0.0-243.0-0.0","09478422","wem/bandit_single","A1A1BYX3OAXANM","gain","8","","74","J","1","","0","0","1","0.3884407208","","false","206","0.1830656651","","main_expt","0.3884407208","","0.2333477628","","0.4174874576","","","","","","",""
"185","","bandit","282","841963","0.0-244.0-0.0","09478422","wem/bandit_single","A1A1BYX3OAXANM","gain","8","","74","J","1","","0","0","1","0.4205181933","","false","207","0.1806213093","","main_expt","0.4205181933","","0.2366383375","","0.4473837798","","","","","","",""
"192","","bandit","283","843954","0.0-245.0-0.0","09478422","wem/bandit_single","A1A1BYX3OAXANM","gain","8","","74","J","1","","1","0","0","0.39705837","","false","208","0.1547428587","","main_expt","0.39705837","","0.2588239296","","0.4423282801","","","","","","",""
"329","","bandit","284","846076","0.0-246.0-0.0","09478422","wem/bandit_single","A1A1BYX3OAXANM","gain","8","","74","J","1","","0","0","1","0.3763678409","","false","209","0.1633509089","","main_expt","0.3763678409","","0.2109346514","","0.4495798672","","","","","","",""
"161","","bandit","285","848030","0.0-247.0-0.0","09478422","wem/bandit_single","A1A1BYX3OAXANM","gain","8","","74","J","1","","1","0","0","0.329669689","","false","210","0.194224154","","main_expt","0.329669689","","0.2352346414","","0.4604116181","","","","","","",""
"173","","bandit","286","850011","0.0-248.0-0.0","09478422","wem/bandit_single","A1A1BYX3OAXANM","gain","8","","74","J","1","","1","0","0","0.3234151823","","false","211","0.1428536625","","main_expt","0.3234151823","","0.1919095989","","0.4515605979","","","","","","",""
"24","","bandit","287","851820","0.0-249.0-0.0","09478422","wem/bandit_single","A1A1BYX3OAXANM","gain","8","","74","J","1","","1","0","0","0.346289724","","false","212","0.1876263767","","main_expt","0.346289724","","0.2511997366","","0.3796359761","","","","","","",""
"116","","bandit","288","853751","0.0-250.0-0.0","09478422","wem/bandit_single","A1A1BYX3OAXANM","gain","8","","74","J","1","","0","0","1","0.3579646626","","false","213","0.1767426991","","main_expt","0.3579646626","","0.2247602752","","0.4098311692","","","","","","",""
"166","","bandit","289","855718","0.0-251.0-0.0","09478422","wem/bandit_single","A1A1BYX3OAXANM","gain","8","","74","J","1","","1","0","0","0.3871938136","","false","214","0.1997003326","","main_expt","0.3871938136","","0.2078026042","","0.3758430492","","","","","","",""
"119","","bandit","290","857653","0.0-252.0-0.0","09478422","wem/bandit_single","A1A1BYX3OAXANM","gain","8","","74","J","1","","1","0","0","0.4072701047","","false","215","0.1753208105","","main_expt","0.4072701047","","0.2000367883","","0.3391734167","","","","","","",""
"869","","bandit","291","860334","0.0-253.0-0.0","09478422","wem/bandit_single","A1A1BYX3OAXANM","gain","8","","74","J","1","","1","0","0","0.4139997029","","false","216","0.1526073348","","main_expt","0.4139997029","","0.1850279066","","0.3292806148","","","","","","",""
"98","","bandit","292","862220","0.0-254.0-0.0","09478422","wem/bandit_single","A1A1BYX3OAXANM","gain","8","","74","J","1","","1","0","0","0.4058129166","","false","217","0.1885901152","","main_expt","0.4058129166","","0.1862329662","","0.3672552775","","","","","","",""
"64","","bandit","293","864076","0.0-255.0-0.0","09478422","wem/bandit_single","A1A1BYX3OAXANM","gain","8","","74","J","1","","0","0","1","0.3831507141","","false","218","0.2068683321","","main_expt","0.3831507141","","0.2076422808","","0.3540988412","","","","","","",""
"153","","bandit","294","866016","0.0-256.0-0.0","09478422","wem/bandit_single","A1A1BYX3OAXANM","gain","8","","74","J","1","","0","0","1","0.3975704748","","false","219","0.1830460615","","main_expt","0.3975704748","","0.1693095695","","0.3705907093","","","","","","",""
"78","","bandit","295","867895","0.0-257.0-0.0","09478422","wem/bandit_single","A1A1BYX3OAXANM","gain","8","","74","J","1","","1","0","0","0.420208779","","false","220","0.1510464272","","main_expt","0.420208779","","0.1643321708","","0.4071767116","","","","","","",""
"82","","bandit","296","869774","0.0-258.0-0.0","09478422","wem/bandit_single","A1A1BYX3OAXANM","gain","8","","74","J","1","","1","0","0","0.4277126104","","false","221","0.1195154075","","main_expt","0.4277126104","","0.1755642267","","0.4000591573","","","","","","",""
"868","","bandit","297","872444","0.0-259.0-0.0","09478422","wem/bandit_single","A1A1BYX3OAXANM","gain","8","","74","J","1","","0","0","1","0.4098861052","","false","222","0.1322821073","","main_expt","0.4098861052","","0.2047466037","","0.4257242725","","","","","","",""
"528","","bandit","298","874760","0.0-260.0-0.0","09478422","wem/bandit_single","A1A1BYX3OAXANM","gain","8","","74","J","1","","1","0","0","0.3865692481","","false","223","0.1634864242","","main_expt","0.3865692481","","0.1261696039","","0.4084538547","","","","","","",""
"300","","bandit","299","876867","0.0-261.0-0.0","09478422","wem/bandit_single","A1A1BYX3OAXANM","gain","8","","74","J","1","","0","0","1","0.3942994903","","false","224","0.1927622759","","main_expt","0.3942994903","","0.1671605087","","0.3756333804","","","","","","",""
"186","","bandit","300","878863","0.0-262.0-0.0","09478422","wem/bandit_single","A1A1BYX3OAXANM","gain","8","","74","J","1","","0","0","1","0.3444994861","","false","225","0.1949177646","","main_expt","0.3444994861","","0.1498322393","","0.3977261909","","","","","","",""
"158","","bandit","301","880827","0.0-263.0-0.0","09478422","wem/bandit_single","A1A1BYX3OAXANM","gain","8","","74","J","1","","1","0","0","0.4042132592","","false","226","0.1675301724","","main_expt","0.4042132592","","0.106170416","","0.3876796808","","","","","","",""
"320","","bandit","302","882953","0.0-264.0-0.0","09478422","wem/bandit_single","A1A1BYX3OAXANM","gain","8","","74","J","1","","0","0","1","0.3906229402","","false","227","0.163375113","","main_expt","0.3906229402","","0.0897934899","","0.3213858912","","","","","","",""
"284","","bandit","303","885033","0.0-265.0-0.0","09478422","wem/bandit_single","A1A1BYX3OAXANM","gain","8","","74","J","1","","1","0","0","0.3417164876","","false","228","0.195474145","","main_expt","0.3417164876","","0.09443294629","","0.3331191915","","","","","","",""
"219","","bandit","304","887031","0.0-266.0-0.0","09478422","wem/bandit_single","A1A1BYX3OAXANM","gain","8","","74","J","1","","0","0","1","0.3222205624","","false","229","0.2410354958","","main_expt","0.3222205624","","0.0848669953","","0.308496805","","","","","","",""
"303","","bandit","305","889146","0.0-267.0-0.0","09478422","wem/bandit_single","A1A1BYX3OAXANM","gain","8","","74","J","1","","0","0","1","0.3442672336","","false","230","0.2567648542","","main_expt","0.3442672336","","0.0701458292","","0.2734654059","","","","","","",""
"146","","bandit","306","891093","0.0-268.0-0.0","09478422","wem/bandit_single","A1A1BYX3OAXANM","gain","8","","74","J","1","","0","0","1","0.3164459362","","false","231","0.2304241664","","main_expt","0.3164459362","","0.1251282835","","0.292212981","","","","","","",""
"38","","bandit","307","892918","0.0-269.0-0.0","09478422","wem/bandit_single","A1A1BYX3OAXANM","gain","8","","74","J","1","","0","0","1","0.3396906789","","false","232","0.2264886823","","main_expt","0.3396906789","","0.1124912266","","0.2516656152","","","","","","",""
"37","","bandit","308","894768","0.0-270.0-0.0","09478422","wem/bandit_single","A1A1BYX3OAXANM","gain","8","","74","J","1","","0","0","1","0.3008540409","","false","233","0.1892320941","","main_expt","0.3008540409","","0.1535494164","","0.2563877418","","","","","","",""
"13","","bandit","309","896574","0.0-271.0-0.0","09478422","wem/bandit_single","A1A1BYX3OAXANM","gain","8","","74","J","1","","0","0","1","0.2767988229","","false","234","0.1556895318","","main_expt","0.2767988229","","0.1389628654","","0.283882603","","","","","","",""
"976","","bandit","310","899347","0.0-272.0-0.0","09478422","wem/bandit_single","A1A1BYX3OAXANM","gain","8","","74","J","1","","1","0","0","0.2507781603","","false","235","0.1976044491","","main_expt","0.2507781603","","0.1680793718","","0.2758852766","","","","","","",""
"139","","bandit","311","901278","0.0-273.0-0.0","09478422","wem/bandit_single","A1A1BYX3OAXANM","gain","8","","74","J","1","","1","0","0","0.3091667607","","false","236","0.1468950029","","main_expt","0.3091667607","","0.2037097706","","0.2434452049","","","","","","",""
"65","","bandit","312","903150","0.0-274.0-0.0","09478422","wem/bandit_single","A1A1BYX3OAXANM","gain","8","","74","J","1","","0","0","1","0.2883211118","","false","237","0.1365515699","","main_expt","0.2883211118","","0.1897176974","","0.2405517979","","","","","","",""
"102","","bandit","313","905052","0.0-275.0-0.0","09478422","wem/bandit_single","A1A1BYX3OAXANM","gain","8","","74","J","1","","0","0","1","0.2756444762","","false","238","0.1527077476","","main_expt","0.2756444762","","0.2317710791","","0.2260832521","","","","","","",""
"113","","bandit","314","906975","0.0-276.0-0.0","09478422","wem/bandit_single","A1A1BYX3OAXANM","gain","8","","74","J","1","","0","0","1","0.3061346513","","false","239","0.1315224722","","main_expt","0.3061346513","","0.2206906913","","0.2061693665","","","","","","",""
"106","","bandit","315","908899","0.0-277.0-0.0","09478422","wem/bandit_single","A1A1BYX3OAXANM","gain","8","","74","J","1","","0","0","1","0.3274201615","","false","240","0.1398926963","","main_expt","0.3274201615","","0.2155283076","","0.2203195159","","","","","","",""
"146","","bandit","316","910850","0.0-278.0-0.0","09478422","wem/bandit_single","A1A1BYX3OAXANM","gain","8","","74","J","1","","0","0","1","0.2838770346","","false","241","0.1698873683","","main_expt","0.2838770346","","0.2386015387","","0.2230507071","","","","","","",""
"270","","bandit","317","912901","0.0-279.0-0.0","09478422","wem/bandit_single","A1A1BYX3OAXANM","gain","8","","74","J","1","","0","0","1","0.261873528","","false","242","0.1693915972","","main_expt","0.261873528","","0.2178179326","","0.1834748297","","","","","","",""
"421","","bandit","318","915133","0.0-280.0-0.0","09478422","wem/bandit_single","A1A1BYX3OAXANM","gain","8","","74","J","1","","0","0","1","0.2346518895","","false","243","0.2011280514","","main_expt","0.2346518895","","0.2209910316","","0.1450766806","","","","","","",""
"494","","bandit","319","917430","0.0-281.0-0.0","09478422","wem/bandit_single","A1A1BYX3OAXANM","gain","8","","72","H","0","img/none_selected.jpg","0","0","1","0.283074141","","false","244","0.283074141","","main_expt","0.2253303202","","0.2202366047","","0.1407015906","","","","","","",""
"183","","bandit","320","919415","0.0-282.0-0.0","09478422","wem/bandit_single","A1A1BYX3OAXANM","gain","8","","72","H","0","img/none_selected.jpg","0","0","1","0.2960363525","","false","245","0.2960363525","","main_expt","0.2379184421","","0.2369425358","","0.1386250556","","","","","","",""
"216","","bandit","321","921427","0.0-283.0-0.0","09478422","wem/bandit_single","A1A1BYX3OAXANM","gain","8","","72","H","0","img/none_selected.jpg","0","0","1","0.2985154159","","false","246","0.2985154159","","main_expt","0.1704118475","","0.2437218948","","0.1561911267","","","","","","",""
"183","","bandit","322","923418","0.0-284.0-0.0","09478422","wem/bandit_single","A1A1BYX3OAXANM","gain","8","","72","H","0","img/none_selected.jpg","0","0","1","0.3159682012","","false","247","0.3159682012","","main_expt","0.1520093858","","0.2573167276","","0.251644506","","","","","","",""
"91","","bandit","323","925310","0.0-285.0-0.0","09478422","wem/bandit_single","A1A1BYX3OAXANM","gain","8","","72","H","0","img/none_selected.jpg","1","0","0","0.2937445921","","false","248","0.2937445921","","main_expt","0.1246217458","","0.255349996","","0.2541276422","","","","","","",""
"273","","bandit","324","927381","0.0-286.0-0.0","09478422","wem/bandit_single","A1A1BYX3OAXANM","gain","8","","72","H","0","img/none_selected.jpg","0","0","1","0.2794909668","","false","249","0.2794909668","","main_expt","0.1525969556","","0.2866877344","","0.1924412691","","","","","","",""
"420","","bandit","325","929596","0.0-287.0-0.0","09478422","wem/bandit_single","A1A1BYX3OAXANM","gain","8","","72","H","0","img/none_selected.jpg","0","0","1","0.2327966623","","false","250","0.2327966623","","main_expt","0.1500628479","","0.2330780591","","0.1397358892","","","","","","",""
"145","","bandit","326","931547","0.0-288.0-0.0","09478422","wem/bandit_single","A1A1BYX3OAXANM","gain","8","","72","H","0","img/none_selected.jpg","0","0","1","0.2595602212","","false","251","0.2595602212","","main_expt","0.1141396938","","0.2580196572","","0.1362233376","","","","","","",""
"108","","bandit","327","933465","0.0-289.0-0.0","09478422","wem/bandit_single","A1A1BYX3OAXANM","gain","8","","72","H","0","img/none_selected.jpg","0","0","1","0.2715763176","","false","252","0.2715763176","","main_expt","0.1476089834","","0.2003146692","","0.1796418735","","","","","","",""
"111","","bandit","328","935395","0.0-290.0-0.0","09478422","wem/bandit_single","A1A1BYX3OAXANM","gain","8","","72","H","0","img/none_selected.jpg","0","0","1","0.3146654463","","false","253","0.3146654463","","main_expt","0.175183139","","0.1651092288","","0.1833608075","","","","","","",""
"170","","bandit","329","937376","0.0-291.0-0.0","09478422","wem/bandit_single","A1A1BYX3OAXANM","gain","8","","72","H","0","img/none_selected.jpg","0","0","1","0.3037610447","","false","254","0.3037610447","","main_expt","0.1916323123","","0.1413675546","","0.1983034343","","","","","","",""
"252","","bandit","330","939459","0.0-292.0-0.0","09478422","wem/bandit_single","A1A1BYX3OAXANM","gain","8","","75","K","2","","0","0","1","0.1801919014","","false","255","0.287825992","","main_expt","0.1888714334","","0.1801919014","","0.2286544637","","","","","","",""
"129","","bandit","331","941441","0.0-293.0-0.0","09478422","wem/bandit_single","A1A1BYX3OAXANM","gain","8","","75","K","2","","1","0","0","0.1883387327","","false","256","0.2673332977","","main_expt","0.2338577058","","0.1883387327","","0.2502735072","","","","","","",""
"157","","bandit","332","943384","0.0-294.0-0.0","09478422","wem/bandit_single","A1A1BYX3OAXANM","gain","8","","75","K","2","","1","0","0","0.1757220287","","false","257","0.2867614738","","main_expt","0.2235288738","","0.1757220287","","0.2657937058","","","","","","",""
"101","","bandit","333","945291","0.0-295.0-0.0","09478422","wem/bandit_single","A1A1BYX3OAXANM","gain","8","","75","K","2","","0","0","1","0.1817694486","","false","258","0.2432485896","","main_expt","0.2256298632","","0.1817694486","","0.2326681124","","","","","","",""
"346","","bandit","334","947452","0.0-296.0-0.0","09478422","wem/bandit_single","A1A1BYX3OAXANM","gain","8","","75","K","2","","0","0","1","0.1938363466","","false","259","0.2433124215","","main_expt","0.229367941","","0.1938363466","","0.2128848171","","","","","","",""
"472","","bandit","335","949724","0.0-297.0-0.0","09478422","wem/bandit_single","A1A1BYX3OAXANM","gain","8","","75","K","2","","0","0","1","0.2129025296","","false","260","0.202057327","","main_expt","0.2585863351","","0.2129025296","","0.261065439","","","","","","",""
"149","","bandit","336","951674","0.0-298.0-0.0","09478422","wem/bandit_single","A1A1BYX3OAXANM","gain","8","","75","K","2","","0","0","1","0.1931457884","","false","261","0.163702413","","main_expt","0.2748644017","","0.1931457884","","0.2693274395","","","","","","",""
"18","","bandit","337","953483","0.0-299.0-0.0","09478422","wem/bandit_single","A1A1BYX3OAXANM","gain","8","","75","K","2","","0","0","1","0.183306516","","false","262","0.1317961998","","main_expt","0.288340978","","0.183306516","","0.3386888623","","","","","","",""
"231","","bandit","338","955524","0.0-300.0-0.0","09478422","wem/bandit_single","A1A1BYX3OAXANM","gain","8","","75","K","2","","0","0","1","0.1293037787","","false","263","0.09680570831","","main_expt","0.3151532186","","0.1293037787","","0.3645909238","","","","","","",""
"186","","bandit","339","957498","0.0-301.0-0.0","09478422","wem/bandit_single","A1A1BYX3OAXANM","gain","8","","75","K","2","","0","0","1","0.1386072774","","false","264","0.08846786375","","main_expt","0.2931268787","","0.1386072774","","0.3437159196","","","","","","",""
"173","","bandit","340","959474","0.0-302.0-0.0","09478422","wem/bandit_single","A1A1BYX3OAXANM","gain","8","","76","L","3","","0","0","1","0.3644358952","","false","265","0.08556864258","","main_expt","0.3131275506","","0.1511252148","","0.3644358952","","","","","","",""
"143","","bandit","341","961410","0.0-303.0-0.0","09478422","wem/bandit_single","A1A1BYX3OAXANM","gain","8","","76","L","3","","1","0","0","0.3904852039","","false","266","0.0706515048","","main_expt","0.336523231","","0.2186772706","","0.3904852039","","","","","","",""
"221","","bandit","342","963429","0.0-304.0-0.0","09478422","wem/bandit_single","A1A1BYX3OAXANM","gain","8","","76","L","3","","0","0","1","0.3896615427","","false","267","0.0747424838","","main_expt","0.2850369317","","0.2625163009","","0.3896615427","","","","","","",""
"203","","bandit","343","965433","0.0-305.0-0.0","09478422","wem/bandit_single","A1A1BYX3OAXANM","gain","8","","76","L","3","","1","0","0","0.4017278216","","false","268","0.112617448","","main_expt","0.3163307124","","0.3140442454","","0.4017278216","","","","","","",""
"139","","bandit","344","967391","0.0-306.0-0.0","09478422","wem/bandit_single","A1A1BYX3OAXANM","gain","8","","76","L","3","","0","0","1","0.370996795","","false","269","0.1406639307","","main_expt","0.2956683275","","0.3069084364","","0.370996795","","","","","","",""
"203","","bandit","345","969402","0.0-307.0-0.0","09478422","wem/bandit_single","A1A1BYX3OAXANM","gain","8","","76","L","3","","0","0","1","0.4255483526","","false","270","0.1398727949","","main_expt","0.3574655381","","0.2814908846","","0.4255483526","","","","","","",""
"170","","bandit","346","971363","0.0-308.0-0.0","09478422","wem/bandit_single","A1A1BYX3OAXANM","gain","8","","76","L","3","","0","0","1","0.3948114384","","false","271","0.1430486157","","main_expt","0.3969117111","","0.3060786573","","0.3948114384","","","","","","",""
"48","","bandit","347","973232","0.0-309.0-0.0","09478422","wem/bandit_single","A1A1BYX3OAXANM","gain","8","","76","L","3","","1","0","0","0.3713372483","","false","272","0.1872928851","","main_expt","0.3938657786","","0.3555003363","","0.3713372483","","","","","","",""
"187","","bandit","348","975214","0.0-310.0-0.0","09478422","wem/bandit_single","A1A1BYX3OAXANM","gain","8","","76","L","3","","0","0","1","0.3650537767","","false","273","0.1769074474","","main_expt","0.3903330825","","0.3980140183","","0.3650537767","","","","","","",""
"751","","bandit","349","977774","0.0-311.0-0.0","09478422","wem/bandit_single","A1A1BYX3OAXANM","gain","8","","76","L","3","","0","0","1","0.3414565802","","false","274","0.1820324592","","main_expt","0.4236793781","","0.4077181827","","0.3414565802","","","","","","",""
"172","","bandit","350","979763","0.0-312.0-0.0","09478422","wem/bandit_single","A1A1BYX3OAXANM","gain","8","","76","L","3","","1","0","0","0.3027622838","","false","275","0.1923133529","","main_expt","0.4320968281","","0.4142369189","","0.3027622838","","","","","","",""
"234","","bandit","351","981800","0.0-313.0-0.0","09478422","wem/bandit_single","A1A1BYX3OAXANM","gain","8","","76","L","3","","0","0","1","0.3125082267","","false","276","0.1917589367","","main_expt","0.4017915655","","0.4250096067","","0.3125082267","","","","","","",""
"409","","bandit","352","984012","0.0-314.0-0.0","09478422","wem/bandit_single","A1A1BYX3OAXANM","gain","8","","76","L","3","","1","0","0","0.348890663","","false","277","0.1667093518","","main_expt","0.3548215972","","0.4378988515","","0.348890663","","","","","","",""
"196","","bandit","353","986012","0.0-315.0-0.0","09478422","wem/bandit_single","A1A1BYX3OAXANM","gain","8","","76","L","3","","0","0","1","0.3341457036","","false","278","0.1695638059","","main_expt","0.3683165275","","0.4323676568","","0.3341457036","","","","","","",""
"161","","bandit","354","987992","0.0-316.0-0.0","09478422","wem/bandit_single","A1A1BYX3OAXANM","gain","8","","76","L","3","","0","0","1","0.2341959149","","false","279","0.1696283439","","main_expt","0.3750953637","","0.4391545144","","0.2341959149","","","","","","",""
"135","","bandit","355","989945","0.0-317.0-0.0","09478422","wem/bandit_single","A1A1BYX3OAXANM","gain","8","","76","L","3","","1","0","0","0.1839622844","","false","280","0.09227733008","","main_expt","0.3557095414","","0.4467207207","","0.1839622844","","","","","","",""
"144","","bandit","356","991890","0.0-318.0-0.0","09478422","wem/bandit_single","A1A1BYX3OAXANM","gain","8","","76","L","3","","0","0","1","0.1303375237","","false","281","0.08059064446","","main_expt","0.374333358","","0.3922333676","","0.1303375237","","","","","","",""
"241","","bandit","357","993933","0.0-319.0-0.0","09478422","wem/bandit_single","A1A1BYX3OAXANM","gain","8","","76","L","3","","0","0","1","0.07449941097","","false","282","0.06236597977","","main_expt","0.3786855632","","0.4243132136","","0.07449941097","","","","","","",""
"1363","","bandit","358","997096","0.0-320.0-0.0","09478422","wem/bandit_single","A1A1BYX3OAXANM","gain","8","","76","L","3","","0","0","1","0.08783129911","","false","283","0.07782340279","","main_expt","0.437514669","","0.4187362854","","0.08783129911","","","","","","",""
"146","","bandit","359","999051","0.0-321.0-0.0","09478422","wem/bandit_single","A1A1BYX3OAXANM","gain","8","","76","L","3","","0","0","1","0.08228152097","","false","284","0.07564660971","","main_expt","0.410198323","","0.422543139","","0.08228152097","","","","","","",""
"162","","bandit","360","1001010","0.0-322.0-0.0","09478422","wem/bandit_single","A1A1BYX3OAXANM","gain","8","","76","L","3","","0","0","1","0.09246744832","","false","285","0.08237135124","","main_expt","0.3777139522","","0.434302279","","0.09246744832","","","","","","",""
"161","","bandit","361","1002993","0.0-323.0-0.0","09478422","wem/bandit_single","A1A1BYX3OAXANM","gain","8","","76","L","3","","1","0","0","0.08394792075","","false","286","0.05670298638","","main_expt","0.3841171753","","0.4094725029","","0.08394792075","","","","","","",""
"163","","bandit","362","1004973","0.0-324.0-0.0","09478422","wem/bandit_single","A1A1BYX3OAXANM","gain","8","","76","L","3","","0","0","1","0.1021913287","","false","287","0.06647452785","","main_expt","0.3641862554","","0.3778080042","","0.1021913287","","","","","","",""
"168","","bandit","363","1006948","0.0-325.0-0.0","09478422","wem/bandit_single","A1A1BYX3OAXANM","gain","8","","76","L","3","","1","0","0","0.1188664616","","false","288","0.04859701272","","main_expt","0.3192590496","","0.3671495563","","0.1188664616","","","","","","",""
"176","","bandit","364","1008936","0.0-326.0-0.0","09478422","wem/bandit_single","A1A1BYX3OAXANM","gain","8","","76","L","3","","0","0","1","0.1050513492","","false","289","0.04246321062","","main_expt","0.3384054944","","0.3622055636","","0.1050513492","","","","","","",""
"209","","bandit","365","1010945","0.0-327.0-0.0","09478422","wem/bandit_single","A1A1BYX3OAXANM","gain","8","","76","L","3","","0","0","1","0.1304324694","","false","290","0.08307379137","","main_expt","0.329366118","","0.3616647964","","0.1304324694","","","","","","",""
"105","","bandit","366","1012858","0.0-328.0-0.0","09478422","wem/bandit_single","A1A1BYX3OAXANM","gain","8","","76","L","3","","0","0","1","0.09707891459","","false","291","0.09664054691","","main_expt","0.38061917","","0.3521760992","","0.09707891459","","","","","","",""
"154","","bandit","367","1014826","0.0-329.0-0.0","09478422","wem/bandit_single","A1A1BYX3OAXANM","gain","8","","76","L","3","","0","0","1","0.1166693976","","false","292","0.1089287446","","main_expt","0.3703624541","","0.3062989856","","0.1166693976","","","","","","",""
"151","","bandit","368","1016792","0.0-330.0-0.0","09478422","wem/bandit_single","A1A1BYX3OAXANM","gain","8","","76","L","3","","0","0","1","0.1448282665","","false","293","0.1426967363","","main_expt","0.3554666564","","0.2594623792","","0.1448282665","","","","","","",""
"432","","bandit","369","1019011","0.0-331.0-0.0","09478422","wem/bandit_single","A1A1BYX3OAXANM","gain","8","","76","L","3","","0","0","1","0.1486412875","","false","294","0.08295656842","","main_expt","0.3976604504","","0.2666401727","","0.1486412875","","","","","","",""
"157","","bandit","370","1020984","0.0-332.0-0.0","09478422","wem/bandit_single","A1A1BYX3OAXANM","gain","8","","76","L","3","","0","0","1","0.1266024918","","false","295","0.07441347029","","main_expt","0.3567340825","","0.2160621863","","0.1266024918","","","","","","",""
"277","","bandit","371","1023066","0.0-333.0-0.0","09478422","wem/bandit_single","A1A1BYX3OAXANM","gain","8","","74","J","1","","0","0","1","0.3802278382","","false","296","0.08167080543","","main_expt","0.3802278382","","0.1924669582","","0.1499702932","","","","","","",""
"247","","bandit","372","1025107","0.0-334.0-0.0","09478422","wem/bandit_single","A1A1BYX3OAXANM","gain","8","","74","J","1","","0","0","1","0.3764104085","","false","297","0.06721412472","","main_expt","0.3764104085","","0.2572135825","","0.1124444021","","","","","","",""
"144","","bandit","373","1027056","0.0-335.0-0.0","09478422","wem/bandit_single","A1A1BYX3OAXANM","gain","8","","74","J","1","","1","0","0","0.3801851674","","false","298","0.1106754059","","main_expt","0.3801851674","","0.2660288188","","0.122133656","","","","","","",""
"165","","bandit","374","1029022","0.0-336.0-0.0","09478422","wem/bandit_single","A1A1BYX3OAXANM","gain","8","","74","J","1","","1","0","0","0.37372938","","false","299","0.146580741","","main_expt","0.37372938","","0.2708303459","","0.1064281731","","","","","","",""
"275","","bandit","375","1031113","0.0-337.0-0.0","09478422","wem/bandit_single","A1A1BYX3OAXANM","gain","8","","74","J","1","","1","0","0","0.3709854059","","false","300","0.1256846985","","main_expt","0.3709854059","","0.1994240472","","0.125842667","","","","","","",""
