"rt","responses","trial_type","trial_index","time_elapsed","internal_node_id","subjID","study","MID","cond","drift","key_press","respCharCode","respKey","respChoiceNum","respChoice","gems","bombs","no_reward","GemPrChosen","BombPrChosen","practice","trial_counter","WinPr_0","LosePr_0","trial_label","WinPr_1","LosePr_1","WinPr_2","LosePr_2","WinPr_3","LosePr_3","Q0","Q1","Q2","gender","age","ethnicity"
"18108","{""Q0"":""A1IFIK8J49WBER""}","survey-text","0","18117","0.0-0.0","09552829","wem/bandit_single","A1IFIK8J49WBER","pain","3","","","","","","","","","","","","","","","","","","","","","","","","","","",""
"2529","","text","1","21655","0.0-1.0","09552829","wem/bandit_single","A1IFIK8J49WBER","pain","3","32","","","","","","","","","","","","","","","","","","","","","","","","","",""
"8828","","text","2","30485","0.0-2.0","09552829","wem/bandit_single","A1IFIK8J49WBER","pain","3","32","","","","","","","","","","","","","","","","","","","","","","","","","",""
"49940","","text","3","80428","0.0-3.0","09552829","wem/bandit_single","A1IFIK8J49WBER","pain","3","32","","","","","","","","","","","","","","","","","","","","","","","","","",""
"25604","","text","4","106037","0.0-4.0","09552829","wem/bandit_single","A1IFIK8J49WBER","pain","3","32","","","","","","","","","","","","","","","","","","","","","","","","","",""
"12483","","text","5","118522","0.0-5.0","09552829","wem/bandit_single","A1IFIK8J49WBER","pain","3","32","","","","","","","","","","","","","","","","","","","","","","","","","",""
"14755","","text","6","133280","0.0-6.0","09552829","wem/bandit_single","A1IFIK8J49WBER","pain","3","32","","","","","","","","","","","","","","","","","","","","","","","","","",""
"7456","","text","7","140739","0.0-7.0","09552829","wem/bandit_single","A1IFIK8J49WBER","pain","3","32","","","","","","","","","","","","","","","","","","","","","","","","","",""
"5593","","text","8","146335","0.0-8.0","09552829","wem/bandit_single","A1IFIK8J49WBER","pain","3","32","","","","","","","","","","","","","","","","","","","","","","","","","",""
"3640","","text","9","149977","0.0-9.0","09552829","wem/bandit_single","A1IFIK8J49WBER","pain","3","32","","","","","","","","","","","","","","","","","","","","","","","","","",""
"4249","","text","10","154230","0.0-10.0","09552829","wem/bandit_single","A1IFIK8J49WBER","pain","3","32","","","","","","","","","","","","","","","","","","","","","","","","","",""
"8419","","text","11","162652","0.0-11.0","09552829","wem/bandit_single","A1IFIK8J49WBER","pain","3","32","","","","","","","","","","","","","","","","","","","","","","","","","",""
"1557","","bandit","12","165725","0.0-12.0-0.0","09552829","wem/bandit_single","A1IFIK8J49WBER","pain","3","","74","J","0","img/none_selected_demo.jpg","0","0","1","0","0","true","0","0","0","","","","","","","","","","","","",""
"736","","bandit","13","168221","0.0-13.0-0.0","09552829","wem/bandit_single","A1IFIK8J49WBER","pain","3","","75","K","0","img/none_selected_demo.jpg","0","0","1","0","0","true","0","0","0","","","","","","","","","","","","",""
"4546","","text","14","173022","0.0-14.0","09552829","wem/bandit_single","A1IFIK8J49WBER","pain","3","32","","","","","","","","","","","","","","","","","","","","","","","","","",""
"2116","","text","15","175140","0.0-15.0","09552829","wem/bandit_single","A1IFIK8J49WBER","pain","3","32","","","","","","","","","","","","","","","","","","","","","","","","","",""
"22583","","text","16","197727","0.0-16.0","09552829","wem/bandit_single","A1IFIK8J49WBER","pain","3","32","","","","","","","","","","","","","","","","","","","","","","","","","",""
"3467","","text","17","201197","0.0-17.0","09552829","wem/bandit_single","A1IFIK8J49WBER","pain","3","32","","","","","","","","","","","","","","","","","","","","","","","","","",""
"2678","","bandit","18","205383","0.0-18.0-0.0","09552829","wem/bandit_single","A1IFIK8J49WBER","pain","3","","74","J","0","img/none_selected_demo.jpg","0","1","0","0","0.8","true","0","0","0.8","80_20_practice","0","0.2","","","","","","","","","",""
"1563","","bandit","19","208709","0.0-18.0-1.0","09552829","wem/bandit_single","A1IFIK8J49WBER","pain","3","","74","J","0","img/none_selected_demo.jpg","0","1","0","0","0.8","true","0","0","0.8","80_20_practice","0","0.2","","","","","","","","","",""
"1096","","bandit","20","211567","0.0-18.0-2.0","09552829","wem/bandit_single","A1IFIK8J49WBER","pain","3","","74","J","0","img/none_selected_demo.jpg","0","1","0","0","0.8","true","0","0","0.8","80_20_practice","0","0.2","","","","","","","","","",""
"1080","","bandit","21","214404","0.0-18.0-3.0","09552829","wem/bandit_single","A1IFIK8J49WBER","pain","3","","74","J","0","img/none_selected_demo.jpg","0","1","0","0","0.8","true","0","0","0.8","80_20_practice","0","0.2","","","","","","","","","",""
"1303","","bandit","22","217467","0.0-18.0-4.0","09552829","wem/bandit_single","A1IFIK8J49WBER","pain","3","","74","J","0","img/none_selected_demo.jpg","0","1","0","0","0.8","true","0","0","0.8","80_20_practice","0","0.2","","","","","","","","","",""
"477","","bandit","23","219703","0.0-18.0-5.0","09552829","wem/bandit_single","A1IFIK8J49WBER","pain","3","","75","K","1","","0","1","0","0","0.2","true","0","0","0.8","80_20_practice","0","0.2","","","","","","","","","",""
"316","","bandit","24","221778","0.0-18.0-6.0","09552829","wem/bandit_single","A1IFIK8J49WBER","pain","3","","75","K","1","","0","0","1","0","0.2","true","0","0","0.8","80_20_practice","0","0.2","","","","","","","","","",""
"2938","","bandit","25","226479","0.0-18.0-7.0","09552829","wem/bandit_single","A1IFIK8J49WBER","pain","3","","75","K","1","","0","0","1","0","0.2","true","0","0","0.8","80_20_practice","0","0.2","","","","","","","","","",""
"356","","bandit","26","228592","0.0-18.0-8.0","09552829","wem/bandit_single","A1IFIK8J49WBER","pain","3","","74","J","0","img/none_selected_demo.jpg","0","0","1","0","0.8","true","0","0","0.8","80_20_practice","0","0.2","","","","","","","","","",""
"310","","bandit","27","230661","0.0-18.0-9.0","09552829","wem/bandit_single","A1IFIK8J49WBER","pain","3","","74","J","0","img/none_selected_demo.jpg","0","1","0","0","0.8","true","0","0","0.8","80_20_practice","0","0.2","","","","","","","","","",""
"743","","bandit","28","233164","0.0-18.0-10.0","09552829","wem/bandit_single","A1IFIK8J49WBER","pain","3","","74","J","0","img/none_selected_demo.jpg","0","1","0","0","0.8","true","0","0","0.8","80_20_practice","0","0.2","","","","","","","","","",""
"369","","bandit","29","235291","0.0-18.0-11.0","09552829","wem/bandit_single","A1IFIK8J49WBER","pain","3","","74","J","0","img/none_selected_demo.jpg","0","1","0","0","0.8","true","0","0","0.8","80_20_practice","0","0.2","","","","","","","","","",""
"293","","bandit","30","237342","0.0-18.0-12.0","09552829","wem/bandit_single","A1IFIK8J49WBER","pain","3","","74","J","0","img/none_selected_demo.jpg","0","1","0","0","0.8","true","0","0","0.8","80_20_practice","0","0.2","","","","","","","","","",""
"262","","bandit","31","239365","0.0-18.0-13.0","09552829","wem/bandit_single","A1IFIK8J49WBER","pain","3","","75","K","1","","0","0","1","0","0.2","true","0","0","0.8","80_20_practice","0","0.2","","","","","","","","","",""
"142","","bandit","32","241267","0.0-18.0-14.0","09552829","wem/bandit_single","A1IFIK8J49WBER","pain","3","","74","J","0","img/none_selected_demo.jpg","0","1","0","0","0.8","true","0","0","0.8","80_20_practice","0","0.2","","","","","","","","","",""
"274","","bandit","33","243306","0.0-18.0-15.0","09552829","wem/bandit_single","A1IFIK8J49WBER","pain","3","","74","J","0","img/none_selected_demo.jpg","0","1","0","0","0.8","true","0","0","0.8","80_20_practice","0","0.2","","","","","","","","","",""
"335","","bandit","34","245404","0.0-18.0-16.0","09552829","wem/bandit_single","A1IFIK8J49WBER","pain","3","","74","J","0","img/none_selected_demo.jpg","0","1","0","0","0.8","true","0","0","0.8","80_20_practice","0","0.2","","","","","","","","","",""
"252","","bandit","35","247420","0.0-18.0-17.0","09552829","wem/bandit_single","A1IFIK8J49WBER","pain","3","","74","J","0","img/none_selected_demo.jpg","0","1","0","0","0.8","true","0","0","0.8","80_20_practice","0","0.2","","","","","","","","","",""
"356","","bandit","36","249536","0.0-18.0-18.0","09552829","wem/bandit_single","A1IFIK8J49WBER","pain","3","","74","J","0","img/none_selected_demo.jpg","0","1","0","0","0.8","true","0","0","0.8","80_20_practice","0","0.2","","","","","","","","","",""
"288","","bandit","37","251587","0.0-18.0-19.0","09552829","wem/bandit_single","A1IFIK8J49WBER","pain","3","","74","J","0","img/none_selected_demo.jpg","0","1","0","0","0.8","true","0","0","0.8","80_20_practice","0","0.2","","","","","","","","","",""
"4199","","text","38","256042","0.0-19.0","09552829","wem/bandit_single","A1IFIK8J49WBER","pain","3","32","","","","","","","","","","","","","","","","","","","","","","","","","",""
"1783","","bandit","39","259335","0.0-20.0-0.0","09552829","wem/bandit_single","A1IFIK8J49WBER","pain","3","","74","J","0","img/none_selected_demo.jpg","0","0","1","0","0","true","0","0","0","","0","0","","","","","","","","","",""
"15671","","text","40","275259","0.0-21.0","09552829","wem/bandit_single","A1IFIK8J49WBER","pain","3","32","","","","","","","","","","","","","","","","","","","","","","","","","",""
"5488","","text","41","280750","0.0-22.0","09552829","wem/bandit_single","A1IFIK8J49WBER","pain","3","32","","","","","","","","","","","","","","","","","","","","","","","","","",""
"3099","","text","42","283855","0.0-23.0","09552829","wem/bandit_single","A1IFIK8J49WBER","pain","3","32","","","","","","","","","","","","","","","","","","","","","","","","","",""
"4851","","text","43","288710","0.0-24.0","09552829","wem/bandit_single","A1IFIK8J49WBER","pain","3","32","","","","","","","","","","","","","","","","","","","","","","","","","",""
"17517","","text","44","306230","0.0-25.0","09552829","wem/bandit_single","A1IFIK8J49WBER","pain","3","32","","","","","","","","","","","","","","","","","","","","","","","","","",""
"4787","","text","45","311022","0.0-26.0","09552829","wem/bandit_single","A1IFIK8J49WBER","pain","3","32","","","","","","","","","","","","","","","","","","","","","","","","","",""
"9764","","text","46","320791","0.0-27.0","09552829","wem/bandit_single","A1IFIK8J49WBER","pain","3","32","","","","","","","","","","","","","","","","","","","","","","","","","",""
"5242","","text","47","326035","0.0-28.0","09552829","wem/bandit_single","A1IFIK8J49WBER","pain","3","32","","","","","","","","","","","","","","","","","","","","","","","","","",""
"9272","","text","48","335311","0.0-29.0","09552829","wem/bandit_single","A1IFIK8J49WBER","pain","3","32","","","","","","","","","","","","","","","","","","","","","","","","","",""
"2874","","text","49","338189","0.0-30.0","09552829","wem/bandit_single","A1IFIK8J49WBER","pain","3","32","","","","","","","","","","","","","","","","","","","","","","","","","",""
"4357","","text","50","342550","0.0-31.0","09552829","wem/bandit_single","A1IFIK8J49WBER","pain","3","32","","","","","","","","","","","","","","","","","","","","","","","","","",""
"699","","bandit","51","344758","0.0-32.0-0.0","09552829","wem/bandit_single","A1IFIK8J49WBER","pain","3","","72","H","0","img/none_selected.jpg","0","0","1","0","0.8","true","0","0","0.8","full_practice","0","0.2","0","0.6","0","0.2","","","","","",""
"281","","bandit","52","346800","0.0-32.0-1.0","09552829","wem/bandit_single","A1IFIK8J49WBER","pain","3","","74","J","1","","0","0","1","0","0.2","true","0","0","0.8","full_practice","0","0.2","0","0.6","0","0.2","","","","","",""
"170","","bandit","53","348733","0.0-32.0-2.0","09552829","wem/bandit_single","A1IFIK8J49WBER","pain","3","","75","K","2","","0","1","0","0","0.6","true","0","0","0.8","full_practice","0","0.2","0","0.6","0","0.2","","","","","",""
"327","","bandit","54","350821","0.0-32.0-3.0","09552829","wem/bandit_single","A1IFIK8J49WBER","pain","3","","75","K","2","","0","0","1","0","0.6","true","0","0","0.8","full_practice","0","0.2","0","0.6","0","0.2","","","","","",""
"619","","bandit","55","353200","0.0-32.0-4.0","09552829","wem/bandit_single","A1IFIK8J49WBER","pain","3","","76","L","3","","0","1","0","0","0.2","true","0","0","0.8","full_practice","0","0.2","0","0.6","0","0.2","","","","","",""
"407","","bandit","56","355371","0.0-32.0-5.0","09552829","wem/bandit_single","A1IFIK8J49WBER","pain","3","","76","L","3","","0","0","1","0","0.2","true","0","0","0.8","full_practice","0","0.2","0","0.6","0","0.2","","","","","",""
"201","","bandit","57","357333","0.0-32.0-6.0","09552829","wem/bandit_single","A1IFIK8J49WBER","pain","3","","75","K","2","","0","1","0","0","0.6","true","0","0","0.8","full_practice","0","0.2","0","0.6","0","0.2","","","","","",""
"360","","bandit","58","359451","0.0-32.0-7.0","09552829","wem/bandit_single","A1IFIK8J49WBER","pain","3","","75","K","2","","0","1","0","0","0.6","true","0","0","0.8","full_practice","0","0.2","0","0.6","0","0.2","","","","","",""
"803","","bandit","59","362015","0.0-32.0-8.0","09552829","wem/bandit_single","A1IFIK8J49WBER","pain","3","","75","K","2","","0","1","0","0","0.6","true","0","0","0.8","full_practice","0","0.2","0","0.6","0","0.2","","","","","",""
"271","","bandit","60","364049","0.0-32.0-9.0","09552829","wem/bandit_single","A1IFIK8J49WBER","pain","3","","75","K","2","","0","1","0","0","0.6","true","0","0","0.8","full_practice","0","0.2","0","0.6","0","0.2","","","","","",""
"176","","bandit","61","365993","0.0-32.0-10.0","09552829","wem/bandit_single","A1IFIK8J49WBER","pain","3","","75","K","2","","0","0","1","0","0.6","true","0","0","0.8","full_practice","0","0.2","0","0.6","0","0.2","","","","","",""
"517","","bandit","62","368271","0.0-32.0-11.0","09552829","wem/bandit_single","A1IFIK8J49WBER","pain","3","","76","L","3","","0","0","1","0","0.2","true","0","0","0.8","full_practice","0","0.2","0","0.6","0","0.2","","","","","",""
"1494","","bandit","63","371528","0.0-32.0-12.0","09552829","wem/bandit_single","A1IFIK8J49WBER","pain","3","","74","J","1","","0","0","1","0","0.2","true","0","0","0.8","full_practice","0","0.2","0","0.6","0","0.2","","","","","",""
"223","","bandit","64","373511","0.0-32.0-13.0","09552829","wem/bandit_single","A1IFIK8J49WBER","pain","3","","72","H","0","img/none_selected.jpg","0","1","0","0","0.8","true","0","0","0.8","full_practice","0","0.2","0","0.6","0","0.2","","","","","",""
"208","","bandit","65","375484","0.0-32.0-14.0","09552829","wem/bandit_single","A1IFIK8J49WBER","pain","3","","72","H","0","img/none_selected.jpg","0","0","1","0","0.8","true","0","0","0.8","full_practice","0","0.2","0","0.6","0","0.2","","","","","",""
"129","","bandit","66","377374","0.0-32.0-15.0","09552829","wem/bandit_single","A1IFIK8J49WBER","pain","3","","75","K","2","","0","1","0","0","0.6","true","0","0","0.8","full_practice","0","0.2","0","0.6","0","0.2","","","","","",""
"400","","bandit","67","379535","0.0-32.0-16.0","09552829","wem/bandit_single","A1IFIK8J49WBER","pain","3","","75","K","2","","0","1","0","0","0.6","true","0","0","0.8","full_practice","0","0.2","0","0.6","0","0.2","","","","","",""
"202","","bandit","68","381499","0.0-32.0-17.0","09552829","wem/bandit_single","A1IFIK8J49WBER","pain","3","","75","K","2","","0","1","0","0","0.6","true","0","0","0.8","full_practice","0","0.2","0","0.6","0","0.2","","","","","",""
"397","","bandit","69","383656","0.0-32.0-18.0","09552829","wem/bandit_single","A1IFIK8J49WBER","pain","3","","75","K","2","","0","0","1","0","0.6","true","0","0","0.8","full_practice","0","0.2","0","0.6","0","0.2","","","","","",""
"311","","bandit","70","385729","0.0-32.0-19.0","09552829","wem/bandit_single","A1IFIK8J49WBER","pain","3","","72","H","0","img/none_selected.jpg","0","1","0","0","0.8","true","0","0","0.8","full_practice","0","0.2","0","0.6","0","0.2","","","","","",""
"3538","","text","71","389536","0.0-33.0","09552829","wem/bandit_single","A1IFIK8J49WBER","pain","3","32","","","","","","","","","","","","","","","","","","","","","","","","","",""
"15408","","text","72","405949","0.0-34.0","09552829","wem/bandit_single","A1IFIK8J49WBER","pain","3","32","","","","","","","","","","","","","","","","","","","","","","","","","",""
"7977","","text","73","413932","0.0-35.0","09552829","wem/bandit_single","A1IFIK8J49WBER","pain","3","32","","","","","","","","","","","","","","","","","","","","","","","","","",""
"9066","","text","74","423003","0.0-36.0","09552829","wem/bandit_single","A1IFIK8J49WBER","pain","3","32","","","","","","","","","","","","","","","","","","","","","","","","","",""
"8846","","text","75","431855","0.0-37.0","09552829","wem/bandit_single","A1IFIK8J49WBER","pain","3","32","","","","","","","","","","","","","","","","","","","","","","","","","",""
"1218","","bandit","76","434586","0.0-38.0-0.0","09552829","wem/bandit_single","A1IFIK8J49WBER","pain","3","","72","H","0","img/none_selected.jpg","0","0","1","","0.06813583588","false","1","","0.06813583588","main_expt","","0.3417032333","","0.2211287853","","0.2015711498","","","","","",""
"177","","bandit","77","436527","0.0-39.0-0.0","09552829","wem/bandit_single","A1IFIK8J49WBER","pain","3","","74","J","1","","0","0","1","","0.3935143322","false","2","","0.08840771113","main_expt","","0.3935143322","","0.2921894834","","0.1868286341","","","","","",""
"146","","bandit","78","438436","0.0-40.0-0.0","09552829","wem/bandit_single","A1IFIK8J49WBER","pain","3","","75","K","2","","0","1","0","","0.2712314767","false","3","","0.14311428","main_expt","","0.3247841161","","0.2712314767","","0.2285659085","","","","","",""
"169","","bandit","79","440368","0.0-41.0-0.0","09552829","wem/bandit_single","A1IFIK8J49WBER","pain","3","","75","K","2","","0","0","1","","0.3501044345","false","4","","0.1389033164","main_expt","","0.3524809632","","0.3501044345","","0.2587006496","","","","","",""
"501","","bandit","80","442630","0.0-42.0-0.0","09552829","wem/bandit_single","A1IFIK8J49WBER","pain","3","","76","L","3","","0","0","1","","0.2238216231","false","5","","0.1064755534","main_expt","","0.3243282494","","0.3826883046","","0.2238216231","","","","","",""
"208","","bandit","81","444603","0.0-43.0-0.0","09552829","wem/bandit_single","A1IFIK8J49WBER","pain","3","","75","K","2","","0","0","1","","0.3538977559","false","6","","0.07607549968","main_expt","","0.3856520047","","0.3538977559","","0.2114086621","","","","","",""
"177","","bandit","82","446541","0.0-44.0-0.0","09552829","wem/bandit_single","A1IFIK8J49WBER","pain","3","","72","H","0","img/none_selected.jpg","0","0","1","","0.0490522351","false","7","","0.0490522351","main_expt","","0.3595299576","","0.3911179113","","0.225256176","","","","","",""
"174","","bandit","83","448474","0.0-45.0-0.0","09552829","wem/bandit_single","A1IFIK8J49WBER","pain","3","","74","J","1","","0","1","0","","0.2908809246","false","8","","0.04564729275","main_expt","","0.2908809246","","0.3378010318","","0.1920600422","","","","","",""
"128","","bandit","84","450364","0.0-46.0-0.0","09552829","wem/bandit_single","A1IFIK8J49WBER","pain","3","","74","J","1","","0","1","0","","0.3401169694","false","9","","0.05361883364","main_expt","","0.3401169694","","0.3584091786","","0.222474992","","","","","",""
"231","","bandit","85","452353","0.0-47.0-0.0","09552829","wem/bandit_single","A1IFIK8J49WBER","pain","3","","74","J","1","","0","0","1","","0.370347707","false","10","","0.05689605437","main_expt","","0.370347707","","0.3822252457","","0.1720297318","","","","","",""
"174","","bandit","86","454296","0.0-48.0-0.0","09552829","wem/bandit_single","A1IFIK8J49WBER","pain","3","","75","K","2","","0","0","1","","0.4003480189","false","11","","0.05596529361","main_expt","","0.3385652673","","0.4003480189","","0.1672236423","","","","","",""
"143","","bandit","87","456201","0.0-49.0-0.0","09552829","wem/bandit_single","A1IFIK8J49WBER","pain","3","","74","J","1","","0","1","0","","0.3433253296","false","12","","0.07455145674","main_expt","","0.3433253296","","0.4035898181","","0.1908353862","","","","","",""
"219","","bandit","88","458185","0.0-50.0-0.0","09552829","wem/bandit_single","A1IFIK8J49WBER","pain","3","","74","J","1","","0","0","1","","0.3306460316","false","13","","0.1061797552","main_expt","","0.3306460316","","0.3939267589","","0.1373256951","","","","","",""
"250","","bandit","89","460190","0.0-51.0-0.0","09552829","wem/bandit_single","A1IFIK8J49WBER","pain","3","","72","H","0","img/none_selected.jpg","0","0","1","","0.09003395111","false","14","","0.09003395111","main_expt","","0.3423394156","","0.4058751809","","0.1605467602","","","","","",""
"67","","bandit","90","462022","0.0-52.0-0.0","09552829","wem/bandit_single","A1IFIK8J49WBER","pain","3","","74","J","1","","0","0","1","","0.3514631564","false","15","","0.09190110762","main_expt","","0.3514631564","","0.3784768297","","0.1270826231","","","","","",""
"241","","bandit","91","464030","0.0-53.0-0.0","09552829","wem/bandit_single","A1IFIK8J49WBER","pain","3","","76","L","3","","0","0","1","","0.1659789958","false","16","","0.1119147711","main_expt","","0.3763865137","","0.3742197382","","0.1659789958","","","","","",""
"458","","bandit","92","466246","0.0-54.0-0.0","09552829","wem/bandit_single","A1IFIK8J49WBER","pain","3","","75","K","2","","0","1","0","","0.3738750299","false","17","","0.1268228496","main_expt","","0.3613216018","","0.3738750299","","0.1810296119","","","","","",""
"367","","bandit","93","468369","0.0-55.0-0.0","09552829","wem/bandit_single","A1IFIK8J49WBER","pain","3","","75","K","2","","0","1","0","","0.30878177","false","18","","0.160542793","main_expt","","0.3354311471","","0.30878177","","0.2209588372","","","","","",""
"411","","bandit","94","470543","0.0-56.0-0.0","09552829","wem/bandit_single","A1IFIK8J49WBER","pain","3","","75","K","2","","0","0","1","","0.3257740717","false","19","","0.1913020378","main_expt","","0.3151580681","","0.3257740717","","0.1577150754","","","","","",""
"206","","bandit","95","472509","0.0-57.0-0.0","09552829","wem/bandit_single","A1IFIK8J49WBER","pain","3","","75","K","2","","0","0","1","","0.2780557495","false","20","","0.2201213849","main_expt","","0.2633525784","","0.2780557495","","0.2368366468","","","","","",""
"1094","","bandit","96","475369","0.0-58.0-0.0","09552829","wem/bandit_single","A1IFIK8J49WBER","pain","3","","74","J","1","","0","0","1","","0.2730255539","false","21","","0.1747441944","main_expt","","0.2730255539","","0.2552615423","","0.1692925459","","","","","",""
"14","","bandit","97","477144","0.0-59.0-0.0","09552829","wem/bandit_single","A1IFIK8J49WBER","pain","3","","72","H","0","img/none_selected.jpg","0","0","1","","0.1407764438","false","22","","0.1407764438","main_expt","","0.2366183143","","0.2862558775","","0.144462955","","","","","",""
"164","","bandit","98","479075","0.0-60.0-0.0","09552829","wem/bandit_single","A1IFIK8J49WBER","pain","3","","75","K","2","","0","0","1","","0.290674517","false","23","","0.1444197889","main_expt","","0.2193011186","","0.290674517","","0.1928882479","","","","","",""
"99","","bandit","99","480934","0.0-61.0-0.0","09552829","wem/bandit_single","A1IFIK8J49WBER","pain","3","","76","L","3","","0","0","1","","0.2077361259","false","24","","0.1898422889","main_expt","","0.2058852999","","0.2669553567","","0.2077361259","","","","","",""
"174","","bandit","100","482873","0.0-62.0-0.0","09552829","wem/bandit_single","A1IFIK8J49WBER","pain","3","","74","J","1","","0","0","1","","0.2377147794","false","25","","0.2319991336","main_expt","","0.2377147794","","0.2134469473","","0.2580980749","","","","","",""
"210","","bandit","101","484848","0.0-63.0-0.0","09552829","wem/bandit_single","A1IFIK8J49WBER","pain","3","","75","K","2","","0","1","0","","0.2027981442","false","26","","0.2140617454","main_expt","","0.3017638279","","0.2027981442","","0.2593960467","","","","","",""
"106","","bandit","102","486715","0.0-64.0-0.0","09552829","wem/bandit_single","A1IFIK8J49WBER","pain","3","","75","K","2","","0","1","0","","0.1669761534","false","27","","0.2186733942","main_expt","","0.2647551657","","0.1669761534","","0.2913294918","","","","","",""
"165","","bandit","103","488638","0.0-65.0-0.0","09552829","wem/bandit_single","A1IFIK8J49WBER","pain","3","","75","K","2","","0","1","0","","0.1301617017","false","28","","0.2573772923","main_expt","","0.2864353885","","0.1301617017","","0.2838721205","","","","","",""
"263","","bandit","104","490668","0.0-66.0-0.0","09552829","wem/bandit_single","A1IFIK8J49WBER","pain","3","","75","K","2","","0","0","1","","0.1540227795","false","29","","0.2563684882","main_expt","","0.2669447337","","0.1540227795","","0.2225595658","","","","","",""
"141","","bandit","105","492571","0.0-67.0-0.0","09552829","wem/bandit_single","A1IFIK8J49WBER","pain","3","","72","H","0","img/none_selected.jpg","0","0","1","","0.3180657859","false","30","","0.3180657859","main_expt","","0.242519946","","0.1290956128","","0.2450998207","","","","","",""
"364","","bandit","106","494699","0.0-68.0-0.0","09552829","wem/bandit_single","A1IFIK8J49WBER","pain","3","","75","K","2","","0","0","1","","0.157476084","false","31","","0.3391977199","main_expt","","0.1808952067","","0.157476084","","0.2358374841","","","","","",""
"161","","bandit","107","496625","0.0-69.0-0.0","09552829","wem/bandit_single","A1IFIK8J49WBER","pain","3","","74","J","1","","0","1","0","","0.1490402933","false","32","","0.3655242212","main_expt","","0.1490402933","","0.1667461438","","0.2465538883","","","","","",""
"192","","bandit","108","498581","0.0-70.0-0.0","09552829","wem/bandit_single","A1IFIK8J49WBER","pain","3","","74","J","1","","0","1","0","","0.1607825008","false","33","","0.3476833293","main_expt","","0.1607825008","","0.1698659255","","0.2479029149","","","","","",""
"178","","bandit","109","500518","0.0-71.0-0.0","09552829","wem/bandit_single","A1IFIK8J49WBER","pain","3","","74","J","1","","0","1","0","","0.2019438485","false","34","","0.3287357547","main_expt","","0.2019438485","","0.1830702822","","0.1813792252","","","","","",""
"179","","bandit","110","502460","0.0-72.0-0.0","09552829","wem/bandit_single","A1IFIK8J49WBER","pain","3","","74","J","1","","0","0","1","","0.1187506792","false","35","","0.3568635533","main_expt","","0.1187506792","","0.1648441896","","0.1507873856","","","","","",""
"80","","bandit","111","504300","0.0-73.0-0.0","09552829","wem/bandit_single","A1IFIK8J49WBER","pain","3","","75","K","2","","0","0","1","","0.1702375356","false","36","","0.2559818432","main_expt","","0.107122158","","0.1702375356","","0.185146395","","","","","",""
"1197","","bandit","112","507264","0.0-74.0-0.0","09552829","wem/bandit_single","A1IFIK8J49WBER","pain","3","","74","J","1","","0","0","1","","0.1462043769","false","37","","0.2095103509","main_expt","","0.1462043769","","0.1248493821","","0.1995500277","","","","","",""
"117","","bandit","113","509143","0.0-75.0-0.0","09552829","wem/bandit_single","A1IFIK8J49WBER","pain","3","","75","K","2","","0","0","1","","0.1806095344","false","38","","0.1824107212","main_expt","","0.1562864446","","0.1806095344","","0.2324476024","","","","","",""
"98","","bandit","114","511004","0.0-76.0-0.0","09552829","wem/bandit_single","A1IFIK8J49WBER","pain","3","","72","H","0","img/none_selected.jpg","0","0","1","","0.180532013","false","39","","0.180532013","main_expt","","0.1425148763","","0.1636381498","","0.2374336796","","","","","",""
"207","","bandit","115","512976","0.0-77.0-0.0","09552829","wem/bandit_single","A1IFIK8J49WBER","pain","3","","76","L","3","","0","0","1","","0.1871034738","false","40","","0.209403608","main_expt","","0.1332413707","","0.128328165","","0.1871034738","","","","","",""
"517","","bandit","116","515253","0.0-78.0-0.0","09552829","wem/bandit_single","A1IFIK8J49WBER","pain","3","","75","K","2","","0","0","1","","0.1128848486","false","41","","0.1790729352","main_expt","","0.170838957","","0.1128848486","","0.1923798107","","","","","",""
"174","","bandit","117","517194","0.0-79.0-0.0","09552829","wem/bandit_single","A1IFIK8J49WBER","pain","3","","74","J","1","","0","0","1","","0.221577246","false","42","","0.1586268334","main_expt","","0.221577246","","0.1024028154","","0.2175202152","","","","","",""
"372","","bandit","118","519333","0.0-80.0-0.0","09552829","wem/bandit_single","A1IFIK8J49WBER","pain","3","","72","H","0","img/none_selected.jpg","0","1","0","","0.1953085145","false","43","","0.1953085145","main_expt","","0.2937465132","","0.1842117743","","0.199004634","","","","","",""
"150","","bandit","119","521247","0.0-81.0-0.0","09552829","wem/bandit_single","A1IFIK8J49WBER","pain","3","","72","H","0","img/none_selected.jpg","0","1","0","","0.229373846","false","44","","0.229373846","main_expt","","0.2473378206","","0.2398699605","","0.1979694218","","","","","",""
"352","","bandit","120","523367","0.0-82.0-0.0","09552829","wem/bandit_single","A1IFIK8J49WBER","pain","3","","72","H","0","img/none_selected.jpg","0","0","1","","0.2387173179","false","45","","0.2387173179","main_expt","","0.2911711657","","0.2666943954","","0.1992427108","","","","","",""
"102","","bandit","121","525234","0.0-83.0-0.0","09552829","wem/bandit_single","A1IFIK8J49WBER","pain","3","","74","J","1","","0","1","0","","0.2520057509","false","46","","0.2142046797","main_expt","","0.2520057509","","0.3187479261","","0.2240306516","","","","","",""
"168","","bandit","122","527165","0.0-84.0-0.0","09552829","wem/bandit_single","A1IFIK8J49WBER","pain","3","","74","J","1","","0","0","1","","0.2527148282","false","47","","0.2454335886","main_expt","","0.2527148282","","0.3190608455","","0.2065012218","","","","","",""
"169","","bandit","123","529100","0.0-85.0-0.0","09552829","wem/bandit_single","A1IFIK8J49WBER","pain","3","","75","K","2","","0","0","1","","0.3135096665","false","48","","0.2810950816","main_expt","","0.273334487","","0.3135096665","","0.1926440163","","","","","",""
"223","","bandit","124","531086","0.0-86.0-0.0","09552829","wem/bandit_single","A1IFIK8J49WBER","pain","3","","72","H","0","img/none_selected.jpg","0","0","1","","0.2547597437","false","49","","0.2547597437","main_expt","","0.3181736471","","0.3341811191","","0.1670810943","","","","","",""
"160","","bandit","125","533013","0.0-87.0-0.0","09552829","wem/bandit_single","A1IFIK8J49WBER","pain","3","","76","L","3","","0","0","1","","0.1198069869","false","50","","0.224323175","main_expt","","0.3806153608","","0.3459923598","","0.1198069869","","","","","",""
"74","","bandit","126","534848","0.0-88.0-0.0","09552829","wem/bandit_single","A1IFIK8J49WBER","pain","3","","74","J","1","","0","0","1","","0.3949296296","false","51","","0.2755477452","main_expt","","0.3949296296","","0.3331953563","","0.103394302","","","","","",""
"102","","bandit","127","536709","0.0-89.0-0.0","09552829","wem/bandit_single","A1IFIK8J49WBER","pain","3","","75","K","2","","0","1","0","","0.3915962888","false","52","","0.3022170302","main_expt","","0.3544293331","","0.3915962888","","0.1018912343","","","","","",""
"284","","bandit","128","538759","0.0-90.0-0.0","09552829","wem/bandit_single","A1IFIK8J49WBER","pain","3","","75","K","2","","0","0","1","","0.3984086051","false","53","","0.2886203433","main_expt","","0.3007967805","","0.3984086051","","0.07233269407","","","","","",""
"307","","bandit","129","540838","0.0-91.0-0.0","09552829","wem/bandit_single","A1IFIK8J49WBER","pain","3","","72","H","0","img/none_selected.jpg","0","0","1","","0.3072524501","false","54","","0.3072524501","main_expt","","0.3376398899","","0.4181407331","","0.09210147888","","","","","",""
"109","","bandit","130","542719","0.0-92.0-0.0","09552829","wem/bandit_single","A1IFIK8J49WBER","pain","3","","75","K","2","","0","1","0","","0.3964386999","false","55","","0.3847595325","main_expt","","0.3625264345","","0.3964386999","","0.08866102842","","","","","",""
"135","","bandit","131","544614","0.0-93.0-0.0","09552829","wem/bandit_single","A1IFIK8J49WBER","pain","3","","75","K","2","","0","1","0","","0.4043277199","false","56","","0.4008313728","main_expt","","0.313137485","","0.4043277199","","0.1208391037","","","","","",""
"266","","bandit","132","546642","0.0-94.0-0.0","09552829","wem/bandit_single","A1IFIK8J49WBER","pain","3","","75","K","2","","0","1","0","","0.3232173094","false","57","","0.3763680666","main_expt","","0.3287581384","","0.3232173094","","0.1429525169","","","","","",""
"145","","bandit","133","548548","0.0-95.0-0.0","09552829","wem/bandit_single","A1IFIK8J49WBER","pain","3","","75","K","2","","0","0","1","","0.3352595409","false","58","","0.3630839511","main_expt","","0.2891608333","","0.3352595409","","0.1800007821","","","","","",""
"452","","bandit","134","550760","0.0-96.0-0.0","09552829","wem/bandit_single","A1IFIK8J49WBER","pain","3","","75","K","2","","0","1","0","","0.3423270404","false","59","","0.3166885591","main_expt","","0.2228703537","","0.3423270404","","0.1168587732","","","","","",""
"108","","bandit","135","552634","0.0-97.0-0.0","09552829","wem/bandit_single","A1IFIK8J49WBER","pain","3","","75","K","2","","0","0","1","","0.3326485747","false","60","","0.3339947878","main_expt","","0.2694349638","","0.3326485747","","0.08966050757","","","","","",""
"97","","bandit","136","554497","0.0-98.0-0.0","09552829","wem/bandit_single","A1IFIK8J49WBER","pain","3","","74","J","1","","0","0","1","","0.3291501217","false","61","","0.3559621948","main_expt","","0.3291501217","","0.3239501662","","0.06827284498","","","","","",""
"85","","bandit","137","556347","0.0-99.0-0.0","09552829","wem/bandit_single","A1IFIK8J49WBER","pain","3","","75","K","2","","0","0","1","","0.3140158541","false","62","","0.3565904981","main_expt","","0.3516688484","","0.3140158541","","0.0870528816","","","","","",""
"29","","bandit","138","558141","0.0-100.0-0.0","09552829","wem/bandit_single","A1IFIK8J49WBER","pain","3","","75","K","2","","0","1","0","","0.2896297009","false","63","","0.3766945074","main_expt","","0.3662001291","","0.2896297009","","0.07384780705","","","","","",""
"176","","bandit","139","560085","0.0-101.0-0.0","09552829","wem/bandit_single","A1IFIK8J49WBER","pain","3","","75","K","2","","0","0","1","","0.2848001348","false","64","","0.4038560084","main_expt","","0.3986377969","","0.2848001348","","0.09386223648","","","","","",""
"510","","bandit","140","562368","0.0-102.0-0.0","09552829","wem/bandit_single","A1IFIK8J49WBER","pain","3","","75","K","2","","0","1","0","","0.2621939157","false","65","","0.4081833366","main_expt","","0.4284050928","","0.2621939157","","0.08656227431","","","","","",""
"81","","bandit","141","564211","0.0-103.0-0.0","09552829","wem/bandit_single","A1IFIK8J49WBER","pain","3","","75","K","2","","0","0","1","","0.2218985249","false","66","","0.4111507483","main_expt","","0.4295130084","","0.2218985249","","0.1254260964","","","","","",""
"246","","bandit","142","566222","0.0-104.0-0.0","09552829","wem/bandit_single","A1IFIK8J49WBER","pain","3","","75","K","2","","0","1","0","","0.2203007364","false","67","","0.3731562577","main_expt","","0.4192215244","","0.2203007364","","0.0848557225","","","","","",""
"227","","bandit","143","568216","0.0-105.0-0.0","09552829","wem/bandit_single","A1IFIK8J49WBER","pain","3","","75","K","2","","0","0","1","","0.2163243509","false","68","","0.3471707475","main_expt","","0.4617344849","","0.2163243509","","0.1277621339","","","","","",""
"123","","bandit","144","570104","0.0-106.0-0.0","09552829","wem/bandit_single","A1IFIK8J49WBER","pain","3","","75","K","2","","0","0","1","","0.1552451017","false","69","","0.3163780081","main_expt","","0.4496684627","","0.1552451017","","0.1425885083","","","","","",""
"860","","bandit","145","572729","0.0-107.0-0.0","09552829","wem/bandit_single","A1IFIK8J49WBER","pain","3","","74","J","1","","0","0","1","","0.4572021165","false","70","","0.2872849644","main_expt","","0.4572021165","","0.144295094","","0.1765985622","","","","","",""
"113","","bandit","146","574610","0.0-108.0-0.0","09552829","wem/bandit_single","A1IFIK8J49WBER","pain","3","","72","H","0","img/none_selected.jpg","0","0","1","","0.300298776","false","71","","0.300298776","main_expt","","0.457930868","","0.1823242822","","0.1520060204","","","","","",""
"180","","bandit","147","576565","0.0-109.0-0.0","09552829","wem/bandit_single","A1IFIK8J49WBER","pain","3","","75","K","2","","0","0","1","","0.144478384","false","72","","0.3280152389","main_expt","","0.4687468973","","0.144478384","","0.09933583891","","","","","",""
"193","","bandit","148","578523","0.0-110.0-0.0","09552829","wem/bandit_single","A1IFIK8J49WBER","pain","3","","75","K","2","","0","0","1","","0.1420634247","false","73","","0.2758062481","main_expt","","0.4707862587","","0.1420634247","","0.1087995109","","","","","",""
"239","","bandit","149","580540","0.0-111.0-0.0","09552829","wem/bandit_single","A1IFIK8J49WBER","pain","3","","76","L","3","","0","0","1","","0.150223613","false","74","","0.3370537031","main_expt","","0.4602293826","","0.1358649702","","0.150223613","","","","","",""
"172","","bandit","150","582489","0.0-112.0-0.0","09552829","wem/bandit_single","A1IFIK8J49WBER","pain","3","","75","K","2","","0","0","1","","0.09700523291","false","75","","0.3323795279","main_expt","","0.439891953","","0.09700523291","","0.1945690608","","","","","",""
"215","","bandit","151","584472","0.0-113.0-0.0","09552829","wem/bandit_single","A1IFIK8J49WBER","pain","3","","72","H","0","img/none_selected.jpg","0","0","1","","0.3822428931","false","76","","0.3822428931","main_expt","","0.4424180744","","0.07829726083","","0.2454913388","","","","","",""
"185","","bandit","152","586431","0.0-114.0-0.0","09552829","wem/bandit_single","A1IFIK8J49WBER","pain","3","","74","J","1","","0","0","1","","0.4066280348","false","77","","0.4136836411","main_expt","","0.4066280348","","0.08460916486","","0.2181262922","","","","","",""
"78","","bandit","153","588270","0.0-115.0-0.0","09552829","wem/bandit_single","A1IFIK8J49WBER","pain","3","","75","K","2","","0","0","1","","0.0875988483","false","78","","0.4505469687","main_expt","","0.3969262671","","0.0875988483","","0.2500794828","","","","","",""
"194","","bandit","154","590229","0.0-116.0-0.0","09552829","wem/bandit_single","A1IFIK8J49WBER","pain","3","","75","K","2","","0","0","1","","0.06491107755","false","79","","0.4251749511","main_expt","","0.4119020232","","0.06491107755","","0.2021405589","","","","","",""
"620","","bandit","155","592614","0.0-117.0-0.0","09552829","wem/bandit_single","A1IFIK8J49WBER","pain","3","","72","H","0","img/none_selected.jpg","0","1","0","","0.3976376265","false","80","","0.3976376265","main_expt","","0.3797331509","","0.1021818806","","0.1654874554","","","","","",""
"168","","bandit","156","594546","0.0-118.0-0.0","09552829","wem/bandit_single","A1IFIK8J49WBER","pain","3","","72","H","0","img/none_selected.jpg","0","0","1","","0.409462467","false","81","","0.409462467","main_expt","","0.4024270851","","0.07175209231","","0.1281487551","","","","","",""
"276","","bandit","157","596588","0.0-119.0-0.0","09552829","wem/bandit_single","A1IFIK8J49WBER","pain","3","","74","J","1","","0","1","0","","0.3976574516","false","82","","0.4541942335","main_expt","","0.3976574516","","0.04651379375","","0.1167166884","","","","","",""
"134","","bandit","158","598490","0.0-120.0-0.0","09552829","wem/bandit_single","A1IFIK8J49WBER","pain","3","","74","J","1","","0","0","1","","0.3749492802","false","83","","0.4452160763","main_expt","","0.3749492802","","0.03148502893","","0.1426109787","","","","","",""
"191","","bandit","159","600438","0.0-121.0-0.0","09552829","wem/bandit_single","A1IFIK8J49WBER","pain","3","","74","J","1","","0","0","1","","0.4021863709","false","84","","0.438985114","main_expt","","0.4021863709","","0.05186863446","","0.121887906","","","","","",""
"108","","bandit","160","602310","0.0-122.0-0.0","09552829","wem/bandit_single","A1IFIK8J49WBER","pain","3","","75","K","2","","0","0","1","","0.04986731509","false","85","","0.4331173667","main_expt","","0.3624574422","","0.04986731509","","0.1361926199","","","","","",""
"468","","bandit","161","604544","0.0-123.0-0.0","09552829","wem/bandit_single","A1IFIK8J49WBER","pain","3","","72","H","0","img/none_selected.jpg","0","0","1","","0.447547065","false","86","","0.447547065","main_expt","","0.387939101","","0.05891938772","","0.1287871674","","","","","",""
"159","","bandit","162","606465","0.0-124.0-0.0","09552829","wem/bandit_single","A1IFIK8J49WBER","pain","3","","76","L","3","","0","0","1","","0.13112728","false","87","","0.4451560311","main_expt","","0.3949621072","","0.06619539979","","0.13112728","","","","","",""
"260","","bandit","163","608490","0.0-125.0-0.0","09552829","wem/bandit_single","A1IFIK8J49WBER","pain","3","","75","K","2","","0","0","1","","0.03553047297","false","88","","0.4010299359","main_expt","","0.3789082299","","0.03553047297","","0.1385028762","","","","","",""
"69","","bandit","164","610328","0.0-126.0-0.0","09552829","wem/bandit_single","A1IFIK8J49WBER","pain","3","","72","H","0","img/none_selected.jpg","0","1","0","","0.430672582","false","89","","0.430672582","main_expt","","0.3718344374","","0.03983007571","","0.1377901848","","","","","",""
"418","","bandit","165","612517","0.0-127.0-0.0","09552829","wem/bandit_single","A1IFIK8J49WBER","pain","3","","72","H","0","img/none_selected.jpg","0","0","1","","0.4063924327","false","90","","0.4063924327","main_expt","","0.4341719303","","0.02618566652","","0.1642812903","","","","","",""
"362","","bandit","166","614646","0.0-128.0-0.0","09552829","wem/bandit_single","A1IFIK8J49WBER","pain","3","","74","J","1","","0","0","1","","0.4538289377","false","91","","0.4115689239","main_expt","","0.4538289377","","0.03325063158","","0.2115922749","","","","","",""
"379","","bandit","167","616795","0.0-129.0-0.0","09552829","wem/bandit_single","A1IFIK8J49WBER","pain","3","","75","K","2","","0","0","1","","0.02042352937","false","92","","0.4195244723","main_expt","","0.4508501544","","0.02042352937","","0.1819790886","","","","","",""
"224","","bandit","168","618783","0.0-130.0-0.0","09552829","wem/bandit_single","A1IFIK8J49WBER","pain","3","","72","H","0","img/none_selected.jpg","0","0","1","","0.3976010387","false","93","","0.3976010387","main_expt","","0.4548943395","","0.01887694535","","0.2039146085","","","","","",""
"205","","bandit","169","620754","0.0-131.0-0.0","09552829","wem/bandit_single","A1IFIK8J49WBER","pain","3","","72","H","0","img/none_selected.jpg","0","0","1","","0.3668479885","false","94","","0.3668479885","main_expt","","0.4646086811","","0.02367451168","","0.2307813202","","","","","",""
"636","","bandit","170","623162","0.0-132.0-0.0","09552829","wem/bandit_single","A1IFIK8J49WBER","pain","3","","75","K","2","","0","0","1","","0.02723032617","false","95","","0.3332342888","main_expt","","0.467541367","","0.02723032617","","0.2213313998","","","","","",""
"104","","bandit","171","625027","0.0-133.0-0.0","09552829","wem/bandit_single","A1IFIK8J49WBER","pain","3","","74","J","1","","0","1","0","","0.4642351642","false","96","","0.2884910782","main_expt","","0.4642351642","","0.02648196594","","0.2568515079","","","","","",""
"190","","bandit","172","626985","0.0-134.0-0.0","09552829","wem/bandit_single","A1IFIK8J49WBER","pain","3","","74","J","1","","0","0","1","","0.4467755515","false","97","","0.2656891479","main_expt","","0.4467755515","","0.01585024216","","0.2699845376","","","","","",""
"226","","bandit","173","628983","0.0-135.0-0.0","09552829","wem/bandit_single","A1IFIK8J49WBER","pain","3","","72","H","0","img/none_selected.jpg","0","1","0","","0.2595300749","false","98","","0.2595300749","main_expt","","0.4056350907","","0.01169409205","","0.2797451528","","","","","",""
"378","","bandit","174","631127","0.0-136.0-0.0","09552829","wem/bandit_single","A1IFIK8J49WBER","pain","3","","76","L","3","","0","0","1","","0.3187705275","false","99","","0.2519900202","main_expt","","0.339742379","","0.01197913588","","0.3187705275","","","","","",""
"1086","","bandit","175","633978","0.0-137.0-0.0","09552829","wem/bandit_single","A1IFIK8J49WBER","pain","3","","72","H","0","img/none_selected.jpg","0","0","1","","0.2523409295","false","100","","0.2523409295","main_expt","","0.3381167522","","0.01759776774","","0.3570824245","","","","","",""
"223","","bandit","176","635967","0.0-138.0-0.0","09552829","wem/bandit_single","A1IFIK8J49WBER","pain","3","","75","K","2","","0","0","1","","0.04295615511","false","101","","0.2146893193","main_expt","","0.2803213009","","0.04295615511","","0.3489468272","","","","","",""
"159","","bandit","177","637893","0.0-139.0-0.0","09552829","wem/bandit_single","A1IFIK8J49WBER","pain","3","","74","J","1","","0","0","1","","0.317644571","false","102","","0.1843767259","main_expt","","0.317644571","","0.06572998715","","0.3015799625","","","","","",""
"245","","bandit","178","639898","0.0-140.0-0.0","09552829","wem/bandit_single","A1IFIK8J49WBER","pain","3","","72","H","0","img/none_selected.jpg","0","0","1","","0.2108432206","false","103","","0.2108432206","main_expt","","0.3024927185","","0.1043212589","","0.2656450655","","","","","",""
"169","","bandit","179","641836","0.0-141.0-0.0","09552829","wem/bandit_single","A1IFIK8J49WBER","pain","3","","72","H","0","img/none_selected.jpg","0","0","1","","0.26792014","false","104","","0.26792014","main_expt","","0.3339077782","","0.07063930719","","0.261155182","","","","","",""
"338","","bandit","180","643937","0.0-142.0-0.0","09552829","wem/bandit_single","A1IFIK8J49WBER","pain","3","","75","K","2","","0","0","1","","0.09992353171","false","105","","0.3302583292","main_expt","","0.2966783269","","0.09992353171","","0.2794756432","","","","","",""
"1045","","bandit","181","646748","0.0-143.0-0.0","09552829","wem/bandit_single","A1IFIK8J49WBER","pain","3","","76","L","3","","0","0","1","","0.2719827923","false","106","","0.3099187861","main_expt","","0.3722996478","","0.1074399807","","0.2719827923","","","","","",""
"1133","","bandit","182","649644","0.0-144.0-0.0","09552829","wem/bandit_single","A1IFIK8J49WBER","pain","3","","74","J","1","","0","0","1","","0.3764369168","false","107","","0.3526315454","main_expt","","0.3764369168","","0.1398361659","","0.2614179637","","","","","",""
"644","","bandit","183","652055","0.0-145.0-0.0","09552829","wem/bandit_single","A1IFIK8J49WBER","pain","3","","76","L","3","","0","0","1","","0.3154283329","false","108","","0.3741147492","main_expt","","0.3221289315","","0.1503356919","","0.3154283329","","","","","",""
"246","","bandit","184","654070","0.0-146.0-0.0","09552829","wem/bandit_single","A1IFIK8J49WBER","pain","3","","72","H","0","img/none_selected.jpg","0","0","1","","0.3775387023","false","109","","0.3775387023","main_expt","","0.3394272446","","0.1554773292","","0.3965133924","","","","","",""
"217","","bandit","185","656047","0.0-147.0-0.0","09552829","wem/bandit_single","A1IFIK8J49WBER","pain","3","","75","K","2","","0","0","1","","0.1862379276","false","110","","0.3603169275","main_expt","","0.3108194313","","0.1862379276","","0.4096679205","","","","","",""
"318","","bandit","186","658133","0.0-148.0-0.0","09552829","wem/bandit_single","A1IFIK8J49WBER","pain","3","","75","K","2","","0","0","1","","0.2096222548","false","111","","0.3492898999","main_expt","","0.2754643313","","0.2096222548","","0.4107972434","","","","","",""
"228","","bandit","187","660128","0.0-149.0-0.0","09552829","wem/bandit_single","A1IFIK8J49WBER","pain","3","","76","L","3","","0","1","0","","0.4229867006","false","112","","0.3332089306","main_expt","","0.2906444469","","0.2432579143","","0.4229867006","","","","","",""
"570","","bandit","188","662465","0.0-150.0-0.0","09552829","wem/bandit_single","A1IFIK8J49WBER","pain","3","","76","L","3","","0","0","1","","0.4045712819","false","113","","0.3450976056","main_expt","","0.3006146448","","0.1721880852","","0.4045712819","","","","","",""
"781","","bandit","189","665015","0.0-151.0-0.0","09552829","wem/bandit_single","A1IFIK8J49WBER","pain","3","","72","H","0","img/none_selected.jpg","0","0","1","","0.3725565121","false","114","","0.3725565121","main_expt","","0.2668468313","","0.2081909003","","0.3821667802","","","","","",""
"235","","bandit","190","667012","0.0-152.0-0.0","09552829","wem/bandit_single","A1IFIK8J49WBER","pain","3","","74","J","1","","0","0","1","","0.3032344037","false","115","","0.3789561431","main_expt","","0.3032344037","","0.272711811","","0.3342096713","","","","","",""
"220","","bandit","191","669002","0.0-153.0-0.0","09552829","wem/bandit_single","A1IFIK8J49WBER","pain","3","","75","K","2","","0","0","1","","0.2801201945","false","116","","0.3829881954","main_expt","","0.279678247","","0.2801201945","","0.3475890958","","","","","",""
"174","","bandit","192","670944","0.0-154.0-0.0","09552829","wem/bandit_single","A1IFIK8J49WBER","pain","3","","76","L","3","","0","0","1","","0.3545652452","false","117","","0.3872477479","main_expt","","0.2762620489","","0.3615324036","","0.3545652452","","","","","",""
"212","","bandit","193","672921","0.0-155.0-0.0","09552829","wem/bandit_single","A1IFIK8J49WBER","pain","3","","76","L","3","","0","0","1","","0.3542043025","false","118","","0.3952603005","main_expt","","0.2880572365","","0.3615177178","","0.3542043025","","","","","",""
"360","","bandit","194","675048","0.0-156.0-0.0","09552829","wem/bandit_single","A1IFIK8J49WBER","pain","3","","76","L","3","","0","0","1","","0.3471352845","false","119","","0.3838673248","main_expt","","0.2807620685","","0.3875935955","","0.3471352845","","","","","",""
"143","","bandit","195","676954","0.0-157.0-0.0","09552829","wem/bandit_single","A1IFIK8J49WBER","pain","3","","75","K","2","","0","0","1","","0.4052723714","false","120","","0.4148997213","main_expt","","0.2811576832","","0.4052723714","","0.3343169965","","","","","",""
"172","","bandit","196","678889","0.0-158.0-0.0","09552829","wem/bandit_single","A1IFIK8J49WBER","pain","3","","72","H","0","img/none_selected.jpg","0","1","0","","0.4184259471","false","121","","0.4184259471","main_expt","","0.3016455194","","0.44462971","","0.3595120763","","","","","",""
"878","","bandit","197","681537","0.0-159.0-0.0","09552829","wem/bandit_single","A1IFIK8J49WBER","pain","3","","76","L","3","","0","1","0","","0.3296914373","false","122","","0.4271141924","main_expt","","0.3161331551","","0.4338931322","","0.3296914373","","","","","",""
"278","","bandit","198","683576","0.0-160.0-0.0","09552829","wem/bandit_single","A1IFIK8J49WBER","pain","3","","72","H","0","img/none_selected.jpg","0","0","1","","0.3994299035","false","123","","0.3994299035","main_expt","","0.2882518765","","0.4248885798","","0.3369167856","","","","","",""
"300","","bandit","199","685641","0.0-161.0-0.0","09552829","wem/bandit_single","A1IFIK8J49WBER","pain","3","","76","L","3","","0","0","1","","0.3181772373","false","124","","0.4319292606","main_expt","","0.3426101702","","0.3773411534","","0.3181772373","","","","","",""
"632","","bandit","200","688041","0.0-162.0-0.0","09552829","wem/bandit_single","A1IFIK8J49WBER","pain","3","","76","L","3","","0","0","1","","0.3285823626","false","125","","0.4228137624","main_expt","","0.3623178769","","0.3322500489","","0.3285823626","","","","","",""
"176","","bandit","201","689982","0.0-163.0-0.0","09552829","wem/bandit_single","A1IFIK8J49WBER","pain","3","","75","K","2","","0","0","1","","0.3742157909","false","126","","0.4445824992","main_expt","","0.3487147863","","0.3742157909","","0.3203566048","","","","","",""
"192","","bandit","202","691943","0.0-164.0-0.0","09552829","wem/bandit_single","A1IFIK8J49WBER","pain","3","","72","H","0","img/none_selected.jpg","0","1","0","","0.4525048151","false","127","","0.4525048151","main_expt","","0.4137567253","","0.3851047317","","0.3852478983","","","","","",""
"683","","bandit","203","694396","0.0-165.0-0.0","09552829","wem/bandit_single","A1IFIK8J49WBER","pain","3","","76","L","3","","0","0","1","","0.3389365807","false","128","","0.4692783601","main_expt","","0.3814482247","","0.4043255462","","0.3389365807","","","","","",""
"178","","bandit","204","696345","0.0-166.0-0.0","09552829","wem/bandit_single","A1IFIK8J49WBER","pain","3","","72","H","0","img/none_selected.jpg","0","1","0","","0.4168961411","false","129","","0.4168961411","main_expt","","0.4168244781","","0.4123407707","","0.3137404055","","","","","",""
"262","","bandit","205","698375","0.0-167.0-0.0","09552829","wem/bandit_single","A1IFIK8J49WBER","pain","3","","72","H","0","img/none_selected.jpg","0","1","0","","0.3790243023","false","130","","0.3790243023","main_expt","","0.4365918222","","0.4046971735","","0.3258581953","","","","","",""
"204","","bandit","206","700340","0.0-168.0-0.0","09552829","wem/bandit_single","A1IFIK8J49WBER","pain","3","","72","H","0","img/none_selected.jpg","0","1","0","","0.4049885765","false","131","","0.4049885765","main_expt","","0.4389841863","","0.4461276952","","0.2883577813","","","","","",""
"289","","bandit","207","702394","0.0-169.0-0.0","09552829","wem/bandit_single","A1IFIK8J49WBER","pain","3","","72","H","0","img/none_selected.jpg","0","0","1","","0.4146365962","false","132","","0.4146365962","main_expt","","0.4152650591","","0.4611465992","","0.3560589507","","","","","",""
"247","","bandit","208","704406","0.0-170.0-0.0","09552829","wem/bandit_single","A1IFIK8J49WBER","pain","3","","76","L","3","","0","0","1","","0.358394082","false","133","","0.3895917514","main_expt","","0.4542457407","","0.4798080461","","0.358394082","","","","","",""
"197","","bandit","209","706372","0.0-171.0-0.0","09552829","wem/bandit_single","A1IFIK8J49WBER","pain","3","","72","H","0","img/none_selected.jpg","0","0","1","","0.4031985028","false","134","","0.4031985028","main_expt","","0.4598844585","","0.4536835414","","0.3605573227","","","","","",""
"199","","bandit","210","708339","0.0-172.0-0.0","09552829","wem/bandit_single","A1IFIK8J49WBER","pain","3","","75","K","2","","0","0","1","","0.4297718384","false","135","","0.3950250086","main_expt","","0.4690925783","","0.4297718384","","0.3695471057","","","","","",""
"135","","bandit","211","710238","0.0-173.0-0.0","09552829","wem/bandit_single","A1IFIK8J49WBER","pain","3","","76","L","3","","0","1","0","","0.4060603524","false","136","","0.3958408827","main_expt","","0.4382452635","","0.4047290025","","0.4060603524","","","","","",""
"547","","bandit","212","712550","0.0-174.0-0.0","09552829","wem/bandit_single","A1IFIK8J49WBER","pain","3","","76","L","3","","0","1","0","","0.3977168634","false","137","","0.4025558346","main_expt","","0.4469583278","","0.4062789173","","0.3977168634","","","","","",""
"257","","bandit","213","714580","0.0-175.0-0.0","09552829","wem/bandit_single","A1IFIK8J49WBER","pain","3","","76","L","3","","0","0","1","","0.3884520433","false","138","","0.3901350715","main_expt","","0.44739429","","0.3893267926","","0.3884520433","","","","","",""
"252","","bandit","214","716602","0.0-176.0-0.0","09552829","wem/bandit_single","A1IFIK8J49WBER","pain","3","","72","H","0","img/none_selected.jpg","0","0","1","","0.4069565875","false","139","","0.4069565875","main_expt","","0.4329330235","","0.3355070849","","0.3517782966","","","","","",""
"562","","bandit","215","718936","0.0-177.0-0.0","09552829","wem/bandit_single","A1IFIK8J49WBER","pain","3","","75","K","2","","0","1","0","","0.3033729388","false","140","","0.4384632306","main_expt","","0.4427321083","","0.3033729388","","0.3147433726","","","","","",""
"1994","","bandit","216","722704","0.0-178.0-0.0","09552829","wem/bandit_single","A1IFIK8J49WBER","pain","3","","76","L","3","","0","0","1","","0.315874603","false","141","","0.4513823692","main_expt","","0.4630674526","","0.3495942718","","0.315874603","","","","","",""
"166","","bandit","217","724639","0.0-179.0-0.0","09552829","wem/bandit_single","A1IFIK8J49WBER","pain","3","","75","K","2","","0","0","1","","0.373744609","false","142","","0.4477105457","main_expt","","0.4678156034","","0.373744609","","0.2660579121","","","","","",""
"580","","bandit","218","726984","0.0-180.0-0.0","09552829","wem/bandit_single","A1IFIK8J49WBER","pain","3","","72","H","0","img/none_selected.jpg","0","0","1","","0.4399018081","false","143","","0.4399018081","main_expt","","0.4556942345","","0.3983109068","","0.2791435274","","","","","",""
"145","","bandit","219","728898","0.0-181.0-0.0","09552829","wem/bandit_single","A1IFIK8J49WBER","pain","3","","74","J","1","","0","0","1","","0.4606745253","false","144","","0.3929519584","main_expt","","0.4606745253","","0.4290647624","","0.3232226047","","","","","",""
"264","","bandit","220","730934","0.0-182.0-0.0","09552829","wem/bandit_single","A1IFIK8J49WBER","pain","3","","72","H","0","img/none_selected.jpg","0","0","1","","0.3638959839","false","145","","0.3638959839","main_expt","","0.4493721712","","0.4360055891","","0.2863527335","","","","","",""
"265","","bandit","221","732972","0.0-183.0-0.0","09552829","wem/bandit_single","A1IFIK8J49WBER","pain","3","","76","L","3","","0","1","0","","0.2399582054","false","146","","0.3109408856","main_expt","","0.411205332","","0.4408793748","","0.2399582054","","","","","",""
"260","","bandit","222","735002","0.0-184.0-0.0","09552829","wem/bandit_single","A1IFIK8J49WBER","pain","3","","76","L","3","","0","1","0","","0.2186627863","false","147","","0.303790043","main_expt","","0.4091009254","","0.4152856751","","0.2186627863","","","","","",""
"289","","bandit","223","737060","0.0-185.0-0.0","09552829","wem/bandit_single","A1IFIK8J49WBER","pain","3","","76","L","3","","0","0","1","","0.233860686","false","148","","0.2836070719","main_expt","","0.3878952866","","0.400149315","","0.233860686","","","","","",""
"643","","bandit","224","739477","0.0-186.0-0.0","09552829","wem/bandit_single","A1IFIK8J49WBER","pain","3","","75","K","2","","0","0","1","","0.4081055764","false","149","","0.2132997302","main_expt","","0.39239053","","0.4081055764","","0.2752018233","","","","","",""
"690","","bandit","225","741938","0.0-187.0-0.0","09552829","wem/bandit_single","A1IFIK8J49WBER","pain","3","","76","L","3","","0","0","1","","0.2306982087","false","150","","0.1906505553","main_expt","","0.3869122725","","0.3946041437","","0.2306982087","","","","","",""
"316","","bandit","226","744025","0.0-188.0-0.0","09552829","wem/bandit_single","A1IFIK8J49WBER","pain","3","","72","H","0","img/none_selected.jpg","0","0","1","","0.1887938372","false","151","","0.1887938372","main_expt","","0.3562084687","","0.3517385329","","0.272940168","","","","","",""
"238","","bandit","227","746036","0.0-189.0-0.0","09552829","wem/bandit_single","A1IFIK8J49WBER","pain","3","","72","H","0","img/none_selected.jpg","0","0","1","","0.1452925277","false","152","","0.1452925277","main_expt","","0.3975166132","","0.33807167","","0.246833375","","","","","",""
"286","","bandit","228","748086","0.0-190.0-0.0","09552829","wem/bandit_single","A1IFIK8J49WBER","pain","3","","75","K","2","","0","0","1","","0.3507556502","false","153","","0.1236287895","main_expt","","0.4221253747","","0.3507556502","","0.2555278221","","","","","",""
"221","","bandit","229","750080","0.0-191.0-0.0","09552829","wem/bandit_single","A1IFIK8J49WBER","pain","3","","76","L","3","","0","0","1","","0.1964980564","false","154","","0.119712108","main_expt","","0.3887365422","","0.3484399371","","0.1964980564","","","","","",""
"175","","bandit","230","752026","0.0-192.0-0.0","09552829","wem/bandit_single","A1IFIK8J49WBER","pain","3","","74","J","1","","0","1","0","","0.3935049101","false","155","","0.1638630184","main_expt","","0.3935049101","","0.4023996329","","0.2158986014","","","","","",""
"375","","bandit","231","754171","0.0-193.0-0.0","09552829","wem/bandit_single","A1IFIK8J49WBER","pain","3","","74","J","1","","0","0","1","","0.4185769797","false","156","","0.138562935","main_expt","","0.4185769797","","0.3489947109","","0.2269609611","","","","","",""
"380","","bandit","232","756320","0.0-194.0-0.0","09552829","wem/bandit_single","A1IFIK8J49WBER","pain","3","","76","L","3","","0","1","0","","0.2997599927","false","157","","0.1424057266","main_expt","","0.412821327","","0.3223479281","","0.2997599927","","","","","",""
"1103","","bandit","233","759188","0.0-195.0-0.0","09552829","wem/bandit_single","A1IFIK8J49WBER","pain","3","","75","K","2","","0","0","1","","0.3334556671","false","158","","0.1068688432","main_expt","","0.4433072999","","0.3334556671","","0.2608946303","","","","","",""
"192","","bandit","234","761143","0.0-196.0-0.0","09552829","wem/bandit_single","A1IFIK8J49WBER","pain","3","","76","L","3","","0","1","0","","0.2927903113","false","159","","0.08394897778","main_expt","","0.4600675837","","0.3686402331","","0.2927903113","","","","","",""
"193","","bandit","235","763102","0.0-197.0-0.0","09552829","wem/bandit_single","A1IFIK8J49WBER","pain","3","","76","L","3","","0","0","1","","0.3165869591","false","160","","0.09909711901","main_expt","","0.449399373","","0.3711838842","","0.3165869591","","","","","",""
"800","","bandit","236","765661","0.0-198.0-0.0","09552829","wem/bandit_single","A1IFIK8J49WBER","pain","3","","74","J","1","","0","1","0","","0.4303005813","false","161","","0.09256485174","main_expt","","0.4303005813","","0.385982022","","0.3355773311","","","","","",""
"475","","bandit","237","767910","0.0-199.0-0.0","09552829","wem/bandit_single","A1IFIK8J49WBER","pain","3","","74","J","1","","0","1","0","","0.4319487415","false","162","","0.07550585721","main_expt","","0.4319487415","","0.3435676447","","0.3801839585","","","","","",""
"892","","bandit","238","770569","0.0-200.0-0.0","09552829","wem/bandit_single","A1IFIK8J49WBER","pain","3","","74","J","1","","0","0","1","","0.4459750046","false","163","","0.08055395315","main_expt","","0.4459750046","","0.3840292687","","0.3796909961","","","","","",""
"199","","bandit","239","772539","0.0-201.0-0.0","09552829","wem/bandit_single","A1IFIK8J49WBER","pain","3","","76","L","3","","0","1","0","","0.3657353238","false","164","","0.07824920034","main_expt","","0.4529977304","","0.3427058888","","0.3657353238","","","","","",""
"252","","bandit","240","774559","0.0-202.0-0.0","09552829","wem/bandit_single","A1IFIK8J49WBER","pain","3","","76","L","3","","0","0","1","","0.3937598932","false","165","","0.08439791844","main_expt","","0.4472909282","","0.3258967388","","0.3937598932","","","","","",""
"209","","bandit","241","776532","0.0-203.0-0.0","09552829","wem/bandit_single","A1IFIK8J49WBER","pain","3","","74","J","1","","0","0","1","","0.4399772256","false","166","","0.05039915739","main_expt","","0.4399772256","","0.2704303424","","0.3914196171","","","","","",""
"240","","bandit","242","778541","0.0-204.0-0.0","09552829","wem/bandit_single","A1IFIK8J49WBER","pain","3","","75","K","2","","0","0","1","","0.3205555932","false","167","","0.05759530337","main_expt","","0.4636729032","","0.3205555932","","0.3919877423","","","","","",""
"211","","bandit","243","780522","0.0-205.0-0.0","09552829","wem/bandit_single","A1IFIK8J49WBER","pain","3","","76","L","3","","0","1","0","","0.3647459683","false","168","","0.04992464654","main_expt","","0.4437796743","","0.3639109947","","0.3647459683","","","","","",""
"267","","bandit","244","782562","0.0-206.0-0.0","09552829","wem/bandit_single","A1IFIK8J49WBER","pain","3","","76","L","3","","0","0","1","","0.4058418149","false","169","","0.03416660819","main_expt","","0.456101387","","0.3733582142","","0.4058418149","","","","","",""
"1147","","bandit","245","785480","0.0-207.0-0.0","09552829","wem/bandit_single","A1IFIK8J49WBER","pain","3","","74","J","1","","0","1","0","","0.4571218852","false","170","","0.01917125828","main_expt","","0.4571218852","","0.3832331311","","0.3998590153","","","","","",""
"1163","","bandit","246","788406","0.0-208.0-0.0","09552829","wem/bandit_single","A1IFIK8J49WBER","pain","3","","74","J","1","","0","1","0","","0.445510323","false","171","","0.02244253376","main_expt","","0.445510323","","0.3815339887","","0.3887500458","","","","","",""
"225","","bandit","247","790404","0.0-209.0-0.0","09552829","wem/bandit_single","A1IFIK8J49WBER","pain","3","","74","J","1","","0","0","1","","0.4280794999","false","172","","0.02619280326","main_expt","","0.4280794999","","0.3471775219","","0.4102182378","","","","","",""
"252","","bandit","248","792426","0.0-210.0-0.0","09552829","wem/bandit_single","A1IFIK8J49WBER","pain","3","","76","L","3","","0","1","0","","0.3895773165","false","173","","0.0218428458","main_expt","","0.4379780546","","0.340289466","","0.3895773165","","","","","",""
"294","","bandit","249","794490","0.0-211.0-0.0","09552829","wem/bandit_single","A1IFIK8J49WBER","pain","3","","76","L","3","","0","1","0","","0.3826402373","false","174","","0.02840617367","main_expt","","0.4160926905","","0.3280863639","","0.3826402373","","","","","",""
"233","","bandit","250","796485","0.0-212.0-0.0","09552829","wem/bandit_single","A1IFIK8J49WBER","pain","3","","76","L","3","","0","1","0","","0.38572844","false","175","","0.0268928826","main_expt","","0.44195178","","0.3782643392","","0.38572844","","","","","",""
"391","","bandit","251","798638","0.0-213.0-0.0","09552829","wem/bandit_single","A1IFIK8J49WBER","pain","3","","76","L","3","","0","0","1","","0.3566605828","false","176","","0.04471375276","main_expt","","0.4469840309","","0.3714875018","","0.3566605828","","","","","",""
"86","","bandit","252","800488","0.0-214.0-0.0","09552829","wem/bandit_single","A1IFIK8J49WBER","pain","3","","74","J","1","","0","0","1","","0.4732589693","false","177","","0.04508647299","main_expt","","0.4732589693","","0.3110573775","","0.3736379944","","","","","",""
"88","","bandit","253","802354","0.0-215.0-0.0","09552829","wem/bandit_single","A1IFIK8J49WBER","pain","3","","75","K","2","","0","1","0","","0.3725785744","false","178","","0.07342594821","main_expt","","0.4716065645","","0.3725785744","","0.3835263095","","","","","",""
"249","","bandit","254","804376","0.0-216.0-0.0","09552829","wem/bandit_single","A1IFIK8J49WBER","pain","3","","75","K","2","","0","0","1","","0.4143512522","false","179","","0.08189943715","main_expt","","0.4724187392","","0.4143512522","","0.3531759074","","","","","",""
"140","","bandit","255","806290","0.0-217.0-0.0","09552829","wem/bandit_single","A1IFIK8J49WBER","pain","3","","76","L","3","","0","0","1","","0.3185705061","false","180","","0.07894611151","main_expt","","0.4551908631","","0.4240428135","","0.3185705061","","","","","",""
"219","","bandit","256","808279","0.0-218.0-0.0","09552829","wem/bandit_single","A1IFIK8J49WBER","pain","3","","75","K","2","","0","0","1","","0.4394908049","false","181","","0.06982230443","main_expt","","0.456416976","","0.4394908049","","0.2823592255","","","","","",""
"254","","bandit","257","810297","0.0-219.0-0.0","09552829","wem/bandit_single","A1IFIK8J49WBER","pain","3","","72","H","0","img/none_selected.jpg","0","0","1","","0.06674639092","false","182","","0.06674639092","main_expt","","0.4525945541","","0.4180692962","","0.2741397005","","","","","",""
"192","","bandit","258","812260","0.0-220.0-0.0","09552829","wem/bandit_single","A1IFIK8J49WBER","pain","3","","74","J","1","","0","0","1","","0.4439654651","false","183","","0.04008595334","main_expt","","0.4439654651","","0.4468782907","","0.2936799338","","","","","",""
"719","","bandit","259","814741","0.0-221.0-0.0","09552829","wem/bandit_single","A1IFIK8J49WBER","pain","3","","76","L","3","","0","0","1","","0.3027831177","false","184","","0.04652727321","main_expt","","0.4366406792","","0.4489540851","","0.3027831177","","","","","",""
"385","","bandit","260","816897","0.0-222.0-0.0","09552829","wem/bandit_single","A1IFIK8J49WBER","pain","3","","75","K","2","","0","1","0","","0.4669005471","false","185","","0.05033673313","main_expt","","0.4282468188","","0.4669005471","","0.3180510168","","","","","",""
"142","","bandit","261","818809","0.0-223.0-0.0","09552829","wem/bandit_single","A1IFIK8J49WBER","pain","3","","75","K","2","","0","0","1","","0.419417397","false","186","","0.03009771755","main_expt","","0.4249990568","","0.419417397","","0.3285352945","","","","","",""
"140","","bandit","262","820723","0.0-224.0-0.0","09552829","wem/bandit_single","A1IFIK8J49WBER","pain","3","","76","L","3","","0","0","1","","0.3278715557","false","187","","0.02601150791","main_expt","","0.4159118542","","0.3735271503","","0.3278715557","","","","","",""
"297","","bandit","263","822794","0.0-225.0-0.0","09552829","wem/bandit_single","A1IFIK8J49WBER","pain","3","","75","K","2","","0","1","0","","0.3339942922","false","188","","0.02389042297","main_expt","","0.4294829221","","0.3339942922","","0.3408065186","","","","","",""
"206","","bandit","264","824766","0.0-226.0-0.0","09552829","wem/bandit_single","A1IFIK8J49WBER","pain","3","","75","K","2","","0","1","0","","0.3200911101","false","189","","0.02303770395","main_expt","","0.4183094629","","0.3200911101","","0.3335894225","","","","","",""
"225","","bandit","265","826761","0.0-227.0-0.0","09552829","wem/bandit_single","A1IFIK8J49WBER","pain","3","","75","K","2","","0","1","0","","0.379511296","false","190","","0.0156858998","main_expt","","0.3769048436","","0.379511296","","0.2560009578","","","","","",""
"219","","bandit","266","828746","0.0-228.0-0.0","09552829","wem/bandit_single","A1IFIK8J49WBER","pain","3","","75","K","2","","0","1","0","","0.3475909393","false","191","","0.02184200568","main_expt","","0.3654839124","","0.3475909393","","0.2422543603","","","","","",""
"219","","bandit","267","830746","0.0-229.0-0.0","09552829","wem/bandit_single","A1IFIK8J49WBER","pain","3","","75","K","2","","0","0","1","","0.3248483226","false","192","","0.04159540118","main_expt","","0.4158526776","","0.3248483226","","0.2479432207","","","","","",""
"323","","bandit","268","832841","0.0-230.0-0.0","09552829","wem/bandit_single","A1IFIK8J49WBER","pain","3","","76","L","3","","0","1","0","","0.2198669916","false","193","","0.02418359434","main_expt","","0.4294001388","","0.3530355579","","0.2198669916","","","","","",""
"210","","bandit","269","834822","0.0-231.0-0.0","09552829","wem/bandit_single","A1IFIK8J49WBER","pain","3","","76","L","3","","0","0","1","","0.1832858475","false","194","","0.03036789999","main_expt","","0.421006879","","0.3613612536","","0.1832858475","","","","","",""
"350","","bandit","270","836940","0.0-232.0-0.0","09552829","wem/bandit_single","A1IFIK8J49WBER","pain","3","","75","K","2","","0","0","1","","0.3712676973","false","195","","0.0328032794","main_expt","","0.3993762185","","0.3712676973","","0.1758973168","","","","","",""
"816","","bandit","271","839532","0.0-233.0-0.0","09552829","wem/bandit_single","A1IFIK8J49WBER","pain","3","","76","L","3","","0","1","0","","0.1472052011","false","196","","0.03367124179","main_expt","","0.3953591144","","0.3797177139","","0.1472052011","","","","","",""
"179","","bandit","272","841481","0.0-234.0-0.0","09552829","wem/bandit_single","A1IFIK8J49WBER","pain","3","","76","L","3","","0","0","1","","0.09357285733","false","197","","0.03515804352","main_expt","","0.4186523265","","0.3703437648","","0.09357285733","","","","","",""
"507","","bandit","273","843761","0.0-235.0-0.0","09552829","wem/bandit_single","A1IFIK8J49WBER","pain","3","","76","L","3","","0","1","0","","0.1466532231","false","198","","0.0474911349","main_expt","","0.4334783576","","0.3269028648","","0.1466532231","","","","","",""
"177","","bandit","274","845706","0.0-236.0-0.0","09552829","wem/bandit_single","A1IFIK8J49WBER","pain","3","","76","L","3","","0","0","1","","0.1745555733","false","199","","0.04758635843","main_expt","","0.452916177","","0.2972028605","","0.1745555733","","","","","",""
"300","","bandit","275","847782","0.0-237.0-0.0","09552829","wem/bandit_single","A1IFIK8J49WBER","pain","3","","75","K","2","","0","1","0","","0.2548635421","false","200","","0.06637193447","main_expt","","0.4652130485","","0.2548635421","","0.1496088854","","","","","",""
"167","","bandit","276","849730","0.0-238.0-0.0","09552829","wem/bandit_single","A1IFIK8J49WBER","pain","3","","75","K","2","","0","0","1","","0.2360204523","false","201","","0.03961336895","main_expt","","0.4544628945","","0.2360204523","","0.1144678821","","","","","",""
"281","","bandit","277","851782","0.0-239.0-0.0","09552829","wem/bandit_single","A1IFIK8J49WBER","pain","3","","76","L","3","","0","0","1","","0.08314182588","false","202","","0.04217273593","main_expt","","0.4346785174","","0.1847208139","","0.08314182588","","","","","",""
"103","","bandit","278","853657","0.0-240.0-0.0","09552829","wem/bandit_single","A1IFIK8J49WBER","pain","3","","76","L","3","","0","0","1","","0.1008304514","false","203","","0.03601881868","main_expt","","0.4340895374","","0.1740418795","","0.1008304514","","","","","",""
"236","","bandit","279","855657","0.0-241.0-0.0","09552829","wem/bandit_single","A1IFIK8J49WBER","pain","3","","75","K","2","","0","0","1","","0.1469060572","false","204","","0.04663301139","main_expt","","0.4398780919","","0.1469060572","","0.1170364225","","","","","",""
"662","","bandit","280","858092","0.0-242.0-0.0","09552829","wem/bandit_single","A1IFIK8J49WBER","pain","3","","72","H","0","img/none_selected.jpg","0","0","1","","0.04643109282","false","205","","0.04643109282","main_expt","","0.4001316318","","0.1162446513","","0.1228414706","","","","","",""
"205","","bandit","281","860062","0.0-243.0-0.0","09552829","wem/bandit_single","A1IFIK8J49WBER","pain","3","","74","J","1","","0","1","0","","0.4347617828","false","206","","0.06886832812","main_expt","","0.4347617828","","0.1289033918","","0.1574749647","","","","","",""
"151","","bandit","282","861989","0.0-244.0-0.0","09552829","wem/bandit_single","A1IFIK8J49WBER","pain","3","","74","J","1","","0","0","1","","0.4383015813","false","207","","0.0600143171","main_expt","","0.4383015813","","0.1261822501","","0.1922173773","","","","","",""
"2","","bandit","283","863763","0.0-245.0-0.0","09552829","wem/bandit_single","A1IFIK8J49WBER","pain","3","","76","L","3","","0","0","1","","0.1673160211","false","208","","0.04637571639","main_expt","","0.4038237536","","0.1024795668","","0.1673160211","","","","","",""
"221","","bandit","284","865759","0.0-246.0-0.0","09552829","wem/bandit_single","A1IFIK8J49WBER","pain","3","","75","K","2","","0","0","1","","0.1129838087","false","209","","0.04040360689","main_expt","","0.3890753365","","0.1129838087","","0.1269527993","","","","","",""
"151","","bandit","285","867680","0.0-247.0-0.0","09552829","wem/bandit_single","A1IFIK8J49WBER","pain","3","","76","L","3","","0","0","1","","0.1114377498","false","210","","0.02069644656","main_expt","","0.3792373644","","0.1562804612","","0.1114377498","","","","","",""
"154","","bandit","286","869601","0.0-248.0-0.0","09552829","wem/bandit_single","A1IFIK8J49WBER","pain","3","","74","J","1","","0","1","0","","0.3780611868","false","211","","0.03173395488","main_expt","","0.3780611868","","0.1363837251","","0.1155820846","","","","","",""
"379","","bandit","287","871744","0.0-249.0-0.0","09552829","wem/bandit_single","A1IFIK8J49WBER","pain","3","","74","J","1","","0","0","1","","0.3483689532","false","212","","0.02469601981","main_expt","","0.3483689532","","0.09358237554","","0.1553323518","","","","","",""
"600","","bandit","288","874107","0.0-250.0-0.0","09552829","wem/bandit_single","A1IFIK8J49WBER","pain","3","","74","J","1","","0","0","1","","0.2874103991","false","213","","0.04258417901","main_expt","","0.2874103991","","0.05743859841","","0.2062901667","","","","","",""
"129","","bandit","289","875999","0.0-251.0-0.0","09552829","wem/bandit_single","A1IFIK8J49WBER","pain","3","","76","L","3","","0","0","1","","0.2076956631","false","214","","0.05493755721","main_expt","","0.2620706088","","0.05800100084","","0.2076956631","","","","","",""
"188","","bandit","290","877959","0.0-252.0-0.0","09552829","wem/bandit_single","A1IFIK8J49WBER","pain","3","","75","K","2","","0","0","1","","0.05413405856","false","215","","0.08978059799","main_expt","","0.2855520155","","0.05413405856","","0.2609492508","","","","","",""
"150","","bandit","291","879885","0.0-253.0-0.0","09552829","wem/bandit_single","A1IFIK8J49WBER","pain","3","","74","J","1","","0","0","1","","0.2916786734","false","216","","0.09809121306","main_expt","","0.2916786734","","0.03942357166","","0.2500101786","","","","","",""
"521","","bandit","292","882179","0.0-254.0-0.0","09552829","wem/bandit_single","A1IFIK8J49WBER","pain","3","","75","K","2","","0","0","1","","0.03801572204","false","217","","0.1427848958","main_expt","","0.2823685681","","0.03801572204","","0.2748248586","","","","","",""
"224","","bandit","293","884174","0.0-255.0-0.0","09552829","wem/bandit_single","A1IFIK8J49WBER","pain","3","","76","L","3","","0","0","1","","0.311954441","false","218","","0.1570322525","main_expt","","0.2423520158","","0.03890441123","","0.311954441","","","","","",""
"138","","bandit","294","886086","0.0-256.0-0.0","09552829","wem/bandit_single","A1IFIK8J49WBER","pain","3","","76","L","3","","0","0","1","","0.3632760336","false","219","","0.1805036953","main_expt","","0.2949403562","","0.01887456362","","0.3632760336","","","","","",""
"235","","bandit","295","888094","0.0-257.0-0.0","09552829","wem/bandit_single","A1IFIK8J49WBER","pain","3","","74","J","1","","0","0","1","","0.3123592507","false","220","","0.1305519061","main_expt","","0.3123592507","","0.02149820142","","0.3369908474","","","","","",""
"156","","bandit","296","890017","0.0-258.0-0.0","09552829","wem/bandit_single","A1IFIK8J49WBER","pain","3","","72","H","0","img/none_selected.jpg","0","0","1","","0.09039333473","false","221","","0.09039333473","main_expt","","0.3184432139","","0.03528878979","","0.3047504054","","","","","",""
"1005","","bandit","297","892792","0.0-259.0-0.0","09552829","wem/bandit_single","A1IFIK8J49WBER","pain","3","","76","L","3","","0","1","0","","0.3107799438","false","222","","0.0801847008","main_expt","","0.3596246423","","0.03906528797","","0.3107799438","","","","","",""
"1513","","bandit","298","896069","0.0-260.0-0.0","09552829","wem/bandit_single","A1IFIK8J49WBER","pain","3","","76","L","3","","0","1","0","","0.3359374044","false","223","","0.08930296305","main_expt","","0.3048299186","","0.04285152396","","0.3359374044","","","","","",""
"2233","","bandit","299","900086","0.0-261.0-0.0","09552829","wem/bandit_single","A1IFIK8J49WBER","pain","3","","76","L","3","","0","1","0","","0.354776332","false","224","","0.0783544472","main_expt","","0.3097637171","","0.03308098724","","0.354776332","","","","","",""
"765","","bandit","300","902626","0.0-262.0-0.0","09552829","wem/bandit_single","A1IFIK8J49WBER","pain","3","","76","L","3","","0","1","0","","0.3747964846","false","225","","0.05733223117","main_expt","","0.3313621339","","0.03318257961","","0.3747964846","","","","","",""
"1017","","bandit","301","905417","0.0-263.0-0.0","09552829","wem/bandit_single","A1IFIK8J49WBER","pain","3","","76","L","3","","0","0","1","","0.3530330239","false","226","","0.09472546141","main_expt","","0.2611013425","","0.02568716964","","0.3530330239","","","","","",""
"224","","bandit","302","907419","0.0-264.0-0.0","09552829","wem/bandit_single","A1IFIK8J49WBER","pain","3","","75","K","2","","0","0","1","","0.03534330031","false","227","","0.08353253247","main_expt","","0.2761398934","","0.03534330031","","0.3299445106","","","","","",""
"204","","bandit","303","909392","0.0-265.0-0.0","09552829","wem/bandit_single","A1IFIK8J49WBER","pain","3","","76","L","3","","0","0","1","","0.3286020352","false","228","","0.06220105415","main_expt","","0.2358148364","","0.03702628412","","0.3286020352","","","","","",""
"515","","bandit","304","911678","0.0-266.0-0.0","09552829","wem/bandit_single","A1IFIK8J49WBER","pain","3","","76","L","3","","0","0","1","","0.3178943429","false","229","","0.06639782905","main_expt","","0.2091128555","","0.03077125553","","0.3178943429","","","","","",""
"41","","bandit","305","913483","0.0-267.0-0.0","09552829","wem/bandit_single","A1IFIK8J49WBER","pain","3","","75","K","2","","0","0","1","","0.03752036101","false","230","","0.07029464087","main_expt","","0.181986641","","0.03752036101","","0.3254915512","","","","","",""
"267","","bandit","306","915526","0.0-268.0-0.0","09552829","wem/bandit_single","A1IFIK8J49WBER","pain","3","","72","H","0","img/none_selected.jpg","0","0","1","","0.07612781315","false","231","","0.07612781315","main_expt","","0.1599443191","","0.02736090244","","0.3298497064","","","","","",""
"212","","bandit","307","917511","0.0-269.0-0.0","09552829","wem/bandit_single","A1IFIK8J49WBER","pain","3","","76","L","3","","0","0","1","","0.300331178","false","232","","0.04325191911","main_expt","","0.125214013","","0.02154887034","","0.300331178","","","","","",""
"105","","bandit","308","919394","0.0-270.0-0.0","09552829","wem/bandit_single","A1IFIK8J49WBER","pain","3","","74","J","1","","0","0","1","","0.134118517","false","233","","0.04039924652","main_expt","","0.134118517","","0.0228348974","","0.3357562734","","","","","",""
"242","","bandit","309","921412","0.0-271.0-0.0","09552829","wem/bandit_single","A1IFIK8J49WBER","pain","3","","74","J","1","","0","0","1","","0.1238594142","false","234","","0.0435796211","main_expt","","0.1238594142","","0.01030782054","","0.3257461803","","","","","",""
"350","","bandit","310","923531","0.0-272.0-0.0","09552829","wem/bandit_single","A1IFIK8J49WBER","pain","3","","75","K","2","","0","0","1","","0.02615737471","false","235","","0.02315237623","main_expt","","0.1141846942","","0.02615737471","","0.3534766227","","","","","",""
"185","","bandit","311","925482","0.0-273.0-0.0","09552829","wem/bandit_single","A1IFIK8J49WBER","pain","3","","76","L","3","","0","1","0","","0.3733068719","false","236","","0.02010779399","main_expt","","0.1101280349","","0.0224272094","","0.3733068719","","","","","",""
"221","","bandit","312","927476","0.0-274.0-0.0","09552829","wem/bandit_single","A1IFIK8J49WBER","pain","3","","76","L","3","","0","1","0","","0.4105295152","false","237","","0.01796146932","main_expt","","0.09079266978","","0.02679999918","","0.4105295152","","","","","",""
"291","","bandit","313","929540","0.0-275.0-0.0","09552829","wem/bandit_single","A1IFIK8J49WBER","pain","3","","76","L","3","","0","1","0","","0.4225156592","false","238","","0.0167141813","main_expt","","0.1365862295","","0.07542988795","","0.4225156592","","","","","",""
"493","","bandit","314","931810","0.0-276.0-0.0","09552829","wem/bandit_single","A1IFIK8J49WBER","pain","3","","76","L","3","","0","1","0","","0.4360895212","false","239","","0.03283355296","main_expt","","0.1846819155","","0.09772903","","0.4360895212","","","","","",""
"288","","bandit","315","933860","0.0-277.0-0.0","09552829","wem/bandit_single","A1IFIK8J49WBER","pain","3","","76","L","3","","0","0","1","","0.423514393","false","240","","0.05325110434","main_expt","","0.1795044078","","0.1044145256","","0.423514393","","","","","",""
"218","","bandit","316","935846","0.0-278.0-0.0","09552829","wem/bandit_single","A1IFIK8J49WBER","pain","3","","75","K","2","","0","0","1","","0.109937241","false","241","","0.04551940083","main_expt","","0.1522343712","","0.109937241","","0.3824942702","","","","","",""
"197","","bandit","317","937813","0.0-279.0-0.0","09552829","wem/bandit_single","A1IFIK8J49WBER","pain","3","","76","L","3","","0","1","0","","0.3758562762","false","242","","0.05503183359","main_expt","","0.1433696576","","0.09239004846","","0.3758562762","","","","","",""
"233","","bandit","318","939824","0.0-280.0-0.0","09552829","wem/bandit_single","A1IFIK8J49WBER","pain","3","","76","L","3","","0","0","1","","0.2984655584","false","243","","0.04467871076","main_expt","","0.1427577162","","0.1014218366","","0.2984655584","","","","","",""
"180","","bandit","319","941780","0.0-281.0-0.0","09552829","wem/bandit_single","A1IFIK8J49WBER","pain","3","","75","K","2","","0","1","0","","0.192841162","false","244","","0.06552455376","main_expt","","0.1340795621","","0.192841162","","0.2901672904","","","","","",""
"161","","bandit","320","943706","0.0-282.0-0.0","09552829","wem/bandit_single","A1IFIK8J49WBER","pain","3","","75","K","2","","0","0","1","","0.1953250812","false","245","","0.1005127954","main_expt","","0.1469719784","","0.1953250812","","0.2495050599","","","","","",""
"132","","bandit","321","945618","0.0-283.0-0.0","09552829","wem/bandit_single","A1IFIK8J49WBER","pain","3","","76","L","3","","0","0","1","","0.2406773486","false","246","","0.11534406","main_expt","","0.140914489","","0.1865380945","","0.2406773486","","","","","",""
"174","","bandit","322","947564","0.0-284.0-0.0","09552829","wem/bandit_single","A1IFIK8J49WBER","pain","3","","75","K","2","","0","1","0","","0.221100819","false","247","","0.08579934652","main_expt","","0.1592666071","","0.221100819","","0.2265306157","","","","","",""
"207","","bandit","323","949549","0.0-285.0-0.0","09552829","wem/bandit_single","A1IFIK8J49WBER","pain","3","","75","K","2","","0","0","1","","0.2106100544","false","248","","0.08554071629","main_expt","","0.2210893918","","0.2106100544","","0.2000380921","","","","","",""
"581","","bandit","324","951898","0.0-286.0-0.0","09552829","wem/bandit_single","A1IFIK8J49WBER","pain","3","","76","L","3","","0","0","1","","0.1920984986","false","249","","0.07137080198","main_expt","","0.2306666851","","0.2172535859","","0.1920984986","","","","","",""
"86","","bandit","325","953752","0.0-287.0-0.0","09552829","wem/bandit_single","A1IFIK8J49WBER","pain","3","","75","K","2","","0","0","1","","0.1953648199","false","250","","0.06874505311","main_expt","","0.2422322172","","0.1953648199","","0.1624135027","","","","","",""
"667","","bandit","326","956193","0.0-288.0-0.0","09552829","wem/bandit_single","A1IFIK8J49WBER","pain","3","","72","H","0","img/none_selected.jpg","0","0","1","","0.04927492375","false","251","","0.04927492375","main_expt","","0.2425189851","","0.2129795833","","0.2057369507","","","","","",""
"101","","bandit","327","958057","0.0-289.0-0.0","09552829","wem/bandit_single","A1IFIK8J49WBER","pain","3","","74","J","1","","0","0","1","","0.1980379423","false","252","","0.0504542679","main_expt","","0.1980379423","","0.2271134102","","0.26034901","","","","","",""
"230","","bandit","328","960071","0.0-290.0-0.0","09552829","wem/bandit_single","A1IFIK8J49WBER","pain","3","","76","L","3","","0","0","1","","0.1886300366","false","253","","0.0313618618","main_expt","","0.2040952335","","0.2152809257","","0.1886300366","","","","","",""
"80","","bandit","329","961928","0.0-291.0-0.0","09552829","wem/bandit_single","A1IFIK8J49WBER","pain","3","","75","K","2","","0","1","0","","0.2065685424","false","254","","0.0191685034","main_expt","","0.1621407843","","0.2065685424","","0.1978078828","","","","","",""
"276","","bandit","330","963968","0.0-292.0-0.0","09552829","wem/bandit_single","A1IFIK8J49WBER","pain","3","","75","K","2","","0","0","1","","0.2000715388","false","255","","0.01882474885","main_expt","","0.1817956319","","0.2000715388","","0.1544468143","","","","","",""
"590","","bandit","331","966331","0.0-293.0-0.0","09552829","wem/bandit_single","A1IFIK8J49WBER","pain","3","","76","L","3","","0","0","1","","0.1552120094","false","256","","0.01765542058","main_expt","","0.1796151025","","0.1997851389","","0.1552120094","","","","","",""
"112","","bandit","332","968220","0.0-294.0-0.0","09552829","wem/bandit_single","A1IFIK8J49WBER","pain","3","","75","K","2","","0","0","1","","0.1965173465","false","257","","0.0162265086","main_expt","","0.1874922979","","0.1965173465","","0.1337291471","","","","","",""
"127","","bandit","333","970117","0.0-295.0-0.0","09552829","wem/bandit_single","A1IFIK8J49WBER","pain","3","","75","K","2","","0","0","1","","0.1816932188","false","258","","0.01630278654","main_expt","","0.2152410464","","0.1816932188","","0.1279332347","","","","","",""
"184","","bandit","334","972078","0.0-296.0-0.0","09552829","wem/bandit_single","A1IFIK8J49WBER","pain","3","","76","L","3","","0","0","1","","0.152418206","false","259","","0.0149919991","main_expt","","0.2311433436","","0.2275026539","","0.152418206","","","","","",""
"446","","bandit","335","974299","0.0-297.0-0.0","09552829","wem/bandit_single","A1IFIK8J49WBER","pain","3","","74","J","1","","0","0","1","","0.1621257941","false","260","","0.02225913397","main_expt","","0.1621257941","","0.1798156178","","0.1100328583","","","","","",""
"167","","bandit","336","976242","0.0-298.0-0.0","09552829","wem/bandit_single","A1IFIK8J49WBER","pain","3","","72","H","0","img/none_selected.jpg","0","0","1","","0.02865634389","false","261","","0.02865634389","main_expt","","0.1219102136","","0.187122726","","0.1537012171","","","","","",""
"260","","bandit","337","978274","0.0-299.0-0.0","09552829","wem/bandit_single","A1IFIK8J49WBER","pain","3","","76","L","3","","0","0","1","","0.1302597035","false","262","","0.03173788073","main_expt","","0.1667536199","","0.1507521212","","0.1302597035","","","","","",""
"215","","bandit","338","980273","0.0-300.0-0.0","09552829","wem/bandit_single","A1IFIK8J49WBER","pain","3","","75","K","2","","0","0","1","","0.1374951011","false","263","","0.04250990858","main_expt","","0.1361259709","","0.1374951011","","0.1297736826","","","","","",""
"211","","bandit","339","982260","0.0-301.0-0.0","09552829","wem/bandit_single","A1IFIK8J49WBER","pain","3","","76","L","3","","0","0","1","","0.1326654045","false","264","","0.056503948","main_expt","","0.1217381733","","0.1158818852","","0.1326654045","","","","","",""
"248","","bandit","340","984278","0.0-302.0-0.0","09552829","wem/bandit_single","A1IFIK8J49WBER","pain","3","","75","K","2","","0","0","1","","0.1147359408","false","265","","0.07592662832","main_expt","","0.1258265959","","0.1147359408","","0.1586413096","","","","","",""
"241","","bandit","341","986305","0.0-303.0-0.0","09552829","wem/bandit_single","A1IFIK8J49WBER","pain","3","","75","K","2","","0","0","1","","0.09491002089","false","266","","0.1002340293","main_expt","","0.1445769791","","0.09491002089","","0.1496521415","","","","","",""
"199","","bandit","342","988276","0.0-304.0-0.0","09552829","wem/bandit_single","A1IFIK8J49WBER","pain","3","","76","L","3","","0","0","1","","0.1410052581","false","267","","0.1526998269","main_expt","","0.1014120844","","0.1181284109","","0.1410052581","","","","","",""
"341","","bandit","343","990386","0.0-305.0-0.0","09552829","wem/bandit_single","A1IFIK8J49WBER","pain","3","","72","H","0","img/none_selected.jpg","0","0","1","","0.1340815566","false","268","","0.1340815566","main_expt","","0.06386630904","","0.1054434992","","0.145208313","","","","","",""
"204","","bandit","344","992354","0.0-306.0-0.0","09552829","wem/bandit_single","A1IFIK8J49WBER","pain","3","","74","J","1","","0","0","1","","0.03725778621","false","269","","0.1350059692","main_expt","","0.03725778621","","0.1307900039","","0.1387339362","","","","","",""
"161","","bandit","345","994282","0.0-307.0-0.0","09552829","wem/bandit_single","A1IFIK8J49WBER","pain","3","","75","K","2","","0","0","1","","0.1444746669","false","270","","0.1008257698","main_expt","","0.02825676517","","0.1444746669","","0.1822325734","","","","","",""
"280","","bandit","346","996336","0.0-308.0-0.0","09552829","wem/bandit_single","A1IFIK8J49WBER","pain","3","","76","L","3","","0","0","1","","0.1752825828","false","271","","0.1257425884","main_expt","","0.02967844624","","0.1622504114","","0.1752825828","","","","","",""
"162","","bandit","347","998270","0.0-309.0-0.0","09552829","wem/bandit_single","A1IFIK8J49WBER","pain","3","","75","K","2","","0","0","1","","0.1814673171","false","272","","0.1363444874","main_expt","","0.03051557875","","0.1814673171","","0.1572277832","","","","","",""
"159","","bandit","348","1000192","0.0-310.0-0.0","09552829","wem/bandit_single","A1IFIK8J49WBER","pain","3","","76","L","3","","0","0","1","","0.1609880977","false","273","","0.1090842693","main_expt","","0.0408401102","","0.1930303076","","0.1609880977","","","","","",""
"188","","bandit","349","1002155","0.0-311.0-0.0","09552829","wem/bandit_single","A1IFIK8J49WBER","pain","3","","76","L","3","","0","1","0","","0.2228580822","false","274","","0.1397265487","main_expt","","0.03240614182","","0.1704680895","","0.2228580822","","","","","",""
"135","","bandit","350","1004063","0.0-312.0-0.0","09552829","wem/bandit_single","A1IFIK8J49WBER","pain","3","","76","L","3","","0","0","1","","0.2126640298","false","275","","0.210641606","main_expt","","0.04120982645","","0.1785534293","","0.2126640298","","","","","",""
"274","","bandit","351","1006113","0.0-313.0-0.0","09552829","wem/bandit_single","A1IFIK8J49WBER","pain","3","","75","K","2","","0","0","1","","0.1843971019","false","276","","0.1523626192","main_expt","","0.04353307789","","0.1843971019","","0.2006548762","","","","","",""
"183","","bandit","352","1008072","0.0-314.0-0.0","09552829","wem/bandit_single","A1IFIK8J49WBER","pain","3","","75","K","2","","0","0","1","","0.2042268453","false","277","","0.16102954","main_expt","","0.0172565486","","0.2042268453","","0.1986275587","","","","","",""
"156","","bandit","353","1009993","0.0-315.0-0.0","09552829","wem/bandit_single","A1IFIK8J49WBER","pain","3","","76","L","3","","0","0","1","","0.1321506531","false","278","","0.1166001048","main_expt","","0.02582715814","","0.1609113936","","0.1321506531","","","","","",""
"173","","bandit","354","1011930","0.0-316.0-0.0","09552829","wem/bandit_single","A1IFIK8J49WBER","pain","3","","76","L","3","","0","1","0","","0.2112193978","false","279","","0.1427402012","main_expt","","0.03609925784","","0.1604878733","","0.2112193978","","","","","",""
"1855","","bandit","355","1015562","0.0-317.0-0.0","09552829","wem/bandit_single","A1IFIK8J49WBER","pain","3","","74","J","1","","0","0","1","","0.02629944548","false","280","","0.1524149458","main_expt","","0.02629944548","","0.1678567182","","0.1872216356","","","","","",""
"184","","bandit","356","1017522","0.0-318.0-0.0","09552829","wem/bandit_single","A1IFIK8J49WBER","pain","3","","76","L","3","","0","0","1","","0.1635487084","false","281","","0.1638207856","main_expt","","0.01890368782","","0.1338700362","","0.1635487084","","","","","",""
"442","","bandit","357","1019733","0.0-319.0-0.0","09552829","wem/bandit_single","A1IFIK8J49WBER","pain","3","","75","K","2","","0","0","1","","0.2010661714","false","282","","0.1055747009","main_expt","","0.01508823693","","0.2010661714","","0.1576359327","","","","","",""
"242","","bandit","358","1021749","0.0-320.0-0.0","09552829","wem/bandit_single","A1IFIK8J49WBER","pain","3","","76","L","3","","0","0","1","","0.21861051","false","283","","0.1121395768","main_expt","","0.01359220223","","0.1763159594","","0.21861051","","","","","",""
"72","","bandit","359","1023588","0.0-321.0-0.0","09552829","wem/bandit_single","A1IFIK8J49WBER","pain","3","","72","H","0","img/none_selected.jpg","0","0","1","","0.1110051372","false","284","","0.1110051372","main_expt","","0.01691173417","","0.2379754842","","0.180487154","","","","","",""
"241","","bandit","360","1025598","0.0-322.0-0.0","09552829","wem/bandit_single","A1IFIK8J49WBER","pain","3","","74","J","1","","0","0","1","","0.01734240677","false","285","","0.1746572204","main_expt","","0.01734240677","","0.2769670592","","0.1641106304","","","","","",""
"399","","bandit","361","1027768","0.0-323.0-0.0","09552829","wem/bandit_single","A1IFIK8J49WBER","pain","3","","76","L","3","","0","1","0","","0.1866508097","false","286","","0.2038956484","main_expt","","0.01574531315","","0.3002963297","","0.1866508097","","","","","",""
"174","","bandit","362","1029711","0.0-324.0-0.0","09552829","wem/bandit_single","A1IFIK8J49WBER","pain","3","","76","L","3","","0","0","1","","0.1339791425","false","287","","0.2396876396","main_expt","","0.011703364","","0.2804215723","","0.1339791425","","","","","",""
"299","","bandit","363","1031786","0.0-325.0-0.0","09552829","wem/bandit_single","A1IFIK8J49WBER","pain","3","","75","K","2","","0","0","1","","0.2873948651","false","288","","0.2300823482","main_expt","","0.01499165326","","0.2873948651","","0.1910191906","","","","","",""
"157","","bandit","364","1033720","0.0-326.0-0.0","09552829","wem/bandit_single","A1IFIK8J49WBER","pain","3","","76","L","3","","0","0","1","","0.1987886011","false","289","","0.2697946193","main_expt","","0.01307353483","","0.3383825142","","0.1987886011","","","","","",""
"641","","bandit","365","1036140","0.0-327.0-0.0","09552829","wem/bandit_single","A1IFIK8J49WBER","pain","3","","74","J","1","","0","0","1","","0.005839555229","false","290","","0.3030113395","main_expt","","0.005839555229","","0.3597664772","","0.2163493667","","","","","",""
"160","","bandit","366","1038076","0.0-328.0-0.0","09552829","wem/bandit_single","A1IFIK8J49WBER","pain","3","","76","L","3","","0","0","1","","0.1987756658","false","291","","0.2903670118","main_expt","","0.00760433752","","0.3684517111","","0.1987756658","","","","","",""
"138","","bandit","367","1039992","0.0-329.0-0.0","09552829","wem/bandit_single","A1IFIK8J49WBER","pain","3","","76","L","3","","0","0","1","","0.1996771378","false","292","","0.3219279298","main_expt","","0.01807310376","","0.3471931258","","0.1996771378","","","","","",""
"361","","bandit","368","1042133","0.0-330.0-0.0","09552829","wem/bandit_single","A1IFIK8J49WBER","pain","3","","75","K","2","","0","0","1","","0.3742872252","false","293","","0.2585416619","main_expt","","0.02882206876","","0.3742872252","","0.2067525645","","","","","",""
"142","","bandit","369","1044059","0.0-331.0-0.0","09552829","wem/bandit_single","A1IFIK8J49WBER","pain","3","","72","H","0","img/none_selected.jpg","0","0","1","","0.3093607287","false","294","","0.3093607287","main_expt","","0.02728804169","","0.3937541296","","0.230585761","","","","","",""
"101","","bandit","370","1045936","0.0-332.0-0.0","09552829","wem/bandit_single","A1IFIK8J49WBER","pain","3","","76","L","3","","0","1","0","","0.1936278336","false","295","","0.315069057","main_expt","","0.01545304162","","0.3331550888","","0.1936278336","","","","","",""
"468","","bandit","371","1048186","0.0-333.0-0.0","09552829","wem/bandit_single","A1IFIK8J49WBER","pain","3","","76","L","3","","0","0","1","","0.1733248866","false","296","","0.3556215031","main_expt","","0.01463146341","","0.3564327955","","0.1733248866","","","","","",""
"254","","bandit","372","1050210","0.0-334.0-0.0","09552829","wem/bandit_single","A1IFIK8J49WBER","pain","3","","72","H","0","img/none_selected.jpg","0","0","1","","0.3380436511","false","297","","0.3380436511","main_expt","","0.03487584845","","0.3344242189","","0.1762096585","","","","","",""
"324","","bandit","373","1052312","0.0-335.0-0.0","09552829","wem/bandit_single","A1IFIK8J49WBER","pain","3","","72","H","0","img/none_selected.jpg","0","1","0","","0.347815101","false","298","","0.347815101","main_expt","","0.04917346329","","0.3434582948","","0.176801175","","","","","",""
"214","","bandit","374","1054314","0.0-336.0-0.0","09552829","wem/bandit_single","A1IFIK8J49WBER","pain","3","","76","L","3","","0","0","1","","0.1784780758","false","299","","0.3608262918","main_expt","","0.05764452585","","0.3432424117","","0.1784780758","","","","","",""
