"rt","responses","trial_type","trial_index","time_elapsed","internal_node_id","subjID","study","MID","cond","drift","key_press","respCharCode","respKey","respChoiceNum","respChoice","gems","bombs","no_reward","GemPrChosen","BombPrChosen","practice","trial_counter","WinPr_0","LosePr_0","trial_label","WinPr_1","LosePr_1","WinPr_2","LosePr_2","WinPr_3","LosePr_3","Q0","Q1","Q2","gender","age","ethnicity"
"4363","{""Q0"":""A1C59M3HPCO503""}","survey-text","0","4373","0.0-0.0","09911370","wem/bandit_single","A1C59M3HPCO503","pain","5","","","","","","","","","","","","","","","","","","","","","","","","","","",""
"1505","","text","1","6884","0.0-1.0","09911370","wem/bandit_single","A1C59M3HPCO503","pain","5","32","","","","","","","","","","","","","","","","","","","","","","","","","",""
"41396","","text","2","48285","0.0-2.0","09911370","wem/bandit_single","A1C59M3HPCO503","pain","5","32","","","","","","","","","","","","","","","","","","","","","","","","","",""
"15085","","text","3","63372","0.0-3.0","09911370","wem/bandit_single","A1C59M3HPCO503","pain","5","32","","","","","","","","","","","","","","","","","","","","","","","","","",""
"7281","","text","4","70655","0.0-4.0","09911370","wem/bandit_single","A1C59M3HPCO503","pain","5","32","","","","","","","","","","","","","","","","","","","","","","","","","",""
"11373","","text","5","82030","0.0-5.0","09911370","wem/bandit_single","A1C59M3HPCO503","pain","5","32","","","","","","","","","","","","","","","","","","","","","","","","","",""
"5924","","text","6","87955","0.0-6.0","09911370","wem/bandit_single","A1C59M3HPCO503","pain","5","32","","","","","","","","","","","","","","","","","","","","","","","","","",""
"2908","","text","7","90864","0.0-7.0","09911370","wem/bandit_single","A1C59M3HPCO503","pain","5","32","","","","","","","","","","","","","","","","","","","","","","","","","",""
"1625","","text","8","92492","0.0-8.0","09911370","wem/bandit_single","A1C59M3HPCO503","pain","5","32","","","","","","","","","","","","","","","","","","","","","","","","","",""
"1839","","text","9","94334","0.0-9.0","09911370","wem/bandit_single","A1C59M3HPCO503","pain","5","32","","","","","","","","","","","","","","","","","","","","","","","","","",""
"1368","","text","10","95704","0.0-10.0","09911370","wem/bandit_single","A1C59M3HPCO503","pain","5","32","","","","","","","","","","","","","","","","","","","","","","","","","",""
"2866","","text","11","98572","0.0-11.0","09911370","wem/bandit_single","A1C59M3HPCO503","pain","5","32","","","","","","","","","","","","","","","","","","","","","","","","","",""
"1995","","bandit","12","102080","0.0-12.0-0.0","09911370","wem/bandit_single","A1C59M3HPCO503","pain","5","","74","J","0","img/none_selected_demo.jpg","0","0","1","0","0","true","0","0","0","","","","","","","","","","","","",""
"263","","bandit","13","104104","0.0-13.0-0.0","09911370","wem/bandit_single","A1C59M3HPCO503","pain","5","","75","K","0","img/none_selected_demo.jpg","0","0","1","0","0","true","0","0","0","","","","","","","","","","","","",""
"2079","","text","14","106440","0.0-14.0","09911370","wem/bandit_single","A1C59M3HPCO503","pain","5","32","","","","","","","","","","","","","","","","","","","","","","","","","",""
"950","","text","15","107392","0.0-15.0","09911370","wem/bandit_single","A1C59M3HPCO503","pain","5","32","","","","","","","","","","","","","","","","","","","","","","","","","",""
"1880","","text","16","109273","0.0-16.0","09911370","wem/bandit_single","A1C59M3HPCO503","pain","5","32","","","","","","","","","","","","","","","","","","","","","","","","","",""
"4225","","text","17","113500","0.0-17.0","09911370","wem/bandit_single","A1C59M3HPCO503","pain","5","32","","","","","","","","","","","","","","","","","","","","","","","","","",""
"1420","","bandit","18","116426","0.0-18.0-0.0","09911370","wem/bandit_single","A1C59M3HPCO503","pain","5","","74","J","0","img/none_selected_demo.jpg","0","1","0","0","0.8","true","0","0","0.8","80_20_practice","0","0.2","","","","","","","","","",""
"43","","bandit","19","118228","0.0-18.0-1.0","09911370","wem/bandit_single","A1C59M3HPCO503","pain","5","","74","J","0","img/none_selected_demo.jpg","0","1","0","0","0.8","true","0","0","0.8","80_20_practice","0","0.2","","","","","","","","","",""
"0","","bandit","20","119991","0.0-18.0-2.0","09911370","wem/bandit_single","A1C59M3HPCO503","pain","5","","75","K","1","","0","0","1","0","0.2","true","0","0","0.8","80_20_practice","0","0.2","","","","","","","","","",""
"196","","bandit","21","121945","0.0-18.0-3.0","09911370","wem/bandit_single","A1C59M3HPCO503","pain","5","","75","K","1","","0","0","1","0","0.2","true","0","0","0.8","80_20_practice","0","0.2","","","","","","","","","",""
"225","","bandit","22","123927","0.0-18.0-4.0","09911370","wem/bandit_single","A1C59M3HPCO503","pain","5","","74","J","0","img/none_selected_demo.jpg","0","1","0","0","0.8","true","0","0","0.8","80_20_practice","0","0.2","","","","","","","","","",""
"514","","bandit","23","126198","0.0-18.0-5.0","09911370","wem/bandit_single","A1C59M3HPCO503","pain","5","","74","J","0","img/none_selected_demo.jpg","0","1","0","0","0.8","true","0","0","0.8","80_20_practice","0","0.2","","","","","","","","","",""
"50","","bandit","24","128010","0.0-18.0-6.0","09911370","wem/bandit_single","A1C59M3HPCO503","pain","5","","74","J","0","img/none_selected_demo.jpg","0","1","0","0","0.8","true","0","0","0.8","80_20_practice","0","0.2","","","","","","","","","",""
"5","","bandit","25","129771","0.0-18.0-7.0","09911370","wem/bandit_single","A1C59M3HPCO503","pain","5","","75","K","1","","0","0","1","0","0.2","true","0","0","0.8","80_20_practice","0","0.2","","","","","","","","","",""
"564","","bandit","26","132092","0.0-18.0-8.0","09911370","wem/bandit_single","A1C59M3HPCO503","pain","5","","75","K","1","","0","1","0","0","0.2","true","0","0","0.8","80_20_practice","0","0.2","","","","","","","","","",""
"8","","bandit","27","133855","0.0-18.0-9.0","09911370","wem/bandit_single","A1C59M3HPCO503","pain","5","","74","J","0","img/none_selected_demo.jpg","0","0","1","0","0.8","true","0","0","0.8","80_20_practice","0","0.2","","","","","","","","","",""
"746","","bandit","28","136356","0.0-18.0-10.0","09911370","wem/bandit_single","A1C59M3HPCO503","pain","5","","74","J","0","img/none_selected_demo.jpg","0","1","0","0","0.8","true","0","0","0.8","80_20_practice","0","0.2","","","","","","","","","",""
"498","","bandit","29","138612","0.0-18.0-11.0","09911370","wem/bandit_single","A1C59M3HPCO503","pain","5","","75","K","1","","0","0","1","0","0.2","true","0","0","0.8","80_20_practice","0","0.2","","","","","","","","","",""
"28","","bandit","30","140396","0.0-18.0-12.0","09911370","wem/bandit_single","A1C59M3HPCO503","pain","5","","74","J","0","img/none_selected_demo.jpg","0","1","0","0","0.8","true","0","0","0.8","80_20_practice","0","0.2","","","","","","","","","",""
"7","","bandit","31","142160","0.0-18.0-13.0","09911370","wem/bandit_single","A1C59M3HPCO503","pain","5","","74","J","0","img/none_selected_demo.jpg","0","1","0","0","0.8","true","0","0","0.8","80_20_practice","0","0.2","","","","","","","","","",""
"35","","bandit","32","143957","0.0-18.0-14.0","09911370","wem/bandit_single","A1C59M3HPCO503","pain","5","","75","K","1","","0","0","1","0","0.2","true","0","0","0.8","80_20_practice","0","0.2","","","","","","","","","",""
"262","","bandit","33","145977","0.0-18.0-15.0","09911370","wem/bandit_single","A1C59M3HPCO503","pain","5","","75","K","1","","0","0","1","0","0.2","true","0","0","0.8","80_20_practice","0","0.2","","","","","","","","","",""
"330","","bandit","34","148066","0.0-18.0-16.0","09911370","wem/bandit_single","A1C59M3HPCO503","pain","5","","75","K","1","","0","1","0","0","0.2","true","0","0","0.8","80_20_practice","0","0.2","","","","","","","","","",""
"532","","bandit","35","150357","0.0-18.0-17.0","09911370","wem/bandit_single","A1C59M3HPCO503","pain","5","","74","J","0","img/none_selected_demo.jpg","0","1","0","0","0.8","true","0","0","0.8","80_20_practice","0","0.2","","","","","","","","","",""
"391","","bandit","36","152504","0.0-18.0-18.0","09911370","wem/bandit_single","A1C59M3HPCO503","pain","5","","75","K","1","","0","0","1","0","0.2","true","0","0","0.8","80_20_practice","0","0.2","","","","","","","","","",""
"1269","","bandit","37","155531","0.0-18.0-19.0","09911370","wem/bandit_single","A1C59M3HPCO503","pain","5","","75","K","1","","0","0","1","0","0.2","true","0","0","0.8","80_20_practice","0","0.2","","","","","","","","","",""
"2307","","text","38","158091","0.0-19.0","09911370","wem/bandit_single","A1C59M3HPCO503","pain","5","32","","","","","","","","","","","","","","","","","","","","","","","","","",""
"1841","","bandit","39","161440","0.0-20.0-0.0","09911370","wem/bandit_single","A1C59M3HPCO503","pain","5","","74","J","0","img/none_selected_demo.jpg","0","0","1","0","0","true","0","0","0","","0","0","","","","","","","","","",""
"3943","","text","40","165639","0.0-21.0","09911370","wem/bandit_single","A1C59M3HPCO503","pain","5","32","","","","","","","","","","","","","","","","","","","","","","","","","",""
"2219","","text","41","167863","0.0-22.0","09911370","wem/bandit_single","A1C59M3HPCO503","pain","5","32","","","","","","","","","","","","","","","","","","","","","","","","","",""
"1736","","text","42","169603","0.0-23.0","09911370","wem/bandit_single","A1C59M3HPCO503","pain","5","32","","","","","","","","","","","","","","","","","","","","","","","","","",""
"2232","","text","43","171839","0.0-24.0","09911370","wem/bandit_single","A1C59M3HPCO503","pain","5","32","","","","","","","","","","","","","","","","","","","","","","","","","",""
"6539","","text","44","178381","0.0-25.0","09911370","wem/bandit_single","A1C59M3HPCO503","pain","5","32","","","","","","","","","","","","","","","","","","","","","","","","","",""
"2908","","text","45","181291","0.0-26.0","09911370","wem/bandit_single","A1C59M3HPCO503","pain","5","32","","","","","","","","","","","","","","","","","","","","","","","","","",""
"2846","","text","46","184139","0.0-27.0","09911370","wem/bandit_single","A1C59M3HPCO503","pain","5","32","","","","","","","","","","","","","","","","","","","","","","","","","",""
"1886","","text","47","186029","0.0-28.0","09911370","wem/bandit_single","A1C59M3HPCO503","pain","5","32","","","","","","","","","","","","","","","","","","","","","","","","","",""
"4001","","text","48","190034","0.0-29.0","09911370","wem/bandit_single","A1C59M3HPCO503","pain","5","32","","","","","","","","","","","","","","","","","","","","","","","","","",""
"2003","","text","49","192042","0.0-30.0","09911370","wem/bandit_single","A1C59M3HPCO503","pain","5","32","","","","","","","","","","","","","","","","","","","","","","","","","",""
"3397","","text","50","195447","0.0-31.0","09911370","wem/bandit_single","A1C59M3HPCO503","pain","5","32","","","","","","","","","","","","","","","","","","","","","","","","","",""
"493","","bandit","51","197447","0.0-32.0-0.0","09911370","wem/bandit_single","A1C59M3HPCO503","pain","5","","72","H","0","img/none_selected.jpg","0","1","0","0","0.8","true","0","0","0.8","full_practice","0","0.2","0","0.6","0","0.2","","","","","",""
"398","","bandit","52","199600","0.0-32.0-1.0","09911370","wem/bandit_single","A1C59M3HPCO503","pain","5","","72","H","0","img/none_selected.jpg","0","1","0","0","0.8","true","0","0","0.8","full_practice","0","0.2","0","0.6","0","0.2","","","","","",""
"15","","bandit","53","201370","0.0-32.0-2.0","09911370","wem/bandit_single","A1C59M3HPCO503","pain","5","","72","H","0","img/none_selected.jpg","0","1","0","0","0.8","true","0","0","0.8","full_practice","0","0.2","0","0.6","0","0.2","","","","","",""
"355","","bandit","54","203483","0.0-32.0-3.0","09911370","wem/bandit_single","A1C59M3HPCO503","pain","5","","72","H","0","img/none_selected.jpg","0","1","0","0","0.8","true","0","0","0.8","full_practice","0","0.2","0","0.6","0","0.2","","","","","",""
"14","","bandit","55","205252","0.0-32.0-4.0","09911370","wem/bandit_single","A1C59M3HPCO503","pain","5","","72","H","0","img/none_selected.jpg","0","1","0","0","0.8","true","0","0","0.8","full_practice","0","0.2","0","0.6","0","0.2","","","","","",""
"382","","bandit","56","207394","0.0-32.0-5.0","09911370","wem/bandit_single","A1C59M3HPCO503","pain","5","","72","H","0","img/none_selected.jpg","0","0","1","0","0.8","true","0","0","0.8","full_practice","0","0.2","0","0.6","0","0.2","","","","","",""
"30","","bandit","57","209188","0.0-32.0-6.0","09911370","wem/bandit_single","A1C59M3HPCO503","pain","5","","72","H","0","img/none_selected.jpg","0","1","0","0","0.8","true","0","0","0.8","full_practice","0","0.2","0","0.6","0","0.2","","","","","",""
"306","","bandit","58","211257","0.0-32.0-7.0","09911370","wem/bandit_single","A1C59M3HPCO503","pain","5","","72","H","0","img/none_selected.jpg","0","1","0","0","0.8","true","0","0","0.8","full_practice","0","0.2","0","0.6","0","0.2","","","","","",""
"24","","bandit","59","213038","0.0-32.0-8.0","09911370","wem/bandit_single","A1C59M3HPCO503","pain","5","","72","H","0","img/none_selected.jpg","0","1","0","0","0.8","true","0","0","0.8","full_practice","0","0.2","0","0.6","0","0.2","","","","","",""
"335","","bandit","60","215130","0.0-32.0-9.0","09911370","wem/bandit_single","A1C59M3HPCO503","pain","5","","72","H","0","img/none_selected.jpg","0","1","0","0","0.8","true","0","0","0.8","full_practice","0","0.2","0","0.6","0","0.2","","","","","",""
"13","","bandit","61","216906","0.0-32.0-10.0","09911370","wem/bandit_single","A1C59M3HPCO503","pain","5","","72","H","0","img/none_selected.jpg","0","1","0","0","0.8","true","0","0","0.8","full_practice","0","0.2","0","0.6","0","0.2","","","","","",""
"332","","bandit","62","218996","0.0-32.0-11.0","09911370","wem/bandit_single","A1C59M3HPCO503","pain","5","","72","H","0","img/none_selected.jpg","0","1","0","0","0.8","true","0","0","0.8","full_practice","0","0.2","0","0.6","0","0.2","","","","","",""
"57","","bandit","63","220814","0.0-32.0-12.0","09911370","wem/bandit_single","A1C59M3HPCO503","pain","5","","72","H","0","img/none_selected.jpg","0","1","0","0","0.8","true","0","0","0.8","full_practice","0","0.2","0","0.6","0","0.2","","","","","",""
"13","","bandit","64","222582","0.0-32.0-13.0","09911370","wem/bandit_single","A1C59M3HPCO503","pain","5","","72","H","0","img/none_selected.jpg","0","1","0","0","0.8","true","0","0","0.8","full_practice","0","0.2","0","0.6","0","0.2","","","","","",""
"13","","bandit","65","224355","0.0-32.0-14.0","09911370","wem/bandit_single","A1C59M3HPCO503","pain","5","","72","H","0","img/none_selected.jpg","0","1","0","0","0.8","true","0","0","0.8","full_practice","0","0.2","0","0.6","0","0.2","","","","","",""
"13","","bandit","66","226125","0.0-32.0-15.0","09911370","wem/bandit_single","A1C59M3HPCO503","pain","5","","72","H","0","img/none_selected.jpg","0","0","1","0","0.8","true","0","0","0.8","full_practice","0","0.2","0","0.6","0","0.2","","","","","",""
"217","","bandit","67","228102","0.0-32.0-16.0","09911370","wem/bandit_single","A1C59M3HPCO503","pain","5","","72","H","0","img/none_selected.jpg","0","1","0","0","0.8","true","0","0","0.8","full_practice","0","0.2","0","0.6","0","0.2","","","","","",""
"357","","bandit","68","230221","0.0-32.0-17.0","09911370","wem/bandit_single","A1C59M3HPCO503","pain","5","","72","H","0","img/none_selected.jpg","0","1","0","0","0.8","true","0","0","0.8","full_practice","0","0.2","0","0.6","0","0.2","","","","","",""
"109","","bandit","69","232087","0.0-32.0-18.0","09911370","wem/bandit_single","A1C59M3HPCO503","pain","5","","72","H","0","img/none_selected.jpg","0","1","0","0","0.8","true","0","0","0.8","full_practice","0","0.2","0","0.6","0","0.2","","","","","",""
"65","","bandit","70","233912","0.0-32.0-19.0","09911370","wem/bandit_single","A1C59M3HPCO503","pain","5","","72","H","0","img/none_selected.jpg","0","1","0","0","0.8","true","0","0","0.8","full_practice","0","0.2","0","0.6","0","0.2","","","","","",""
"1600","","text","71","235774","0.0-33.0","09911370","wem/bandit_single","A1C59M3HPCO503","pain","5","32","","","","","","","","","","","","","","","","","","","","","","","","","",""
"8423","","text","72","245203","0.0-34.0","09911370","wem/bandit_single","A1C59M3HPCO503","pain","5","32","","","","","","","","","","","","","","","","","","","","","","","","","",""
"3282","","text","73","248488","0.0-35.0","09911370","wem/bandit_single","A1C59M3HPCO503","pain","5","32","","","","","","","","","","","","","","","","","","","","","","","","","",""
"3957","","text","74","252453","0.0-36.0","09911370","wem/bandit_single","A1C59M3HPCO503","pain","5","32","","","","","","","","","","","","","","","","","","","","","","","","","",""
"3784","","text","75","256242","0.0-37.0","09911370","wem/bandit_single","A1C59M3HPCO503","pain","5","32","","","","","","","","","","","","","","","","","","","","","","","","","",""
"917","","bandit","76","258669","0.0-38.0-0.0","09911370","wem/bandit_single","A1C59M3HPCO503","pain","5","","72","H","0","img/none_selected.jpg","0","0","1","","0.4657241486","false","1","","0.4657241486","main_expt","","0.04962883862","","0.3811303016","","0.1478184891","","","","","",""
"3","","bandit","77","260432","0.0-39.0-0.0","09911370","wem/bandit_single","A1C59M3HPCO503","pain","5","","74","J","1","","0","0","1","","0.03569255153","false","2","","0.4660849779","main_expt","","0.03569255153","","0.350111504","","0.2081060842","","","","","",""
"327","","bandit","78","262525","0.0-40.0-0.0","09911370","wem/bandit_single","A1C59M3HPCO503","pain","5","","75","K","2","","0","0","1","","0.3436486883","false","3","","0.4687539887","main_expt","","0.02901958263","","0.3436486883","","0.1722167697","","","","","",""
"30","","bandit","79","264313","0.0-41.0-0.0","09911370","wem/bandit_single","A1C59M3HPCO503","pain","5","","76","L","3","","0","1","0","","0.1424145416","false","4","","0.48401473","main_expt","","0.04894390993","","0.3419997506","","0.1424145416","","","","","",""
"39","","bandit","80","266114","0.0-42.0-0.0","09911370","wem/bandit_single","A1C59M3HPCO503","pain","5","","76","L","3","","0","0","1","","0.1446667298","false","5","","0.4755123677","main_expt","","0.04206610475","","0.3692180445","","0.1446667298","","","","","",""
"10","","bandit","81","267885","0.0-43.0-0.0","09911370","wem/bandit_single","A1C59M3HPCO503","pain","5","","76","L","3","","0","0","1","","0.1447199692","false","6","","0.4802482158","main_expt","","0.04292771587","","0.3602257359","","0.1447199692","","","","","",""
"168","","bandit","82","269818","0.0-44.0-0.0","09911370","wem/bandit_single","A1C59M3HPCO503","pain","5","","72","H","0","img/none_selected.jpg","0","1","0","","0.4780438684","false","7","","0.4780438684","main_expt","","0.06035830385","","0.3568498895","","0.1001258446","","","","","",""
"33","","bandit","83","271609","0.0-45.0-0.0","09911370","wem/bandit_single","A1C59M3HPCO503","pain","5","","72","H","0","img/none_selected.jpg","0","1","0","","0.4575173044","false","8","","0.4575173044","main_expt","","0.09727842944","","0.294604339","","0.1244671667","","","","","",""
"35","","bandit","84","273400","0.0-46.0-0.0","09911370","wem/bandit_single","A1C59M3HPCO503","pain","5","","72","H","0","img/none_selected.jpg","0","0","1","","0.4525933246","false","9","","0.4525933246","main_expt","","0.07952196982","","0.3802768622","","0.1293804987","","","","","",""
"30","","bandit","85","275188","0.0-47.0-0.0","09911370","wem/bandit_single","A1C59M3HPCO503","pain","5","","74","J","1","","0","0","1","","0.1049852556","false","10","","0.4476408152","main_expt","","0.1049852556","","0.3530595227","","0.1606810952","","","","","",""
"271","","bandit","86","277223","0.0-48.0-0.0","09911370","wem/bandit_single","A1C59M3HPCO503","pain","5","","72","H","0","img/none_selected.jpg","0","1","0","","0.4484644352","false","11","","0.4484644352","main_expt","","0.1118692116","","0.358648576","","0.1585385462","","","","","",""
"37","","bandit","87","279025","0.0-49.0-0.0","09911370","wem/bandit_single","A1C59M3HPCO503","pain","5","","72","H","0","img/none_selected.jpg","0","0","1","","0.4466341879","false","12","","0.4466341879","main_expt","","0.1270372311","","0.3382469396","","0.1492634201","","","","","",""
"403","","bandit","88","281191","0.0-50.0-0.0","09911370","wem/bandit_single","A1C59M3HPCO503","pain","5","","75","K","2","","0","0","1","","0.3092021245","false","13","","0.4642511008","main_expt","","0.1278892577","","0.3092021245","","0.1106465011","","","","","",""
"26","","bandit","89","282975","0.0-51.0-0.0","09911370","wem/bandit_single","A1C59M3HPCO503","pain","5","","72","H","0","img/none_selected.jpg","0","1","0","","0.4615970843","false","14","","0.4615970843","main_expt","","0.1024725346","","0.3532484784","","0.1232346967","","","","","",""
"102","","bandit","90","284836","0.0-52.0-0.0","09911370","wem/bandit_single","A1C59M3HPCO503","pain","5","","72","H","0","img/none_selected.jpg","0","1","0","","0.4692442536","false","15","","0.4692442536","main_expt","","0.1234109619","","0.3371384495","","0.1323340596","","","","","",""
"25","","bandit","91","286623","0.0-53.0-0.0","09911370","wem/bandit_single","A1C59M3HPCO503","pain","5","","72","H","0","img/none_selected.jpg","0","0","1","","0.4755425263","false","16","","0.4755425263","main_expt","","0.1360550169","","0.3282622062","","0.1410223318","","","","","",""
"385","","bandit","92","288769","0.0-54.0-0.0","09911370","wem/bandit_single","A1C59M3HPCO503","pain","5","","74","J","1","","0","0","1","","0.1070219664","false","17","","0.4828633911","main_expt","","0.1070219664","","0.3032164303","","0.1498636582","","","","","",""
"312","","bandit","93","290841","0.0-55.0-0.0","09911370","wem/bandit_single","A1C59M3HPCO503","pain","5","","72","H","0","img/none_selected.jpg","0","0","1","","0.4784959143","false","18","","0.4784959143","main_expt","","0.09318331203","","0.2834034058","","0.1132842199","","","","","",""
"9343","","bandit","94","301950","0.0-56.0-0.0","09911370","wem/bandit_single","A1C59M3HPCO503","pain","5","","75","K","2","","0","1","0","","0.376157017","false","19","","0.4645747316","main_expt","","0.08644374764","","0.376157017","","0.08554013857","","","","","",""
"387","","bandit","95","304108","0.0-57.0-0.0","09911370","wem/bandit_single","A1C59M3HPCO503","pain","5","","75","K","2","","0","1","0","","0.3718288413","false","20","","0.4441513352","main_expt","","0.1066513301","","0.3718288413","","0.1176407844","","","","","",""
"250","","bandit","96","306122","0.0-58.0-0.0","09911370","wem/bandit_single","A1C59M3HPCO503","pain","5","","75","K","2","","0","0","1","","0.3755251961","false","21","","0.4281495132","main_expt","","0.1143532382","","0.3755251961","","0.09701455477","","","","","",""
"9","","bandit","97","307893","0.0-59.0-0.0","09911370","wem/bandit_single","A1C59M3HPCO503","pain","5","","75","K","2","","0","0","1","","0.3536603278","false","22","","0.4374563715","main_expt","","0.111858438","","0.3536603278","","0.08683592795","","","","","",""
"4","","bandit","98","309661","0.0-60.0-0.0","09911370","wem/bandit_single","A1C59M3HPCO503","pain","5","","76","L","3","","0","0","1","","0.1062952262","false","23","","0.4408316507","main_expt","","0.09088087914","","0.3908816919","","0.1062952262","","","","","",""
"204","","bandit","99","311627","0.0-61.0-0.0","09911370","wem/bandit_single","A1C59M3HPCO503","pain","5","","74","J","1","","0","0","1","","0.1045917755","false","24","","0.4249736282","main_expt","","0.1045917755","","0.3639752867","","0.1320295984","","","","","",""
"344","","bandit","100","313733","0.0-62.0-0.0","09911370","wem/bandit_single","A1C59M3HPCO503","pain","5","","75","K","2","","0","0","1","","0.3569796848","false","25","","0.4542404639","main_expt","","0.107118439","","0.3569796848","","0.18562956","","","","","",""
"308","","bandit","101","315806","0.0-63.0-0.0","09911370","wem/bandit_single","A1C59M3HPCO503","pain","5","","72","H","0","img/none_selected.jpg","0","0","1","","0.4707756245","false","26","","0.4707756245","main_expt","","0.08847958778","","0.3466804264","","0.1589772959","","","","","",""
"21","","bandit","102","317587","0.0-64.0-0.0","09911370","wem/bandit_single","A1C59M3HPCO503","pain","5","","75","K","2","","0","1","0","","0.3487144915","false","27","","0.4492807888","main_expt","","0.105958259","","0.3487144915","","0.1361305173","","","","","",""
"63","","bandit","103","319413","0.0-65.0-0.0","09911370","wem/bandit_single","A1C59M3HPCO503","pain","5","","75","K","2","","0","0","1","","0.31872733","false","28","","0.4630254912","main_expt","","0.09976229861","","0.31872733","","0.1517112547","","","","","",""
"37","","bandit","104","321213","0.0-66.0-0.0","09911370","wem/bandit_single","A1C59M3HPCO503","pain","5","","75","K","2","","0","1","0","","0.3351256986","false","29","","0.4582460064","main_expt","","0.1117783291","","0.3351256986","","0.1207272987","","","","","",""
"4","","bandit","105","322979","0.0-67.0-0.0","09911370","wem/bandit_single","A1C59M3HPCO503","pain","5","","75","K","2","","0","0","1","","0.3165147827","false","30","","0.44398484","main_expt","","0.104708879","","0.3165147827","","0.06619286558","","","","","",""
"14","","bandit","106","324759","0.0-68.0-0.0","09911370","wem/bandit_single","A1C59M3HPCO503","pain","5","","74","J","1","","0","0","1","","0.1168740313","false","31","","0.4662875842","main_expt","","0.1168740313","","0.3587164307","","0.08172424971","","","","","",""
"28","","bandit","107","326551","0.0-69.0-0.0","09911370","wem/bandit_single","A1C59M3HPCO503","pain","5","","75","K","2","","0","1","0","","0.384091524","false","32","","0.4823207571","main_expt","","0.1193100679","","0.384091524","","0.1118972321","","","","","",""
"81","","bandit","108","328391","0.0-70.0-0.0","09911370","wem/bandit_single","A1C59M3HPCO503","pain","5","","75","K","2","","0","0","1","","0.3410562849","false","33","","0.4887640326","main_expt","","0.1160378653","","0.3410562849","","0.07764728595","","","","","",""
"20","","bandit","109","330171","0.0-71.0-0.0","09911370","wem/bandit_single","A1C59M3HPCO503","pain","5","","76","L","3","","0","0","1","","0.1021677232","false","34","","0.4871413525","main_expt","","0.1240203414","","0.3772037995","","0.1021677232","","","","","",""
"53","","bandit","110","331987","0.0-72.0-0.0","09911370","wem/bandit_single","A1C59M3HPCO503","pain","5","","76","L","3","","0","0","1","","0.09263198197","false","35","","0.472467875","main_expt","","0.1568527985","","0.3601610849","","0.09263198197","","","","","",""
"295","","bandit","111","334043","0.0-73.0-0.0","09911370","wem/bandit_single","A1C59M3HPCO503","pain","5","","75","K","2","","0","0","1","","0.3199141994","false","36","","0.4801988656","main_expt","","0.1887398002","","0.3199141994","","0.1395706987","","","","","",""
"276","","bandit","112","336080","0.0-74.0-0.0","09911370","wem/bandit_single","A1C59M3HPCO503","pain","5","","72","H","0","img/none_selected.jpg","0","0","1","","0.4658101737","false","37","","0.4658101737","main_expt","","0.1567271146","","0.3022128767","","0.1166343238","","","","","",""
"339","","bandit","113","338180","0.0-75.0-0.0","09911370","wem/bandit_single","A1C59M3HPCO503","pain","5","","75","K","2","","0","0","1","","0.220841548","false","38","","0.4725237643","main_expt","","0.1213003185","","0.220841548","","0.1344783462","","","","","",""
"327","","bandit","114","340269","0.0-76.0-0.0","09911370","wem/bandit_single","A1C59M3HPCO503","pain","5","","74","J","1","","0","1","0","","0.1129188575","false","39","","0.4863678522","main_expt","","0.1129188575","","0.2273815274","","0.1132701409","","","","","",""
"132","","bandit","115","342157","0.0-77.0-0.0","09911370","wem/bandit_single","A1C59M3HPCO503","pain","5","","74","J","1","","0","0","1","","0.1490040727","false","40","","0.4756100127","main_expt","","0.1490040727","","0.2216047912","","0.1269330716","","","","","",""
"215","","bandit","116","344141","0.0-78.0-0.0","09911370","wem/bandit_single","A1C59M3HPCO503","pain","5","","75","K","2","","0","0","1","","0.1790357129","false","41","","0.4644843691","main_expt","","0.20555416","","0.1790357129","","0.1043764639","","","","","",""
"35","","bandit","117","345938","0.0-79.0-0.0","09911370","wem/bandit_single","A1C59M3HPCO503","pain","5","","74","J","1","","0","0","1","","0.2458082757","false","42","","0.4595487669","main_expt","","0.2458082757","","0.1124402831","","0.123259557","","","","","",""
"7","","bandit","118","347704","0.0-80.0-0.0","09911370","wem/bandit_single","A1C59M3HPCO503","pain","5","","72","H","0","img/none_selected.jpg","0","0","1","","0.4598563523","false","43","","0.4598563523","main_expt","","0.1980967925","","0.1309909921","","0.1523094635","","","","","",""
"408","","bandit","119","349871","0.0-81.0-0.0","09911370","wem/bandit_single","A1C59M3HPCO503","pain","5","","74","J","1","","0","0","1","","0.2011817551","false","44","","0.4444935065","main_expt","","0.2011817551","","0.1620245532","","0.1438901127","","","","","",""
"76","","bandit","120","351706","0.0-82.0-0.0","09911370","wem/bandit_single","A1C59M3HPCO503","pain","5","","75","K","2","","0","0","1","","0.1962154431","false","45","","0.4201454787","main_expt","","0.1908172103","","0.1962154431","","0.1381896233","","","","","",""
"202","","bandit","121","353667","0.0-83.0-0.0","09911370","wem/bandit_single","A1C59M3HPCO503","pain","5","","76","L","3","","0","1","0","","0.08118013389","false","46","","0.4420567968","main_expt","","0.1682898959","","0.1548021256","","0.08118013389","","","","","",""
"375","","bandit","122","355800","0.0-84.0-0.0","09911370","wem/bandit_single","A1C59M3HPCO503","pain","5","","76","L","3","","0","1","0","","0.08279503272","false","47","","0.4454115659","main_expt","","0.114950809","","0.155425446","","0.08279503272","","","","","",""
"301","","bandit","123","357861","0.0-85.0-0.0","09911370","wem/bandit_single","A1C59M3HPCO503","pain","5","","76","L","3","","0","0","1","","0.09757227309","false","48","","0.4409121906","main_expt","","0.1231508501","","0.2368850053","","0.09757227309","","","","","",""
"36","","bandit","124","359657","0.0-86.0-0.0","09911370","wem/bandit_single","A1C59M3HPCO503","pain","5","","76","L","3","","0","0","1","","0.1407466139","false","49","","0.4640555105","main_expt","","0.1264715503","","0.1712995484","","0.1407466139","","","","","",""
"337","","bandit","125","361758","0.0-87.0-0.0","09911370","wem/bandit_single","A1C59M3HPCO503","pain","5","","76","L","3","","0","0","1","","0.1128896644","false","50","","0.4619625264","main_expt","","0.1119267987","","0.2371897999","","0.1128896644","","","","","",""
"374","","bandit","126","363890","0.0-88.0-0.0","09911370","wem/bandit_single","A1C59M3HPCO503","pain","5","","75","K","2","","0","0","1","","0.2520952739","false","51","","0.4686499241","main_expt","","0.1192285775","","0.2520952739","","0.1292206793","","","","","",""
"469","","bandit","127","366119","0.0-89.0-0.0","09911370","wem/bandit_single","A1C59M3HPCO503","pain","5","","76","L","3","","0","0","1","","0.117204758","false","52","","0.4721244997","main_expt","","0.1536714506","","0.2201249325","","0.117204758","","","","","",""
"229","","bandit","128","368105","0.0-90.0-0.0","09911370","wem/bandit_single","A1C59M3HPCO503","pain","5","","72","H","0","img/none_selected.jpg","0","0","1","","0.4776765754","false","53","","0.4776765754","main_expt","","0.1817289366","","0.2019083534","","0.1180232867","","","","","",""
"60","","bandit","129","369922","0.0-91.0-0.0","09911370","wem/bandit_single","A1C59M3HPCO503","pain","5","","74","J","1","","0","0","1","","0.1664376657","false","54","","0.4788042678","main_expt","","0.1664376657","","0.2133100918","","0.09503139185","","","","","",""
"41","","bandit","130","371728","0.0-92.0-0.0","09911370","wem/bandit_single","A1C59M3HPCO503","pain","5","","76","L","3","","0","0","1","","0.1238025275","false","55","","0.4852168201","main_expt","","0.1219288973","","0.2210295122","","0.1238025275","","","","","",""
"195","","bandit","131","373686","0.0-93.0-0.0","09911370","wem/bandit_single","A1C59M3HPCO503","pain","5","","75","K","2","","0","0","1","","0.1728424853","false","56","","0.4860946669","main_expt","","0.1392062569","","0.1728424853","","0.1544257673","","","","","",""
"45","","bandit","132","375500","0.0-94.0-0.0","09911370","wem/bandit_single","A1C59M3HPCO503","pain","5","","76","L","3","","0","0","1","","0.1492478473","false","57","","0.4859962979","main_expt","","0.2060247316","","0.2301797189","","0.1492478473","","","","","",""
"350","","bandit","133","377606","0.0-95.0-0.0","09911370","wem/bandit_single","A1C59M3HPCO503","pain","5","","74","J","1","","0","0","1","","0.1723567799","false","58","","0.4751013025","main_expt","","0.1723567799","","0.2820892606","","0.1392181034","","","","","",""
"1","","bandit","134","379374","0.0-96.0-0.0","09911370","wem/bandit_single","A1C59M3HPCO503","pain","5","","72","H","0","img/none_selected.jpg","0","1","0","","0.4816883425","false","59","","0.4816883425","main_expt","","0.16345501","","0.308641684","","0.1854998728","","","","","",""
"54","","bandit","135","381190","0.0-97.0-0.0","09911370","wem/bandit_single","A1C59M3HPCO503","pain","5","","72","H","0","img/none_selected.jpg","0","0","1","","0.4846541976","false","60","","0.4846541976","main_expt","","0.1552759559","","0.3012287428","","0.1306651225","","","","","",""
"360","","bandit","136","383308","0.0-98.0-0.0","09911370","wem/bandit_single","A1C59M3HPCO503","pain","5","","76","L","3","","0","0","1","","0.1567024934","false","61","","0.4848840061","main_expt","","0.1652193455","","0.263166603","","0.1567024934","","","","","",""
"349","","bandit","137","385415","0.0-99.0-0.0","09911370","wem/bandit_single","A1C59M3HPCO503","pain","5","","75","K","2","","0","1","0","","0.2428038775","false","62","","0.4856292504","main_expt","","0.1813222976","","0.2428038775","","0.1622246099","","","","","",""
"229","","bandit","138","387401","0.0-100.0-0.0","09911370","wem/bandit_single","A1C59M3HPCO503","pain","5","","75","K","2","","0","0","1","","0.2843805899","false","63","","0.4865153319","main_expt","","0.1727004114","","0.2843805899","","0.2196770705","","","","","",""
"51","","bandit","139","389212","0.0-101.0-0.0","09911370","wem/bandit_single","A1C59M3HPCO503","pain","5","","72","H","0","img/none_selected.jpg","0","1","0","","0.4874146034","false","64","","0.4874146034","main_expt","","0.2105999223","","0.2895992306","","0.218319606","","","","","",""
"40","","bandit","140","391017","0.0-102.0-0.0","09911370","wem/bandit_single","A1C59M3HPCO503","pain","5","","72","H","0","img/none_selected.jpg","0","1","0","","0.4781609215","false","65","","0.4781609215","main_expt","","0.240225816","","0.3847688","","0.2278721313","","","","","",""
"17","","bandit","141","392800","0.0-103.0-0.0","09911370","wem/bandit_single","A1C59M3HPCO503","pain","5","","72","H","0","img/none_selected.jpg","0","0","1","","0.4848714892","false","66","","0.4848714892","main_expt","","0.2924754864","","0.4083751038","","0.1599393353","","","","","",""
"161","","bandit","142","394718","0.0-104.0-0.0","09911370","wem/bandit_single","A1C59M3HPCO503","pain","5","","75","K","2","","0","0","1","","0.4036944211","false","67","","0.4872204599","main_expt","","0.2363072125","","0.4036944211","","0.1647045883","","","","","",""
"362","","bandit","143","396846","0.0-105.0-0.0","09911370","wem/bandit_single","A1C59M3HPCO503","pain","5","","72","H","0","img/none_selected.jpg","0","0","1","","0.4749956953","false","68","","0.4749956953","main_expt","","0.264359064","","0.3910329043","","0.1442333851","","","","","",""
"112","","bandit","144","398718","0.0-106.0-0.0","09911370","wem/bandit_single","A1C59M3HPCO503","pain","5","","76","L","3","","0","0","1","","0.1757685765","false","69","","0.4776093432","main_expt","","0.2755227552","","0.3438989047","","0.1757685765","","","","","",""
"298","","bandit","145","400775","0.0-107.0-0.0","09911370","wem/bandit_single","A1C59M3HPCO503","pain","5","","72","H","0","img/none_selected.jpg","0","0","1","","0.4550183311","false","70","","0.4550183311","main_expt","","0.2978365432","","0.3282106587","","0.1995177274","","","","","",""
"166","","bandit","146","402699","0.0-108.0-0.0","09911370","wem/bandit_single","A1C59M3HPCO503","pain","5","","74","J","1","","0","0","1","","0.2788476436","false","71","","0.4466984445","main_expt","","0.2788476436","","0.3085852942","","0.2429348876","","","","","",""
"60","","bandit","147","404525","0.0-109.0-0.0","09911370","wem/bandit_single","A1C59M3HPCO503","pain","5","","75","K","2","","0","1","0","","0.317066931","false","72","","0.453817204","main_expt","","0.2983184618","","0.317066931","","0.2134703404","","","","","",""
"114","","bandit","148","406405","0.0-110.0-0.0","09911370","wem/bandit_single","A1C59M3HPCO503","pain","5","","75","K","2","","0","0","1","","0.3118309255","false","73","","0.4421557619","main_expt","","0.3235064893","","0.3118309255","","0.2779115064","","","","","",""
"37","","bandit","149","408209","0.0-111.0-0.0","09911370","wem/bandit_single","A1C59M3HPCO503","pain","5","","72","H","0","img/none_selected.jpg","0","1","0","","0.4340536998","false","74","","0.4340536998","main_expt","","0.2605282151","","0.3442292265","","0.2696493969","","","","","",""
"19","","bandit","150","409990","0.0-112.0-0.0","09911370","wem/bandit_single","A1C59M3HPCO503","pain","5","","72","H","0","img/none_selected.jpg","0","0","1","","0.4148912722","false","75","","0.4148912722","main_expt","","0.3081503464","","0.3392290825","","0.2929582525","","","","","",""
"50","","bandit","151","411806","0.0-113.0-0.0","09911370","wem/bandit_single","A1C59M3HPCO503","pain","5","","75","K","2","","0","0","1","","0.3019050266","false","76","","0.4049452856","main_expt","","0.3793773342","","0.3019050266","","0.2925997362","","","","","",""
"45","","bandit","152","413615","0.0-114.0-0.0","09911370","wem/bandit_single","A1C59M3HPCO503","pain","5","","72","H","0","img/none_selected.jpg","0","1","0","","0.3804311168","false","77","","0.3804311168","main_expt","","0.4108459626","","0.3346778491","","0.2402419665","","","","","",""
"40","","bandit","153","415417","0.0-115.0-0.0","09911370","wem/bandit_single","A1C59M3HPCO503","pain","5","","72","H","0","img/none_selected.jpg","0","0","1","","0.4076768351","false","78","","0.4076768351","main_expt","","0.432197644","","0.2858281516","","0.2662288132","","","","","",""
"335","","bandit","154","417514","0.0-116.0-0.0","09911370","wem/bandit_single","A1C59M3HPCO503","pain","5","","72","H","0","img/none_selected.jpg","0","0","1","","0.4322729224","false","79","","0.4322729224","main_expt","","0.4681634707","","0.2601805687","","0.2946750364","","","","","",""
"113","","bandit","155","419388","0.0-117.0-0.0","09911370","wem/bandit_single","A1C59M3HPCO503","pain","5","","75","K","2","","0","0","1","","0.2494540003","false","80","","0.4344903628","main_expt","","0.4487514359","","0.2494540003","","0.3142603933","","","","","",""
"2","","bandit","156","421152","0.0-118.0-0.0","09911370","wem/bandit_single","A1C59M3HPCO503","pain","5","","72","H","0","img/none_selected.jpg","0","0","1","","0.4128510282","false","81","","0.4128510282","main_expt","","0.4278748425","","0.2029748002","","0.3045476359","","","","","",""
"42","","bandit","157","422955","0.0-119.0-0.0","09911370","wem/bandit_single","A1C59M3HPCO503","pain","5","","76","L","3","","0","1","0","","0.2481672469","false","82","","0.3473788204","main_expt","","0.3873338363","","0.1459008349","","0.2481672469","","","","","",""
"20","","bandit","158","424741","0.0-120.0-0.0","09911370","wem/bandit_single","A1C59M3HPCO503","pain","5","","76","L","3","","0","0","1","","0.2366474468","false","83","","0.3964685929","main_expt","","0.3676955993","","0.1792892234","","0.2366474468","","","","","",""
"354","","bandit","159","426855","0.0-121.0-0.0","09911370","wem/bandit_single","A1C59M3HPCO503","pain","5","","72","H","0","img/none_selected.jpg","0","1","0","","0.4058457219","false","84","","0.4058457219","main_expt","","0.3494013457","","0.1384159538","","0.2327145127","","","","","",""
"320","","bandit","160","428937","0.0-122.0-0.0","09911370","wem/bandit_single","A1C59M3HPCO503","pain","5","","72","H","0","img/none_selected.jpg","0","1","0","","0.419702676","false","85","","0.419702676","main_expt","","0.3484693071","","0.1569521301","","0.2276425053","","","","","",""
"51","","bandit","161","430749","0.0-123.0-0.0","09911370","wem/bandit_single","A1C59M3HPCO503","pain","5","","72","H","0","img/none_selected.jpg","0","1","0","","0.3584641731","false","86","","0.3584641731","main_expt","","0.3738623358","","0.2111509195","","0.1932648708","","","","","",""
"11","","bandit","162","432525","0.0-124.0-0.0","09911370","wem/bandit_single","A1C59M3HPCO503","pain","5","","72","H","0","img/none_selected.jpg","0","1","0","","0.3362954576","false","87","","0.3362954576","main_expt","","0.3635865115","","0.1855749087","","0.1554886006","","","","","",""
"462","","bandit","163","434748","0.0-125.0-0.0","09911370","wem/bandit_single","A1C59M3HPCO503","pain","5","","72","H","0","img/none_selected.jpg","0","0","1","","0.3495778317","false","88","","0.3495778317","main_expt","","0.28993028","","0.1260067519","","0.1288388744","","","","","",""
"9","","bandit","164","436518","0.0-126.0-0.0","09911370","wem/bandit_single","A1C59M3HPCO503","pain","5","","72","H","0","img/none_selected.jpg","0","0","1","","0.3337998134","false","89","","0.3337998134","main_expt","","0.2529053562","","0.1930097593","","0.1672252434","","","","","",""
"335","","bandit","165","438618","0.0-127.0-0.0","09911370","wem/bandit_single","A1C59M3HPCO503","pain","5","","76","L","3","","0","0","1","","0.1379373657","false","90","","0.3254710898","main_expt","","0.2239223254","","0.2016869017","","0.1379373657","","","","","",""
"9","","bandit","166","440392","0.0-128.0-0.0","09911370","wem/bandit_single","A1C59M3HPCO503","pain","5","","74","J","1","","0","0","1","","0.1874521573","false","91","","0.3248617863","main_expt","","0.1874521573","","0.2283296651","","0.1296834551","","","","","",""
"303","","bandit","167","442463","0.0-129.0-0.0","09911370","wem/bandit_single","A1C59M3HPCO503","pain","5","","72","H","0","img/none_selected.jpg","0","0","1","","0.3290731597","false","92","","0.3290731597","main_expt","","0.1464907128","","0.2253008126","","0.1601432093","","","","","",""
"14","","bandit","168","444245","0.0-130.0-0.0","09911370","wem/bandit_single","A1C59M3HPCO503","pain","5","","75","K","2","","0","0","1","","0.1826671142","false","93","","0.2947126164","main_expt","","0.1817498408","","0.1826671142","","0.1976873148","","","","","",""
"295","","bandit","169","446309","0.0-131.0-0.0","09911370","wem/bandit_single","A1C59M3HPCO503","pain","5","","72","H","0","img/none_selected.jpg","0","1","0","","0.2762739163","false","94","","0.2762739163","main_expt","","0.1967130988","","0.1650727581","","0.2296862911","","","","","",""
"10","","bandit","170","448082","0.0-132.0-0.0","09911370","wem/bandit_single","A1C59M3HPCO503","pain","5","","72","H","0","img/none_selected.jpg","0","1","0","","0.3184689772","false","95","","0.3184689772","main_expt","","0.2294656294","","0.1971582392","","0.1990842867","","","","","",""
"29","","bandit","171","449875","0.0-133.0-0.0","09911370","wem/bandit_single","A1C59M3HPCO503","pain","5","","72","H","0","img/none_selected.jpg","0","0","1","","0.281027734","false","96","","0.281027734","main_expt","","0.2966343553","","0.1791402521","","0.258496532","","","","","",""
"330","","bandit","172","451970","0.0-134.0-0.0","09911370","wem/bandit_single","A1C59M3HPCO503","pain","5","","72","H","0","img/none_selected.jpg","0","0","1","","0.2474299406","false","97","","0.2474299406","main_expt","","0.3346257274","","0.1516442175","","0.2766566169","","","","","",""
"34","","bandit","173","453771","0.0-135.0-0.0","09911370","wem/bandit_single","A1C59M3HPCO503","pain","5","","76","L","3","","0","0","1","","0.2377114848","false","98","","0.2217126022","main_expt","","0.3139493976","","0.2200018313","","0.2377114848","","","","","",""
"245","","bandit","174","455785","0.0-136.0-0.0","09911370","wem/bandit_single","A1C59M3HPCO503","pain","5","","72","H","0","img/none_selected.jpg","0","0","1","","0.2677278576","false","99","","0.2677278576","main_expt","","0.2478490566","","0.2752547205","","0.3124158187","","","","","",""
"55","","bandit","175","457606","0.0-137.0-0.0","09911370","wem/bandit_single","A1C59M3HPCO503","pain","5","","74","J","1","","0","1","0","","0.2602221343","false","100","","0.3271916833","main_expt","","0.2602221343","","0.252850905","","0.2059987679","","","","","",""
"8","","bandit","176","459383","0.0-138.0-0.0","09911370","wem/bandit_single","A1C59M3HPCO503","pain","5","","74","J","1","","0","0","1","","0.2584762291","false","101","","0.3066156257","main_expt","","0.2584762291","","0.1867047362","","0.1758265216","","","","","",""
"13","","bandit","177","461167","0.0-139.0-0.0","09911370","wem/bandit_single","A1C59M3HPCO503","pain","5","","72","H","0","img/none_selected.jpg","0","0","1","","0.3260250896","false","102","","0.3260250896","main_expt","","0.282093771","","0.1175578895","","0.2262322791","","","","","",""
"333","","bandit","178","463260","0.0-140.0-0.0","09911370","wem/bandit_single","A1C59M3HPCO503","pain","5","","75","K","2","","0","0","1","","0.09132094505","false","103","","0.3731136732","main_expt","","0.2725256196","","0.09132094505","","0.2018281434","","","","","",""
"358","","bandit","179","465384","0.0-141.0-0.0","09911370","wem/bandit_single","A1C59M3HPCO503","pain","5","","72","H","0","img/none_selected.jpg","0","1","0","","0.3941656488","false","104","","0.3941656488","main_expt","","0.2243623384","","0.1422553795","","0.1447482012","","","","","",""
"66","","bandit","180","467213","0.0-142.0-0.0","09911370","wem/bandit_single","A1C59M3HPCO503","pain","5","","72","H","0","img/none_selected.jpg","0","0","1","","0.4030151573","false","105","","0.4030151573","main_expt","","0.2403200944","","0.1390697773","","0.2104813725","","","","","",""
"294","","bandit","181","469272","0.0-143.0-0.0","09911370","wem/bandit_single","A1C59M3HPCO503","pain","5","","74","J","1","","0","0","1","","0.2332798071","false","106","","0.3715193073","main_expt","","0.2332798071","","0.1155807694","","0.2492378957","","","","","",""
"17","","bandit","182","471055","0.0-144.0-0.0","09911370","wem/bandit_single","A1C59M3HPCO503","pain","5","","72","H","0","img/none_selected.jpg","0","1","0","","0.3837270358","false","107","","0.3837270358","main_expt","","0.181620067","","0.105728532","","0.217404121","","","","","",""
"229","","bandit","183","473046","0.0-145.0-0.0","09911370","wem/bandit_single","A1C59M3HPCO503","pain","5","","72","H","0","img/none_selected.jpg","0","1","0","","0.3908875135","false","108","","0.3908875135","main_expt","","0.2173069915","","0.08831090648","","0.2142202377","","","","","",""
"33","","bandit","184","474840","0.0-146.0-0.0","09911370","wem/bandit_single","A1C59M3HPCO503","pain","5","","72","H","0","img/none_selected.jpg","0","0","1","","0.3774052568","false","109","","0.3774052568","main_expt","","0.226697077","","0.1043724426","","0.2683226389","","","","","",""
"60","","bandit","185","476661","0.0-147.0-0.0","09911370","wem/bandit_single","A1C59M3HPCO503","pain","5","","76","L","3","","0","0","1","","0.2619142817","false","110","","0.3601275089","main_expt","","0.2695419639","","0.07530108238","","0.2619142817","","","","","",""
"10","","bandit","186","478436","0.0-148.0-0.0","09911370","wem/bandit_single","A1C59M3HPCO503","pain","5","","74","J","1","","0","0","1","","0.2635727161","false","111","","0.3880855357","main_expt","","0.2635727161","","0.05159845725","","0.2754039507","","","","","",""
"274","","bandit","187","480477","0.0-149.0-0.0","09911370","wem/bandit_single","A1C59M3HPCO503","pain","5","","72","H","0","img/none_selected.jpg","0","1","0","","0.3864248384","false","112","","0.3864248384","main_expt","","0.3202716687","","0.08116028731","","0.2721436228","","","","","",""
"299","","bandit","188","482544","0.0-150.0-0.0","09911370","wem/bandit_single","A1C59M3HPCO503","pain","5","","72","H","0","img/none_selected.jpg","0","1","0","","0.339569604","false","113","","0.339569604","main_expt","","0.3546461764","","0.08538759299","","0.2598768298","","","","","",""
"381","","bandit","189","484687","0.0-151.0-0.0","09911370","wem/bandit_single","A1C59M3HPCO503","pain","5","","72","H","0","img/none_selected.jpg","0","1","0","","0.3612744832","false","114","","0.3612744832","main_expt","","0.3339806629","","0.106551095","","0.2271708717","","","","","",""
"244","","bandit","190","486691","0.0-152.0-0.0","09911370","wem/bandit_single","A1C59M3HPCO503","pain","5","","72","H","0","img/none_selected.jpg","0","1","0","","0.3616298021","false","115","","0.3616298021","main_expt","","0.3175163572","","0.1120532439","","0.2382373761","","","","","",""
"44","","bandit","191","488491","0.0-153.0-0.0","09911370","wem/bandit_single","A1C59M3HPCO503","pain","5","","72","H","0","img/none_selected.jpg","0","1","0","","0.3886586702","false","116","","0.3886586702","main_expt","","0.3626291523","","0.07206247825","","0.2092397162","","","","","",""
"368","","bandit","192","490619","0.0-154.0-0.0","09911370","wem/bandit_single","A1C59M3HPCO503","pain","5","","72","H","0","img/none_selected.jpg","0","1","0","","0.3837198657","false","117","","0.3837198657","main_expt","","0.4005972513","","0.05990892348","","0.1790603663","","","","","",""
"231","","bandit","193","492616","0.0-155.0-0.0","09911370","wem/bandit_single","A1C59M3HPCO503","pain","5","","72","H","0","img/none_selected.jpg","0","1","0","","0.3831944796","false","118","","0.3831944796","main_expt","","0.3994725347","","0.07349038746","","0.2515048449","","","","","",""
"68","","bandit","194","494443","0.0-156.0-0.0","09911370","wem/bandit_single","A1C59M3HPCO503","pain","5","","72","H","0","img/none_selected.jpg","0","0","1","","0.3200080389","false","119","","0.3200080389","main_expt","","0.3690387214","","0.0880416307","","0.2591845625","","","","","",""
"242","","bandit","195","496451","0.0-157.0-0.0","09911370","wem/bandit_single","A1C59M3HPCO503","pain","5","","72","H","0","img/none_selected.jpg","0","0","1","","0.3498825307","false","120","","0.3498825307","main_expt","","0.3553033444","","0.08832912692","","0.2719994365","","","","","",""
"39","","bandit","196","498257","0.0-158.0-0.0","09911370","wem/bandit_single","A1C59M3HPCO503","pain","5","","75","K","2","","0","0","1","","0.08322673311","false","121","","0.3150568547","main_expt","","0.3558993888","","0.08322673311","","0.2511552987","","","","","",""
"29","","bandit","197","500047","0.0-159.0-0.0","09911370","wem/bandit_single","A1C59M3HPCO503","pain","5","","72","H","0","img/none_selected.jpg","0","0","1","","0.332296042","false","122","","0.332296042","main_expt","","0.3539125929","","0.1027924146","","0.246059836","","","","","",""
"5","","bandit","198","501815","0.0-160.0-0.0","09911370","wem/bandit_single","A1C59M3HPCO503","pain","5","","74","J","1","","0","0","1","","0.2756210624","false","123","","0.3023892254","main_expt","","0.2756210624","","0.1112730508","","0.201637063","","","","","",""
"300","","bandit","199","503878","0.0-161.0-0.0","09911370","wem/bandit_single","A1C59M3HPCO503","pain","5","","72","H","0","img/none_selected.jpg","0","0","1","","0.2971441903","false","124","","0.2971441903","main_expt","","0.2924451827","","0.1401536705","","0.2424225803","","","","","",""
"8","","bandit","200","505655","0.0-162.0-0.0","09911370","wem/bandit_single","A1C59M3HPCO503","pain","5","","76","L","3","","0","0","1","","0.2663511033","false","125","","0.2989687221","main_expt","","0.3283550958","","0.170676821","","0.2663511033","","","","","",""
"310","","bandit","201","507747","0.0-163.0-0.0","09911370","wem/bandit_single","A1C59M3HPCO503","pain","5","","72","H","0","img/none_selected.jpg","0","0","1","","0.3470717071","false","126","","0.3470717071","main_expt","","0.3561713316","","0.2239131839","","0.2214557307","","","","","",""
"388","","bandit","202","509905","0.0-164.0-0.0","09911370","wem/bandit_single","A1C59M3HPCO503","pain","5","","75","K","2","","0","0","1","","0.1828765327","false","127","","0.3399927284","main_expt","","0.3093512765","","0.1828765327","","0.2274120533","","","","","",""
"52","","bandit","203","511727","0.0-165.0-0.0","09911370","wem/bandit_single","A1C59M3HPCO503","pain","5","","74","J","1","","0","1","0","","0.3682433617","false","128","","0.3039142281","main_expt","","0.3682433617","","0.2182936746","","0.2035603578","","","","","",""
"23","","bandit","204","513510","0.0-166.0-0.0","09911370","wem/bandit_single","A1C59M3HPCO503","pain","5","","74","J","1","","0","1","0","","0.3485983391","false","129","","0.331948561","main_expt","","0.3485983391","","0.2206976306","","0.1571118888","","","","","",""
"70","","bandit","205","515342","0.0-167.0-0.0","09911370","wem/bandit_single","A1C59M3HPCO503","pain","5","","74","J","1","","0","1","0","","0.3907345736","false","130","","0.3512730473","main_expt","","0.3907345736","","0.1657145536","","0.08617346002","","","","","",""
"308","","bandit","206","517415","0.0-168.0-0.0","09911370","wem/bandit_single","A1C59M3HPCO503","pain","5","","74","J","1","","0","0","1","","0.3697977754","false","131","","0.3617370935","main_expt","","0.3697977754","","0.2555784817","","0.1196539686","","","","","",""
"14","","bandit","207","519196","0.0-169.0-0.0","09911370","wem/bandit_single","A1C59M3HPCO503","pain","5","","74","J","1","","0","0","1","","0.3916621277","false","132","","0.3520165756","main_expt","","0.3916621277","","0.287060772","","0.1111227042","","","","","",""
"19","","bandit","208","520978","0.0-170.0-0.0","09911370","wem/bandit_single","A1C59M3HPCO503","pain","5","","72","H","0","img/none_selected.jpg","0","0","1","","0.3863989014","false","133","","0.3863989014","main_expt","","0.3437671512","","0.238965149","","0.1223368092","","","","","",""
"429","","bandit","209","523177","0.0-171.0-0.0","09911370","wem/bandit_single","A1C59M3HPCO503","pain","5","","76","L","3","","0","0","1","","0.1001486166","false","134","","0.3391859262","main_expt","","0.3636108046","","0.2457001749","","0.1001486166","","","","","",""
"13","","bandit","210","524966","0.0-172.0-0.0","09911370","wem/bandit_single","A1C59M3HPCO503","pain","5","","74","J","1","","0","0","1","","0.3251377881","false","135","","0.3700101905","main_expt","","0.3251377881","","0.2499382958","","0.1179747861","","","","","",""
"28","","bandit","211","526766","0.0-173.0-0.0","09911370","wem/bandit_single","A1C59M3HPCO503","pain","5","","75","K","2","","0","0","1","","0.2553087313","false","136","","0.3002558999","main_expt","","0.3838305716","","0.2553087313","","0.1167775935","","","","","",""
"264","","bandit","212","528798","0.0-174.0-0.0","09911370","wem/bandit_single","A1C59M3HPCO503","pain","5","","72","H","0","img/none_selected.jpg","0","1","0","","0.3242357935","false","137","","0.3242357935","main_expt","","0.374624825","","0.2517181947","","0.1459170178","","","","","",""
"354","","bandit","213","530913","0.0-175.0-0.0","09911370","wem/bandit_single","A1C59M3HPCO503","pain","5","","72","H","0","img/none_selected.jpg","0","0","1","","0.3413485239","false","138","","0.3413485239","main_expt","","0.36903936","","0.2531469116","","0.1403776257","","","","","",""
"135","","bandit","214","532818","0.0-176.0-0.0","09911370","wem/bandit_single","A1C59M3HPCO503","pain","5","","74","J","1","","0","0","1","","0.3757762965","false","139","","0.3172825342","main_expt","","0.3757762965","","0.2810662396","","0.1647502834","","","","","",""
"400","","bandit","215","534979","0.0-177.0-0.0","09911370","wem/bandit_single","A1C59M3HPCO503","pain","5","","72","H","0","img/none_selected.jpg","0","1","0","","0.3683668128","false","140","","0.3683668128","main_expt","","0.3240643918","","0.2226737135","","0.2135508935","","","","","",""
"256","","bandit","216","537008","0.0-178.0-0.0","09911370","wem/bandit_single","A1C59M3HPCO503","pain","5","","72","H","0","img/none_selected.jpg","0","0","1","","0.2976824498","false","141","","0.2976824498","main_expt","","0.342151626","","0.2330331678","","0.2286669107","","","","","",""
"145","","bandit","217","538915","0.0-179.0-0.0","09911370","wem/bandit_single","A1C59M3HPCO503","pain","5","","76","L","3","","0","0","1","","0.1870561284","false","142","","0.3424177608","main_expt","","0.3576151309","","0.1833347363","","0.1870561284","","","","","",""
"31","","bandit","218","540707","0.0-180.0-0.0","09911370","wem/bandit_single","A1C59M3HPCO503","pain","5","","72","H","0","img/none_selected.jpg","0","0","1","","0.3367953268","false","143","","0.3367953268","main_expt","","0.3075624404","","0.2063127673","","0.220851353","","","","","",""
"369","","bandit","219","542852","0.0-181.0-0.0","09911370","wem/bandit_single","A1C59M3HPCO503","pain","5","","74","J","1","","0","0","1","","0.3666812205","false","144","","0.3446852995","main_expt","","0.3666812205","","0.24054226","","0.1581776843","","","","","",""
"128","","bandit","220","544752","0.0-182.0-0.0","09911370","wem/bandit_single","A1C59M3HPCO503","pain","5","","72","H","0","img/none_selected.jpg","0","0","1","","0.3569090532","false","145","","0.3569090532","main_expt","","0.373264243","","0.3397881996","","0.1562309797","","","","","",""
"28","","bandit","221","546551","0.0-183.0-0.0","09911370","wem/bandit_single","A1C59M3HPCO503","pain","5","","75","K","2","","0","0","1","","0.334771558","false","146","","0.3546691234","main_expt","","0.3588440804","","0.334771558","","0.201277092","","","","","",""
"9","","bandit","222","548342","0.0-184.0-0.0","09911370","wem/bandit_single","A1C59M3HPCO503","pain","5","","74","J","1","","0","1","0","","0.3848898601","false","147","","0.3346193534","main_expt","","0.3848898601","","0.3135854179","","0.2014254916","","","","","",""
"90","","bandit","223","550194","0.0-185.0-0.0","09911370","wem/bandit_single","A1C59M3HPCO503","pain","5","","74","J","1","","0","0","1","","0.4049875018","false","148","","0.3481099765","main_expt","","0.4049875018","","0.2601716543","","0.1783642851","","","","","",""
"328","","bandit","224","552283","0.0-186.0-0.0","09911370","wem/bandit_single","A1C59M3HPCO503","pain","5","","76","L","3","","0","0","1","","0.2394621943","false","149","","0.3473239498","main_expt","","0.3644303146","","0.2449203511","","0.2394621943","","","","","",""
"8","","bandit","225","554067","0.0-187.0-0.0","09911370","wem/bandit_single","A1C59M3HPCO503","pain","5","","72","H","0","img/none_selected.jpg","0","0","1","","0.3457177179","false","150","","0.3457177179","main_expt","","0.3820895465","","0.2679682766","","0.2009439561","","","","","",""
"98","","bandit","226","555936","0.0-188.0-0.0","09911370","wem/bandit_single","A1C59M3HPCO503","pain","5","","74","J","1","","0","0","1","","0.3715335383","false","151","","0.3131990842","main_expt","","0.3715335383","","0.2811524043","","0.1783838281","","","","","",""
"22","","bandit","227","557732","0.0-189.0-0.0","09911370","wem/bandit_single","A1C59M3HPCO503","pain","5","","72","H","0","img/none_selected.jpg","0","1","0","","0.2632978047","false","152","","0.2632978047","main_expt","","0.3270427106","","0.2320671432","","0.2357029213","","","","","",""
"9","","bandit","228","559515","0.0-190.0-0.0","09911370","wem/bandit_single","A1C59M3HPCO503","pain","5","","72","H","0","img/none_selected.jpg","0","0","1","","0.2782579121","false","153","","0.2782579121","main_expt","","0.3117301263","","0.2655606304","","0.1701289497","","","","","",""
"309","","bandit","229","561592","0.0-191.0-0.0","09911370","wem/bandit_single","A1C59M3HPCO503","pain","5","","74","J","1","","0","0","1","","0.2860829053","false","154","","0.2212449789","main_expt","","0.2860829053","","0.3485425359","","0.1613436629","","","","","",""
"376","","bandit","230","563740","0.0-192.0-0.0","09911370","wem/bandit_single","A1C59M3HPCO503","pain","5","","75","K","2","","0","1","0","","0.3302543019","false","155","","0.1944586175","main_expt","","0.2412247214","","0.3302543019","","0.1419994917","","","","","",""
"186","","bandit","231","565705","0.0-193.0-0.0","09911370","wem/bandit_single","A1C59M3HPCO503","pain","5","","75","K","2","","0","0","1","","0.2696600886","false","156","","0.2035424954","main_expt","","0.2505935016","","0.2696600886","","0.2076402971","","","","","",""
"334","","bandit","232","567812","0.0-194.0-0.0","09911370","wem/bandit_single","A1C59M3HPCO503","pain","5","","76","L","3","","0","0","1","","0.2253974945","false","157","","0.2039725598","main_expt","","0.2677381881","","0.3095791192","","0.2253974945","","","","","",""
"392","","bandit","233","569984","0.0-195.0-0.0","09911370","wem/bandit_single","A1C59M3HPCO503","pain","5","","75","K","2","","0","1","0","","0.3427908005","false","158","","0.1610126092","main_expt","","0.228073272","","0.3427908005","","0.3173726248","","","","","",""
"91","","bandit","234","571846","0.0-196.0-0.0","09911370","wem/bandit_single","A1C59M3HPCO503","pain","5","","75","K","2","","0","0","1","","0.3459652535","false","159","","0.2244023171","main_expt","","0.2181731157","","0.3459652535","","0.2929560982","","","","","",""
"16","","bandit","235","573631","0.0-197.0-0.0","09911370","wem/bandit_single","A1C59M3HPCO503","pain","5","","75","K","2","","0","0","1","","0.3277363444","false","160","","0.2550463449","main_expt","","0.2483475363","","0.3277363444","","0.2599130114","","","","","",""
"0","","bandit","236","575393","0.0-198.0-0.0","09911370","wem/bandit_single","A1C59M3HPCO503","pain","5","","75","K","2","","0","1","0","","0.3043896987","false","161","","0.1988840894","main_expt","","0.2287268475","","0.3043896987","","0.3006759107","","","","","",""
"591","","bandit","237","577755","0.0-199.0-0.0","09911370","wem/bandit_single","A1C59M3HPCO503","pain","5","","75","K","2","","0","1","0","","0.3013302692","false","162","","0.3208820199","main_expt","","0.2118340618","","0.3013302692","","0.3359074288","","","","","",""
"62","","bandit","238","579590","0.0-200.0-0.0","09911370","wem/bandit_single","A1C59M3HPCO503","pain","5","","75","K","2","","0","0","1","","0.3359404133","false","163","","0.3416291965","main_expt","","0.2467500447","","0.3359404133","","0.3248254093","","","","","",""
"304","","bandit","239","581655","0.0-201.0-0.0","09911370","wem/bandit_single","A1C59M3HPCO503","pain","5","","72","H","0","img/none_selected.jpg","0","1","0","","0.3531125991","false","164","","0.3531125991","main_expt","","0.2745506496","","0.3449747326","","0.2480447101","","","","","",""
"19","","bandit","240","583440","0.0-202.0-0.0","09911370","wem/bandit_single","A1C59M3HPCO503","pain","5","","72","H","0","img/none_selected.jpg","0","0","1","","0.3329293945","false","165","","0.3329293945","main_expt","","0.2893970703","","0.3388680014","","0.2291527929","","","","","",""
"324","","bandit","241","585527","0.0-203.0-0.0","09911370","wem/bandit_single","A1C59M3HPCO503","pain","5","","75","K","2","","0","1","0","","0.3565097084","false","166","","0.368824295","main_expt","","0.326956194","","0.3565097084","","0.2408823094","","","","","",""
"31","","bandit","242","587318","0.0-204.0-0.0","09911370","wem/bandit_single","A1C59M3HPCO503","pain","5","","75","K","2","","0","0","1","","0.3807311224","false","167","","0.3528049135","main_expt","","0.2562538154","","0.3807311224","","0.1852653973","","","","","",""
"85","","bandit","243","589175","0.0-205.0-0.0","09911370","wem/bandit_single","A1C59M3HPCO503","pain","5","","72","H","0","img/none_selected.jpg","0","0","1","","0.3530437727","false","168","","0.3530437727","main_expt","","0.259707785","","0.4157533759","","0.1123614246","","","","","",""
"366","","bandit","244","591308","0.0-206.0-0.0","09911370","wem/bandit_single","A1C59M3HPCO503","pain","5","","75","K","2","","0","0","1","","0.3990846218","false","169","","0.3619584092","main_expt","","0.305903145","","0.3990846218","","0.1289140747","","","","","",""
"34","","bandit","245","593110","0.0-207.0-0.0","09911370","wem/bandit_single","A1C59M3HPCO503","pain","5","","74","J","1","","0","0","1","","0.2780458482","false","170","","0.3851568221","main_expt","","0.2780458482","","0.3840903594","","0.1082073398","","","","","",""
"345","","bandit","246","595218","0.0-208.0-0.0","09911370","wem/bandit_single","A1C59M3HPCO503","pain","5","","75","K","2","","0","1","0","","0.4279034191","false","171","","0.369821393","main_expt","","0.2754425626","","0.4279034191","","0.09560917383","","","","","",""
"387","","bandit","247","597364","0.0-209.0-0.0","09911370","wem/bandit_single","A1C59M3HPCO503","pain","5","","75","K","2","","0","1","0","","0.4277210969","false","172","","0.3238500873","main_expt","","0.2801866594","","0.4277210969","","0.09002122866","","","","","",""
"22","","bandit","248","599160","0.0-210.0-0.0","09911370","wem/bandit_single","A1C59M3HPCO503","pain","5","","75","K","2","","0","1","0","","0.4177409887","false","173","","0.371178543","main_expt","","0.2903169923","","0.4177409887","","0.06359212806","","","","","",""
"9","","bandit","249","600938","0.0-211.0-0.0","09911370","wem/bandit_single","A1C59M3HPCO503","pain","5","","75","K","2","","0","1","0","","0.4149019111","false","174","","0.364968973","main_expt","","0.3135769273","","0.4149019111","","0.07897407323","","","","","",""
"62","","bandit","250","602781","0.0-212.0-0.0","09911370","wem/bandit_single","A1C59M3HPCO503","pain","5","","75","K","2","","0","1","0","","0.3890834012","false","175","","0.4172857806","main_expt","","0.3205535054","","0.3890834012","","0.05374651045","","","","","",""
"307","","bandit","251","604853","0.0-213.0-0.0","09911370","wem/bandit_single","A1C59M3HPCO503","pain","5","","75","K","2","","0","0","1","","0.3775492635","false","176","","0.3931137538","main_expt","","0.3548310205","","0.3775492635","","0.05298342689","","","","","",""
"76","","bandit","252","606690","0.0-214.0-0.0","09911370","wem/bandit_single","A1C59M3HPCO503","pain","5","","75","K","2","","0","0","1","","0.2763311933","false","177","","0.4118750583","main_expt","","0.3374760958","","0.2763311933","","0.04117570961","","","","","",""
"41","","bandit","253","608504","0.0-215.0-0.0","09911370","wem/bandit_single","A1C59M3HPCO503","pain","5","","75","K","2","","0","0","1","","0.2117274321","false","178","","0.4019835374","main_expt","","0.3045899674","","0.2117274321","","0.0682688674","","","","","",""
"382","","bandit","254","610648","0.0-216.0-0.0","09911370","wem/bandit_single","A1C59M3HPCO503","pain","5","","76","L","3","","0","0","1","","0.0699035784","false","179","","0.3943962464","main_expt","","0.2701203387","","0.2071796451","","0.0699035784","","","","","",""
"107","","bandit","255","612516","0.0-217.0-0.0","09911370","wem/bandit_single","A1C59M3HPCO503","pain","5","","72","H","0","img/none_selected.jpg","0","0","1","","0.3879360396","false","180","","0.3879360396","main_expt","","0.3010541938","","0.2237333922","","0.08066818268","","","","","",""
"106","","bandit","256","614384","0.0-218.0-0.0","09911370","wem/bandit_single","A1C59M3HPCO503","pain","5","","75","K","2","","0","0","1","","0.1462221579","false","181","","0.3516035239","main_expt","","0.2685782119","","0.1462221579","","0.06418194011","","","","","",""
"399","","bandit","257","616545","0.0-219.0-0.0","09911370","wem/bandit_single","A1C59M3HPCO503","pain","5","","74","J","1","","0","0","1","","0.2333395507","false","182","","0.3544849886","main_expt","","0.2333395507","","0.1745001591","","0.05948248489","","","","","",""
"87","","bandit","258","618408","0.0-220.0-0.0","09911370","wem/bandit_single","A1C59M3HPCO503","pain","5","","76","L","3","","0","0","1","","0.04249263759","false","183","","0.3239224462","main_expt","","0.1817222791","","0.1840457003","","0.04249263759","","","","","",""
"158","","bandit","259","620331","0.0-221.0-0.0","09911370","wem/bandit_single","A1C59M3HPCO503","pain","5","","72","H","0","img/none_selected.jpg","0","1","0","","0.3437575642","false","184","","0.3437575642","main_expt","","0.1946528514","","0.1684271963","","0.05174265856","","","","","",""
"275","","bandit","260","622378","0.0-222.0-0.0","09911370","wem/bandit_single","A1C59M3HPCO503","pain","5","","72","H","0","img/none_selected.jpg","0","0","1","","0.3584643827","false","185","","0.3584643827","main_expt","","0.1998780622","","0.1820742113","","0.04700335152","","","","","",""
"397","","bandit","261","624538","0.0-223.0-0.0","09911370","wem/bandit_single","A1C59M3HPCO503","pain","5","","75","K","2","","0","0","1","","0.2156320388","false","186","","0.3968797112","main_expt","","0.2674223733","","0.2156320388","","0.0651928762","","","","","",""
"38","","bandit","262","626348","0.0-224.0-0.0","09911370","wem/bandit_single","A1C59M3HPCO503","pain","5","","74","J","1","","0","0","1","","0.2625155344","false","187","","0.3851297664","main_expt","","0.2625155344","","0.2805416817","","0.1006801651","","","","","",""
"318","","bandit","263","628437","0.0-225.0-0.0","09911370","wem/bandit_single","A1C59M3HPCO503","pain","5","","72","H","0","img/none_selected.jpg","0","0","1","","0.3861445831","false","188","","0.3861445831","main_expt","","0.2428845682","","0.255869765","","0.1650650448","","","","","",""
"28","","bandit","264","630239","0.0-226.0-0.0","09911370","wem/bandit_single","A1C59M3HPCO503","pain","5","","76","L","3","","0","0","1","","0.1545550266","false","189","","0.3904601473","main_expt","","0.2017656849","","0.1757761595","","0.1545550266","","","","","",""
"24","","bandit","265","632027","0.0-227.0-0.0","09911370","wem/bandit_single","A1C59M3HPCO503","pain","5","","74","J","1","","0","1","0","","0.2163316772","false","190","","0.430863334","main_expt","","0.2163316772","","0.1346649685","","0.187471884","","","","","",""
"79","","bandit","266","633881","0.0-228.0-0.0","09911370","wem/bandit_single","A1C59M3HPCO503","pain","5","","74","J","1","","0","0","1","","0.2055350187","false","191","","0.4113524325","main_expt","","0.2055350187","","0.1132332922","","0.1611513775","","","","","",""
"88","","bandit","267","635744","0.0-229.0-0.0","09911370","wem/bandit_single","A1C59M3HPCO503","pain","5","","75","K","2","","0","0","1","","0.1208943264","false","192","","0.4039805352","main_expt","","0.1895719249","","0.1208943264","","0.1777959463","","","","","",""
"339","","bandit","268","637851","0.0-230.0-0.0","09911370","wem/bandit_single","A1C59M3HPCO503","pain","5","","72","H","0","img/none_selected.jpg","0","0","1","","0.4245567291","false","193","","0.4245567291","main_expt","","0.1748526562","","0.1939792015","","0.1871499601","","","","","",""
"22","","bandit","269","639644","0.0-231.0-0.0","09911370","wem/bandit_single","A1C59M3HPCO503","pain","5","","76","L","3","","0","0","1","","0.1876497678","false","194","","0.3947968319","main_expt","","0.1474168317","","0.16637132","","0.1876497678","","","","","",""
"364","","bandit","270","641771","0.0-232.0-0.0","09911370","wem/bandit_single","A1C59M3HPCO503","pain","5","","72","H","0","img/none_selected.jpg","0","0","1","","0.4142863389","false","195","","0.4142863389","main_expt","","0.192031623","","0.1730885183","","0.1091892437","","","","","",""
"17","","bandit","271","643555","0.0-233.0-0.0","09911370","wem/bandit_single","A1C59M3HPCO503","pain","5","","74","J","1","","0","0","1","","0.2058404012","false","196","","0.4233691667","main_expt","","0.2058404012","","0.215114198","","0.1617114059","","","","","",""
"345","","bandit","272","645670","0.0-234.0-0.0","09911370","wem/bandit_single","A1C59M3HPCO503","pain","5","","75","K","2","","0","0","1","","0.2080771369","false","197","","0.3910113043","main_expt","","0.2424759238","","0.2080771369","","0.1704243662","","","","","",""
"22","","bandit","273","647469","0.0-235.0-0.0","09911370","wem/bandit_single","A1C59M3HPCO503","pain","5","","72","H","0","img/none_selected.jpg","0","1","0","","0.4036427912","false","198","","0.4036427912","main_expt","","0.2209877853","","0.2349601263","","0.1547158464","","","","","",""
"19","","bandit","274","649257","0.0-236.0-0.0","09911370","wem/bandit_single","A1C59M3HPCO503","pain","5","","72","H","0","img/none_selected.jpg","0","0","1","","0.4211573591","false","199","","0.4211573591","main_expt","","0.2167038869","","0.2603506135","","0.1871633293","","","","","",""
"361","","bandit","275","651384","0.0-237.0-0.0","09911370","wem/bandit_single","A1C59M3HPCO503","pain","5","","72","H","0","img/none_selected.jpg","0","1","0","","0.4279321675","false","200","","0.4279321675","main_expt","","0.1923465651","","0.3238520586","","0.2044595191","","","","","",""
"84","","bandit","276","653232","0.0-238.0-0.0","09911370","wem/bandit_single","A1C59M3HPCO503","pain","5","","72","H","0","img/none_selected.jpg","0","0","1","","0.4164542871","false","201","","0.4164542871","main_expt","","0.2292217674","","0.3006478669","","0.2260370877","","","","","",""
"36","","bandit","277","655030","0.0-239.0-0.0","09911370","wem/bandit_single","A1C59M3HPCO503","pain","5","","72","H","0","img/none_selected.jpg","0","1","0","","0.4304584766","false","202","","0.4304584766","main_expt","","0.2458551357","","0.2728804465","","0.2543806879","","","","","",""
"22","","bandit","278","656831","0.0-240.0-0.0","09911370","wem/bandit_single","A1C59M3HPCO503","pain","5","","72","H","0","img/none_selected.jpg","0","1","0","","0.4301844238","false","203","","0.4301844238","main_expt","","0.2388066436","","0.3070028205","","0.248330882","","","","","",""
"16","","bandit","279","658619","0.0-241.0-0.0","09911370","wem/bandit_single","A1C59M3HPCO503","pain","5","","72","H","0","img/none_selected.jpg","0","1","0","","0.3900297032","false","204","","0.3900297032","main_expt","","0.2087278664","","0.2937269753","","0.272777159","","","","","",""
"81","","bandit","280","660472","0.0-242.0-0.0","09911370","wem/bandit_single","A1C59M3HPCO503","pain","5","","72","H","0","img/none_selected.jpg","0","1","0","","0.3928583167","false","205","","0.3928583167","main_expt","","0.1498191458","","0.2378968556","","0.3434557908","","","","","",""
"325","","bandit","281","662570","0.0-243.0-0.0","09911370","wem/bandit_single","A1C59M3HPCO503","pain","5","","72","H","0","img/none_selected.jpg","0","0","1","","0.4066069638","false","206","","0.4066069638","main_expt","","0.1173401749","","0.2621799838","","0.3670462125","","","","","",""
"63","","bandit","282","664408","0.0-244.0-0.0","09911370","wem/bandit_single","A1C59M3HPCO503","pain","5","","72","H","0","img/none_selected.jpg","0","1","0","","0.3973448409","false","207","","0.3973448409","main_expt","","0.131911627","","0.2751860601","","0.3762900352","","","","","",""
"116","","bandit","283","666296","0.0-245.0-0.0","09911370","wem/bandit_single","A1C59M3HPCO503","pain","5","","72","H","0","img/none_selected.jpg","0","1","0","","0.4149937731","false","208","","0.4149937731","main_expt","","0.121614138","","0.2449975294","","0.3619644859","","","","","",""
"9","","bandit","284","668076","0.0-246.0-0.0","09911370","wem/bandit_single","A1C59M3HPCO503","pain","5","","72","H","0","img/none_selected.jpg","0","1","0","","0.4174336027","false","209","","0.4174336027","main_expt","","0.1301565943","","0.2260792918","","0.3487947413","","","","","",""
"32","","bandit","285","669880","0.0-247.0-0.0","09911370","wem/bandit_single","A1C59M3HPCO503","pain","5","","72","H","0","img/none_selected.jpg","0","0","1","","0.3969791934","false","210","","0.3969791934","main_expt","","0.09603783024","","0.2506868781","","0.3019817091","","","","","",""
"13","","bandit","286","671656","0.0-248.0-0.0","09911370","wem/bandit_single","A1C59M3HPCO503","pain","5","","72","H","0","img/none_selected.jpg","0","1","0","","0.4109689779","false","211","","0.4109689779","main_expt","","0.09853312819","","0.2364470615","","0.3322841588","","","","","",""
"375","","bandit","287","673795","0.0-249.0-0.0","09911370","wem/bandit_single","A1C59M3HPCO503","pain","5","","72","H","0","img/none_selected.jpg","0","1","0","","0.3870841375","false","212","","0.3870841375","main_expt","","0.08497623984","","0.2097336517","","0.3257981887","","","","","",""
"26","","bandit","288","675585","0.0-250.0-0.0","09911370","wem/bandit_single","A1C59M3HPCO503","pain","5","","72","H","0","img/none_selected.jpg","0","0","1","","0.3702451026","false","213","","0.3702451026","main_expt","","0.0690536233","","0.223293056","","0.299150427","","","","","",""
"428","","bandit","289","677788","0.0-251.0-0.0","09911370","wem/bandit_single","A1C59M3HPCO503","pain","5","","72","H","0","img/none_selected.jpg","0","1","0","","0.4052473305","false","214","","0.4052473305","main_expt","","0.05607702273","","0.2797804449","","0.2841516905","","","","","",""
"80","","bandit","290","679636","0.0-252.0-0.0","09911370","wem/bandit_single","A1C59M3HPCO503","pain","5","","72","H","0","img/none_selected.jpg","0","1","0","","0.4003088938","false","215","","0.4003088938","main_expt","","0.0612243178","","0.3307304153","","0.2421432752","","","","","",""
"365","","bandit","291","681775","0.0-253.0-0.0","09911370","wem/bandit_single","A1C59M3HPCO503","pain","5","","72","H","0","img/none_selected.jpg","0","0","1","","0.4087675299","false","216","","0.4087675299","main_expt","","0.03010565971","","0.3341057131","","0.1705338946","","","","","",""
"12","","bandit","292","683555","0.0-254.0-0.0","09911370","wem/bandit_single","A1C59M3HPCO503","pain","5","","72","H","0","img/none_selected.jpg","0","0","1","","0.3947963157","false","217","","0.3947963157","main_expt","","0.05034411961","","0.3086359365","","0.219014384","","","","","",""
"330","","bandit","293","685659","0.0-255.0-0.0","09911370","wem/bandit_single","A1C59M3HPCO503","pain","5","","72","H","0","img/none_selected.jpg","0","0","1","","0.4200256015","false","218","","0.4200256015","main_expt","","0.03278593655","","0.370061562","","0.2135739311","","","","","",""
"130","","bandit","294","687566","0.0-256.0-0.0","09911370","wem/bandit_single","A1C59M3HPCO503","pain","5","","76","L","3","","0","0","1","","0.1719688778","false","219","","0.3845181055","main_expt","","0.02968551415","","0.3425962001","","0.1719688778","","","","","",""
"271","","bandit","295","689601","0.0-257.0-0.0","09911370","wem/bandit_single","A1C59M3HPCO503","pain","5","","74","J","1","","0","0","1","","0.03392365282","false","220","","0.3200105211","main_expt","","0.03392365282","","0.3200162658","","0.1017501311","","","","","",""
"90","","bandit","296","691464","0.0-258.0-0.0","09911370","wem/bandit_single","A1C59M3HPCO503","pain","5","","72","H","0","img/none_selected.jpg","0","1","0","","0.297673658","false","221","","0.297673658","main_expt","","0.03139192041","","0.3209906652","","0.1121412156","","","","","",""
"108","","bandit","297","693346","0.0-259.0-0.0","09911370","wem/bandit_single","A1C59M3HPCO503","pain","5","","72","H","0","img/none_selected.jpg","0","1","0","","0.2963768597","false","222","","0.2963768597","main_expt","","0.02842311261","","0.3013890172","","0.1091313961","","","","","",""
"26","","bandit","298","695149","0.0-260.0-0.0","09911370","wem/bandit_single","A1C59M3HPCO503","pain","5","","72","H","0","img/none_selected.jpg","0","0","1","","0.2927297303","false","223","","0.2927297303","main_expt","","0.0287580325","","0.2614115174","","0.09983876589","","","","","",""
"90","","bandit","299","697012","0.0-261.0-0.0","09911370","wem/bandit_single","A1C59M3HPCO503","pain","5","","72","H","0","img/none_selected.jpg","0","0","1","","0.2751498343","false","224","","0.2751498343","main_expt","","0.02300930076","","0.2490141009","","0.1018501693","","","","","",""
"14","","bandit","300","698791","0.0-262.0-0.0","09911370","wem/bandit_single","A1C59M3HPCO503","pain","5","","75","K","2","","0","0","1","","0.263459589","false","225","","0.2377617529","main_expt","","0.02989568437","","0.263459589","","0.1222407881","","","","","",""
"30","","bandit","301","700585","0.0-263.0-0.0","09911370","wem/bandit_single","A1C59M3HPCO503","pain","5","","72","H","0","img/none_selected.jpg","0","0","1","","0.2137681397","false","226","","0.2137681397","main_expt","","0.04233903912","","0.2828917593","","0.1332846515","","","","","",""
"1","","bandit","302","702348","0.0-264.0-0.0","09911370","wem/bandit_single","A1C59M3HPCO503","pain","5","","72","H","0","img/none_selected.jpg","0","0","1","","0.1830623781","false","227","","0.1830623781","main_expt","","0.0317259717","","0.2635957152","","0.1606351014","","","","","",""
"451","","bandit","303","704560","0.0-265.0-0.0","09911370","wem/bandit_single","A1C59M3HPCO503","pain","5","","72","H","0","img/none_selected.jpg","0","0","1","","0.1665925442","false","228","","0.1665925442","main_expt","","0.04253553249","","0.259674247","","0.1292420082","","","","","",""
"87","","bandit","304","706410","0.0-266.0-0.0","09911370","wem/bandit_single","A1C59M3HPCO503","pain","5","","74","J","1","","0","0","1","","0.06761640147","false","229","","0.2136718414","main_expt","","0.06761640147","","0.2737318667","","0.1281284096","","","","","",""
"41","","bandit","305","708219","0.0-267.0-0.0","09911370","wem/bandit_single","A1C59M3HPCO503","pain","5","","76","L","3","","0","0","1","","0.0791291566","false","230","","0.2435987791","main_expt","","0.08572380951","","0.3195589589","","0.0791291566","","","","","",""
"71","","bandit","306","710057","0.0-268.0-0.0","09911370","wem/bandit_single","A1C59M3HPCO503","pain","5","","76","L","3","","0","0","1","","0.10920453","false","231","","0.2566168121","main_expt","","0.07272236896","","0.3304270948","","0.10920453","","","","","",""
"342","","bandit","307","712175","0.0-269.0-0.0","09911370","wem/bandit_single","A1C59M3HPCO503","pain","5","","72","H","0","img/none_selected.jpg","0","0","1","","0.2152843379","false","232","","0.2152843379","main_expt","","0.0735724775","","0.2806951239","","0.167261158","","","","","",""
"12","","bandit","308","713953","0.0-270.0-0.0","09911370","wem/bandit_single","A1C59M3HPCO503","pain","5","","75","K","2","","0","1","0","","0.3115261247","false","233","","0.2361400262","main_expt","","0.06465645962","","0.3115261247","","0.1078973024","","","","","",""
"323","","bandit","309","716038","0.0-271.0-0.0","09911370","wem/bandit_single","A1C59M3HPCO503","pain","5","","75","K","2","","0","1","0","","0.3001083946","false","234","","0.2575526348","main_expt","","0.04279198238","","0.3001083946","","0.2366146445","","","","","",""
"14","","bandit","310","717824","0.0-272.0-0.0","09911370","wem/bandit_single","A1C59M3HPCO503","pain","5","","75","K","2","","0","0","1","","0.2768541542","false","235","","0.2828430508","main_expt","","0.06672803397","","0.2768541542","","0.2393051992","","","","","",""
"285","","bandit","311","719891","0.0-273.0-0.0","09911370","wem/bandit_single","A1C59M3HPCO503","pain","5","","75","K","2","","0","0","1","","0.332362789","false","236","","0.2860482958","main_expt","","0.07100342573","","0.332362789","","0.2976693115","","","","","",""
"44","","bandit","312","721710","0.0-274.0-0.0","09911370","wem/bandit_single","A1C59M3HPCO503","pain","5","","75","K","2","","0","1","0","","0.3408832027","false","237","","0.2783023894","main_expt","","0.03680589181","","0.3408832027","","0.2674299269","","","","","",""
"17","","bandit","313","723491","0.0-275.0-0.0","09911370","wem/bandit_single","A1C59M3HPCO503","pain","5","","75","K","2","","0","0","1","","0.362117859","false","238","","0.2644861187","main_expt","","0.02733344458","","0.362117859","","0.2647207175","","","","","",""
"300","","bandit","314","725556","0.0-276.0-0.0","09911370","wem/bandit_single","A1C59M3HPCO503","pain","5","","75","K","2","","0","0","1","","0.3574250999","false","239","","0.3186717024","main_expt","","0.01831396817","","0.3574250999","","0.1936342125","","","","","",""
"352","","bandit","315","727688","0.0-277.0-0.0","09911370","wem/bandit_single","A1C59M3HPCO503","pain","5","","75","K","2","","0","0","1","","0.290436356","false","240","","0.3360375491","main_expt","","0.01383764992","","0.290436356","","0.2382432393","","","","","",""
"293","","bandit","316","729744","0.0-278.0-0.0","09911370","wem/bandit_single","A1C59M3HPCO503","pain","5","","74","J","1","","0","0","1","","0.0277662638","false","241","","0.3386213473","main_expt","","0.0277662638","","0.3414967811","","0.2984572788","","","","","",""
"418","","bandit","317","731935","0.0-279.0-0.0","09911370","wem/bandit_single","A1C59M3HPCO503","pain","5","","72","H","0","img/none_selected.jpg","0","0","1","","0.3523037021","false","242","","0.3523037021","main_expt","","0.04064120638","","0.3778608287","","0.2927867707","","","","","",""
"345","","bandit","318","734053","0.0-280.0-0.0","09911370","wem/bandit_single","A1C59M3HPCO503","pain","5","","75","K","2","","0","0","1","","0.3552630766","false","243","","0.360543067","main_expt","","0.04640587852","","0.3552630766","","0.2870713985","","","","","",""
"57","","bandit","319","735890","0.0-281.0-0.0","09911370","wem/bandit_single","A1C59M3HPCO503","pain","5","","76","L","3","","0","0","1","","0.2882437102","false","244","","0.3728786331","main_expt","","0.06567084485","","0.3538674815","","0.2882437102","","","","","",""
"359","","bandit","320","738020","0.0-282.0-0.0","09911370","wem/bandit_single","A1C59M3HPCO503","pain","5","","74","J","1","","0","0","1","","0.1069305933","false","245","","0.3736501537","main_expt","","0.1069305933","","0.3592745223","","0.3125457984","","","","","",""
"165","","bandit","321","739960","0.0-283.0-0.0","09911370","wem/bandit_single","A1C59M3HPCO503","pain","5","","72","H","0","img/none_selected.jpg","0","0","1","","0.3880614915","false","246","","0.3880614915","main_expt","","0.07318543846","","0.3784559109","","0.2949331023","","","","","",""
"10","","bandit","322","741748","0.0-284.0-0.0","09911370","wem/bandit_single","A1C59M3HPCO503","pain","5","","75","K","2","","0","0","1","","0.3871101473","false","247","","0.3906355486","main_expt","","0.06866628372","","0.3871101473","","0.3557375168","","","","","",""
"121","","bandit","323","743654","0.0-285.0-0.0","09911370","wem/bandit_single","A1C59M3HPCO503","pain","5","","74","J","1","","0","0","1","","0.06101724449","false","248","","0.3713177951","main_expt","","0.06101724449","","0.366594806","","0.3190142928","","","","","",""
"4","","bandit","324","745420","0.0-286.0-0.0","09911370","wem/bandit_single","A1C59M3HPCO503","pain","5","","76","L","3","","0","0","1","","0.2946857214","false","249","","0.2887643678","main_expt","","0.07132197128","","0.35265903","","0.2946857214","","","","","",""
"279","","bandit","325","747483","0.0-287.0-0.0","09911370","wem/bandit_single","A1C59M3HPCO503","pain","5","","72","H","0","img/none_selected.jpg","0","0","1","","0.3503459773","false","250","","0.3503459773","main_expt","","0.04991986053","","0.3725690128","","0.285145352","","","","","",""
"31","","bandit","326","749285","0.0-288.0-0.0","09911370","wem/bandit_single","A1C59M3HPCO503","pain","5","","74","J","1","","0","0","1","","0.087584861","false","251","","0.3900307368","main_expt","","0.087584861","","0.3516217444","","0.2572530626","","","","","",""
"76","","bandit","327","751141","0.0-289.0-0.0","09911370","wem/bandit_single","A1C59M3HPCO503","pain","5","","75","K","2","","0","0","1","","0.3478664427","false","252","","0.3998204568","main_expt","","0.1089760904","","0.3478664427","","0.206609756","","","","","",""
"30","","bandit","328","752939","0.0-290.0-0.0","09911370","wem/bandit_single","A1C59M3HPCO503","pain","5","","76","L","3","","0","0","1","","0.2526850855","false","253","","0.4062214202","main_expt","","0.1389783028","","0.2845216812","","0.2526850855","","","","","",""
"34","","bandit","329","754740","0.0-291.0-0.0","09911370","wem/bandit_single","A1C59M3HPCO503","pain","5","","72","H","0","img/none_selected.jpg","0","0","1","","0.434330363","false","254","","0.434330363","main_expt","","0.1438582992","","0.3395138109","","0.2143143283","","","","","",""
"83","","bandit","330","756592","0.0-292.0-0.0","09911370","wem/bandit_single","A1C59M3HPCO503","pain","5","","74","J","1","","0","0","1","","0.1341592381","false","255","","0.463361135","main_expt","","0.1341592381","","0.284072963","","0.2330346229","","","","","",""
"36","","bandit","331","758400","0.0-293.0-0.0","09911370","wem/bandit_single","A1C59M3HPCO503","pain","5","","75","K","2","","0","1","0","","0.2791977035","false","256","","0.4513325925","main_expt","","0.1539827047","","0.2791977035","","0.1707848091","","","","","",""
"24","","bandit","332","760204","0.0-294.0-0.0","09911370","wem/bandit_single","A1C59M3HPCO503","pain","5","","75","K","2","","0","0","1","","0.2827618753","false","257","","0.4493477618","main_expt","","0.1067893116","","0.2827618753","","0.204762461","","","","","",""
"18","","bandit","333","761999","0.0-295.0-0.0","09911370","wem/bandit_single","A1C59M3HPCO503","pain","5","","75","K","2","","0","0","1","","0.2367173663","false","258","","0.4586876348","main_expt","","0.05021154971","","0.2367173663","","0.1678630312","","","","","",""
"113","","bandit","334","763875","0.0-296.0-0.0","09911370","wem/bandit_single","A1C59M3HPCO503","pain","5","","75","K","2","","0","0","1","","0.2715647874","false","259","","0.45931789","main_expt","","0.04357518244","","0.2715647874","","0.1739170557","","","","","",""
"14","","bandit","335","765652","0.0-297.0-0.0","09911370","wem/bandit_single","A1C59M3HPCO503","pain","5","","76","L","3","","0","0","1","","0.1848885371","false","260","","0.4583289396","main_expt","","0.05606835832","","0.2310951927","","0.1848885371","","","","","",""
"337","","bandit","336","767755","0.0-298.0-0.0","09911370","wem/bandit_single","A1C59M3HPCO503","pain","5","","72","H","0","img/none_selected.jpg","0","1","0","","0.4470277171","false","261","","0.4470277171","main_expt","","0.05035703518","","0.2297288133","","0.2258440324","","","","","",""
"2","","bandit","337","769527","0.0-299.0-0.0","09911370","wem/bandit_single","A1C59M3HPCO503","pain","5","","72","H","0","img/none_selected.jpg","0","0","1","","0.457772586","false","262","","0.457772586","main_expt","","0.04352905051","","0.2072969611","","0.2167220908","","","","","",""
"358","","bandit","338","771653","0.0-300.0-0.0","09911370","wem/bandit_single","A1C59M3HPCO503","pain","5","","72","H","0","img/none_selected.jpg","0","0","1","","0.417694616","false","263","","0.417694616","main_expt","","0.0373968872","","0.2427077321","","0.2118780444","","","","","",""
"123","","bandit","339","773544","0.0-301.0-0.0","09911370","wem/bandit_single","A1C59M3HPCO503","pain","5","","74","J","1","","0","0","1","","0.04440415955","false","264","","0.4214939516","main_expt","","0.04440415955","","0.3052561595","","0.1870566281","","","","","",""
"96","","bandit","340","775416","0.0-302.0-0.0","09911370","wem/bandit_single","A1C59M3HPCO503","pain","5","","72","H","0","img/none_selected.jpg","0","1","0","","0.413465883","false","265","","0.413465883","main_expt","","0.0139225964","","0.3000319327","","0.1706127143","","","","","",""
"273","","bandit","341","777454","0.0-303.0-0.0","09911370","wem/bandit_single","A1C59M3HPCO503","pain","5","","72","H","0","img/none_selected.jpg","0","1","0","","0.4116424673","false","266","","0.4116424673","main_expt","","0.01259799349","","0.3134404232","","0.1693140566","","","","","",""
"16","","bandit","342","779250","0.0-304.0-0.0","09911370","wem/bandit_single","A1C59M3HPCO503","pain","5","","72","H","0","img/none_selected.jpg","0","0","1","","0.3863145418","false","267","","0.3863145418","main_expt","","0.00740451457","","0.3066387991","","0.1753800763","","","","","",""
"47","","bandit","343","781079","0.0-305.0-0.0","09911370","wem/bandit_single","A1C59M3HPCO503","pain","5","","72","H","0","img/none_selected.jpg","0","0","1","","0.4265221664","false","268","","0.4265221664","main_expt","","0.004693585052","","0.3058482798","","0.1918786918","","","","","",""
"22","","bandit","344","782866","0.0-306.0-0.0","09911370","wem/bandit_single","A1C59M3HPCO503","pain","5","","72","H","0","img/none_selected.jpg","0","1","0","","0.4515898034","false","269","","0.4515898034","main_expt","","0.004824061053","","0.2523051309","","0.1999989265","","","","","",""
"386","","bandit","345","785031","0.0-307.0-0.0","09911370","wem/bandit_single","A1C59M3HPCO503","pain","5","","72","H","0","img/none_selected.jpg","0","1","0","","0.4467147125","false","270","","0.4467147125","main_expt","","0.006174480496","","0.2663701485","","0.2211747839","","","","","",""
"2","","bandit","346","786802","0.0-308.0-0.0","09911370","wem/bandit_single","A1C59M3HPCO503","pain","5","","72","H","0","img/none_selected.jpg","0","1","0","","0.4582909467","false","271","","0.4582909467","main_expt","","0.00832103917","","0.2485798686","","0.2404792593","","","","","",""
"119","","bandit","347","788700","0.0-309.0-0.0","09911370","wem/bandit_single","A1C59M3HPCO503","pain","5","","72","H","0","img/none_selected.jpg","0","0","1","","0.4709209778","false","272","","0.4709209778","main_expt","","0.00728594366","","0.2345495347","","0.2558589782","","","","","",""
"397","","bandit","348","790868","0.0-310.0-0.0","09911370","wem/bandit_single","A1C59M3HPCO503","pain","5","","72","H","0","img/none_selected.jpg","0","0","1","","0.4660917397","false","273","","0.4660917397","main_expt","","0.01114453755","","0.2137032991","","0.1700432942","","","","","",""
"190","","bandit","349","792821","0.0-311.0-0.0","09911370","wem/bandit_single","A1C59M3HPCO503","pain","5","","72","H","0","img/none_selected.jpg","0","0","1","","0.4639522763","false","274","","0.4639522763","main_expt","","0.01390500062","","0.2108512091","","0.2452429789","","","","","",""
"0","","bandit","350","794604","0.0-312.0-0.0","09911370","wem/bandit_single","A1C59M3HPCO503","pain","5","","72","H","0","img/none_selected.jpg","0","0","1","","0.4559735555","false","275","","0.4559735555","main_expt","","0.01307999715","","0.1817434844","","0.2540496776","","","","","",""
"107","","bandit","351","796478","0.0-313.0-0.0","09911370","wem/bandit_single","A1C59M3HPCO503","pain","5","","76","L","3","","0","0","1","","0.2816965905","false","276","","0.4246507461","main_expt","","0.01650166306","","0.2037179719","","0.2816965905","","","","","",""
"333","","bandit","352","798582","0.0-314.0-0.0","09911370","wem/bandit_single","A1C59M3HPCO503","pain","5","","74","J","1","","0","0","1","","0.02228120093","false","277","","0.4061878557","main_expt","","0.02228120093","","0.211691867","","0.2757967379","","","","","",""
"94","","bandit","353","800446","0.0-315.0-0.0","09911370","wem/bandit_single","A1C59M3HPCO503","pain","5","","75","K","2","","0","0","1","","0.1725584367","false","278","","0.4185559707","main_expt","","0.01609054627","","0.1725584367","","0.3233086266","","","","","",""
"29","","bandit","354","802256","0.0-316.0-0.0","09911370","wem/bandit_single","A1C59M3HPCO503","pain","5","","72","H","0","img/none_selected.jpg","0","1","0","","0.4048416859","false","279","","0.4048416859","main_expt","","0.03276024715","","0.1976152383","","0.3447853064","","","","","",""
"20","","bandit","355","804049","0.0-317.0-0.0","09911370","wem/bandit_single","A1C59M3HPCO503","pain","5","","72","H","0","img/none_selected.jpg","0","0","1","","0.3930733378","false","280","","0.3930733378","main_expt","","0.045813934","","0.2245419331","","0.2944080033","","","","","",""
"9","","bandit","356","805834","0.0-318.0-0.0","09911370","wem/bandit_single","A1C59M3HPCO503","pain","5","","72","H","0","img/none_selected.jpg","0","0","1","","0.3722539572","false","281","","0.3722539572","main_expt","","0.07680660156","","0.2649095144","","0.3455536282","","","","","",""
"517","","bandit","357","808118","0.0-319.0-0.0","09911370","wem/bandit_single","A1C59M3HPCO503","pain","5","","72","H","0","img/none_selected.jpg","0","1","0","","0.392640689","false","282","","0.392640689","main_expt","","0.08989395926","","0.2440542309","","0.3002636441","","","","","",""
"36","","bandit","358","809920","0.0-320.0-0.0","09911370","wem/bandit_single","A1C59M3HPCO503","pain","5","","72","H","0","img/none_selected.jpg","0","1","0","","0.3657249804","false","283","","0.3657249804","main_expt","","0.1096048843","","0.3074658718","","0.2433385189","","","","","",""
"5","","bandit","359","811706","0.0-321.0-0.0","09911370","wem/bandit_single","A1C59M3HPCO503","pain","5","","72","H","0","img/none_selected.jpg","0","0","1","","0.3625644972","false","284","","0.3625644972","main_expt","","0.1082817284","","0.3224089974","","0.2108667552","","","","","",""
"287","","bandit","360","813771","0.0-322.0-0.0","09911370","wem/bandit_single","A1C59M3HPCO503","pain","5","","72","H","0","img/none_selected.jpg","0","0","1","","0.3054288932","false","285","","0.3054288932","main_expt","","0.1629804938","","0.3022873968","","0.2340218901","","","","","",""
"52","","bandit","361","815586","0.0-323.0-0.0","09911370","wem/bandit_single","A1C59M3HPCO503","pain","5","","72","H","0","img/none_selected.jpg","0","0","1","","0.3391155559","false","286","","0.3391155559","main_expt","","0.1852598429","","0.2889410052","","0.2499238339","","","","","",""
"346","","bandit","362","817704","0.0-324.0-0.0","09911370","wem/bandit_single","A1C59M3HPCO503","pain","5","","76","L","3","","0","0","1","","0.2334780882","false","287","","0.3328791194","main_expt","","0.2065414002","","0.3151816804","","0.2334780882","","","","","",""
"289","","bandit","363","819764","0.0-325.0-0.0","09911370","wem/bandit_single","A1C59M3HPCO503","pain","5","","72","H","0","img/none_selected.jpg","0","0","1","","0.3011075564","false","288","","0.3011075564","main_expt","","0.1811366591","","0.3489654206","","0.2784320663","","","","","",""
"351","","bandit","364","821888","0.0-326.0-0.0","09911370","wem/bandit_single","A1C59M3HPCO503","pain","5","","74","J","1","","0","1","0","","0.1202209304","false","289","","0.3326814497","main_expt","","0.1202209304","","0.3673528387","","0.2751214951","","","","","",""
"474","","bandit","365","824127","0.0-327.0-0.0","09911370","wem/bandit_single","A1C59M3HPCO503","pain","5","","74","J","1","","0","0","1","","0.1453470377","false","290","","0.3289320066","main_expt","","0.1453470377","","0.3156989172","","0.304381699","","","","","",""
"282","","bandit","366","826193","0.0-328.0-0.0","09911370","wem/bandit_single","A1C59M3HPCO503","pain","5","","74","J","1","","0","0","1","","0.1477070836","false","291","","0.3074380044","main_expt","","0.1477070836","","0.3731423443","","0.2447169523","","","","","",""
"324","","bandit","367","828291","0.0-329.0-0.0","09911370","wem/bandit_single","A1C59M3HPCO503","pain","5","","72","H","0","img/none_selected.jpg","0","1","0","","0.247625386","false","292","","0.247625386","main_expt","","0.1442574827","","0.3819638953","","0.2422140582","","","","","",""
"71","","bandit","368","830137","0.0-330.0-0.0","09911370","wem/bandit_single","A1C59M3HPCO503","pain","5","","72","H","0","img/none_selected.jpg","0","0","1","","0.2438381571","false","293","","0.2438381571","main_expt","","0.1219757373","","0.3709780048","","0.1480972705","","","","","",""
