"rt","responses","trial_type","trial_index","time_elapsed","internal_node_id","subjID","study","MID","cond","drift","key_press","respCharCode","respKey","respChoiceNum","respChoice","gems","bombs","no_reward","GemPrChosen","BombPrChosen","practice","trial_counter","WinPr_0","LosePr_0","trial_label","WinPr_1","LosePr_1","WinPr_2","LosePr_2","WinPr_3","LosePr_3","Q0","Q1","Q2","gender","age","ethnicity"
"3512","{""Q0"":""A1ZB2NY0F9QNP0""}","survey-text","0","3523","0.0-0.0","11201798","wem/bandit_single","A1ZB2NY0F9QNP0","gain","6","","","","","","","","","","","","","","","","","","","","","","","","","","",""
"1390","","text","1","5919","0.0-1.0","11201798","wem/bandit_single","A1ZB2NY0F9QNP0","gain","6","32","","","","","","","","","","","","","","","","","","","","","","","","","",""
"2752","","text","2","8673","0.0-2.0","11201798","wem/bandit_single","A1ZB2NY0F9QNP0","gain","6","32","","","","","","","","","","","","","","","","","","","","","","","","","",""
"9960","","text","3","18635","0.0-3.0","11201798","wem/bandit_single","A1ZB2NY0F9QNP0","gain","6","32","","","","","","","","","","","","","","","","","","","","","","","","","",""
"9387","","text","4","28026","0.0-4.0","11201798","wem/bandit_single","A1ZB2NY0F9QNP0","gain","6","32","","","","","","","","","","","","","","","","","","","","","","","","","",""
"6681","","text","5","34709","0.0-5.0","11201798","wem/bandit_single","A1ZB2NY0F9QNP0","gain","6","32","","","","","","","","","","","","","","","","","","","","","","","","","",""
"3507","","text","6","38219","0.0-6.0","11201798","wem/bandit_single","A1ZB2NY0F9QNP0","gain","6","32","","","","","","","","","","","","","","","","","","","","","","","","","",""
"2093","","text","7","40314","0.0-7.0","11201798","wem/bandit_single","A1ZB2NY0F9QNP0","gain","6","32","","","","","","","","","","","","","","","","","","","","","","","","","",""
"2237","","text","8","42555","0.0-8.0","11201798","wem/bandit_single","A1ZB2NY0F9QNP0","gain","6","32","","","","","","","","","","","","","","","","","","","","","","","","","",""
"2460","","text","9","45017","0.0-9.0","11201798","wem/bandit_single","A1ZB2NY0F9QNP0","gain","6","32","","","","","","","","","","","","","","","","","","","","","","","","","",""
"1966","","text","10","46986","0.0-10.0","11201798","wem/bandit_single","A1ZB2NY0F9QNP0","gain","6","32","","","","","","","","","","","","","","","","","","","","","","","","","",""
"9377","","text","11","56366","0.0-11.0","11201798","wem/bandit_single","A1ZB2NY0F9QNP0","gain","6","32","","","","","","","","","","","","","","","","","","","","","","","","","",""
"1129","","bandit","12","59008","0.0-12.0-0.0","11201798","wem/bandit_single","A1ZB2NY0F9QNP0","gain","6","","74","J","0","img/none_selected_demo.jpg","0","0","1","0","0","true","0","0","0","","","","","","","","","","","","",""
"789","","bandit","13","61559","0.0-13.0-0.0","11201798","wem/bandit_single","A1ZB2NY0F9QNP0","gain","6","","75","K","0","img/none_selected_demo.jpg","0","0","1","0","0","true","0","0","0","","","","","","","","","","","","",""
"2138","","text","14","63951","0.0-14.0","11201798","wem/bandit_single","A1ZB2NY0F9QNP0","gain","6","32","","","","","","","","","","","","","","","","","","","","","","","","","",""
"908","","text","15","64861","0.0-15.0","11201798","wem/bandit_single","A1ZB2NY0F9QNP0","gain","6","32","","","","","","","","","","","","","","","","","","","","","","","","","",""
"1838","","text","16","66702","0.0-16.0","11201798","wem/bandit_single","A1ZB2NY0F9QNP0","gain","6","32","","","","","","","","","","","","","","","","","","","","","","","","","",""
"1765","","text","17","68470","0.0-17.0","11201798","wem/bandit_single","A1ZB2NY0F9QNP0","gain","6","32","","","","","","","","","","","","","","","","","","","","","","","","","",""
"1761","","bandit","18","71740","0.0-18.0-0.0","11201798","wem/bandit_single","A1ZB2NY0F9QNP0","gain","6","","74","J","0","img/none_selected_demo.jpg","1","0","0","0.8","0","true","0","0.8","0","80_20_practice","0.2","0","","","","","","","","","",""
"239","","bandit","19","73741","0.0-18.0-1.0","11201798","wem/bandit_single","A1ZB2NY0F9QNP0","gain","6","","74","J","0","img/none_selected_demo.jpg","0","0","1","0.8","0","true","0","0.8","0","80_20_practice","0.2","0","","","","","","","","","",""
"297","","bandit","20","75799","0.0-18.0-2.0","11201798","wem/bandit_single","A1ZB2NY0F9QNP0","gain","6","","74","J","0","img/none_selected_demo.jpg","1","0","0","0.8","0","true","0","0.8","0","80_20_practice","0.2","0","","","","","","","","","",""
"132","","bandit","21","77691","0.0-18.0-3.0","11201798","wem/bandit_single","A1ZB2NY0F9QNP0","gain","6","","74","J","0","img/none_selected_demo.jpg","1","0","0","0.8","0","true","0","0.8","0","80_20_practice","0.2","0","","","","","","","","","",""
"161","","bandit","22","79613","0.0-18.0-4.0","11201798","wem/bandit_single","A1ZB2NY0F9QNP0","gain","6","","75","K","1","","0","0","1","0.2","0","true","0","0.8","0","80_20_practice","0.2","0","","","","","","","","","",""
"100","","bandit","23","81475","0.0-18.0-5.0","11201798","wem/bandit_single","A1ZB2NY0F9QNP0","gain","6","","75","K","1","","0","0","1","0.2","0","true","0","0.8","0","80_20_practice","0.2","0","","","","","","","","","",""
"64","","bandit","24","83300","0.0-18.0-6.0","11201798","wem/bandit_single","A1ZB2NY0F9QNP0","gain","6","","75","K","1","","0","0","1","0.2","0","true","0","0.8","0","80_20_practice","0.2","0","","","","","","","","","",""
"47","","bandit","25","85109","0.0-18.0-7.0","11201798","wem/bandit_single","A1ZB2NY0F9QNP0","gain","6","","74","J","0","img/none_selected_demo.jpg","1","0","0","0.8","0","true","0","0.8","0","80_20_practice","0.2","0","","","","","","","","","",""
"96","","bandit","26","86967","0.0-18.0-8.0","11201798","wem/bandit_single","A1ZB2NY0F9QNP0","gain","6","","74","J","0","img/none_selected_demo.jpg","1","0","0","0.8","0","true","0","0.8","0","80_20_practice","0.2","0","","","","","","","","","",""
"61","","bandit","27","88789","0.0-18.0-9.0","11201798","wem/bandit_single","A1ZB2NY0F9QNP0","gain","6","","74","J","0","img/none_selected_demo.jpg","1","0","0","0.8","0","true","0","0.8","0","80_20_practice","0.2","0","","","","","","","","","",""
"118","","bandit","28","90669","0.0-18.0-10.0","11201798","wem/bandit_single","A1ZB2NY0F9QNP0","gain","6","","74","J","0","img/none_selected_demo.jpg","1","0","0","0.8","0","true","0","0.8","0","80_20_practice","0.2","0","","","","","","","","","",""
"54","","bandit","29","92484","0.0-18.0-11.0","11201798","wem/bandit_single","A1ZB2NY0F9QNP0","gain","6","","74","J","0","img/none_selected_demo.jpg","1","0","0","0.8","0","true","0","0.8","0","80_20_practice","0.2","0","","","","","","","","","",""
"638","","bandit","30","94918","0.0-18.0-12.0","11201798","wem/bandit_single","A1ZB2NY0F9QNP0","gain","6","","74","J","0","img/none_selected_demo.jpg","1","0","0","0.8","0","true","0","0.8","0","80_20_practice","0.2","0","","","","","","","","","",""
"115","","bandit","31","96797","0.0-18.0-13.0","11201798","wem/bandit_single","A1ZB2NY0F9QNP0","gain","6","","74","J","0","img/none_selected_demo.jpg","1","0","0","0.8","0","true","0","0.8","0","80_20_practice","0.2","0","","","","","","","","","",""
"57","","bandit","32","98613","0.0-18.0-14.0","11201798","wem/bandit_single","A1ZB2NY0F9QNP0","gain","6","","74","J","0","img/none_selected_demo.jpg","1","0","0","0.8","0","true","0","0.8","0","80_20_practice","0.2","0","","","","","","","","","",""
"934","","bandit","33","101306","0.0-18.0-15.0","11201798","wem/bandit_single","A1ZB2NY0F9QNP0","gain","6","","74","J","0","img/none_selected_demo.jpg","0","0","1","0.8","0","true","0","0.8","0","80_20_practice","0.2","0","","","","","","","","","",""
"105","","bandit","34","103173","0.0-18.0-16.0","11201798","wem/bandit_single","A1ZB2NY0F9QNP0","gain","6","","74","J","0","img/none_selected_demo.jpg","1","0","0","0.8","0","true","0","0.8","0","80_20_practice","0.2","0","","","","","","","","","",""
"182","","bandit","35","105115","0.0-18.0-17.0","11201798","wem/bandit_single","A1ZB2NY0F9QNP0","gain","6","","74","J","0","img/none_selected_demo.jpg","1","0","0","0.8","0","true","0","0.8","0","80_20_practice","0.2","0","","","","","","","","","",""
"548","","bandit","36","107427","0.0-18.0-18.0","11201798","wem/bandit_single","A1ZB2NY0F9QNP0","gain","6","","74","J","0","img/none_selected_demo.jpg","1","0","0","0.8","0","true","0","0.8","0","80_20_practice","0.2","0","","","","","","","","","",""
"801","","bandit","37","109990","0.0-18.0-19.0","11201798","wem/bandit_single","A1ZB2NY0F9QNP0","gain","6","","74","J","0","img/none_selected_demo.jpg","0","0","1","0.8","0","true","0","0.8","0","80_20_practice","0.2","0","","","","","","","","","",""
"6508","","text","38","116755","0.0-19.0","11201798","wem/bandit_single","A1ZB2NY0F9QNP0","gain","6","32","","","","","","","","","","","","","","","","","","","","","","","","","",""
"1514","","bandit","39","119777","0.0-20.0-0.0","11201798","wem/bandit_single","A1ZB2NY0F9QNP0","gain","6","","74","J","0","img/none_selected_demo.jpg","0","0","1","0","0","true","0","0","0","","0","0","","","","","","","","","",""
"4561","","text","40","124593","0.0-21.0","11201798","wem/bandit_single","A1ZB2NY0F9QNP0","gain","6","32","","","","","","","","","","","","","","","","","","","","","","","","","",""
"2439","","text","41","127034","0.0-22.0","11201798","wem/bandit_single","A1ZB2NY0F9QNP0","gain","6","32","","","","","","","","","","","","","","","","","","","","","","","","","",""
"2213","","text","42","129250","0.0-23.0","11201798","wem/bandit_single","A1ZB2NY0F9QNP0","gain","6","32","","","","","","","","","","","","","","","","","","","","","","","","","",""
"1819","","text","43","131072","0.0-24.0","11201798","wem/bandit_single","A1ZB2NY0F9QNP0","gain","6","32","","","","","","","","","","","","","","","","","","","","","","","","","",""
"9994","","text","44","141069","0.0-25.0","11201798","wem/bandit_single","A1ZB2NY0F9QNP0","gain","6","32","","","","","","","","","","","","","","","","","","","","","","","","","",""
"3297","","text","45","144370","0.0-26.0","11201798","wem/bandit_single","A1ZB2NY0F9QNP0","gain","6","32","","","","","","","","","","","","","","","","","","","","","","","","","",""
"2732","","text","46","147105","0.0-27.0","11201798","wem/bandit_single","A1ZB2NY0F9QNP0","gain","6","32","","","","","","","","","","","","","","","","","","","","","","","","","",""
"2148","","text","47","149256","0.0-28.0","11201798","wem/bandit_single","A1ZB2NY0F9QNP0","gain","6","32","","","","","","","","","","","","","","","","","","","","","","","","","",""
"29199","","text","48","178457","0.0-29.0","11201798","wem/bandit_single","A1ZB2NY0F9QNP0","gain","6","32","","","","","","","","","","","","","","","","","","","","","","","","","",""
"1522","","text","49","179984","0.0-30.0","11201798","wem/bandit_single","A1ZB2NY0F9QNP0","gain","6","32","","","","","","","","","","","","","","","","","","","","","","","","","",""
"4966","","text","50","184952","0.0-31.0","11201798","wem/bandit_single","A1ZB2NY0F9QNP0","gain","6","32","","","","","","","","","","","","","","","","","","","","","","","","","",""
"729","","bandit","51","187192","0.0-32.0-0.0","11201798","wem/bandit_single","A1ZB2NY0F9QNP0","gain","6","","74","J","1","","1","0","0","0.2","0","true","0","0.8","0","full_practice","0.2","0","0.6","0","0.2","0","","","","","",""
"102","","bandit","52","189054","0.0-32.0-1.0","11201798","wem/bandit_single","A1ZB2NY0F9QNP0","gain","6","","74","J","1","","0","0","1","0.2","0","true","0","0.8","0","full_practice","0.2","0","0.6","0","0.2","0","","","","","",""
"87","","bandit","53","190906","0.0-32.0-2.0","11201798","wem/bandit_single","A1ZB2NY0F9QNP0","gain","6","","74","J","1","","1","0","0","0.2","0","true","0","0.8","0","full_practice","0.2","0","0.6","0","0.2","0","","","","","",""
"98","","bandit","54","192767","0.0-32.0-3.0","11201798","wem/bandit_single","A1ZB2NY0F9QNP0","gain","6","","74","J","1","","0","0","1","0.2","0","true","0","0.8","0","full_practice","0.2","0","0.6","0","0.2","0","","","","","",""
"70","","bandit","55","194600","0.0-32.0-4.0","11201798","wem/bandit_single","A1ZB2NY0F9QNP0","gain","6","","74","J","1","","0","0","1","0.2","0","true","0","0.8","0","full_practice","0.2","0","0.6","0","0.2","0","","","","","",""
"47","","bandit","56","196407","0.0-32.0-5.0","11201798","wem/bandit_single","A1ZB2NY0F9QNP0","gain","6","","75","K","2","","0","0","1","0.6","0","true","0","0.8","0","full_practice","0.2","0","0.6","0","0.2","0","","","","","",""
"87","","bandit","57","198257","0.0-32.0-6.0","11201798","wem/bandit_single","A1ZB2NY0F9QNP0","gain","6","","75","K","2","","1","0","0","0.6","0","true","0","0.8","0","full_practice","0.2","0","0.6","0","0.2","0","","","","","",""
"109","","bandit","58","200128","0.0-32.0-7.0","11201798","wem/bandit_single","A1ZB2NY0F9QNP0","gain","6","","75","K","2","","1","0","0","0.6","0","true","0","0.8","0","full_practice","0.2","0","0.6","0","0.2","0","","","","","",""
"46","","bandit","59","201935","0.0-32.0-8.0","11201798","wem/bandit_single","A1ZB2NY0F9QNP0","gain","6","","75","K","2","","0","0","1","0.6","0","true","0","0.8","0","full_practice","0.2","0","0.6","0","0.2","0","","","","","",""
"189","","bandit","60","203886","0.0-32.0-9.0","11201798","wem/bandit_single","A1ZB2NY0F9QNP0","gain","6","","76","L","3","","0","0","1","0.2","0","true","0","0.8","0","full_practice","0.2","0","0.6","0","0.2","0","","","","","",""
"45","","bandit","61","205695","0.0-32.0-10.0","11201798","wem/bandit_single","A1ZB2NY0F9QNP0","gain","6","","76","L","3","","1","0","0","0.2","0","true","0","0.8","0","full_practice","0.2","0","0.6","0","0.2","0","","","","","",""
"102","","bandit","62","207558","0.0-32.0-11.0","11201798","wem/bandit_single","A1ZB2NY0F9QNP0","gain","6","","76","L","3","","1","0","0","0.2","0","true","0","0.8","0","full_practice","0.2","0","0.6","0","0.2","0","","","","","",""
"81","","bandit","63","209399","0.0-32.0-12.0","11201798","wem/bandit_single","A1ZB2NY0F9QNP0","gain","6","","76","L","3","","0","0","1","0.2","0","true","0","0.8","0","full_practice","0.2","0","0.6","0","0.2","0","","","","","",""
"208","","bandit","64","211368","0.0-32.0-13.0","11201798","wem/bandit_single","A1ZB2NY0F9QNP0","gain","6","","76","L","3","","0","0","1","0.2","0","true","0","0.8","0","full_practice","0.2","0","0.6","0","0.2","0","","","","","",""
"23","","bandit","65","213150","0.0-32.0-14.0","11201798","wem/bandit_single","A1ZB2NY0F9QNP0","gain","6","","72","H","0","img/none_selected.jpg","0","0","1","0.8","0","true","0","0.8","0","full_practice","0.2","0","0.6","0","0.2","0","","","","","",""
"134","","bandit","66","215046","0.0-32.0-15.0","11201798","wem/bandit_single","A1ZB2NY0F9QNP0","gain","6","","72","H","0","img/none_selected.jpg","1","0","0","0.8","0","true","0","0.8","0","full_practice","0.2","0","0.6","0","0.2","0","","","","","",""
"86","","bandit","67","216908","0.0-32.0-16.0","11201798","wem/bandit_single","A1ZB2NY0F9QNP0","gain","6","","72","H","0","img/none_selected.jpg","1","0","0","0.8","0","true","0","0.8","0","full_practice","0.2","0","0.6","0","0.2","0","","","","","",""
"104","","bandit","68","218775","0.0-32.0-17.0","11201798","wem/bandit_single","A1ZB2NY0F9QNP0","gain","6","","72","H","0","img/none_selected.jpg","1","0","0","0.8","0","true","0","0.8","0","full_practice","0.2","0","0.6","0","0.2","0","","","","","",""
"909","","bandit","69","221447","0.0-32.0-18.0","11201798","wem/bandit_single","A1ZB2NY0F9QNP0","gain","6","","72","H","0","img/none_selected.jpg","1","0","0","0.8","0","true","0","0.8","0","full_practice","0.2","0","0.6","0","0.2","0","","","","","",""
"182","","bandit","70","223390","0.0-32.0-19.0","11201798","wem/bandit_single","A1ZB2NY0F9QNP0","gain","6","","72","H","0","img/none_selected.jpg","1","0","0","0.8","0","true","0","0.8","0","full_practice","0.2","0","0.6","0","0.2","0","","","","","",""
"1994","","text","71","225646","0.0-33.0","11201798","wem/bandit_single","A1ZB2NY0F9QNP0","gain","6","32","","","","","","","","","","","","","","","","","","","","","","","","","",""
"9208","","text","72","235860","0.0-34.0","11201798","wem/bandit_single","A1ZB2NY0F9QNP0","gain","6","32","","","","","","","","","","","","","","","","","","","","","","","","","",""
"4512","","text","73","240374","0.0-35.0","11201798","wem/bandit_single","A1ZB2NY0F9QNP0","gain","6","32","","","","","","","","","","","","","","","","","","","","","","","","","",""
"3838","","text","74","244216","0.0-36.0","11201798","wem/bandit_single","A1ZB2NY0F9QNP0","gain","6","32","","","","","","","","","","","","","","","","","","","","","","","","","",""
"2544","","text","75","246766","0.0-37.0","11201798","wem/bandit_single","A1ZB2NY0F9QNP0","gain","6","32","","","","","","","","","","","","","","","","","","","","","","","","","",""
"832","","bandit","76","249109","0.0-38.0-0.0","11201798","wem/bandit_single","A1ZB2NY0F9QNP0","gain","6","","72","H","0","img/none_selected.jpg","0","0","1","0.1142009487","","false","1","0.1142009487","","main_expt","0.1940838181","","0.3785571591","","0.1623639982","","","","","","",""
"111","","bandit","77","250982","0.0-39.0-0.0","11201798","wem/bandit_single","A1ZB2NY0F9QNP0","gain","6","","72","H","0","img/none_selected.jpg","0","0","1","0.09165924831","","false","2","0.09165924831","","main_expt","0.2410489397","","0.3894156921","","0.1864124343","","","","","","",""
"647","","bandit","78","253413","0.0-40.0-0.0","11201798","wem/bandit_single","A1ZB2NY0F9QNP0","gain","6","","74","J","1","","0","0","1","0.2645422736","","false","3","0.1174954382","","main_expt","0.2645422736","","0.4125386255","","0.1494323563","","","","","","",""
"180","","bandit","79","255356","0.0-41.0-0.0","11201798","wem/bandit_single","A1ZB2NY0F9QNP0","gain","6","","74","J","1","","1","0","0","0.1984909652","","false","4","0.1426329369","","main_expt","0.1984909652","","0.3990363537","","0.1266436655","","","","","","",""
"136","","bandit","80","257255","0.0-42.0-0.0","11201798","wem/bandit_single","A1ZB2NY0F9QNP0","gain","6","","74","J","1","","0","0","1","0.1239860826","","false","5","0.1503595054","","main_expt","0.1239860826","","0.454435597","","0.1476492511","","","","","","",""
"179","","bandit","81","259196","0.0-43.0-0.0","11201798","wem/bandit_single","A1ZB2NY0F9QNP0","gain","6","","74","J","1","","0","0","1","0.06805906468","","false","6","0.1646450236","","main_expt","0.06805906468","","0.4583077461","","0.1525625276","","","","","","",""
"142","","bandit","82","261100","0.0-44.0-0.0","11201798","wem/bandit_single","A1ZB2NY0F9QNP0","gain","6","","75","K","2","","1","0","0","0.4617786505","","false","7","0.2031930874","","main_expt","0.05890971721","","0.4617786505","","0.1856713893","","","","","","",""
"103","","bandit","83","262965","0.0-45.0-0.0","11201798","wem/bandit_single","A1ZB2NY0F9QNP0","gain","6","","75","K","2","","1","0","0","0.475168559","","false","8","0.181996894","","main_expt","0.0832196585","","0.475168559","","0.2108076934","","","","","","",""
"77","","bandit","84","264806","0.0-46.0-0.0","11201798","wem/bandit_single","A1ZB2NY0F9QNP0","gain","6","","75","K","2","","1","0","0","0.458325554","","false","9","0.1673845292","","main_expt","0.1325638406","","0.458325554","","0.1956497028","","","","","","",""
"108","","bandit","85","266678","0.0-47.0-0.0","11201798","wem/bandit_single","A1ZB2NY0F9QNP0","gain","6","","75","K","2","","0","0","1","0.4316924572","","false","10","0.2328473308","","main_expt","0.1196898321","","0.4316924572","","0.1582923175","","","","","","",""
"164","","bandit","86","268607","0.0-48.0-0.0","11201798","wem/bandit_single","A1ZB2NY0F9QNP0","gain","6","","75","K","2","","1","0","0","0.3756511011","","false","11","0.20589494","","main_expt","0.1103103944","","0.3756511011","","0.167734997","","","","","","",""
"44","","bandit","87","270414","0.0-49.0-0.0","11201798","wem/bandit_single","A1ZB2NY0F9QNP0","gain","6","","75","K","2","","1","0","0","0.3549088727","","false","12","0.2246944015","","main_expt","0.06819125589","","0.3549088727","","0.2150601968","","","","","","",""
"85","","bandit","88","272260","0.0-50.0-0.0","11201798","wem/bandit_single","A1ZB2NY0F9QNP0","gain","6","","75","K","2","","0","0","1","0.3455803359","","false","13","0.2613447163","","main_expt","0.07076675629","","0.3455803359","","0.252216208","","","","","","",""
"94","","bandit","89","274117","0.0-51.0-0.0","11201798","wem/bandit_single","A1ZB2NY0F9QNP0","gain","6","","75","K","2","","0","0","1","0.3809937316","","false","14","0.212655478","","main_expt","0.09241451512","","0.3809937316","","0.2184022087","","","","","","",""
"75","","bandit","90","275954","0.0-52.0-0.0","11201798","wem/bandit_single","A1ZB2NY0F9QNP0","gain","6","","75","K","2","","0","0","1","0.3479508526","","false","15","0.1679070286","","main_expt","0.07205700739","","0.3479508526","","0.210005203","","","","","","",""
"70","","bandit","91","277787","0.0-53.0-0.0","11201798","wem/bandit_single","A1ZB2NY0F9QNP0","gain","6","","76","L","3","","0","0","1","0.2402495983","","false","16","0.1774383452","","main_expt","0.04760190598","","0.3287514515","","0.2402495983","","","","","","",""
"105","","bandit","92","279653","0.0-54.0-0.0","11201798","wem/bandit_single","A1ZB2NY0F9QNP0","gain","6","","76","L","3","","1","0","0","0.2766196603","","false","17","0.1562672395","","main_expt","0.03958098904","","0.4008698656","","0.2766196603","","","","","","",""
"157","","bandit","93","281573","0.0-55.0-0.0","11201798","wem/bandit_single","A1ZB2NY0F9QNP0","gain","6","","76","L","3","","0","0","1","0.3193638145","","false","18","0.1407597156","","main_expt","0.03128671198","","0.3845126264","","0.3193638145","","","","","","",""
"119","","bandit","94","283461","0.0-56.0-0.0","11201798","wem/bandit_single","A1ZB2NY0F9QNP0","gain","6","","76","L","3","","0","0","1","0.2953318626","","false","19","0.1310890834","","main_expt","0.04453616628","","0.3979941068","","0.2953318626","","","","","","",""
"259","","bandit","95","285483","0.0-57.0-0.0","11201798","wem/bandit_single","A1ZB2NY0F9QNP0","gain","6","","72","H","0","img/none_selected.jpg","0","0","1","0.1317163977","","false","20","0.1317163977","","main_expt","0.04596917346","","0.3920029867","","0.3007143328","","","","","","",""
"40","","bandit","96","287287","0.0-58.0-0.0","11201798","wem/bandit_single","A1ZB2NY0F9QNP0","gain","6","","74","J","1","","0","0","1","0.04297504417","","false","21","0.1752537558","","main_expt","0.04297504417","","0.4057752261","","0.3105995928","","","","","","",""
"11","","bandit","97","289061","0.0-59.0-0.0","11201798","wem/bandit_single","A1ZB2NY0F9QNP0","gain","6","","75","K","2","","0","0","1","0.4072420822","","false","22","0.2064983175","","main_expt","0.04739698515","","0.4072420822","","0.3742057862","","","","","","",""
"18","","bandit","98","290841","0.0-60.0-0.0","11201798","wem/bandit_single","A1ZB2NY0F9QNP0","gain","6","","74","J","1","","0","0","1","0.08003173613","","false","23","0.216691321","","main_expt","0.08003173613","","0.3798298113","","0.3439758112","","","","","","",""
"2","","bandit","99","292606","0.0-61.0-0.0","11201798","wem/bandit_single","A1ZB2NY0F9QNP0","gain","6","","74","J","1","","0","0","1","0.09868307827","","false","24","0.2342773894","","main_expt","0.09868307827","","0.3329856024","","0.3549138733","","","","","","",""
"658","","bandit","100","295027","0.0-62.0-0.0","11201798","wem/bandit_single","A1ZB2NY0F9QNP0","gain","6","","76","L","3","","1","0","0","0.3811330683","","false","25","0.2378870173","","main_expt","0.07950464875","","0.3337381726","","0.3811330683","","","","","","",""
"126","","bandit","101","296959","0.0-63.0-0.0","11201798","wem/bandit_single","A1ZB2NY0F9QNP0","gain","6","","76","L","3","","0","0","1","0.3131907418","","false","26","0.2555438901","","main_expt","0.09697268327","","0.3650510818","","0.3131907418","","","","","","",""
"114","","bandit","102","298865","0.0-64.0-0.0","11201798","wem/bandit_single","A1ZB2NY0F9QNP0","gain","6","","76","L","3","","1","0","0","0.3210571327","","false","27","0.2487754609","","main_expt","0.09831328215","","0.3930286133","","0.3210571327","","","","","","",""
"134","","bandit","103","300762","0.0-65.0-0.0","11201798","wem/bandit_single","A1ZB2NY0F9QNP0","gain","6","","76","L","3","","1","0","0","0.3350138966","","false","28","0.2023297646","","main_expt","0.08798585883","","0.3849328395","","0.3350138966","","","","","","",""
"76","","bandit","104","302599","0.0-66.0-0.0","11201798","wem/bandit_single","A1ZB2NY0F9QNP0","gain","6","","76","L","3","","1","0","0","0.3491704597","","false","29","0.1824385616","","main_expt","0.1001400419","","0.3635333449","","0.3491704597","","","","","","",""
"57","","bandit","105","304419","0.0-67.0-0.0","11201798","wem/bandit_single","A1ZB2NY0F9QNP0","gain","6","","76","L","3","","0","0","1","0.3515390533","","false","30","0.2108935763","","main_expt","0.100360092","","0.3870800473","","0.3515390533","","","","","","",""
"110","","bandit","106","306292","0.0-68.0-0.0","11201798","wem/bandit_single","A1ZB2NY0F9QNP0","gain","6","","76","L","3","","0","0","1","0.3116189274","","false","31","0.2212072473","","main_expt","0.1235489826","","0.407818568","","0.3116189274","","","","","","",""
"49","","bandit","107","308109","0.0-69.0-0.0","11201798","wem/bandit_single","A1ZB2NY0F9QNP0","gain","6","","76","L","3","","0","0","1","0.2923613921","","false","32","0.2349080289","","main_expt","0.0999088058","","0.4365503818","","0.2923613921","","","","","","",""
"634","","bandit","108","310506","0.0-70.0-0.0","11201798","wem/bandit_single","A1ZB2NY0F9QNP0","gain","6","","76","L","3","","0","0","1","0.2833872006","","false","33","0.2233211346","","main_expt","0.1229353218","","0.438397095","","0.2833872006","","","","","","",""
"280","","bandit","109","312548","0.0-71.0-0.0","11201798","wem/bandit_single","A1ZB2NY0F9QNP0","gain","6","","72","H","0","img/none_selected.jpg","1","0","0","0.2328620384","","false","34","0.2328620384","","main_expt","0.1174339591","","0.4225996483","","0.251012165","","","","","","",""
"126","","bandit","110","314436","0.0-72.0-0.0","11201798","wem/bandit_single","A1ZB2NY0F9QNP0","gain","6","","72","H","0","img/none_selected.jpg","0","0","1","0.2442853791","","false","35","0.2442853791","","main_expt","0.08922948311","","0.3719427837","","0.2150204629","","","","","","",""
"75","","bandit","111","316275","0.0-73.0-0.0","11201798","wem/bandit_single","A1ZB2NY0F9QNP0","gain","6","","72","H","0","img/none_selected.jpg","0","0","1","0.2536962779","","false","36","0.2536962779","","main_expt","0.1065429935","","0.3643608465","","0.2003821391","","","","","","",""
"164","","bandit","112","318204","0.0-74.0-0.0","11201798","wem/bandit_single","A1ZB2NY0F9QNP0","gain","6","","74","J","1","","0","0","1","0.119331244","","false","37","0.1968410568","","main_expt","0.119331244","","0.3951734682","","0.1584744983","","","","","","",""
"122","","bandit","113","320088","0.0-75.0-0.0","11201798","wem/bandit_single","A1ZB2NY0F9QNP0","gain","6","","74","J","1","","0","0","1","0.1140529394","","false","38","0.1903576104","","main_expt","0.1140529394","","0.4106313244","","0.1107345946","","","","","","",""
"97","","bandit","114","321946","0.0-76.0-0.0","11201798","wem/bandit_single","A1ZB2NY0F9QNP0","gain","6","","76","L","3","","0","0","1","0.1922112034","","false","39","0.2094560733","","main_expt","0.1377706652","","0.385877281","","0.1922112034","","","","","","",""
"501","","bandit","115","324210","0.0-77.0-0.0","11201798","wem/bandit_single","A1ZB2NY0F9QNP0","gain","6","","75","K","2","","1","0","0","0.3814638094","","false","40","0.2157952434","","main_expt","0.1686011578","","0.3814638094","","0.202991566","","","","","","",""
"109","","bandit","116","326083","0.0-78.0-0.0","11201798","wem/bandit_single","A1ZB2NY0F9QNP0","gain","6","","75","K","2","","0","0","1","0.3569976603","","false","41","0.1982376225","","main_expt","0.1640814413","","0.3569976603","","0.257249123","","","","","","",""
"91","","bandit","117","327939","0.0-79.0-0.0","11201798","wem/bandit_single","A1ZB2NY0F9QNP0","gain","6","","75","K","2","","0","0","1","0.3254656301","","false","42","0.1815133425","","main_expt","0.1444461896","","0.3254656301","","0.3139605103","","","","","","",""
"49","","bandit","118","329753","0.0-80.0-0.0","11201798","wem/bandit_single","A1ZB2NY0F9QNP0","gain","6","","75","K","2","","1","0","0","0.3061667188","","false","43","0.1804658283","","main_expt","0.1466097136","","0.3061667188","","0.2859416922","","","","","","",""
"133","","bandit","119","331649","0.0-81.0-0.0","11201798","wem/bandit_single","A1ZB2NY0F9QNP0","gain","6","","75","K","2","","0","0","1","0.3247162798","","false","44","0.1453808853","","main_expt","0.1701376127","","0.3247162798","","0.2344477797","","","","","","",""
"102","","bandit","120","333515","0.0-82.0-0.0","11201798","wem/bandit_single","A1ZB2NY0F9QNP0","gain","6","","75","K","2","","0","0","1","0.3464274235","","false","45","0.1975985391","","main_expt","0.2382164817","","0.3464274235","","0.25278305","","","","","","",""
"238","","bandit","121","335515","0.0-83.0-0.0","11201798","wem/bandit_single","A1ZB2NY0F9QNP0","gain","6","","72","H","0","img/none_selected.jpg","0","0","1","0.2099331931","","false","46","0.2099331931","","main_expt","0.2817064876","","0.2853596265","","0.2447001663","","","","","","",""
"27","","bandit","122","337305","0.0-84.0-0.0","11201798","wem/bandit_single","A1ZB2NY0F9QNP0","gain","6","","74","J","1","","0","0","1","0.3449614965","","false","47","0.2373708448","","main_expt","0.3449614965","","0.2781892211","","0.2439886488","","","","","","",""
"0","","bandit","123","339067","0.0-85.0-0.0","11201798","wem/bandit_single","A1ZB2NY0F9QNP0","gain","6","","72","H","0","img/none_selected.jpg","0","0","1","0.2929879582","","false","48","0.2929879582","","main_expt","0.2846403666","","0.2802769371","","0.3453423138","","","","","","",""
"218","","bandit","124","341048","0.0-86.0-0.0","11201798","wem/bandit_single","A1ZB2NY0F9QNP0","gain","6","","75","K","2","","0","0","1","0.3162769287","","false","49","0.2643709298","","main_expt","0.3292227521","","0.3162769287","","0.3208634608","","","","","","",""
"447","","bandit","125","343258","0.0-87.0-0.0","11201798","wem/bandit_single","A1ZB2NY0F9QNP0","gain","6","","76","L","3","","0","0","1","0.2600740437","","false","50","0.2666646559","","main_expt","0.270904054","","0.2524095143","","0.2600740437","","","","","","",""
"141","","bandit","126","345162","0.0-88.0-0.0","11201798","wem/bandit_single","A1ZB2NY0F9QNP0","gain","6","","74","J","1","","1","0","0","0.2503066232","","false","51","0.2550538978","","main_expt","0.2503066232","","0.2630113652","","0.2451527442","","","","","","",""
"260","","bandit","127","347186","0.0-89.0-0.0","11201798","wem/bandit_single","A1ZB2NY0F9QNP0","gain","6","","74","J","1","","0","0","1","0.2405173112","","false","52","0.3235330097","","main_expt","0.2405173112","","0.2707742251","","0.1882651979","","","","","","",""
"70","","bandit","128","349020","0.0-90.0-0.0","11201798","wem/bandit_single","A1ZB2NY0F9QNP0","gain","6","","74","J","1","","0","0","1","0.2966352861","","false","53","0.347433539","","main_expt","0.2966352861","","0.2150274285","","0.1930778153","","","","","","",""
"2","","bandit","129","350784","0.0-91.0-0.0","11201798","wem/bandit_single","A1ZB2NY0F9QNP0","gain","6","","74","J","1","","1","0","0","0.2887198369","","false","54","0.3368202787","","main_expt","0.2887198369","","0.2326572497","","0.2216955806","","","","","","",""
"202","","bandit","130","352752","0.0-92.0-0.0","11201798","wem/bandit_single","A1ZB2NY0F9QNP0","gain","6","","74","J","1","","0","0","1","0.2801160178","","false","55","0.3503124627","","main_expt","0.2801160178","","0.2134399586","","0.2422165651","","","","","","",""
"126","","bandit","131","354641","0.0-93.0-0.0","11201798","wem/bandit_single","A1ZB2NY0F9QNP0","gain","6","","74","J","1","","0","0","1","0.3022415889","","false","56","0.368841946","","main_expt","0.3022415889","","0.2394891912","","0.228979269","","","","","","",""
"92","","bandit","132","356499","0.0-94.0-0.0","11201798","wem/bandit_single","A1ZB2NY0F9QNP0","gain","6","","75","K","2","","0","0","1","0.2942469327","","false","57","0.3883837061","","main_expt","0.3300995428","","0.2942469327","","0.243325051","","","","","","",""
"105","","bandit","133","358370","0.0-95.0-0.0","11201798","wem/bandit_single","A1ZB2NY0F9QNP0","gain","6","","75","K","2","","0","0","1","0.369295693","","false","58","0.4116863428","","main_expt","0.3393984951","","0.369295693","","0.2326991071","","","","","","",""
"318","","bandit","134","360451","0.0-96.0-0.0","11201798","wem/bandit_single","A1ZB2NY0F9QNP0","gain","6","","72","H","0","img/none_selected.jpg","0","0","1","0.3980375199","","false","59","0.3980375199","","main_expt","0.3592245678","","0.3663837161","","0.2480349675","","","","","","",""
"121","","bandit","135","362335","0.0-97.0-0.0","11201798","wem/bandit_single","A1ZB2NY0F9QNP0","gain","6","","76","L","3","","0","0","1","0.2591134247","","false","60","0.3849919156","","main_expt","0.3431938453","","0.3578669063","","0.2591134247","","","","","","",""
"533","","bandit","136","364634","0.0-98.0-0.0","11201798","wem/bandit_single","A1ZB2NY0F9QNP0","gain","6","","76","L","3","","1","0","0","0.2828027123","","false","61","0.3822359719","","main_expt","0.3622980041","","0.3901807011","","0.2828027123","","","","","","",""
"276","","bandit","137","366673","0.0-99.0-0.0","11201798","wem/bandit_single","A1ZB2NY0F9QNP0","gain","6","","76","L","3","","0","0","1","0.2645717152","","false","62","0.3356955782","","main_expt","0.3898917795","","0.4199484271","","0.2645717152","","","","","","",""
"612","","bandit","138","369049","0.0-100.0-0.0","11201798","wem/bandit_single","A1ZB2NY0F9QNP0","gain","6","","76","L","3","","1","0","0","0.3164731366","","false","63","0.2961333539","","main_expt","0.3730814422","","0.431710707","","0.3164731366","","","","","","",""
"181","","bandit","139","371013","0.0-101.0-0.0","11201798","wem/bandit_single","A1ZB2NY0F9QNP0","gain","6","","76","L","3","","1","0","0","0.3549458842","","false","64","0.3332154777","","main_expt","0.359514794","","0.4302834116","","0.3549458842","","","","","","",""
"102","","bandit","140","372879","0.0-102.0-0.0","11201798","wem/bandit_single","A1ZB2NY0F9QNP0","gain","6","","76","L","3","","0","0","1","0.288515421","","false","65","0.35785358","","main_expt","0.3114607296","","0.3985691748","","0.288515421","","","","","","",""
"126","","bandit","141","374770","0.0-103.0-0.0","11201798","wem/bandit_single","A1ZB2NY0F9QNP0","gain","6","","76","L","3","","1","0","0","0.3011993237","","false","66","0.406057841","","main_expt","0.2942291023","","0.4041176093","","0.3011993237","","","","","","",""
"90","","bandit","142","376625","0.0-104.0-0.0","11201798","wem/bandit_single","A1ZB2NY0F9QNP0","gain","6","","76","L","3","","1","0","0","0.345072876","","false","67","0.4196038874","","main_expt","0.3320533568","","0.4007812862","","0.345072876","","","","","","",""
"173","","bandit","143","378560","0.0-105.0-0.0","11201798","wem/bandit_single","A1ZB2NY0F9QNP0","gain","6","","76","L","3","","0","0","1","0.3196529892","","false","68","0.3890604874","","main_expt","0.3600975808","","0.4294162969","","0.3196529892","","","","","","",""
"5","","bandit","144","380327","0.0-106.0-0.0","11201798","wem/bandit_single","A1ZB2NY0F9QNP0","gain","6","","76","L","3","","0","0","1","0.3649702463","","false","69","0.4084138829","","main_expt","0.2872110667","","0.3767619451","","0.3649702463","","","","","","",""
"613","","bandit","145","382703","0.0-107.0-0.0","11201798","wem/bandit_single","A1ZB2NY0F9QNP0","gain","6","","76","L","3","","0","0","1","0.356932825","","false","70","0.3468887804","","main_expt","0.295141158","","0.3777248691","","0.356932825","","","","","","",""
"72","","bandit","146","384535","0.0-108.0-0.0","11201798","wem/bandit_single","A1ZB2NY0F9QNP0","gain","6","","75","K","2","","0","0","1","0.3795242786","","false","71","0.341524862","","main_expt","0.3206647592","","0.3795242786","","0.3835678776","","","","","","",""
"77","","bandit","147","386374","0.0-109.0-0.0","11201798","wem/bandit_single","A1ZB2NY0F9QNP0","gain","6","","75","K","2","","1","0","0","0.3665841139","","false","72","0.3749246652","","main_expt","0.3264000429","","0.3665841139","","0.4212385026","","","","","","",""
"277","","bandit","148","388416","0.0-110.0-0.0","11201798","wem/bandit_single","A1ZB2NY0F9QNP0","gain","6","","75","K","2","","0","0","1","0.3651794524","","false","73","0.3871824506","","main_expt","0.333972891","","0.3651794524","","0.4261424303","","","","","","",""
"148","","bandit","149","390327","0.0-111.0-0.0","11201798","wem/bandit_single","A1ZB2NY0F9QNP0","gain","6","","74","J","1","","1","0","0","0.3616968722","","false","74","0.3721906724","","main_expt","0.3616968722","","0.3550305672","","0.3977974162","","","","","","",""
"193","","bandit","150","392283","0.0-112.0-0.0","11201798","wem/bandit_single","A1ZB2NY0F9QNP0","gain","6","","74","J","1","","1","0","0","0.3975057441","","false","75","0.3111946895","","main_expt","0.3975057441","","0.2927321298","","0.4267201321","","","","","","",""
"240","","bandit","151","394288","0.0-113.0-0.0","11201798","wem/bandit_single","A1ZB2NY0F9QNP0","gain","6","","74","J","1","","1","0","0","0.3807363423","","false","76","0.3336428477","","main_expt","0.3807363423","","0.2842047713","","0.4263250047","","","","","","",""
"83","","bandit","152","396135","0.0-114.0-0.0","11201798","wem/bandit_single","A1ZB2NY0F9QNP0","gain","6","","74","J","1","","0","0","1","0.394346207","","false","77","0.2972108807","","main_expt","0.394346207","","0.291961298","","0.4081139898","","","","","","",""
"156","","bandit","153","398057","0.0-115.0-0.0","11201798","wem/bandit_single","A1ZB2NY0F9QNP0","gain","6","","74","J","1","","0","0","1","0.4130135997","","false","78","0.3500338334","","main_expt","0.4130135997","","0.2772504781","","0.4081745619","","","","","","",""
"113","","bandit","154","399934","0.0-116.0-0.0","11201798","wem/bandit_single","A1ZB2NY0F9QNP0","gain","6","","74","J","1","","0","0","1","0.388257836","","false","79","0.3382579744","","main_expt","0.388257836","","0.2910266255","","0.4210543479","","","","","","",""
"86","","bandit","155","401781","0.0-117.0-0.0","11201798","wem/bandit_single","A1ZB2NY0F9QNP0","gain","6","","74","J","1","","0","0","1","0.402189785","","false","80","0.2848378437","","main_expt","0.402189785","","0.3236474027","","0.4173400146","","","","","","",""
"208","","bandit","156","403752","0.0-118.0-0.0","11201798","wem/bandit_single","A1ZB2NY0F9QNP0","gain","6","","72","H","0","img/none_selected.jpg","1","0","0","0.2824957966","","false","81","0.2824957966","","main_expt","0.4188164015","","0.3171491255","","0.3876294662","","","","","","",""
"77","","bandit","157","405593","0.0-119.0-0.0","11201798","wem/bandit_single","A1ZB2NY0F9QNP0","gain","6","","72","H","0","img/none_selected.jpg","0","0","1","0.2921189703","","false","82","0.2921189703","","main_expt","0.3923487362","","0.3253049084","","0.3960397656","","","","","","",""
"163","","bandit","158","407517","0.0-120.0-0.0","11201798","wem/bandit_single","A1ZB2NY0F9QNP0","gain","6","","72","H","0","img/none_selected.jpg","0","0","1","0.346808059","","false","83","0.346808059","","main_expt","0.3765831671","","0.2650825447","","0.4048972575","","","","","","",""
"168","","bandit","159","409448","0.0-121.0-0.0","11201798","wem/bandit_single","A1ZB2NY0F9QNP0","gain","6","","76","L","3","","1","0","0","0.4261464595","","false","84","0.3142369957","","main_expt","0.3744655151","","0.2860936523","","0.4261464595","","","","","","",""
"74","","bandit","160","411287","0.0-122.0-0.0","11201798","wem/bandit_single","A1ZB2NY0F9QNP0","gain","6","","76","L","3","","1","0","0","0.4252889048","","false","85","0.3336664699","","main_expt","0.4097897279","","0.2965161573","","0.4252889048","","","","","","",""
"289","","bandit","161","413340","0.0-123.0-0.0","11201798","wem/bandit_single","A1ZB2NY0F9QNP0","gain","6","","76","L","3","","0","0","1","0.4234238012","","false","86","0.3487181938","","main_expt","0.4365994201","","0.2718920201","","0.4234238012","","","","","","",""
"113","","bandit","162","415216","0.0-124.0-0.0","11201798","wem/bandit_single","A1ZB2NY0F9QNP0","gain","6","","76","L","3","","0","0","1","0.4493325849","","false","87","0.3595256023","","main_expt","0.4485753971","","0.2663647104","","0.4493325849","","","","","","",""
"419","","bandit","163","417399","0.0-125.0-0.0","11201798","wem/bandit_single","A1ZB2NY0F9QNP0","gain","6","","76","L","3","","1","0","0","0.4618336953","","false","88","0.3633435887","","main_expt","0.4682155013","","0.2505207396","","0.4618336953","","","","","","",""
"222","","bandit","164","419386","0.0-126.0-0.0","11201798","wem/bandit_single","A1ZB2NY0F9QNP0","gain","6","","76","L","3","","1","0","0","0.470357169","","false","89","0.3301577903","","main_expt","0.455546077","","0.2380326514","","0.470357169","","","","","","",""
"131","","bandit","165","421280","0.0-127.0-0.0","11201798","wem/bandit_single","A1ZB2NY0F9QNP0","gain","6","","76","L","3","","0","0","1","0.4756012524","","false","90","0.2983975746","","main_expt","0.4648286352","","0.2825572521","","0.4756012524","","","","","","",""
"114","","bandit","166","423159","0.0-128.0-0.0","11201798","wem/bandit_single","A1ZB2NY0F9QNP0","gain","6","","76","L","3","","0","0","1","0.4661355378","","false","91","0.2708507867","","main_expt","0.4597569826","","0.3629334232","","0.4661355378","","","","","","",""
"115","","bandit","167","425039","0.0-129.0-0.0","11201798","wem/bandit_single","A1ZB2NY0F9QNP0","gain","6","","76","L","3","","1","0","0","0.4640816948","","false","92","0.2025174094","","main_expt","0.4636055165","","0.4318733099","","0.4640816948","","","","","","",""
"188","","bandit","168","426993","0.0-130.0-0.0","11201798","wem/bandit_single","A1ZB2NY0F9QNP0","gain","6","","76","L","3","","0","0","1","0.4745032584","","false","93","0.1991535532","","main_expt","0.4344757896","","0.4354989634","","0.4745032584","","","","","","",""
"73","","bandit","169","428831","0.0-131.0-0.0","11201798","wem/bandit_single","A1ZB2NY0F9QNP0","gain","6","","76","L","3","","0","0","1","0.4713826624","","false","94","0.2072674268","","main_expt","0.4540573516","","0.4569950804","","0.4713826624","","","","","","",""
"60","","bandit","170","430656","0.0-132.0-0.0","11201798","wem/bandit_single","A1ZB2NY0F9QNP0","gain","6","","74","J","1","","0","0","1","0.467393544","","false","95","0.2139910976","","main_expt","0.467393544","","0.4626037768","","0.4518091014","","","","","","",""
"95","","bandit","171","432518","0.0-133.0-0.0","11201798","wem/bandit_single","A1ZB2NY0F9QNP0","gain","6","","74","J","1","","0","0","1","0.4523779492","","false","96","0.1714021876","","main_expt","0.4523779492","","0.4632162831","","0.4610288074","","","","","","",""
"99","","bandit","172","434383","0.0-134.0-0.0","11201798","wem/bandit_single","A1ZB2NY0F9QNP0","gain","6","","75","K","2","","0","0","1","0.4574348148","","false","97","0.1776734449","","main_expt","0.4734298584","","0.4574348148","","0.4610411697","","","","","","",""
"35","","bandit","173","436182","0.0-135.0-0.0","11201798","wem/bandit_single","A1ZB2NY0F9QNP0","gain","6","","72","H","0","img/none_selected.jpg","0","0","1","0.2143852757","","false","98","0.2143852757","","main_expt","0.4822123269","","0.4551488225","","0.4658458747","","","","","","",""
"118","","bandit","174","438064","0.0-136.0-0.0","11201798","wem/bandit_single","A1ZB2NY0F9QNP0","gain","6","","75","K","2","","1","0","0","0.4604873832","","false","99","0.2341872784","","main_expt","0.4829706494","","0.4604873832","","0.4372748216","","","","","","",""
"56","","bandit","175","439892","0.0-137.0-0.0","11201798","wem/bandit_single","A1ZB2NY0F9QNP0","gain","6","","75","K","2","","1","0","0","0.4364445071","","false","100","0.2835639283","","main_expt","0.4918551361","","0.4364445071","","0.4237986198","","","","","","",""
"64","","bandit","176","441733","0.0-138.0-0.0","11201798","wem/bandit_single","A1ZB2NY0F9QNP0","gain","6","","75","K","2","","0","0","1","0.4152010141","","false","101","0.3342764243","","main_expt","0.4891782125","","0.4152010141","","0.4239408107","","","","","","",""
"41","","bandit","177","443541","0.0-139.0-0.0","11201798","wem/bandit_single","A1ZB2NY0F9QNP0","gain","6","","75","K","2","","1","0","0","0.4463558977","","false","102","0.3693598309","","main_expt","0.484620563","","0.4463558977","","0.4482877494","","","","","","",""
"156","","bandit","178","445459","0.0-140.0-0.0","11201798","wem/bandit_single","A1ZB2NY0F9QNP0","gain","6","","75","K","2","","1","0","0","0.4519222506","","false","103","0.3465782007","","main_expt","0.4880888492","","0.4519222506","","0.4319618448","","","","","","",""
"154","","bandit","179","447377","0.0-141.0-0.0","11201798","wem/bandit_single","A1ZB2NY0F9QNP0","gain","6","","75","K","2","","0","0","1","0.44950272","","false","104","0.356437927","","main_expt","0.4862983338","","0.44950272","","0.3989131432","","","","","","",""
"59","","bandit","180","449201","0.0-142.0-0.0","11201798","wem/bandit_single","A1ZB2NY0F9QNP0","gain","6","","75","K","2","","0","0","1","0.4631277203","","false","105","0.349556789","","main_expt","0.4761426531","","0.4631277203","","0.3718051273","","","","","","",""
"48","","bandit","181","451011","0.0-143.0-0.0","11201798","wem/bandit_single","A1ZB2NY0F9QNP0","gain","6","","75","K","2","","1","0","0","0.4761070442","","false","106","0.3368343046","","main_expt","0.4724420891","","0.4761070442","","0.3820213715","","","","","","",""
"95","","bandit","182","452869","0.0-144.0-0.0","11201798","wem/bandit_single","A1ZB2NY0F9QNP0","gain","6","","75","K","2","","1","0","0","0.4574049266","","false","107","0.3492990444","","main_expt","0.4544285192","","0.4574049266","","0.3903902173","","","","","","",""
"765","","bandit","183","455398","0.0-145.0-0.0","11201798","wem/bandit_single","A1ZB2NY0F9QNP0","gain","6","","75","K","2","","1","0","0","0.4342229458","","false","108","0.3657086014","","main_expt","0.4489506099","","0.4342229458","","0.424383047","","","","","","",""
"60","","bandit","184","457221","0.0-146.0-0.0","11201798","wem/bandit_single","A1ZB2NY0F9QNP0","gain","6","","75","K","2","","1","0","0","0.4437976733","","false","109","0.3473329542","","main_expt","0.4357570441","","0.4437976733","","0.3732822228","","","","","","",""
"68","","bandit","185","459054","0.0-147.0-0.0","11201798","wem/bandit_single","A1ZB2NY0F9QNP0","gain","6","","75","K","2","","1","0","0","0.4131704669","","false","110","0.3937482981","","main_expt","0.4243789051","","0.4131704669","","0.3545846445","","","","","","",""
"85","","bandit","186","460928","0.0-148.0-0.0","11201798","wem/bandit_single","A1ZB2NY0F9QNP0","gain","6","","75","K","2","","0","0","1","0.3849612216","","false","111","0.4067223002","","main_expt","0.4235572131","","0.3849612216","","0.2861948885","","","","","","",""
"42","","bandit","187","462732","0.0-149.0-0.0","11201798","wem/bandit_single","A1ZB2NY0F9QNP0","gain","6","","75","K","2","","1","0","0","0.4197473064","","false","112","0.3791461054","","main_expt","0.4216330179","","0.4197473064","","0.3148935151","","","","","","",""
"212","","bandit","188","464709","0.0-150.0-0.0","11201798","wem/bandit_single","A1ZB2NY0F9QNP0","gain","6","","75","K","2","","0","0","1","0.4477672952","","false","113","0.3697872407","","main_expt","0.3981229654","","0.4477672952","","0.310891148","","","","","","",""
"420","","bandit","189","466892","0.0-151.0-0.0","11201798","wem/bandit_single","A1ZB2NY0F9QNP0","gain","6","","75","K","2","","1","0","0","0.4347577032","","false","114","0.3542284497","","main_expt","0.4051483532","","0.4347577032","","0.3312817134","","","","","","",""
"254","","bandit","190","468909","0.0-152.0-0.0","11201798","wem/bandit_single","A1ZB2NY0F9QNP0","gain","6","","75","K","2","","0","0","1","0.4123529648","","false","115","0.3424252445","","main_expt","0.3664587937","","0.4123529648","","0.3328181623","","","","","","",""
"18","","bandit","191","470691","0.0-153.0-0.0","11201798","wem/bandit_single","A1ZB2NY0F9QNP0","gain","6","","75","K","2","","1","0","0","0.4374051313","","false","116","0.3364913945","","main_expt","0.3815824605","","0.4374051313","","0.282168926","","","","","","",""
"147","","bandit","192","472604","0.0-154.0-0.0","11201798","wem/bandit_single","A1ZB2NY0F9QNP0","gain","6","","75","K","2","","0","0","1","0.4336999329","","false","117","0.3607093693","","main_expt","0.3718524962","","0.4336999329","","0.3282440564","","","","","","",""
"68","","bandit","193","474438","0.0-155.0-0.0","11201798","wem/bandit_single","A1ZB2NY0F9QNP0","gain","6","","75","K","2","","0","0","1","0.4609057125","","false","118","0.3651530194","","main_expt","0.3228128462","","0.4609057125","","0.3735758205","","","","","","",""
"67","","bandit","194","476271","0.0-156.0-0.0","11201798","wem/bandit_single","A1ZB2NY0F9QNP0","gain","6","","75","K","2","","1","0","0","0.4644995027","","false","119","0.391691743","","main_expt","0.3303119184","","0.4644995027","","0.4085136599","","","","","","",""
"64","","bandit","195","478101","0.0-157.0-0.0","11201798","wem/bandit_single","A1ZB2NY0F9QNP0","gain","6","","75","K","2","","0","0","1","0.4699288035","","false","120","0.3892352466","","main_expt","0.3566896217","","0.4699288035","","0.4152109264","","","","","","",""
"26","","bandit","196","479891","0.0-158.0-0.0","11201798","wem/bandit_single","A1ZB2NY0F9QNP0","gain","6","","75","K","2","","0","0","1","0.48416914","","false","121","0.4119078466","","main_expt","0.3938610898","","0.48416914","","0.4362055741","","","","","","",""
"370","","bandit","197","482030","0.0-159.0-0.0","11201798","wem/bandit_single","A1ZB2NY0F9QNP0","gain","6","","75","K","2","","1","0","0","0.4744752566","","false","122","0.3864510994","","main_expt","0.3846692282","","0.4744752566","","0.4381361327","","","","","","",""
"122","","bandit","198","483918","0.0-160.0-0.0","11201798","wem/bandit_single","A1ZB2NY0F9QNP0","gain","6","","74","J","1","","0","0","1","0.3479888462","","false","123","0.3206095238","","main_expt","0.3479888462","","0.4770694964","","0.4266523018","","","","","","",""
"106","","bandit","199","485819","0.0-161.0-0.0","11201798","wem/bandit_single","A1ZB2NY0F9QNP0","gain","6","","74","J","1","","0","0","1","0.3446564944","","false","124","0.3004639257","","main_expt","0.3446564944","","0.4882663864","","0.3976500929","","","","","","",""
"373","","bandit","200","487957","0.0-162.0-0.0","11201798","wem/bandit_single","A1ZB2NY0F9QNP0","gain","6","","76","L","3","","1","0","0","0.4004048686","","false","125","0.2718713493","","main_expt","0.3742116014","","0.4867438878","","0.4004048686","","","","","","",""
"147","","bandit","201","489915","0.0-163.0-0.0","11201798","wem/bandit_single","A1ZB2NY0F9QNP0","gain","6","","76","L","3","","1","0","0","0.3978852423","","false","126","0.312825386","","main_expt","0.3522130289","","0.4859509926","","0.3978852423","","","","","","",""
"77","","bandit","202","491756","0.0-164.0-0.0","11201798","wem/bandit_single","A1ZB2NY0F9QNP0","gain","6","","76","L","3","","0","0","1","0.4164913371","","false","127","0.2929193121","","main_expt","0.4136983804","","0.4910312391","","0.4164913371","","","","","","",""
"92","","bandit","203","493614","0.0-165.0-0.0","11201798","wem/bandit_single","A1ZB2NY0F9QNP0","gain","6","","76","L","3","","1","0","0","0.4273270633","","false","128","0.3483635392","","main_expt","0.3740150402","","0.4916106826","","0.4273270633","","","","","","",""
"66","","bandit","204","495454","0.0-166.0-0.0","11201798","wem/bandit_single","A1ZB2NY0F9QNP0","gain","6","","76","L","3","","0","0","1","0.4403517336","","false","129","0.3180783589","","main_expt","0.3561584853","","0.4774596984","","0.4403517336","","","","","","",""
"40","","bandit","205","497259","0.0-167.0-0.0","11201798","wem/bandit_single","A1ZB2NY0F9QNP0","gain","6","","76","L","3","","0","0","1","0.436469863","","false","130","0.332672873","","main_expt","0.3781611856","","0.4792113904","","0.436469863","","","","","","",""
"388","","bandit","206","499412","0.0-168.0-0.0","11201798","wem/bandit_single","A1ZB2NY0F9QNP0","gain","6","","76","L","3","","0","0","1","0.467157068","","false","131","0.3172252399","","main_expt","0.3972118802","","0.4761250173","","0.467157068","","","","","","",""
"79","","bandit","207","501253","0.0-169.0-0.0","11201798","wem/bandit_single","A1ZB2NY0F9QNP0","gain","6","","72","H","0","img/none_selected.jpg","0","0","1","0.2808852702","","false","132","0.2808852702","","main_expt","0.3951630556","","0.4782449011","","0.4747764211","","","","","","",""
"114","","bandit","208","503131","0.0-170.0-0.0","11201798","wem/bandit_single","A1ZB2NY0F9QNP0","gain","6","","72","H","0","img/none_selected.jpg","0","0","1","0.2846237695","","false","133","0.2846237695","","main_expt","0.3918056992","","0.4789501527","","0.4662147581","","","","","","",""
"364","","bandit","209","505262","0.0-171.0-0.0","11201798","wem/bandit_single","A1ZB2NY0F9QNP0","gain","6","","72","H","0","img/none_selected.jpg","0","0","1","0.3115497245","","false","134","0.3115497245","","main_expt","0.395342783","","0.4821877595","","0.4711951182","","","","","","",""
"82","","bandit","210","507110","0.0-172.0-0.0","11201798","wem/bandit_single","A1ZB2NY0F9QNP0","gain","6","","75","K","2","","0","0","1","0.4863767518","","false","135","0.3413582918","","main_expt","0.3867762939","","0.4863767518","","0.4540730246","","","","","","",""
"144","","bandit","211","509020","0.0-173.0-0.0","11201798","wem/bandit_single","A1ZB2NY0F9QNP0","gain","6","","75","K","2","","1","0","0","0.4887786445","","false","136","0.316763081","","main_expt","0.3929594686","","0.4887786445","","0.4412688847","","","","","","",""
"137","","bandit","212","510944","0.0-174.0-0.0","11201798","wem/bandit_single","A1ZB2NY0F9QNP0","gain","6","","75","K","2","","0","0","1","0.4896902137","","false","137","0.2585559296","","main_expt","0.3067223256","","0.4896902137","","0.4585130214","","","","","","",""
"138","","bandit","213","512861","0.0-175.0-0.0","11201798","wem/bandit_single","A1ZB2NY0F9QNP0","gain","6","","75","K","2","","1","0","0","0.4754525561","","false","138","0.2320291273","","main_expt","0.3444805877","","0.4754525561","","0.4413786145","","","","","","",""
"106","","bandit","214","514732","0.0-176.0-0.0","11201798","wem/bandit_single","A1ZB2NY0F9QNP0","gain","6","","75","K","2","","0","0","1","0.4525902595","","false","139","0.2705305451","","main_expt","0.4025185773","","0.4525902595","","0.4235974169","","","","","","",""
"9","","bandit","215","516506","0.0-177.0-0.0","11201798","wem/bandit_single","A1ZB2NY0F9QNP0","gain","6","","75","K","2","","0","0","1","0.474141966","","false","140","0.2115164241","","main_expt","0.4000290511","","0.474141966","","0.3993595144","","","","","","",""
"143","","bandit","216","518412","0.0-178.0-0.0","11201798","wem/bandit_single","A1ZB2NY0F9QNP0","gain","6","","75","K","2","","1","0","0","0.4642583801","","false","141","0.2166269704","","main_expt","0.4052231698","","0.4642583801","","0.3845482665","","","","","","",""
"210","","bandit","217","520386","0.0-179.0-0.0","11201798","wem/bandit_single","A1ZB2NY0F9QNP0","gain","6","","75","K","2","","1","0","0","0.4713728632","","false","142","0.2477117994","","main_expt","0.3881257509","","0.4713728632","","0.3636407915","","","","","","",""
"75","","bandit","218","522228","0.0-180.0-0.0","11201798","wem/bandit_single","A1ZB2NY0F9QNP0","gain","6","","75","K","2","","0","0","1","0.4714731714","","false","143","0.2347168821","","main_expt","0.4101759482","","0.4714731714","","0.3360879677","","","","","","",""
"102","","bandit","219","524091","0.0-181.0-0.0","11201798","wem/bandit_single","A1ZB2NY0F9QNP0","gain","6","","75","K","2","","0","0","1","0.4777196865","","false","144","0.190213181","","main_expt","0.4100488723","","0.4777196865","","0.2886719504","","","","","","",""
"91","","bandit","220","525948","0.0-182.0-0.0","11201798","wem/bandit_single","A1ZB2NY0F9QNP0","gain","6","","75","K","2","","1","0","0","0.467438704","","false","145","0.2873677543","","main_expt","0.4294240464","","0.467438704","","0.2607344777","","","","","","",""
"139","","bandit","221","527860","0.0-183.0-0.0","11201798","wem/bandit_single","A1ZB2NY0F9QNP0","gain","6","","75","K","2","","0","0","1","0.4764572222","","false","146","0.3434581746","","main_expt","0.4447984025","","0.4764572222","","0.261523257","","","","","","",""
"189","","bandit","222","529812","0.0-184.0-0.0","11201798","wem/bandit_single","A1ZB2NY0F9QNP0","gain","6","","74","J","1","","0","0","1","0.4339083406","","false","147","0.3677167414","","main_expt","0.4339083406","","0.4670163239","","0.2768268543","","","","","","",""
"73","","bandit","223","531684","0.0-185.0-0.0","11201798","wem/bandit_single","A1ZB2NY0F9QNP0","gain","6","","74","J","1","","0","0","1","0.4200875786","","false","148","0.378672096","","main_expt","0.4200875786","","0.4762727371","","0.2822793125","","","","","","",""
"32","","bandit","224","533481","0.0-186.0-0.0","11201798","wem/bandit_single","A1ZB2NY0F9QNP0","gain","6","","76","L","3","","1","0","0","0.3100291085","","false","149","0.3447579657","","main_expt","0.4370731276","","0.4763998188","","0.3100291085","","","","","","",""
"123","","bandit","225","535369","0.0-187.0-0.0","11201798","wem/bandit_single","A1ZB2NY0F9QNP0","gain","6","","76","L","3","","0","0","1","0.3473977335","","false","150","0.3225325285","","main_expt","0.4606741766","","0.4534074178","","0.3473977335","","","","","","",""
"52","","bandit","226","537188","0.0-188.0-0.0","11201798","wem/bandit_single","A1ZB2NY0F9QNP0","gain","6","","76","L","3","","1","0","0","0.3755194153","","false","151","0.2971371866","","main_expt","0.4831185644","","0.4518750411","","0.3755194153","","","","","","",""
"51","","bandit","227","539004","0.0-189.0-0.0","11201798","wem/bandit_single","A1ZB2NY0F9QNP0","gain","6","","76","L","3","","1","0","0","0.3931135366","","false","152","0.2436525959","","main_expt","0.489350082","","0.4724220712","","0.3931135366","","","","","","",""
"147","","bandit","228","540916","0.0-190.0-0.0","11201798","wem/bandit_single","A1ZB2NY0F9QNP0","gain","6","","76","L","3","","1","0","0","0.3704791656","","false","153","0.2745817176","","main_expt","0.4874668037","","0.4655138208","","0.3704791656","","","","","","",""
"106","","bandit","229","542785","0.0-191.0-0.0","11201798","wem/bandit_single","A1ZB2NY0F9QNP0","gain","6","","76","L","3","","1","0","0","0.3918087328","","false","154","0.2354012901","","main_expt","0.4906252114","","0.466892577","","0.3918087328","","","","","","",""
"99","","bandit","230","544649","0.0-192.0-0.0","11201798","wem/bandit_single","A1ZB2NY0F9QNP0","gain","6","","76","L","3","","1","0","0","0.3629162862","","false","155","0.2125693007","","main_expt","0.4807331657","","0.4696525674","","0.3629162862","","","","","","",""
"48","","bandit","231","546465","0.0-193.0-0.0","11201798","wem/bandit_single","A1ZB2NY0F9QNP0","gain","6","","76","L","3","","0","0","1","0.3329402669","","false","156","0.2344806361","","main_expt","0.4886913858","","0.4798639378","","0.3329402669","","","","","","",""
"70","","bandit","232","548299","0.0-194.0-0.0","11201798","wem/bandit_single","A1ZB2NY0F9QNP0","gain","6","","76","L","3","","0","0","1","0.2681960896","","false","157","0.1314384861","","main_expt","0.4791259403","","0.4706110477","","0.2681960896","","","","","","",""
"84","","bandit","233","550154","0.0-195.0-0.0","11201798","wem/bandit_single","A1ZB2NY0F9QNP0","gain","6","","76","L","3","","1","0","0","0.2540197996","","false","158","0.181857365","","main_expt","0.4733263956","","0.4469873257","","0.2540197996","","","","","","",""
"116","","bandit","234","552035","0.0-196.0-0.0","11201798","wem/bandit_single","A1ZB2NY0F9QNP0","gain","6","","76","L","3","","0","0","1","0.2609952623","","false","159","0.158015958","","main_expt","0.4815819336","","0.4239904196","","0.2609952623","","","","","","",""
"98","","bandit","235","553898","0.0-197.0-0.0","11201798","wem/bandit_single","A1ZB2NY0F9QNP0","gain","6","","76","L","3","","0","0","1","0.2023108268","","false","160","0.141078422","","main_expt","0.4721468952","","0.4459131135","","0.2023108268","","","","","","",""
"74","","bandit","236","555739","0.0-198.0-0.0","11201798","wem/bandit_single","A1ZB2NY0F9QNP0","gain","6","","75","K","2","","1","0","0","0.4186734055","","false","161","0.1347361735","","main_expt","0.4711146003","","0.4186734055","","0.2500661268","","","","","","",""
"171","","bandit","237","557676","0.0-199.0-0.0","11201798","wem/bandit_single","A1ZB2NY0F9QNP0","gain","6","","75","K","2","","1","0","0","0.3857154427","","false","162","0.09535719087","","main_expt","0.4712261849","","0.3857154427","","0.2540596089","","","","","","",""
"121","","bandit","238","559563","0.0-200.0-0.0","11201798","wem/bandit_single","A1ZB2NY0F9QNP0","gain","6","","75","K","2","","0","0","1","0.4174701589","","false","163","0.08326456225","","main_expt","0.4845321786","","0.4174701589","","0.2601053227","","","","","","",""
"257","","bandit","239","561602","0.0-201.0-0.0","11201798","wem/bandit_single","A1ZB2NY0F9QNP0","gain","6","","75","K","2","","1","0","0","0.3890878976","","false","164","0.09053498257","","main_expt","0.4759389929","","0.3890878976","","0.2541421927","","","","","","",""
"62","","bandit","240","563504","0.0-202.0-0.0","11201798","wem/bandit_single","A1ZB2NY0F9QNP0","gain","6","","75","K","2","","0","0","1","0.4138915172","","false","165","0.08506048778","","main_expt","0.4720948066","","0.4138915172","","0.2481661974","","","","","","",""
"46","","bandit","241","565316","0.0-203.0-0.0","11201798","wem/bandit_single","A1ZB2NY0F9QNP0","gain","6","","75","K","2","","1","0","0","0.3965001983","","false","166","0.1313511463","","main_expt","0.4785392204","","0.3965001983","","0.2774316831","","","","","","",""
"72","","bandit","242","567154","0.0-204.0-0.0","11201798","wem/bandit_single","A1ZB2NY0F9QNP0","gain","6","","75","K","2","","0","0","1","0.3565429409","","false","167","0.1176964862","","main_expt","0.4807372421","","0.3565429409","","0.2487678046","","","","","","",""
"90","","bandit","243","569010","0.0-205.0-0.0","11201798","wem/bandit_single","A1ZB2NY0F9QNP0","gain","6","","75","K","2","","0","0","1","0.3697134737","","false","168","0.08442850793","","main_expt","0.4679921472","","0.3697134737","","0.3058486258","","","","","","",""
"89","","bandit","244","570864","0.0-206.0-0.0","11201798","wem/bandit_single","A1ZB2NY0F9QNP0","gain","6","","76","L","3","","0","0","1","0.3196595105","","false","169","0.08508452716","","main_expt","0.4504326489","","0.3754926497","","0.3196595105","","","","","","",""
"99","","bandit","245","572728","0.0-207.0-0.0","11201798","wem/bandit_single","A1ZB2NY0F9QNP0","gain","6","","74","J","1","","0","0","1","0.4575738232","","false","170","0.06647736925","","main_expt","0.4575738232","","0.3688606114","","0.2675331271","","","","","","",""
"77","","bandit","246","574569","0.0-208.0-0.0","11201798","wem/bandit_single","A1ZB2NY0F9QNP0","gain","6","","72","H","0","img/none_selected.jpg","0","0","1","0.05048422731","","false","171","0.05048422731","","main_expt","0.4515033555","","0.3548436987","","0.2898788388","","","","","","",""
"53","","bandit","247","576386","0.0-209.0-0.0","11201798","wem/bandit_single","A1ZB2NY0F9QNP0","gain","6","","75","K","2","","0","0","1","0.3789739593","","false","172","0.05782489063","","main_expt","0.4804896953","","0.3789739593","","0.3066863737","","","","","","",""
"122","","bandit","248","578275","0.0-210.0-0.0","11201798","wem/bandit_single","A1ZB2NY0F9QNP0","gain","6","","76","L","3","","0","0","1","0.2694007619","","false","173","0.05297704283","","main_expt","0.4915792717","","0.361488512","","0.2694007619","","","","","","",""
"127","","bandit","249","580171","0.0-211.0-0.0","11201798","wem/bandit_single","A1ZB2NY0F9QNP0","gain","6","","76","L","3","","0","0","1","0.2754062015","","false","174","0.05353397103","","main_expt","0.4861742571","","0.3460135238","","0.2754062015","","","","","","",""
"104","","bandit","250","582041","0.0-212.0-0.0","11201798","wem/bandit_single","A1ZB2NY0F9QNP0","gain","6","","75","K","2","","0","0","1","0.3522158256","","false","175","0.03778759003","","main_expt","0.4817940596","","0.3522158256","","0.296446081","","","","","","",""
"123","","bandit","251","583928","0.0-213.0-0.0","11201798","wem/bandit_single","A1ZB2NY0F9QNP0","gain","6","","75","K","2","","0","0","1","0.2998164985","","false","176","0.02527008277","","main_expt","0.4757066075","","0.2998164985","","0.3058710094","","","","","","",""
"78","","bandit","252","585772","0.0-214.0-0.0","11201798","wem/bandit_single","A1ZB2NY0F9QNP0","gain","6","","74","J","1","","1","0","0","0.4781570811","","false","177","0.03305249037","","main_expt","0.4781570811","","0.2523084086","","0.2349503117","","","","","","",""
"144","","bandit","253","587690","0.0-215.0-0.0","11201798","wem/bandit_single","A1ZB2NY0F9QNP0","gain","6","","74","J","1","","0","0","1","0.4800614517","","false","178","0.03386287722","","main_expt","0.4800614517","","0.304071788","","0.2619038699","","","","","","",""
"105","","bandit","254","589563","0.0-216.0-0.0","11201798","wem/bandit_single","A1ZB2NY0F9QNP0","gain","6","","74","J","1","","0","0","1","0.4829502963","","false","179","0.04065763291","","main_expt","0.4829502963","","0.2871062198","","0.2830684205","","","","","","",""
"114","","bandit","255","591440","0.0-217.0-0.0","11201798","wem/bandit_single","A1ZB2NY0F9QNP0","gain","6","","74","J","1","","0","0","1","0.4858173281","","false","180","0.05743716857","","main_expt","0.4858173281","","0.2266659288","","0.3534450431","","","","","","",""
"91","","bandit","256","593296","0.0-218.0-0.0","11201798","wem/bandit_single","A1ZB2NY0F9QNP0","gain","6","","72","H","0","img/none_selected.jpg","0","0","1","0.04418568229","","false","181","0.04418568229","","main_expt","0.4744777914","","0.221928096","","0.3212605574","","","","","","",""
"131","","bandit","257","595194","0.0-219.0-0.0","11201798","wem/bandit_single","A1ZB2NY0F9QNP0","gain","6","","72","H","0","img/none_selected.jpg","0","0","1","0.08176319179","","false","182","0.08176319179","","main_expt","0.4845259409","","0.2300829386","","0.3315430587","","","","","","",""
"90","","bandit","258","597049","0.0-220.0-0.0","11201798","wem/bandit_single","A1ZB2NY0F9QNP0","gain","6","","75","K","2","","0","0","1","0.236046558","","false","183","0.127405614","","main_expt","0.481953826","","0.236046558","","0.3284942609","","","","","","",""
"60","","bandit","259","598904","0.0-221.0-0.0","11201798","wem/bandit_single","A1ZB2NY0F9QNP0","gain","6","","75","K","2","","0","0","1","0.2923178249","","false","184","0.08615736955","","main_expt","0.4855041368","","0.2923178249","","0.3122619856","","","","","","",""
"99","","bandit","260","600767","0.0-222.0-0.0","11201798","wem/bandit_single","A1ZB2NY0F9QNP0","gain","6","","76","L","3","","0","0","1","0.2923416166","","false","185","0.1184297318","","main_expt","0.4698046591","","0.2808840613","","0.2923416166","","","","","","",""
"471","","bandit","261","603001","0.0-223.0-0.0","11201798","wem/bandit_single","A1ZB2NY0F9QNP0","gain","6","","76","L","3","","0","0","1","0.2743414945","","false","186","0.1909222977","","main_expt","0.4595088788","","0.2016881086","","0.2743414945","","","","","","",""
"369","","bandit","262","605135","0.0-224.0-0.0","11201798","wem/bandit_single","A1ZB2NY0F9QNP0","gain","6","","74","J","1","","1","0","0","0.4646501277","","false","187","0.156943311","","main_expt","0.4646501277","","0.2403842116","","0.3313242874","","","","","","",""
"123","","bandit","263","607025","0.0-225.0-0.0","11201798","wem/bandit_single","A1ZB2NY0F9QNP0","gain","6","","74","J","1","","0","0","1","0.4587354039","","false","188","0.139104156","","main_expt","0.4587354039","","0.2559443775","","0.3665806697","","","","","","",""
"156","","bandit","264","608947","0.0-226.0-0.0","11201798","wem/bandit_single","A1ZB2NY0F9QNP0","gain","6","","74","J","1","","0","0","1","0.4433819168","","false","189","0.1984961232","","main_expt","0.4433819168","","0.2450962267","","0.3982105691","","","","","","",""
"61","","bandit","265","610775","0.0-227.0-0.0","11201798","wem/bandit_single","A1ZB2NY0F9QNP0","gain","6","","74","J","1","","0","0","1","0.441597313","","false","190","0.3152507924","","main_expt","0.441597313","","0.2520413598","","0.4063069195","","","","","","",""
"56","","bandit","266","612599","0.0-228.0-0.0","11201798","wem/bandit_single","A1ZB2NY0F9QNP0","gain","6","","75","K","2","","0","0","1","0.3069822625","","false","191","0.34868685","","main_expt","0.4447050695","","0.3069822625","","0.4073058099","","","","","","",""
"138","","bandit","267","614504","0.0-229.0-0.0","11201798","wem/bandit_single","A1ZB2NY0F9QNP0","gain","6","","75","K","2","","1","0","0","0.269658105","","false","192","0.3244392246","","main_expt","0.3903647542","","0.269658105","","0.3597632315","","","","","","",""
"201","","bandit","268","616472","0.0-230.0-0.0","11201798","wem/bandit_single","A1ZB2NY0F9QNP0","gain","6","","75","K","2","","1","0","0","0.2337652902","","false","193","0.3077199203","","main_expt","0.37796371","","0.2337652902","","0.3512918873","","","","","","",""
"170","","bandit","269","618409","0.0-231.0-0.0","11201798","wem/bandit_single","A1ZB2NY0F9QNP0","gain","6","","75","K","2","","0","0","1","0.232364398","","false","194","0.3089314305","","main_expt","0.4130200877","","0.232364398","","0.2959519196","","","","","","",""
"83","","bandit","270","620259","0.0-232.0-0.0","11201798","wem/bandit_single","A1ZB2NY0F9QNP0","gain","6","","75","K","2","","0","0","1","0.3001816851","","false","195","0.2747286701","","main_expt","0.4247195967","","0.3001816851","","0.335494982","","","","","","",""
"94","","bandit","271","622120","0.0-233.0-0.0","11201798","wem/bandit_single","A1ZB2NY0F9QNP0","gain","6","","75","K","2","","1","0","0","0.3408234979","","false","196","0.234477082","","main_expt","0.4243543636","","0.3408234979","","0.349715921","","","","","","",""
"113","","bandit","272","624000","0.0-234.0-0.0","11201798","wem/bandit_single","A1ZB2NY0F9QNP0","gain","6","","75","K","2","","1","0","0","0.3048500693","","false","197","0.2134381397","","main_expt","0.3856928417","","0.3048500693","","0.301359959","","","","","","",""
"90","","bandit","273","625854","0.0-235.0-0.0","11201798","wem/bandit_single","A1ZB2NY0F9QNP0","gain","6","","75","K","2","","1","0","0","0.320222978","","false","198","0.1732682886","","main_expt","0.3619593125","","0.320222978","","0.2948231879","","","","","","",""
"79","","bandit","274","627696","0.0-236.0-0.0","11201798","wem/bandit_single","A1ZB2NY0F9QNP0","gain","6","","75","K","2","","0","0","1","0.3267381451","","false","199","0.1702760897","","main_expt","0.367752629","","0.3267381451","","0.2739130918","","","","","","",""
"65","","bandit","275","629527","0.0-237.0-0.0","11201798","wem/bandit_single","A1ZB2NY0F9QNP0","gain","6","","75","K","2","","1","0","0","0.3471124056","","false","200","0.1149890083","","main_expt","0.3243939248","","0.3471124056","","0.2519174554","","","","","","",""
"326","","bandit","276","631617","0.0-238.0-0.0","11201798","wem/bandit_single","A1ZB2NY0F9QNP0","gain","6","","75","K","2","","1","0","0","0.377370495","","false","201","0.1378425817","","main_expt","0.309205964","","0.377370495","","0.2607800984","","","","","","",""
"225","","bandit","277","633648","0.0-239.0-0.0","11201798","wem/bandit_single","A1ZB2NY0F9QNP0","gain","6","","75","K","2","","0","0","1","0.4118986778","","false","202","0.1351165101","","main_expt","0.2762714965","","0.4118986778","","0.2144757733","","","","","","",""
"73","","bandit","278","635488","0.0-240.0-0.0","11201798","wem/bandit_single","A1ZB2NY0F9QNP0","gain","6","","75","K","2","","0","0","1","0.4232074982","","false","203","0.105254576","","main_expt","0.296808735","","0.4232074982","","0.3006883459","","","","","","",""
"101","","bandit","279","637356","0.0-241.0-0.0","11201798","wem/bandit_single","A1ZB2NY0F9QNP0","gain","6","","75","K","2","","0","0","1","0.422672589","","false","204","0.09939331469","","main_expt","0.3198559136","","0.422672589","","0.3059688055","","","","","","",""
"123","","bandit","280","639246","0.0-242.0-0.0","11201798","wem/bandit_single","A1ZB2NY0F9QNP0","gain","6","","76","L","3","","0","0","1","0.2810212056","","false","205","0.1099723927","","main_expt","0.3814451683","","0.4290364806","","0.2810212056","","","","","","",""
"162","","bandit","281","641174","0.0-243.0-0.0","11201798","wem/bandit_single","A1ZB2NY0F9QNP0","gain","6","","76","L","3","","1","0","0","0.2427537705","","false","206","0.1203356594","","main_expt","0.3836436308","","0.4412489094","","0.2427537705","","","","","","",""
"156","","bandit","282","643098","0.0-244.0-0.0","11201798","wem/bandit_single","A1ZB2NY0F9QNP0","gain","6","","76","L","3","","1","0","0","0.2312113295","","false","207","0.1887874267","","main_expt","0.3943212714","","0.461161346","","0.2312113295","","","","","","",""
"316","","bandit","283","645184","0.0-245.0-0.0","11201798","wem/bandit_single","A1ZB2NY0F9QNP0","gain","6","","76","L","3","","1","0","0","0.2502246517","","false","208","0.1570662604","","main_expt","0.4100076043","","0.4749000037","","0.2502246517","","","","","","",""
"337","","bandit","284","647289","0.0-246.0-0.0","11201798","wem/bandit_single","A1ZB2NY0F9QNP0","gain","6","","76","L","3","","0","0","1","0.2378747501","","false","209","0.2050570797","","main_expt","0.4207901851","","0.4677638209","","0.2378747501","","","","","","",""
"160","","bandit","285","649214","0.0-247.0-0.0","11201798","wem/bandit_single","A1ZB2NY0F9QNP0","gain","6","","76","L","3","","0","0","1","0.2323826376","","false","210","0.1803355731","","main_expt","0.4261573075","","0.4507398287","","0.2323826376","","","","","","",""
"77","","bandit","286","651055","0.0-248.0-0.0","11201798","wem/bandit_single","A1ZB2NY0F9QNP0","gain","6","","76","L","3","","1","0","0","0.2346446126","","false","211","0.2066302241","","main_expt","0.3677002177","","0.4275102647","","0.2346446126","","","","","","",""
"123","","bandit","287","652943","0.0-249.0-0.0","11201798","wem/bandit_single","A1ZB2NY0F9QNP0","gain","6","","76","L","3","","0","0","1","0.2017096022","","false","212","0.2190460355","","main_expt","0.4030871251","","0.4147803006","","0.2017096022","","","","","","",""
"131","","bandit","288","654840","0.0-250.0-0.0","11201798","wem/bandit_single","A1ZB2NY0F9QNP0","gain","6","","76","L","3","","0","0","1","0.2149770465","","false","213","0.2433731683","","main_expt","0.3616850983","","0.4119553225","","0.2149770465","","","","","","",""
"87","","bandit","289","656695","0.0-251.0-0.0","11201798","wem/bandit_single","A1ZB2NY0F9QNP0","gain","6","","76","L","3","","0","0","1","0.2323699387","","false","214","0.2355486522","","main_expt","0.3380837625","","0.4097086646","","0.2323699387","","","","","","",""
"74","","bandit","290","658536","0.0-252.0-0.0","11201798","wem/bandit_single","A1ZB2NY0F9QNP0","gain","6","","75","K","2","","0","0","1","0.4553079268","","false","215","0.2493822419","","main_expt","0.3788103814","","0.4553079268","","0.1880023584","","","","","","",""
"80","","bandit","291","660383","0.0-253.0-0.0","11201798","wem/bandit_single","A1ZB2NY0F9QNP0","gain","6","","75","K","2","","0","0","1","0.4360341733","","false","216","0.2455091026","","main_expt","0.3844600678","","0.4360341733","","0.2305078945","","","","","","",""
"103","","bandit","292","662255","0.0-254.0-0.0","11201798","wem/bandit_single","A1ZB2NY0F9QNP0","gain","6","","74","J","1","","1","0","0","0.3747540642","","false","217","0.193913996","","main_expt","0.3747540642","","0.4337093526","","0.2042922501","","","","","","",""
"256","","bandit","293","664278","0.0-255.0-0.0","11201798","wem/bandit_single","A1ZB2NY0F9QNP0","gain","6","","74","J","1","","0","0","1","0.373903774","","false","218","0.2375794361","","main_expt","0.373903774","","0.4646024675","","0.1827914188","","","","","","",""
"26","","bandit","294","666069","0.0-256.0-0.0","11201798","wem/bandit_single","A1ZB2NY0F9QNP0","gain","6","","74","J","1","","1","0","0","0.3735380413","","false","219","0.2477723709","","main_expt","0.3735380413","","0.4630893692","","0.2630445196","","","","","","",""
"410","","bandit","295","668247","0.0-257.0-0.0","11201798","wem/bandit_single","A1ZB2NY0F9QNP0","gain","6","","74","J","1","","0","0","1","0.383917491","","false","220","0.2543503475","","main_expt","0.383917491","","0.4683356487","","0.311946342","","","","","","",""
"113","","bandit","296","670125","0.0-258.0-0.0","11201798","wem/bandit_single","A1ZB2NY0F9QNP0","gain","6","","74","J","1","","1","0","0","0.3479973737","","false","221","0.2776519347","","main_expt","0.3479973737","","0.4682635517","","0.2972788283","","","","","","",""
"118","","bandit","297","672006","0.0-259.0-0.0","11201798","wem/bandit_single","A1ZB2NY0F9QNP0","gain","6","","74","J","1","","1","0","0","0.3845595158","","false","222","0.2291835432","","main_expt","0.3845595158","","0.4771668828","","0.3550400804","","","","","","",""
"249","","bandit","298","674024","0.0-260.0-0.0","11201798","wem/bandit_single","A1ZB2NY0F9QNP0","gain","6","","74","J","1","","0","0","1","0.368723436","","false","223","0.2266132179","","main_expt","0.368723436","","0.4773959318","","0.3246239653","","","","","","",""
"96","","bandit","299","675887","0.0-261.0-0.0","11201798","wem/bandit_single","A1ZB2NY0F9QNP0","gain","6","","74","J","1","","0","0","1","0.3566991655","","false","224","0.2124948974","","main_expt","0.3566991655","","0.4567335023","","0.351266899","","","","","","",""
"66","","bandit","300","677721","0.0-262.0-0.0","11201798","wem/bandit_single","A1ZB2NY0F9QNP0","gain","6","","74","J","1","","0","0","1","0.3557331736","","false","225","0.2168010387","","main_expt","0.3557331736","","0.4545703871","","0.3617362435","","","","","","",""
"61","","bandit","301","679550","0.0-263.0-0.0","11201798","wem/bandit_single","A1ZB2NY0F9QNP0","gain","6","","72","H","0","img/none_selected.jpg","0","0","1","0.2286352314","","false","226","0.2286352314","","main_expt","0.3620904828","","0.4563055184","","0.3625162538","","","","","","",""
"78","","bandit","302","681399","0.0-264.0-0.0","11201798","wem/bandit_single","A1ZB2NY0F9QNP0","gain","6","","72","H","0","img/none_selected.jpg","0","0","1","0.2349833204","","false","227","0.2349833204","","main_expt","0.3794330306","","0.4414344485","","0.3638477037","","","","","","",""
"79","","bandit","303","683245","0.0-265.0-0.0","11201798","wem/bandit_single","A1ZB2NY0F9QNP0","gain","6","","75","K","2","","1","0","0","0.4509897562","","false","228","0.2376541641","","main_expt","0.3480060926","","0.4509897562","","0.321865515","","","","","","",""
"108","","bandit","304","685117","0.0-266.0-0.0","11201798","wem/bandit_single","A1ZB2NY0F9QNP0","gain","6","","75","K","2","","0","0","1","0.4355264455","","false","229","0.2141250471","","main_expt","0.3197951212","","0.4355264455","","0.2574970425","","","","","","",""
"97","","bandit","305","686982","0.0-267.0-0.0","11201798","wem/bandit_single","A1ZB2NY0F9QNP0","gain","6","","75","K","2","","0","0","1","0.4393215817","","false","230","0.1986478114","","main_expt","0.2360623461","","0.4393215817","","0.3167366343","","","","","","",""
"161","","bandit","306","688912","0.0-268.0-0.0","11201798","wem/bandit_single","A1ZB2NY0F9QNP0","gain","6","","76","L","3","","0","0","1","0.359889087","","false","231","0.1632677176","","main_expt","0.228441671","","0.426442838","","0.359889087","","","","","","",""
"52","","bandit","307","690734","0.0-269.0-0.0","11201798","wem/bandit_single","A1ZB2NY0F9QNP0","gain","6","","74","J","1","","0","0","1","0.2233622879","","false","232","0.1437929512","","main_expt","0.2233622879","","0.4455015341","","0.3765691143","","","","","","",""
"36","","bandit","308","692540","0.0-270.0-0.0","11201798","wem/bandit_single","A1ZB2NY0F9QNP0","gain","6","","75","K","2","","1","0","0","0.4370113712","","false","233","0.2490618922","","main_expt","0.1782647691","","0.4370113712","","0.351320345","","","","","","",""
"163","","bandit","309","694468","0.0-271.0-0.0","11201798","wem/bandit_single","A1ZB2NY0F9QNP0","gain","6","","75","K","2","","0","0","1","0.4228056097","","false","234","0.2811602772","","main_expt","0.1971530904","","0.4228056097","","0.2997083133","","","","","","",""
"8","","bandit","310","696244","0.0-272.0-0.0","11201798","wem/bandit_single","A1ZB2NY0F9QNP0","gain","6","","75","K","2","","1","0","0","0.4176536857","","false","235","0.332316849","","main_expt","0.2109348075","","0.4176536857","","0.3526624454","","","","","","",""
"208","","bandit","311","698221","0.0-273.0-0.0","11201798","wem/bandit_single","A1ZB2NY0F9QNP0","gain","6","","75","K","2","","0","0","1","0.419442654","","false","236","0.3059905229","","main_expt","0.1891579582","","0.419442654","","0.3050627859","","","","","","",""
"15","","bandit","312","700003","0.0-274.0-0.0","11201798","wem/bandit_single","A1ZB2NY0F9QNP0","gain","6","","75","K","2","","0","0","1","0.4082659589","","false","237","0.3058344165","","main_expt","0.1278978542","","0.4082659589","","0.312969263","","","","","","",""
"146","","bandit","313","701916","0.0-275.0-0.0","11201798","wem/bandit_single","A1ZB2NY0F9QNP0","gain","6","","75","K","2","","0","0","1","0.4108407801","","false","238","0.2931512536","","main_expt","0.1509653188","","0.4108407801","","0.380225341","","","","","","",""
"346","","bandit","314","704029","0.0-276.0-0.0","11201798","wem/bandit_single","A1ZB2NY0F9QNP0","gain","6","","76","L","3","","0","0","1","0.3657076542","","false","239","0.2922133777","","main_expt","0.1919733462","","0.4378360478","","0.3657076542","","","","","","",""
"360","","bandit","315","706156","0.0-277.0-0.0","11201798","wem/bandit_single","A1ZB2NY0F9QNP0","gain","6","","76","L","3","","0","0","1","0.3815359164","","false","240","0.3452033359","","main_expt","0.1751407906","","0.4467030129","","0.3815359164","","","","","","",""
"142","","bandit","316","708066","0.0-278.0-0.0","11201798","wem/bandit_single","A1ZB2NY0F9QNP0","gain","6","","74","J","1","","0","0","1","0.1759125222","","false","241","0.3682897549","","main_expt","0.1759125222","","0.4705393647","","0.3251101936","","","","","","",""
"75","","bandit","317","709912","0.0-279.0-0.0","11201798","wem/bandit_single","A1ZB2NY0F9QNP0","gain","6","","72","H","0","img/none_selected.jpg","0","0","1","0.3628947189","","false","242","0.3628947189","","main_expt","0.2137068054","","0.4610792938","","0.3212185421","","","","","","",""
"121","","bandit","318","711797","0.0-280.0-0.0","11201798","wem/bandit_single","A1ZB2NY0F9QNP0","gain","6","","75","K","2","","1","0","0","0.4437729889","","false","243","0.3766569032","","main_expt","0.2179170348","","0.4437729889","","0.3270030252","","","","","","",""
"130","","bandit","319","713692","0.0-281.0-0.0","11201798","wem/bandit_single","A1ZB2NY0F9QNP0","gain","6","","75","K","2","","0","0","1","0.4199869792","","false","244","0.377991886","","main_expt","0.2426329099","","0.4199869792","","0.309973419","","","","","","",""
"211","","bandit","320","715670","0.0-282.0-0.0","11201798","wem/bandit_single","A1ZB2NY0F9QNP0","gain","6","","75","K","2","","1","0","0","0.4183767379","","false","245","0.304751896","","main_expt","0.2351694379","","0.4183767379","","0.3342881273","","","","","","",""
"89","","bandit","321","717525","0.0-283.0-0.0","11201798","wem/bandit_single","A1ZB2NY0F9QNP0","gain","6","","75","K","2","","0","0","1","0.4292136751","","false","246","0.3348187262","","main_expt","0.2111663312","","0.4292136751","","0.3149240913","","","","","","",""
"143","","bandit","322","719435","0.0-284.0-0.0","11201798","wem/bandit_single","A1ZB2NY0F9QNP0","gain","6","","75","K","2","","1","0","0","0.4577956797","","false","247","0.3307987246","","main_expt","0.1899020887","","0.4577956797","","0.296458043","","","","","","",""
"185","","bandit","323","721388","0.0-285.0-0.0","11201798","wem/bandit_single","A1ZB2NY0F9QNP0","gain","6","","75","K","2","","1","0","0","0.4586239927","","false","248","0.3774544282","","main_expt","0.2151484255","","0.4586239927","","0.3038576119","","","","","","",""
"219","","bandit","324","723372","0.0-286.0-0.0","11201798","wem/bandit_single","A1ZB2NY0F9QNP0","gain","6","","75","K","2","","0","0","1","0.4709187109","","false","249","0.3553688181","","main_expt","0.2454548658","","0.4709187109","","0.3383832125","","","","","","",""
"104","","bandit","325","725244","0.0-287.0-0.0","11201798","wem/bandit_single","A1ZB2NY0F9QNP0","gain","6","","75","K","2","","0","0","1","0.4742496359","","false","250","0.3209961504","","main_expt","0.1973527755","","0.4742496359","","0.3505221498","","","","","","",""
"979","","bandit","326","727987","0.0-288.0-0.0","11201798","wem/bandit_single","A1ZB2NY0F9QNP0","gain","6","","75","K","2","","1","0","0","0.4684276702","","false","251","0.2938420796","","main_expt","0.2459600056","","0.4684276702","","0.3439557404","","","","","","",""
"359","","bandit","327","730109","0.0-289.0-0.0","11201798","wem/bandit_single","A1ZB2NY0F9QNP0","gain","6","","75","K","2","","0","0","1","0.465775704","","false","252","0.2377141092","","main_expt","0.2361341643","","0.465775704","","0.3394881367","","","","","","",""
"63","","bandit","328","731938","0.0-290.0-0.0","11201798","wem/bandit_single","A1ZB2NY0F9QNP0","gain","6","","75","K","2","","1","0","0","0.4739398589","","false","253","0.28098189","","main_expt","0.2263014677","","0.4739398589","","0.3195186677","","","","","","",""
"115","","bandit","329","733818","0.0-291.0-0.0","11201798","wem/bandit_single","A1ZB2NY0F9QNP0","gain","6","","75","K","2","","1","0","0","0.4709597483","","false","254","0.36168886","","main_expt","0.2384195691","","0.4709597483","","0.3607388593","","","","","","",""
"519","","bandit","330","736101","0.0-292.0-0.0","11201798","wem/bandit_single","A1ZB2NY0F9QNP0","gain","6","","75","K","2","","0","0","1","0.468651231","","false","255","0.3196270919","","main_expt","0.2186709452","","0.468651231","","0.3801942793","","","","","","",""
"143","","bandit","331","738012","0.0-293.0-0.0","11201798","wem/bandit_single","A1ZB2NY0F9QNP0","gain","6","","75","K","2","","0","0","1","0.4837462493","","false","256","0.3201998045","","main_expt","0.1625458568","","0.4837462493","","0.2987962353","","","","","","",""
"97","","bandit","332","739876","0.0-294.0-0.0","11201798","wem/bandit_single","A1ZB2NY0F9QNP0","gain","6","","75","K","2","","1","0","0","0.4842399178","","false","257","0.3576002339","","main_expt","0.159361747","","0.4842399178","","0.272571782","","","","","","",""
"129","","bandit","333","741770","0.0-295.0-0.0","11201798","wem/bandit_single","A1ZB2NY0F9QNP0","gain","6","","75","K","2","","1","0","0","0.4878873921","","false","258","0.3715220428","","main_expt","0.1556255119","","0.4878873921","","0.2593204486","","","","","","",""
"66","","bandit","334","743602","0.0-296.0-0.0","11201798","wem/bandit_single","A1ZB2NY0F9QNP0","gain","6","","75","K","2","","0","0","1","0.4869160663","","false","259","0.3730860303","","main_expt","0.1256368346","","0.4869160663","","0.2951424317","","","","","","",""
"129","","bandit","335","745501","0.0-297.0-0.0","11201798","wem/bandit_single","A1ZB2NY0F9QNP0","gain","6","","75","K","2","","1","0","0","0.4912834456","","false","260","0.3724964978","","main_expt","0.1449854444","","0.4912834456","","0.2369093976","","","","","","",""
"160","","bandit","336","747428","0.0-298.0-0.0","11201798","wem/bandit_single","A1ZB2NY0F9QNP0","gain","6","","75","K","2","","1","0","0","0.4907072989","","false","261","0.3574286068","","main_expt","0.1647157085","","0.4907072989","","0.2234433316","","","","","","",""
"585","","bandit","337","749779","0.0-299.0-0.0","11201798","wem/bandit_single","A1ZB2NY0F9QNP0","gain","6","","75","K","2","","0","0","1","0.4904114062","","false","262","0.4204463107","","main_expt","0.1586541082","","0.4904114062","","0.215626833","","","","","","",""
"677","","bandit","338","752219","0.0-300.0-0.0","11201798","wem/bandit_single","A1ZB2NY0F9QNP0","gain","6","","75","K","2","","1","0","0","0.4900075499","","false","263","0.4244263348","","main_expt","0.1683870388","","0.4900075499","","0.2227197798","","","","","","",""
"943","","bandit","339","754931","0.0-301.0-0.0","11201798","wem/bandit_single","A1ZB2NY0F9QNP0","gain","6","","75","K","2","","0","0","1","0.4922230388","","false","264","0.4217668892","","main_expt","0.2205087037","","0.4922230388","","0.2113558788","","","","","","",""
"661","","bandit","340","757360","0.0-302.0-0.0","11201798","wem/bandit_single","A1ZB2NY0F9QNP0","gain","6","","75","K","2","","0","0","1","0.4892111554","","false","265","0.3908218086","","main_expt","0.1554736059","","0.4892111554","","0.1814287308","","","","","","",""
"348","","bandit","341","759475","0.0-303.0-0.0","11201798","wem/bandit_single","A1ZB2NY0F9QNP0","gain","6","","75","K","2","","1","0","0","0.4894097466","","false","266","0.350583855","","main_expt","0.1556775797","","0.4894097466","","0.2579261203","","","","","","",""
"121","","bandit","342","761363","0.0-304.0-0.0","11201798","wem/bandit_single","A1ZB2NY0F9QNP0","gain","6","","75","K","2","","0","0","1","0.4898547377","","false","267","0.2971845499","","main_expt","0.1732223335","","0.4898547377","","0.3033521226","","","","","","",""
"88","","bandit","343","763220","0.0-305.0-0.0","11201798","wem/bandit_single","A1ZB2NY0F9QNP0","gain","6","","75","K","2","","0","0","1","0.4960714099","","false","268","0.3271935382","","main_expt","0.1670192172","","0.4960714099","","0.2697057224","","","","","","",""
"153","","bandit","344","765140","0.0-306.0-0.0","11201798","wem/bandit_single","A1ZB2NY0F9QNP0","gain","6","","76","L","3","","0","0","1","0.3075876552","","false","269","0.2912245063","","main_expt","0.1666577124","","0.4951393121","","0.3075876552","","","","","","",""
"2512","","bandit","345","769420","0.0-307.0-0.0","11201798","wem/bandit_single","A1ZB2NY0F9QNP0","gain","6","","76","L","3","","0","0","1","0.3437361696","","false","270","0.3007980493","","main_expt","0.1133531577","","0.4903783272","","0.3437361696","","","","","","",""
"669","","bandit","346","771854","0.0-308.0-0.0","11201798","wem/bandit_single","A1ZB2NY0F9QNP0","gain","6","","74","J","1","","0","0","1","0.1453503833","","false","271","0.3025875308","","main_expt","0.1453503833","","0.4932948231","","0.2596534978","","","","","","",""
"79","","bandit","347","773698","0.0-309.0-0.0","11201798","wem/bandit_single","A1ZB2NY0F9QNP0","gain","6","","72","H","0","img/none_selected.jpg","0","0","1","0.2608882705","","false","272","0.2608882705","","main_expt","0.1542373291","","0.4950636705","","0.2680739133","","","","","","",""
"81","","bandit","348","775547","0.0-310.0-0.0","11201798","wem/bandit_single","A1ZB2NY0F9QNP0","gain","6","","75","K","2","","0","0","1","0.4866982898","","false","273","0.2985246063","","main_expt","0.1312836042","","0.4866982898","","0.2287209558","","","","","","",""
"385","","bandit","349","777739","0.0-311.0-0.0","11201798","wem/bandit_single","A1ZB2NY0F9QNP0","gain","6","","76","L","3","","0","0","1","0.2659047846","","false","274","0.296104213","","main_expt","0.1616535947","","0.4654226264","","0.2659047846","","","","","","",""
"127","","bandit","350","779636","0.0-312.0-0.0","11201798","wem/bandit_single","A1ZB2NY0F9QNP0","gain","6","","76","L","3","","0","0","1","0.2303642271","","false","275","0.2897414639","","main_expt","0.163822666","","0.4633702838","","0.2303642271","","","","","","",""
"377","","bandit","351","781778","0.0-313.0-0.0","11201798","wem/bandit_single","A1ZB2NY0F9QNP0","gain","6","","74","J","1","","0","0","1","0.1500588852","","false","276","0.296822441","","main_expt","0.1500588852","","0.4741710053","","0.2631654739","","","","","","",""
"81","","bandit","352","783624","0.0-314.0-0.0","11201798","wem/bandit_single","A1ZB2NY0F9QNP0","gain","6","","74","J","1","","0","0","1","0.1975700973","","false","277","0.2769528726","","main_expt","0.1975700973","","0.4821206929","","0.2660527836","","","","","","",""
"81","","bandit","353","785473","0.0-315.0-0.0","11201798","wem/bandit_single","A1ZB2NY0F9QNP0","gain","6","","75","K","2","","0","0","1","0.4704549119","","false","278","0.3356585436","","main_expt","0.1355298524","","0.4704549119","","0.2869547209","","","","","","",""
"49","","bandit","354","787289","0.0-316.0-0.0","11201798","wem/bandit_single","A1ZB2NY0F9QNP0","gain","6","","75","K","2","","1","0","0","0.4749598821","","false","279","0.3222384225","","main_expt","0.1437345226","","0.4749598821","","0.3594721793","","","","","","",""
"111","","bandit","355","789170","0.0-317.0-0.0","11201798","wem/bandit_single","A1ZB2NY0F9QNP0","gain","6","","75","K","2","","0","0","1","0.4385317488","","false","280","0.27346357","","main_expt","0.126787642","","0.4385317488","","0.3903699723","","","","","","",""
"41","","bandit","356","790978","0.0-318.0-0.0","11201798","wem/bandit_single","A1ZB2NY0F9QNP0","gain","6","","75","K","2","","1","0","0","0.4397970497","","false","281","0.3633072925","","main_expt","0.1765789866","","0.4397970497","","0.4583904318","","","","","","",""
"344","","bandit","357","793088","0.0-319.0-0.0","11201798","wem/bandit_single","A1ZB2NY0F9QNP0","gain","6","","75","K","2","","0","0","1","0.4485424667","","false","282","0.3269934488","","main_expt","0.1659157347","","0.4485424667","","0.4689346609","","","","","","",""
"82","","bandit","358","794937","0.0-320.0-0.0","11201798","wem/bandit_single","A1ZB2NY0F9QNP0","gain","6","","75","K","2","","0","0","1","0.4460930912","","false","283","0.324321327","","main_expt","0.1876778028","","0.4460930912","","0.460541741","","","","","","",""
"97","","bandit","359","796801","0.0-321.0-0.0","11201798","wem/bandit_single","A1ZB2NY0F9QNP0","gain","6","","75","K","2","","1","0","0","0.46041158","","false","284","0.2677217275","","main_expt","0.2072959333","","0.46041158","","0.4485703909","","","","","","",""
"89","","bandit","360","798659","0.0-322.0-0.0","11201798","wem/bandit_single","A1ZB2NY0F9QNP0","gain","6","","75","K","2","","1","0","0","0.4722631388","","false","285","0.2832280908","","main_expt","0.2171876524","","0.4722631388","","0.4493749552","","","","","","",""
"115","","bandit","361","800546","0.0-323.0-0.0","11201798","wem/bandit_single","A1ZB2NY0F9QNP0","gain","6","","75","K","2","","0","0","1","0.4710864859","","false","286","0.3338799161","","main_expt","0.224404947","","0.4710864859","","0.4223312446","","","","","","",""
"49","","bandit","362","802361","0.0-324.0-0.0","11201798","wem/bandit_single","A1ZB2NY0F9QNP0","gain","6","","75","K","2","","0","0","1","0.4400158941","","false","287","0.3484096991","","main_expt","0.2249093708","","0.4400158941","","0.457140216","","","","","","",""
"80","","bandit","363","804208","0.0-325.0-0.0","11201798","wem/bandit_single","A1ZB2NY0F9QNP0","gain","6","","75","K","2","","1","0","0","0.4036546776","","false","288","0.3215301514","","main_expt","0.2219747159","","0.4036546776","","0.4411377771","","","","","","",""
"105","","bandit","364","806083","0.0-326.0-0.0","11201798","wem/bandit_single","A1ZB2NY0F9QNP0","gain","6","","75","K","2","","0","0","1","0.4324218596","","false","289","0.2965974011","","main_expt","0.2183007497","","0.4324218596","","0.4501271696","","","","","","",""
"104","","bandit","365","807954","0.0-327.0-0.0","11201798","wem/bandit_single","A1ZB2NY0F9QNP0","gain","6","","75","K","2","","1","0","0","0.4536473803","","false","290","0.2926361454","","main_expt","0.2481136515","","0.4536473803","","0.4436507911","","","","","","",""
"142","","bandit","366","809865","0.0-328.0-0.0","11201798","wem/bandit_single","A1ZB2NY0F9QNP0","gain","6","","75","K","2","","1","0","0","0.4634661847","","false","291","0.243163711","","main_expt","0.2972088317","","0.4634661847","","0.4381939672","","","","","","",""
"63","","bandit","367","811698","0.0-329.0-0.0","11201798","wem/bandit_single","A1ZB2NY0F9QNP0","gain","6","","75","K","2","","0","0","1","0.4609966616","","false","292","0.2064952975","","main_expt","0.2998647236","","0.4609966616","","0.4101305143","","","","","","",""
"74","","bandit","368","813539","0.0-330.0-0.0","11201798","wem/bandit_single","A1ZB2NY0F9QNP0","gain","6","","75","K","2","","0","0","1","0.4648618971","","false","293","0.2099334792","","main_expt","0.2861810992","","0.4648618971","","0.4297915702","","","","","","",""
"96","","bandit","369","815401","0.0-331.0-0.0","11201798","wem/bandit_single","A1ZB2NY0F9QNP0","gain","6","","75","K","2","","0","0","1","0.4582487824","","false","294","0.2507358833","","main_expt","0.345484004","","0.4582487824","","0.4537219743","","","","","","",""
"63","","bandit","370","817234","0.0-332.0-0.0","11201798","wem/bandit_single","A1ZB2NY0F9QNP0","gain","6","","76","L","3","","1","0","0","0.4694953972","","false","295","0.2494268831","","main_expt","0.3251772281","","0.4482247061","","0.4694953972","","","","","","",""
"135","","bandit","371","819137","0.0-333.0-0.0","11201798","wem/bandit_single","A1ZB2NY0F9QNP0","gain","6","","76","L","3","","0","0","1","0.4880383038","","false","296","0.2867080039","","main_expt","0.2953905587","","0.42326912","","0.4880383038","","","","","","",""
"70","","bandit","372","820974","0.0-334.0-0.0","11201798","wem/bandit_single","A1ZB2NY0F9QNP0","gain","6","","76","L","3","","1","0","0","0.4916251568","","false","297","0.2983387387","","main_expt","0.2717848064","","0.4151021773","","0.4916251568","","","","","","",""
"317","","bandit","373","823056","0.0-335.0-0.0","11201798","wem/bandit_single","A1ZB2NY0F9QNP0","gain","6","","76","L","3","","1","0","0","0.4921476303","","false","298","0.2982690602","","main_expt","0.2682571213","","0.4270228344","","0.4921476303","","","","","","",""
"42","","bandit","374","824875","0.0-336.0-0.0","11201798","wem/bandit_single","A1ZB2NY0F9QNP0","gain","6","","76","L","3","","1","0","0","0.4800884689","","false","299","0.2955511463","","main_expt","0.2400439073","","0.4168509428","","0.4800884689","","","","","","",""
"78","","bandit","375","826721","0.0-337.0-0.0","11201798","wem/bandit_single","A1ZB2NY0F9QNP0","gain","6","","76","L","3","","0","0","1","0.4882901572","","false","300","0.3236523504","","main_expt","0.2494994512","","0.414464059","","0.4882901572","","","","","","",""
"22","","bandit","376","828509","0.0-338.0-0.0","11201798","wem/bandit_single","A1ZB2NY0F9QNP0","gain","6","","76","L","3","","0","0","1","0.4849478036","","false","301","0.2926345705","","main_expt","0.2511279273","","0.423631951","","0.4849478036","","","","","","",""
"52","","bandit","377","830328","0.0-339.0-0.0","11201798","wem/bandit_single","A1ZB2NY0F9QNP0","gain","6","","76","L","3","","1","0","0","0.4799164125","","false","302","0.3320174044","","main_expt","0.2183253448","","0.4456639791","","0.4799164125","","","","","","",""
"78","","bandit","378","832175","0.0-340.0-0.0","11201798","wem/bandit_single","A1ZB2NY0F9QNP0","gain","6","","76","L","3","","1","0","0","0.4665064116","","false","303","0.2654452188","","main_expt","0.214624786","","0.458026102","","0.4665064116","","","","","","",""
