"rt","responses","trial_type","trial_index","time_elapsed","internal_node_id","subjID","study","MID","cond","drift","key_press","respCharCode","respKey","respChoiceNum","respChoice","gems","bombs","no_reward","GemPrChosen","BombPrChosen","practice","trial_counter","WinPr_0","LosePr_0","trial_label","WinPr_1","LosePr_1","WinPr_2","LosePr_2","WinPr_3","LosePr_3","Q0","Q1","Q2","gender","age","ethnicity"
"13114","{""Q0"":""A10A25H4472NHN""}","survey-text","0","13125","0.0-0.0","11300659","wem/bandit_single","A10A25H4472NHN","pain","8","","","","","","","","","","","","","","","","","","","","","","","","","","",""
"1693","","text","1","15824","0.0-1.0","11300659","wem/bandit_single","A10A25H4472NHN","pain","8","32","","","","","","","","","","","","","","","","","","","","","","","","","",""
"2140","","text","2","17966","0.0-2.0","11300659","wem/bandit_single","A10A25H4472NHN","pain","8","32","","","","","","","","","","","","","","","","","","","","","","","","","",""
"7281","","text","3","25249","0.0-3.0","11300659","wem/bandit_single","A10A25H4472NHN","pain","8","32","","","","","","","","","","","","","","","","","","","","","","","","","",""
"10233","","text","4","35484","0.0-4.0","11300659","wem/bandit_single","A10A25H4472NHN","pain","8","32","","","","","","","","","","","","","","","","","","","","","","","","","",""
"4438","","text","5","39924","0.0-5.0","11300659","wem/bandit_single","A10A25H4472NHN","pain","8","32","","","","","","","","","","","","","","","","","","","","","","","","","",""
"5207","","text","6","45133","0.0-6.0","11300659","wem/bandit_single","A10A25H4472NHN","pain","8","32","","","","","","","","","","","","","","","","","","","","","","","","","",""
"2082","","text","7","47217","0.0-7.0","11300659","wem/bandit_single","A10A25H4472NHN","pain","8","32","","","","","","","","","","","","","","","","","","","","","","","","","",""
"5576","","text","8","52796","0.0-8.0","11300659","wem/bandit_single","A10A25H4472NHN","pain","8","32","","","","","","","","","","","","","","","","","","","","","","","","","",""
"2782","","text","9","55580","0.0-9.0","11300659","wem/bandit_single","A10A25H4472NHN","pain","8","32","","","","","","","","","","","","","","","","","","","","","","","","","",""
"1888","","text","10","57469","0.0-10.0","11300659","wem/bandit_single","A10A25H4472NHN","pain","8","32","","","","","","","","","","","","","","","","","","","","","","","","","",""
"6738","","text","11","64208","0.0-11.0","11300659","wem/bandit_single","A10A25H4472NHN","pain","8","32","","","","","","","","","","","","","","","","","","","","","","","","","",""
"1311","","bandit","12","67031","0.0-12.0-0.0","11300659","wem/bandit_single","A10A25H4472NHN","pain","8","","74","J","0","img/none_selected_demo.jpg","0","0","1","0","0","true","0","0","0","","","","","","","","","","","","",""
"489","","bandit","13","69278","0.0-13.0-0.0","11300659","wem/bandit_single","A10A25H4472NHN","pain","8","","75","K","0","img/none_selected_demo.jpg","0","0","1","0","0","true","0","0","0","","","","","","","","","","","","",""
"2017","","text","14","71548","0.0-14.0","11300659","wem/bandit_single","A10A25H4472NHN","pain","8","32","","","","","","","","","","","","","","","","","","","","","","","","","",""
"1517","","text","15","73067","0.0-15.0","11300659","wem/bandit_single","A10A25H4472NHN","pain","8","32","","","","","","","","","","","","","","","","","","","","","","","","","",""
"2418","","text","16","75487","0.0-16.0","11300659","wem/bandit_single","A10A25H4472NHN","pain","8","32","","","","","","","","","","","","","","","","","","","","","","","","","",""
"1553","","text","17","77042","0.0-17.0","11300659","wem/bandit_single","A10A25H4472NHN","pain","8","32","","","","","","","","","","","","","","","","","","","","","","","","","",""
"1316","","bandit","18","79864","0.0-18.0-0.0","11300659","wem/bandit_single","A10A25H4472NHN","pain","8","","74","J","0","img/none_selected_demo.jpg","0","1","0","0","0.8","true","0","0","0.8","80_20_practice","0","0.2","","","","","","","","","",""
"920","","bandit","19","82542","0.0-18.0-1.0","11300659","wem/bandit_single","A10A25H4472NHN","pain","8","","74","J","0","img/none_selected_demo.jpg","0","1","0","0","0.8","true","0","0","0.8","80_20_practice","0","0.2","","","","","","","","","",""
"106","","bandit","20","84405","0.0-18.0-2.0","11300659","wem/bandit_single","A10A25H4472NHN","pain","8","","74","J","0","img/none_selected_demo.jpg","0","1","0","0","0.8","true","0","0","0.8","80_20_practice","0","0.2","","","","","","","","","",""
"289","","bandit","21","86451","0.0-18.0-3.0","11300659","wem/bandit_single","A10A25H4472NHN","pain","8","","74","J","0","img/none_selected_demo.jpg","0","1","0","0","0.8","true","0","0","0.8","80_20_practice","0","0.2","","","","","","","","","",""
"248","","bandit","22","88455","0.0-18.0-4.0","11300659","wem/bandit_single","A10A25H4472NHN","pain","8","","75","K","1","","0","0","1","0","0.2","true","0","0","0.8","80_20_practice","0","0.2","","","","","","","","","",""
"118","","bandit","23","90329","0.0-18.0-5.0","11300659","wem/bandit_single","A10A25H4472NHN","pain","8","","75","K","1","","0","0","1","0","0.2","true","0","0","0.8","80_20_practice","0","0.2","","","","","","","","","",""
"3","","bandit","24","92091","0.0-18.0-6.0","11300659","wem/bandit_single","A10A25H4472NHN","pain","8","","74","J","0","img/none_selected_demo.jpg","0","1","0","0","0.8","true","0","0","0.8","80_20_practice","0","0.2","","","","","","","","","",""
"454","","bandit","25","94304","0.0-18.0-7.0","11300659","wem/bandit_single","A10A25H4472NHN","pain","8","","74","J","0","img/none_selected_demo.jpg","0","1","0","0","0.8","true","0","0","0.8","80_20_practice","0","0.2","","","","","","","","","",""
"142","","bandit","26","96205","0.0-18.0-8.0","11300659","wem/bandit_single","A10A25H4472NHN","pain","8","","74","J","0","img/none_selected_demo.jpg","0","1","0","0","0.8","true","0","0","0.8","80_20_practice","0","0.2","","","","","","","","","",""
"58","","bandit","27","98019","0.0-18.0-9.0","11300659","wem/bandit_single","A10A25H4472NHN","pain","8","","74","J","0","img/none_selected_demo.jpg","0","1","0","0","0.8","true","0","0","0.8","80_20_practice","0","0.2","","","","","","","","","",""
"228","","bandit","28","100004","0.0-18.0-10.0","11300659","wem/bandit_single","A10A25H4472NHN","pain","8","","74","J","0","img/none_selected_demo.jpg","0","1","0","0","0.8","true","0","0","0.8","80_20_practice","0","0.2","","","","","","","","","",""
"135","","bandit","29","101896","0.0-18.0-11.0","11300659","wem/bandit_single","A10A25H4472NHN","pain","8","","74","J","0","img/none_selected_demo.jpg","0","1","0","0","0.8","true","0","0","0.8","80_20_practice","0","0.2","","","","","","","","","",""
"42","","bandit","30","103695","0.0-18.0-12.0","11300659","wem/bandit_single","A10A25H4472NHN","pain","8","","74","J","0","img/none_selected_demo.jpg","0","1","0","0","0.8","true","0","0","0.8","80_20_practice","0","0.2","","","","","","","","","",""
"139","","bandit","31","105591","0.0-18.0-13.0","11300659","wem/bandit_single","A10A25H4472NHN","pain","8","","74","J","0","img/none_selected_demo.jpg","0","1","0","0","0.8","true","0","0","0.8","80_20_practice","0","0.2","","","","","","","","","",""
"14630","","bandit","32","121980","0.0-18.0-14.0","11300659","wem/bandit_single","A10A25H4472NHN","pain","8","","74","J","0","img/none_selected_demo.jpg","0","1","0","0","0.8","true","0","0","0.8","80_20_practice","0","0.2","","","","","","","","","",""
"91","","bandit","33","123828","0.0-18.0-15.0","11300659","wem/bandit_single","A10A25H4472NHN","pain","8","","74","J","0","img/none_selected_demo.jpg","0","1","0","0","0.8","true","0","0","0.8","80_20_practice","0","0.2","","","","","","","","","",""
"80","","bandit","34","125666","0.0-18.0-16.0","11300659","wem/bandit_single","A10A25H4472NHN","pain","8","","74","J","0","img/none_selected_demo.jpg","0","1","0","0","0.8","true","0","0","0.8","80_20_practice","0","0.2","","","","","","","","","",""
"129","","bandit","35","127552","0.0-18.0-17.0","11300659","wem/bandit_single","A10A25H4472NHN","pain","8","","74","J","0","img/none_selected_demo.jpg","0","1","0","0","0.8","true","0","0","0.8","80_20_practice","0","0.2","","","","","","","","","",""
"145","","bandit","36","129456","0.0-18.0-18.0","11300659","wem/bandit_single","A10A25H4472NHN","pain","8","","74","J","0","img/none_selected_demo.jpg","0","1","0","0","0.8","true","0","0","0.8","80_20_practice","0","0.2","","","","","","","","","",""
"165","","bandit","37","131378","0.0-18.0-19.0","11300659","wem/bandit_single","A10A25H4472NHN","pain","8","","74","J","0","img/none_selected_demo.jpg","0","1","0","0","0.8","true","0","0","0.8","80_20_practice","0","0.2","","","","","","","","","",""
"6785","","text","38","138417","0.0-19.0","11300659","wem/bandit_single","A10A25H4472NHN","pain","8","32","","","","","","","","","","","","","","","","","","","","","","","","","",""
"1641","","bandit","39","141563","0.0-20.0-0.0","11300659","wem/bandit_single","A10A25H4472NHN","pain","8","","74","J","0","img/none_selected_demo.jpg","0","0","1","0","0","true","0","0","0","","0","0","","","","","","","","","",""
"4999","","text","40","146816","0.0-21.0","11300659","wem/bandit_single","A10A25H4472NHN","pain","8","32","","","","","","","","","","","","","","","","","","","","","","","","","",""
"2514","","text","41","149333","0.0-22.0","11300659","wem/bandit_single","A10A25H4472NHN","pain","8","32","","","","","","","","","","","","","","","","","","","","","","","","","",""
"1823","","text","42","151158","0.0-23.0","11300659","wem/bandit_single","A10A25H4472NHN","pain","8","32","","","","","","","","","","","","","","","","","","","","","","","","","",""
"5101","","text","43","156262","0.0-24.0","11300659","wem/bandit_single","A10A25H4472NHN","pain","8","32","","","","","","","","","","","","","","","","","","","","","","","","","",""
"5115","","text","44","161379","0.0-25.0","11300659","wem/bandit_single","A10A25H4472NHN","pain","8","32","","","","","","","","","","","","","","","","","","","","","","","","","",""
"2182","","text","45","163565","0.0-26.0","11300659","wem/bandit_single","A10A25H4472NHN","pain","8","32","","","","","","","","","","","","","","","","","","","","","","","","","",""
"5736","","text","46","169304","0.0-27.0","11300659","wem/bandit_single","A10A25H4472NHN","pain","8","32","","","","","","","","","","","","","","","","","","","","","","","","","",""
"3165","","text","47","172470","0.0-28.0","11300659","wem/bandit_single","A10A25H4472NHN","pain","8","32","","","","","","","","","","","","","","","","","","","","","","","","","",""
"3937","","text","48","176411","0.0-29.0","11300659","wem/bandit_single","A10A25H4472NHN","pain","8","32","","","","","","","","","","","","","","","","","","","","","","","","","",""
"1092","","text","49","177505","0.0-30.0","11300659","wem/bandit_single","A10A25H4472NHN","pain","8","32","","","","","","","","","","","","","","","","","","","","","","","","","",""
"3932","","text","50","181442","0.0-31.0","11300659","wem/bandit_single","A10A25H4472NHN","pain","8","32","","","","","","","","","","","","","","","","","","","","","","","","","",""
"1373","","bandit","51","184321","0.0-32.0-0.0","11300659","wem/bandit_single","A10A25H4472NHN","pain","8","","72","H","0","img/none_selected.jpg","0","0","1","0","0.8","true","0","0","0.8","full_practice","0","0.2","0","0.6","0","0.2","","","","","",""
"174","","bandit","52","186255","0.0-32.0-1.0","11300659","wem/bandit_single","A10A25H4472NHN","pain","8","","74","J","1","","0","1","0","0","0.2","true","0","0","0.8","full_practice","0","0.2","0","0.6","0","0.2","","","","","",""
"136","","bandit","53","188151","0.0-32.0-2.0","11300659","wem/bandit_single","A10A25H4472NHN","pain","8","","74","J","1","","0","0","1","0","0.2","true","0","0","0.8","full_practice","0","0.2","0","0.6","0","0.2","","","","","",""
"265","","bandit","54","190174","0.0-32.0-3.0","11300659","wem/bandit_single","A10A25H4472NHN","pain","8","","76","L","3","","0","0","1","0","0.2","true","0","0","0.8","full_practice","0","0.2","0","0.6","0","0.2","","","","","",""
"501","","bandit","55","192432","0.0-32.0-4.0","11300659","wem/bandit_single","A10A25H4472NHN","pain","8","","75","K","2","","0","1","0","0","0.6","true","0","0","0.8","full_practice","0","0.2","0","0.6","0","0.2","","","","","",""
"124","","bandit","56","194315","0.0-32.0-5.0","11300659","wem/bandit_single","A10A25H4472NHN","pain","8","","75","K","2","","0","0","1","0","0.6","true","0","0","0.8","full_practice","0","0.2","0","0.6","0","0.2","","","","","",""
"86","","bandit","57","196158","0.0-32.0-6.0","11300659","wem/bandit_single","A10A25H4472NHN","pain","8","","74","J","1","","0","1","0","0","0.2","true","0","0","0.8","full_practice","0","0.2","0","0.6","0","0.2","","","","","",""
"691","","bandit","58","198608","0.0-32.0-7.0","11300659","wem/bandit_single","A10A25H4472NHN","pain","8","","74","J","1","","0","1","0","0","0.2","true","0","0","0.8","full_practice","0","0.2","0","0.6","0","0.2","","","","","",""
"130","","bandit","59","200495","0.0-32.0-8.0","11300659","wem/bandit_single","A10A25H4472NHN","pain","8","","74","J","1","","0","0","1","0","0.2","true","0","0","0.8","full_practice","0","0.2","0","0.6","0","0.2","","","","","",""
"14","","bandit","60","202268","0.0-32.0-9.0","11300659","wem/bandit_single","A10A25H4472NHN","pain","8","","75","K","2","","0","0","1","0","0.6","true","0","0","0.8","full_practice","0","0.2","0","0.6","0","0.2","","","","","",""
"2","","bandit","61","204029","0.0-32.0-10.0","11300659","wem/bandit_single","A10A25H4472NHN","pain","8","","76","L","3","","0","0","1","0","0.2","true","0","0","0.8","full_practice","0","0.2","0","0.6","0","0.2","","","","","",""
"54","","bandit","62","205839","0.0-32.0-11.0","11300659","wem/bandit_single","A10A25H4472NHN","pain","8","","72","H","0","img/none_selected.jpg","0","1","0","0","0.8","true","0","0","0.8","full_practice","0","0.2","0","0.6","0","0.2","","","","","",""
"460","","bandit","63","208058","0.0-32.0-12.0","11300659","wem/bandit_single","A10A25H4472NHN","pain","8","","74","J","1","","0","0","1","0","0.2","true","0","0","0.8","full_practice","0","0.2","0","0.6","0","0.2","","","","","",""
"328","","bandit","64","210145","0.0-32.0-13.0","11300659","wem/bandit_single","A10A25H4472NHN","pain","8","","75","K","2","","0","0","1","0","0.6","true","0","0","0.8","full_practice","0","0.2","0","0.6","0","0.2","","","","","",""
"419","","bandit","65","212323","0.0-32.0-14.0","11300659","wem/bandit_single","A10A25H4472NHN","pain","8","","72","H","0","img/none_selected.jpg","0","0","1","0","0.8","true","0","0","0.8","full_practice","0","0.2","0","0.6","0","0.2","","","","","",""
"28","","bandit","66","214110","0.0-32.0-15.0","11300659","wem/bandit_single","A10A25H4472NHN","pain","8","","76","L","3","","0","0","1","0","0.2","true","0","0","0.8","full_practice","0","0.2","0","0.6","0","0.2","","","","","",""
"124","","bandit","67","215992","0.0-32.0-16.0","11300659","wem/bandit_single","A10A25H4472NHN","pain","8","","74","J","1","","0","0","1","0","0.2","true","0","0","0.8","full_practice","0","0.2","0","0.6","0","0.2","","","","","",""
"76","","bandit","68","217831","0.0-32.0-17.0","11300659","wem/bandit_single","A10A25H4472NHN","pain","8","","74","J","1","","0","0","1","0","0.2","true","0","0","0.8","full_practice","0","0.2","0","0.6","0","0.2","","","","","",""
"458","","bandit","69","220051","0.0-32.0-18.0","11300659","wem/bandit_single","A10A25H4472NHN","pain","8","","75","K","2","","0","0","1","0","0.6","true","0","0","0.8","full_practice","0","0.2","0","0.6","0","0.2","","","","","",""
"19","","bandit","70","221832","0.0-32.0-19.0","11300659","wem/bandit_single","A10A25H4472NHN","pain","8","","72","H","0","img/none_selected.jpg","0","0","1","0","0.8","true","0","0","0.8","full_practice","0","0.2","0","0.6","0","0.2","","","","","",""
"2041","","text","71","224130","0.0-33.0","11300659","wem/bandit_single","A10A25H4472NHN","pain","8","32","","","","","","","","","","","","","","","","","","","","","","","","","",""
"48945","","text","72","274080","0.0-34.0","11300659","wem/bandit_single","A10A25H4472NHN","pain","8","32","","","","","","","","","","","","","","","","","","","","","","","","","",""
"4077","","text","73","278159","0.0-35.0","11300659","wem/bandit_single","A10A25H4472NHN","pain","8","32","","","","","","","","","","","","","","","","","","","","","","","","","",""
"2350","","text","74","280514","0.0-36.0","11300659","wem/bandit_single","A10A25H4472NHN","pain","8","32","","","","","","","","","","","","","","","","","","","","","","","","","",""
"4364","","text","75","284881","0.0-37.0","11300659","wem/bandit_single","A10A25H4472NHN","pain","8","32","","","","","","","","","","","","","","","","","","","","","","","","","",""
"1653","","bandit","76","288041","0.0-38.0-0.0","11300659","wem/bandit_single","A10A25H4472NHN","pain","8","","74","J","1","","0","0","1","","0.2895646149","false","1","","0.4519399214","main_expt","","0.2895646149","","0.461186604","","0.2726752288","","","","","",""
"431","","bandit","77","290235","0.0-39.0-0.0","11300659","wem/bandit_single","A10A25H4472NHN","pain","8","","72","H","0","img/none_selected.jpg","0","0","1","","0.4414774062","false","2","","0.4414774062","main_expt","","0.3162770887","","0.4745384616","","0.2373300031","","","","","",""
"242","","bandit","78","292237","0.0-40.0-0.0","11300659","wem/bandit_single","A10A25H4472NHN","pain","8","","75","K","2","","0","0","1","","0.476270309","false","3","","0.4248782664","main_expt","","0.3445892231","","0.476270309","","0.2268539811","","","","","",""
"56","","bandit","79","294051","0.0-41.0-0.0","11300659","wem/bandit_single","A10A25H4472NHN","pain","8","","76","L","3","","0","0","1","","0.2312911009","false","4","","0.3797460064","main_expt","","0.318720175","","0.4750198572","","0.2312911009","","","","","",""
"132","","bandit","80","295941","0.0-42.0-0.0","11300659","wem/bandit_single","A10A25H4472NHN","pain","8","","74","J","1","","0","0","1","","0.2768356494","false","5","","0.3747955817","main_expt","","0.2768356494","","0.4711191004","","0.1875260819","","","","","",""
"366","","bandit","81","298065","0.0-43.0-0.0","11300659","wem/bandit_single","A10A25H4472NHN","pain","8","","75","K","2","","0","0","1","","0.4561500297","false","6","","0.3434652127","main_expt","","0.2660169375","","0.4561500297","","0.190272436","","","","","",""
"51","","bandit","82","299876","0.0-44.0-0.0","11300659","wem/bandit_single","A10A25H4472NHN","pain","8","","72","H","0","img/none_selected.jpg","0","0","1","","0.3450192323","false","7","","0.3450192323","main_expt","","0.3364590491","","0.4549462182","","0.1912500229","","","","","",""
"81","","bandit","83","301716","0.0-45.0-0.0","11300659","wem/bandit_single","A10A25H4472NHN","pain","8","","74","J","1","","0","0","1","","0.2814314702","false","8","","0.3319287687","main_expt","","0.2814314702","","0.4738433377","","0.2317086102","","","","","",""
"2","","bandit","84","303478","0.0-46.0-0.0","11300659","wem/bandit_single","A10A25H4472NHN","pain","8","","75","K","2","","0","1","0","","0.4719526371","false","9","","0.3592879842","main_expt","","0.172204453","","0.4719526371","","0.2732709622","","","","","",""
"59","","bandit","85","305298","0.0-47.0-0.0","11300659","wem/bandit_single","A10A25H4472NHN","pain","8","","75","K","2","","0","1","0","","0.4102917743","false","10","","0.4119036765","main_expt","","0.1714760066","","0.4102917743","","0.2369361721","","","","","",""
"112","","bandit","86","307173","0.0-48.0-0.0","11300659","wem/bandit_single","A10A25H4472NHN","pain","8","","75","K","2","","0","0","1","","0.4247485268","false","11","","0.440335537","main_expt","","0.1477319919","","0.4247485268","","0.2428480584","","","","","",""
"47","","bandit","87","308977","0.0-49.0-0.0","11300659","wem/bandit_single","A10A25H4472NHN","pain","8","","75","K","2","","0","0","1","","0.3805001106","false","12","","0.4198069009","main_expt","","0.1195530135","","0.3805001106","","0.3127978045","","","","","",""
"94","","bandit","88","310829","0.0-50.0-0.0","11300659","wem/bandit_single","A10A25H4472NHN","pain","8","","75","K","2","","0","1","0","","0.3922463094","false","13","","0.4095272681","main_expt","","0.1097065617","","0.3922463094","","0.3411181312","","","","","",""
"90","","bandit","89","312677","0.0-51.0-0.0","11300659","wem/bandit_single","A10A25H4472NHN","pain","8","","75","K","2","","0","0","1","","0.3385893542","false","14","","0.4393311008","main_expt","","0.1146709003","","0.3385893542","","0.3547490374","","","","","",""
"76","","bandit","90","314511","0.0-52.0-0.0","11300659","wem/bandit_single","A10A25H4472NHN","pain","8","","75","K","2","","0","0","1","","0.2580729479","false","15","","0.4232641195","main_expt","","0.105598426","","0.2580729479","","0.3447780093","","","","","",""
"72","","bandit","91","316345","0.0-53.0-0.0","11300659","wem/bandit_single","A10A25H4472NHN","pain","8","","75","K","2","","0","0","1","","0.3126944558","false","16","","0.408879381","main_expt","","0.1085338479","","0.3126944558","","0.3451486401","","","","","",""
"326","","bandit","92","318430","0.0-54.0-0.0","11300659","wem/bandit_single","A10A25H4472NHN","pain","8","","72","H","0","img/none_selected.jpg","0","0","1","","0.376774317","false","17","","0.376774317","main_expt","","0.1267686316","","0.3693960878","","0.3788599072","","","","","",""
"522","","bandit","93","320709","0.0-55.0-0.0","11300659","wem/bandit_single","A10A25H4472NHN","pain","8","","76","L","3","","0","1","0","","0.3977159439","false","18","","0.4245824949","main_expt","","0.2161611973","","0.3881723811","","0.3977159439","","","","","",""
"100","","bandit","94","322570","0.0-56.0-0.0","11300659","wem/bandit_single","A10A25H4472NHN","pain","8","","76","L","3","","0","0","1","","0.3885232362","false","19","","0.4391895307","main_expt","","0.2028493804","","0.3762380044","","0.3885232362","","","","","",""
"139","","bandit","95","324467","0.0-57.0-0.0","11300659","wem/bandit_single","A10A25H4472NHN","pain","8","","76","L","3","","0","0","1","","0.3985462001","false","20","","0.4621127774","main_expt","","0.2258994585","","0.3842023068","","0.3985462001","","","","","",""
"150","","bandit","96","326379","0.0-58.0-0.0","11300659","wem/bandit_single","A10A25H4472NHN","pain","8","","72","H","0","img/none_selected.jpg","0","0","1","","0.4621164646","false","21","","0.4621164646","main_expt","","0.1591174119","","0.3509270449","","0.349749023","","","","","",""
"597","","bandit","97","328736","0.0-59.0-0.0","11300659","wem/bandit_single","A10A25H4472NHN","pain","8","","74","J","1","","0","0","1","","0.1526874152","false","22","","0.4347396303","main_expt","","0.1526874152","","0.3777441782","","0.3437713834","","","","","",""
"146","","bandit","98","330638","0.0-60.0-0.0","11300659","wem/bandit_single","A10A25H4472NHN","pain","8","","75","K","2","","0","1","0","","0.3799964268","false","23","","0.43496863","main_expt","","0.1461335862","","0.3799964268","","0.3608333873","","","","","",""
"85","","bandit","99","332480","0.0-61.0-0.0","11300659","wem/bandit_single","A10A25H4472NHN","pain","8","","75","K","2","","0","0","1","","0.4097073291","false","24","","0.43684491","main_expt","","0.194032511","","0.4097073291","","0.3832767268","","","","","",""
"583","","bandit","100","334822","0.0-62.0-0.0","11300659","wem/bandit_single","A10A25H4472NHN","pain","8","","76","L","3","","0","1","0","","0.3839685871","false","25","","0.3785768995","main_expt","","0.1913779305","","0.4196977393","","0.3839685871","","","","","",""
"138","","bandit","101","336720","0.0-63.0-0.0","11300659","wem/bandit_single","A10A25H4472NHN","pain","8","","75","K","2","","0","0","1","","0.3798545817","false","26","","0.3754964585","main_expt","","0.2830828826","","0.3798545817","","0.3871157951","","","","","",""
"352","","bandit","102","338832","0.0-64.0-0.0","11300659","wem/bandit_single","A10A25H4472NHN","pain","8","","76","L","3","","0","0","1","","0.4093540125","false","27","","0.3964499655","main_expt","","0.3268824087","","0.3531061786","","0.4093540125","","","","","",""
"426","","bandit","103","341017","0.0-65.0-0.0","11300659","wem/bandit_single","A10A25H4472NHN","pain","8","","75","K","2","","0","0","1","","0.3327392046","false","28","","0.4243602908","main_expt","","0.3092871108","","0.3327392046","","0.3781829904","","","","","",""
"76","","bandit","104","342852","0.0-66.0-0.0","11300659","wem/bandit_single","A10A25H4472NHN","pain","8","","72","H","0","img/none_selected.jpg","0","0","1","","0.4296462108","false","29","","0.4296462108","main_expt","","0.299803321","","0.2799969064","","0.3633234486","","","","","",""
"244","","bandit","105","344856","0.0-67.0-0.0","11300659","wem/bandit_single","A10A25H4472NHN","pain","8","","74","J","1","","0","0","1","","0.3318792252","false","30","","0.4442153724","main_expt","","0.3318792252","","0.225268033","","0.395486831","","","","","",""
"264","","bandit","106","346877","0.0-68.0-0.0","11300659","wem/bandit_single","A10A25H4472NHN","pain","8","","75","K","2","","0","0","1","","0.2195205817","false","31","","0.4425075274","main_expt","","0.3274080626","","0.2195205817","","0.353932484","","","","","",""
"92","","bandit","107","348729","0.0-69.0-0.0","11300659","wem/bandit_single","A10A25H4472NHN","pain","8","","76","L","3","","0","0","1","","0.3902442546","false","32","","0.4038806219","main_expt","","0.3233555863","","0.2569702332","","0.3902442546","","","","","",""
"184","","bandit","108","350674","0.0-70.0-0.0","11300659","wem/bandit_single","A10A25H4472NHN","pain","8","","76","L","3","","0","0","1","","0.3727342875","false","33","","0.4283701542","main_expt","","0.3836123675","","0.2914027765","","0.3727342875","","","","","",""
"169","","bandit","109","352601","0.0-71.0-0.0","11300659","wem/bandit_single","A10A25H4472NHN","pain","8","","76","L","3","","0","0","1","","0.3940120807","false","34","","0.4332078231","main_expt","","0.4200589335","","0.2667004126","","0.3940120807","","","","","",""
"80","","bandit","110","354439","0.0-72.0-0.0","11300659","wem/bandit_single","A10A25H4472NHN","pain","8","","75","K","2","","0","0","1","","0.3112773703","false","35","","0.3861361583","main_expt","","0.4280145355","","0.3112773703","","0.3682756201","","","","","",""
"66","","bandit","111","356266","0.0-73.0-0.0","11300659","wem/bandit_single","A10A25H4472NHN","pain","8","","72","H","0","img/none_selected.jpg","0","1","0","","0.3176889815","false","36","","0.3176889815","main_expt","","0.3696194815","","0.3158013471","","0.4136743311","","","","","",""
"233","","bandit","112","358258","0.0-74.0-0.0","11300659","wem/bandit_single","A10A25H4472NHN","pain","8","","72","H","0","img/none_selected.jpg","0","0","1","","0.3333355096","false","37","","0.3333355096","main_expt","","0.3567242832","","0.3348696363","","0.449594317","","","","","",""
"254","","bandit","113","360271","0.0-75.0-0.0","11300659","wem/bandit_single","A10A25H4472NHN","pain","8","","72","H","0","img/none_selected.jpg","0","0","1","","0.3613286773","false","38","","0.3613286773","main_expt","","0.3139752797","","0.2967031697","","0.4427192246","","","","","",""
"89","","bandit","114","362120","0.0-76.0-0.0","11300659","wem/bandit_single","A10A25H4472NHN","pain","8","","74","J","1","","0","0","1","","0.2884672813","false","39","","0.3354588101","main_expt","","0.2884672813","","0.2816090282","","0.4375360897","","","","","",""
"198","","bandit","115","364078","0.0-77.0-0.0","11300659","wem/bandit_single","A10A25H4472NHN","pain","8","","75","K","2","","0","0","1","","0.2900329111","false","40","","0.4044898685","main_expt","","0.3253538103","","0.2900329111","","0.452648821","","","","","",""
"200","","bandit","116","366037","0.0-78.0-0.0","11300659","wem/bandit_single","A10A25H4472NHN","pain","8","","72","H","0","img/none_selected.jpg","0","0","1","","0.3615903795","false","41","","0.3615903795","main_expt","","0.2782289032","","0.3160732104","","0.4689255384","","","","","",""
"86","","bandit","117","367886","0.0-79.0-0.0","11300659","wem/bandit_single","A10A25H4472NHN","pain","8","","76","L","3","","0","0","1","","0.470096522","false","42","","0.3239257876","main_expt","","0.2378060085","","0.370849222","","0.470096522","","","","","",""
"116","","bandit","118","369760","0.0-80.0-0.0","11300659","wem/bandit_single","A10A25H4472NHN","pain","8","","75","K","2","","0","0","1","","0.385301305","false","43","","0.2907144625","main_expt","","0.2250536993","","0.385301305","","0.4349244256","","","","","",""
"108","","bandit","119","371627","0.0-81.0-0.0","11300659","wem/bandit_single","A10A25H4472NHN","pain","8","","75","K","2","","0","0","1","","0.416838688","false","44","","0.2937558929","main_expt","","0.2132249492","","0.416838688","","0.4316966947","","","","","",""
"108","","bandit","120","373494","0.0-82.0-0.0","11300659","wem/bandit_single","A10A25H4472NHN","pain","8","","76","L","3","","0","0","1","","0.4526201082","false","45","","0.3667346614","main_expt","","0.2669052982","","0.3927526088","","0.4526201082","","","","","",""
"637","","bandit","121","375892","0.0-83.0-0.0","11300659","wem/bandit_single","A10A25H4472NHN","pain","8","","72","H","0","img/none_selected.jpg","0","0","1","","0.4084803937","false","46","","0.4084803937","main_expt","","0.259601005","","0.3789336214","","0.4696962879","","","","","",""
"160","","bandit","122","377814","0.0-84.0-0.0","11300659","wem/bandit_single","A10A25H4472NHN","pain","8","","74","J","1","","0","0","1","","0.2442503122","false","47","","0.3956447052","main_expt","","0.2442503122","","0.3994803113","","0.4591824552","","","","","",""
"92","","bandit","123","379665","0.0-85.0-0.0","11300659","wem/bandit_single","A10A25H4472NHN","pain","8","","75","K","2","","0","1","0","","0.3570668153","false","48","","0.3859230678","main_expt","","0.2427668164","","0.3570668153","","0.4548607847","","","","","",""
"711","","bandit","124","382134","0.0-86.0-0.0","11300659","wem/bandit_single","A10A25H4472NHN","pain","8","","75","K","2","","0","1","0","","0.3500417472","false","49","","0.394993817","main_expt","","0.218731525","","0.3500417472","","0.4625410341","","","","","",""
"190","","bandit","125","384085","0.0-87.0-0.0","11300659","wem/bandit_single","A10A25H4472NHN","pain","8","","75","K","2","","0","1","0","","0.3110114061","false","50","","0.4358915385","main_expt","","0.2187604329","","0.3110114061","","0.4620574215","","","","","",""
"111","","bandit","126","385954","0.0-88.0-0.0","11300659","wem/bandit_single","A10A25H4472NHN","pain","8","","75","K","2","","0","0","1","","0.3165374422","false","51","","0.4437026926","main_expt","","0.2764450854","","0.3165374422","","0.4573118055","","","","","",""
"140","","bandit","127","387853","0.0-89.0-0.0","11300659","wem/bandit_single","A10A25H4472NHN","pain","8","","75","K","2","","0","0","1","","0.3212783944","false","52","","0.4357441266","main_expt","","0.2735561336","","0.3212783944","","0.4577170033","","","","","",""
"94","","bandit","128","389708","0.0-90.0-0.0","11300659","wem/bandit_single","A10A25H4472NHN","pain","8","","75","K","2","","0","0","1","","0.3079714244","false","53","","0.3926545571","main_expt","","0.2558353256","","0.3079714244","","0.4599667981","","","","","",""
"71","","bandit","129","391542","0.0-91.0-0.0","11300659","wem/bandit_single","A10A25H4472NHN","pain","8","","74","J","1","","0","0","1","","0.2856473895","false","54","","0.3841940555","main_expt","","0.2856473895","","0.3538619638","","0.4598989899","","","","","",""
"1035","","bandit","130","394338","0.0-92.0-0.0","11300659","wem/bandit_single","A10A25H4472NHN","pain","8","","75","K","2","","0","1","0","","0.3390258849","false","55","","0.3733442546","main_expt","","0.3110799389","","0.3390258849","","0.4371040197","","","","","",""
"715","","bandit","131","396813","0.0-93.0-0.0","11300659","wem/bandit_single","A10A25H4472NHN","pain","8","","75","K","2","","0","0","1","","0.3282580673","false","56","","0.3500738246","main_expt","","0.2862995849","","0.3282580673","","0.3889704242","","","","","",""
"202","","bandit","132","398778","0.0-94.0-0.0","11300659","wem/bandit_single","A10A25H4472NHN","pain","8","","76","L","3","","0","0","1","","0.4089883961","false","57","","0.3265916347","main_expt","","0.3029349154","","0.3014999451","","0.4089883961","","","","","",""
"255","","bandit","133","400793","0.0-95.0-0.0","11300659","wem/bandit_single","A10A25H4472NHN","pain","8","","75","K","2","","0","0","1","","0.2895525025","false","58","","0.3203483638","main_expt","","0.282602966","","0.2895525025","","0.3682078294","","","","","",""
"165","","bandit","134","402719","0.0-96.0-0.0","11300659","wem/bandit_single","A10A25H4472NHN","pain","8","","72","H","0","img/none_selected.jpg","0","0","1","","0.258324817","false","59","","0.258324817","main_expt","","0.3271218703","","0.2538740387","","0.426053772","","","","","",""
"486","","bandit","135","404964","0.0-97.0-0.0","11300659","wem/bandit_single","A10A25H4472NHN","pain","8","","75","K","2","","0","1","0","","0.2509640494","false","60","","0.2527557167","main_expt","","0.2978757068","","0.2509640494","","0.4175969639","","","","","",""
"180","","bandit","136","406906","0.0-98.0-0.0","11300659","wem/bandit_single","A10A25H4472NHN","pain","8","","75","K","2","","0","0","1","","0.1930295055","false","61","","0.2925705146","main_expt","","0.1922553384","","0.1930295055","","0.4124946444","","","","","",""
"229","","bandit","137","408895","0.0-99.0-0.0","11300659","wem/bandit_single","A10A25H4472NHN","pain","8","","75","K","2","","0","0","1","","0.1259826115","false","62","","0.310648962","main_expt","","0.1408400783","","0.1259826115","","0.4077217862","","","","","",""
"738","","bandit","138","411392","0.0-100.0-0.0","11300659","wem/bandit_single","A10A25H4472NHN","pain","8","","75","K","2","","0","0","1","","0.1388804293","false","63","","0.3175489896","main_expt","","0.1779610645","","0.1388804293","","0.4258821936","","","","","",""
"30","","bandit","139","413182","0.0-101.0-0.0","11300659","wem/bandit_single","A10A25H4472NHN","pain","8","","76","L","3","","0","1","0","","0.4314195329","false","64","","0.2756852574","main_expt","","0.1733040919","","0.1412297375","","0.4314195329","","","","","",""
"95","","bandit","140","415038","0.0-102.0-0.0","11300659","wem/bandit_single","A10A25H4472NHN","pain","8","","76","L","3","","0","0","1","","0.4174082156","false","65","","0.2798966648","main_expt","","0.1669650696","","0.07856201072","","0.4174082156","","","","","",""
"199","","bandit","141","416998","0.0-103.0-0.0","11300659","wem/bandit_single","A10A25H4472NHN","pain","8","","75","K","2","","0","0","1","","0.04493535693","false","66","","0.2440426105","main_expt","","0.1439674443","","0.04493535693","","0.4396479182","","","","","",""
"224","","bandit","142","418983","0.0-104.0-0.0","11300659","wem/bandit_single","A10A25H4472NHN","pain","8","","72","H","0","img/none_selected.jpg","0","0","1","","0.2630461485","false","67","","0.2630461485","main_expt","","0.1892066175","","0.06268984171","","0.4080198752","","","","","",""
"744","","bandit","143","421489","0.0-105.0-0.0","11300659","wem/bandit_single","A10A25H4472NHN","pain","8","","74","J","1","","0","0","1","","0.1994174399","false","68","","0.2456224984","main_expt","","0.1994174399","","0.0976634122","","0.4137299856","","","","","",""
"249","","bandit","144","423502","0.0-106.0-0.0","11300659","wem/bandit_single","A10A25H4472NHN","pain","8","","75","K","2","","0","0","1","","0.1303859095","false","69","","0.328759159","main_expt","","0.1624567358","","0.1303859095","","0.3938947582","","","","","",""
"51","","bandit","145","425311","0.0-107.0-0.0","11300659","wem/bandit_single","A10A25H4472NHN","pain","8","","75","K","2","","0","1","0","","0.09159795462","false","70","","0.3063762308","main_expt","","0.203142037","","0.09159795462","","0.3876621225","","","","","",""
"117","","bandit","146","427189","0.0-108.0-0.0","11300659","wem/bandit_single","A10A25H4472NHN","pain","8","","75","K","2","","0","0","1","","0.07422050438","false","71","","0.3509026903","main_expt","","0.218187973","","0.07422050438","","0.3788053019","","","","","",""
"24","","bandit","147","428978","0.0-109.0-0.0","11300659","wem/bandit_single","A10A25H4472NHN","pain","8","","75","K","2","","0","0","1","","0.05420033029","false","72","","0.3695940198","main_expt","","0.2357875668","","0.05420033029","","0.3632611749","","","","","",""
"25","","bandit","148","430763","0.0-110.0-0.0","11300659","wem/bandit_single","A10A25H4472NHN","pain","8","","76","L","3","","0","1","0","","0.3121818875","false","73","","0.3532210052","main_expt","","0.1951490082","","0.04794676006","","0.3121818875","","","","","",""
"140","","bandit","149","432663","0.0-111.0-0.0","11300659","wem/bandit_single","A10A25H4472NHN","pain","8","","76","L","3","","0","1","0","","0.3385624816","false","74","","0.3780170277","main_expt","","0.208621177","","0.03645121522","","0.3385624816","","","","","",""
"80","","bandit","150","434503","0.0-112.0-0.0","11300659","wem/bandit_single","A10A25H4472NHN","pain","8","","76","L","3","","0","0","1","","0.3393964734","false","75","","0.3141643986","main_expt","","0.2016482668","","0.04346784694","","0.3393964734","","","","","",""
"161","","bandit","151","436427","0.0-113.0-0.0","11300659","wem/bandit_single","A10A25H4472NHN","pain","8","","76","L","3","","0","1","0","","0.3489067358","false","76","","0.3520496016","main_expt","","0.2495615647","","0.05697420644","","0.3489067358","","","","","",""
"132","","bandit","152","438318","0.0-114.0-0.0","11300659","wem/bandit_single","A10A25H4472NHN","pain","8","","76","L","3","","0","0","1","","0.3502211764","false","77","","0.2628688268","main_expt","","0.2225386599","","0.05831686642","","0.3502211764","","","","","",""
"1069","","bandit","153","441148","0.0-115.0-0.0","11300659","wem/bandit_single","A10A25H4472NHN","pain","8","","76","L","3","","0","0","1","","0.2979424841","false","78","","0.2856335909","main_expt","","0.2525784454","","0.0396837938","","0.2979424841","","","","","",""
"2119","","bandit","154","445027","0.0-116.0-0.0","11300659","wem/bandit_single","A10A25H4472NHN","pain","8","","76","L","3","","0","0","1","","0.2779986596","false","79","","0.3052483479","main_expt","","0.2691825077","","0.03651397352","","0.2779986596","","","","","",""
"138","","bandit","155","446926","0.0-117.0-0.0","11300659","wem/bandit_single","A10A25H4472NHN","pain","8","","75","K","2","","0","0","1","","0.0570793957","false","80","","0.2809417262","main_expt","","0.2749696362","","0.0570793957","","0.2681941829","","","","","",""
"72","","bandit","156","448760","0.0-118.0-0.0","11300659","wem/bandit_single","A10A25H4472NHN","pain","8","","75","K","2","","0","0","1","","0.05597964966","false","81","","0.2639407754","main_expt","","0.291945729","","0.05597964966","","0.2536714586","","","","","",""
"94","","bandit","157","450618","0.0-119.0-0.0","11300659","wem/bandit_single","A10A25H4472NHN","pain","8","","76","L","3","","0","0","1","","0.1904528106","false","82","","0.3352417475","main_expt","","0.2804178179","","0.0589745046","","0.1904528106","","","","","",""
"179","","bandit","158","452557","0.0-120.0-0.0","11300659","wem/bandit_single","A10A25H4472NHN","pain","8","","72","H","0","img/none_selected.jpg","0","1","0","","0.3246721101","false","83","","0.3246721101","main_expt","","0.2253075454","","0.04461225985","","0.2497062266","","","","","",""
"129","","bandit","159","454445","0.0-121.0-0.0","11300659","wem/bandit_single","A10A25H4472NHN","pain","8","","72","H","0","img/none_selected.jpg","0","0","1","","0.3082112656","false","84","","0.3082112656","main_expt","","0.2475548924","","0.04600221485","","0.2960017758","","","","","",""
"152","","bandit","160","456360","0.0-122.0-0.0","11300659","wem/bandit_single","A10A25H4472NHN","pain","8","","72","H","0","img/none_selected.jpg","0","1","0","","0.2733186338","false","85","","0.2733186338","main_expt","","0.2443994903","","0.04782026086","","0.2677312645","","","","","",""
"220","","bandit","161","458340","0.0-123.0-0.0","11300659","wem/bandit_single","A10A25H4472NHN","pain","8","","72","H","0","img/none_selected.jpg","0","0","1","","0.2595222796","false","86","","0.2595222796","main_expt","","0.2112262296","","0.05551660222","","0.2764415163","","","","","",""
"527","","bandit","162","460629","0.0-124.0-0.0","11300659","wem/bandit_single","A10A25H4472NHN","pain","8","","72","H","0","img/none_selected.jpg","0","0","1","","0.2256999028","false","87","","0.2256999028","main_expt","","0.2188998383","","0.04708869331","","0.324022149","","","","","",""
"167","","bandit","163","462557","0.0-125.0-0.0","11300659","wem/bandit_single","A10A25H4472NHN","pain","8","","72","H","0","img/none_selected.jpg","0","0","1","","0.1990670624","false","88","","0.1990670624","main_expt","","0.2197891412","","0.02844544313","","0.3109963835","","","","","",""
"109","","bandit","164","464431","0.0-126.0-0.0","11300659","wem/bandit_single","A10A25H4472NHN","pain","8","","75","K","2","","0","0","1","","0.02947982339","false","89","","0.2125628639","main_expt","","0.1264972534","","0.02947982339","","0.324941543","","","","","",""
"223","","bandit","165","466416","0.0-127.0-0.0","11300659","wem/bandit_single","A10A25H4472NHN","pain","8","","76","L","3","","0","0","1","","0.3309337967","false","90","","0.2335475446","main_expt","","0.09492746395","","0.01544371513","","0.3309337967","","","","","",""
"36","","bandit","166","468214","0.0-128.0-0.0","11300659","wem/bandit_single","A10A25H4472NHN","pain","8","","72","H","0","img/none_selected.jpg","0","0","1","","0.2803997126","false","91","","0.2803997126","main_expt","","0.0779798764","","0.02662688154","","0.2419508287","","","","","",""
"237","","bandit","167","470210","0.0-129.0-0.0","11300659","wem/bandit_single","A10A25H4472NHN","pain","8","","74","J","1","","0","0","1","","0.1178574791","false","92","","0.2771315147","main_expt","","0.1178574791","","0.03471523835","","0.2040869203","","","","","",""
"96","","bandit","168","472066","0.0-130.0-0.0","11300659","wem/bandit_single","A10A25H4472NHN","pain","8","","75","K","2","","0","0","1","","0.0252433293","false","93","","0.3069544445","main_expt","","0.1199697814","","0.0252433293","","0.1936143615","","","","","",""
"228","","bandit","169","474058","0.0-131.0-0.0","11300659","wem/bandit_single","A10A25H4472NHN","pain","8","","75","K","2","","0","0","1","","0.02873343753","false","94","","0.2585327286","main_expt","","0.1351842626","","0.02873343753","","0.2296452841","","","","","",""
"1107","","bandit","170","476928","0.0-132.0-0.0","11300659","wem/bandit_single","A10A25H4472NHN","pain","8","","76","L","3","","0","0","1","","0.3009770616","false","95","","0.2043747222","main_expt","","0.1229387465","","0.03754278977","","0.3009770616","","","","","",""
"528","","bandit","171","479215","0.0-133.0-0.0","11300659","wem/bandit_single","A10A25H4472NHN","pain","8","","76","L","3","","0","1","0","","0.3664634414","false","96","","0.2149370614","main_expt","","0.1341504272","","0.02045008397","","0.3664634414","","","","","",""
"77","","bandit","172","481056","0.0-134.0-0.0","11300659","wem/bandit_single","A10A25H4472NHN","pain","8","","76","L","3","","0","0","1","","0.3476641925","false","97","","0.1294523689","main_expt","","0.08646330057","","0.01282395838","","0.3476641925","","","","","",""
"271","","bandit","173","483089","0.0-135.0-0.0","11300659","wem/bandit_single","A10A25H4472NHN","pain","8","","76","L","3","","0","1","0","","0.3885632826","false","98","","0.1653870254","main_expt","","0.07731746448","","0.02206163243","","0.3885632826","","","","","",""
"149","","bandit","174","485002","0.0-136.0-0.0","11300659","wem/bandit_single","A10A25H4472NHN","pain","8","","76","L","3","","0","0","1","","0.3222143249","false","99","","0.187235433","main_expt","","0.05048608161","","0.03016500256","","0.3222143249","","","","","",""
"737","","bandit","175","487501","0.0-137.0-0.0","11300659","wem/bandit_single","A10A25H4472NHN","pain","8","","75","K","2","","0","0","1","","0.03237578522","false","100","","0.1583251777","main_expt","","0.03970728334","","0.03237578522","","0.3386714995","","","","","",""
"689","","bandit","176","489954","0.0-138.0-0.0","11300659","wem/bandit_single","A10A25H4472NHN","pain","8","","76","L","3","","0","0","1","","0.3131396166","false","101","","0.1337381207","main_expt","","0.02108340439","","0.03241037075","","0.3131396166","","","","","",""
"275","","bandit","177","491990","0.0-139.0-0.0","11300659","wem/bandit_single","A10A25H4472NHN","pain","8","","72","H","0","img/none_selected.jpg","0","0","1","","0.1163639012","false","102","","0.1163639012","main_expt","","0.05244648731","","0.06000215667","","0.3417288757","","","","","",""
"369","","bandit","178","494120","0.0-140.0-0.0","11300659","wem/bandit_single","A10A25H4472NHN","pain","8","","75","K","2","","0","0","1","","0.08726741307","false","103","","0.1118657557","main_expt","","0.04574159302","","0.08726741307","","0.3582654759","","","","","",""
"80","","bandit","179","495960","0.0-141.0-0.0","11300659","wem/bandit_single","A10A25H4472NHN","pain","8","","76","L","3","","0","0","1","","0.3409136392","false","104","","0.1501499683","main_expt","","0.05033190662","","0.1067467257","","0.3409136392","","","","","",""
"59","","bandit","180","497780","0.0-142.0-0.0","11300659","wem/bandit_single","A10A25H4472NHN","pain","8","","76","L","3","","0","0","1","","0.3532992837","false","105","","0.1354733374","main_expt","","0.1076128494","","0.1004566838","","0.3532992837","","","","","",""
"177","","bandit","181","499716","0.0-143.0-0.0","11300659","wem/bandit_single","A10A25H4472NHN","pain","8","","76","L","3","","0","0","1","","0.335683565","false","106","","0.1727398631","main_expt","","0.06740855405","","0.1055318719","","0.335683565","","","","","",""
"371","","bandit","182","501850","0.0-144.0-0.0","11300659","wem/bandit_single","A10A25H4472NHN","pain","8","","75","K","2","","0","0","1","","0.1236328269","false","107","","0.1474174257","main_expt","","0.06658027063","","0.1236328269","","0.3924059951","","","","","",""
"192","","bandit","183","503801","0.0-145.0-0.0","11300659","wem/bandit_single","A10A25H4472NHN","pain","8","","75","K","2","","0","0","1","","0.1301170461","false","108","","0.1683059408","main_expt","","0.0777756245","","0.1301170461","","0.3626054341","","","","","",""
"398","","bandit","184","505961","0.0-146.0-0.0","11300659","wem/bandit_single","A10A25H4472NHN","pain","8","","75","K","2","","0","1","0","","0.1507941036","false","109","","0.1972223025","main_expt","","0.1117823495","","0.1507941036","","0.3806857721","","","","","",""
"194","","bandit","185","507916","0.0-147.0-0.0","11300659","wem/bandit_single","A10A25H4472NHN","pain","8","","75","K","2","","0","1","0","","0.1647590848","false","110","","0.2085186414","main_expt","","0.08710900622","","0.1647590848","","0.3452619283","","","","","",""
"91","","bandit","186","509769","0.0-148.0-0.0","11300659","wem/bandit_single","A10A25H4472NHN","pain","8","","75","K","2","","0","1","0","","0.1574612326","false","111","","0.1811180602","main_expt","","0.107183683","","0.1574612326","","0.3653509784","","","","","",""
"694","","bandit","187","512229","0.0-149.0-0.0","11300659","wem/bandit_single","A10A25H4472NHN","pain","8","","75","K","2","","0","0","1","","0.1406493921","false","112","","0.222295219","main_expt","","0.1099425133","","0.1406493921","","0.3435522482","","","","","",""
"488","","bandit","188","514476","0.0-150.0-0.0","11300659","wem/bandit_single","A10A25H4472NHN","pain","8","","76","L","3","","0","0","1","","0.3424956272","false","113","","0.254178783","main_expt","","0.1457634924","","0.1367300214","","0.3424956272","","","","","",""
"256","","bandit","189","516497","0.0-151.0-0.0","11300659","wem/bandit_single","A10A25H4472NHN","pain","8","","76","L","3","","0","0","1","","0.3353894863","false","114","","0.2315882939","main_expt","","0.09824844824","","0.1534665218","","0.3353894863","","","","","",""
"1570","","bandit","190","519830","0.0-152.0-0.0","11300659","wem/bandit_single","A10A25H4472NHN","pain","8","","75","K","2","","0","1","0","","0.1890238391","false","115","","0.2079629003","main_expt","","0.07202874502","","0.1890238391","","0.3965113255","","","","","",""
"206","","bandit","191","521798","0.0-153.0-0.0","11300659","wem/bandit_single","A10A25H4472NHN","pain","8","","75","K","2","","0","0","1","","0.1480670238","false","116","","0.2117584369","main_expt","","0.08386797302","","0.1480670238","","0.3889101716","","","","","",""
"1473","","bandit","192","525032","0.0-154.0-0.0","11300659","wem/bandit_single","A10A25H4472NHN","pain","8","","76","L","3","","0","1","0","","0.412290601","false","117","","0.1897465023","main_expt","","0.1223406282","","0.1450369027","","0.412290601","","","","","",""
"948","","bandit","193","527745","0.0-155.0-0.0","11300659","wem/bandit_single","A10A25H4472NHN","pain","8","","76","L","3","","0","1","0","","0.4090296977","false","118","","0.2162179109","main_expt","","0.1131974311","","0.1525061225","","0.4090296977","","","","","",""
"594","","bandit","194","530106","0.0-156.0-0.0","11300659","wem/bandit_single","A10A25H4472NHN","pain","8","","76","L","3","","0","1","0","","0.3900906375","false","119","","0.1954464435","main_expt","","0.1214903214","","0.1327940691","","0.3900906375","","","","","",""
"2","","bandit","195","531867","0.0-157.0-0.0","11300659","wem/bandit_single","A10A25H4472NHN","pain","8","","76","L","3","","0","0","1","","0.3722828095","false","120","","0.2433439763","main_expt","","0.1379734046","","0.1517026744","","0.3722828095","","","","","",""
"333","","bandit","196","533967","0.0-158.0-0.0","11300659","wem/bandit_single","A10A25H4472NHN","pain","8","","75","K","2","","0","0","1","","0.09770447215","false","121","","0.2093375247","main_expt","","0.1537473387","","0.09770447215","","0.3593952677","","","","","",""
"498","","bandit","197","536231","0.0-159.0-0.0","11300659","wem/bandit_single","A10A25H4472NHN","pain","8","","75","K","2","","0","1","0","","0.1084092314","false","122","","0.2030857612","main_expt","","0.1654199468","","0.1084092314","","0.3670381393","","","","","",""
"1016","","bandit","198","539008","0.0-160.0-0.0","11300659","wem/bandit_single","A10A25H4472NHN","pain","8","","75","K","2","","0","1","0","","0.1828660492","false","123","","0.1810532848","main_expt","","0.1908187881","","0.1828660492","","0.3587286137","","","","","",""
"1103","","bandit","199","541879","0.0-161.0-0.0","11300659","wem/bandit_single","A10A25H4472NHN","pain","8","","75","K","2","","0","1","0","","0.1743556658","false","124","","0.1582229448","main_expt","","0.2229551501","","0.1743556658","","0.3492740793","","","","","",""
"518","","bandit","200","544161","0.0-162.0-0.0","11300659","wem/bandit_single","A10A25H4472NHN","pain","8","","75","K","2","","0","0","1","","0.2091647646","false","125","","0.1223239468","main_expt","","0.2354127912","","0.2091647646","","0.3031262708","","","","","",""
"494","","bandit","201","546417","0.0-163.0-0.0","11300659","wem/bandit_single","A10A25H4472NHN","pain","8","","76","L","3","","0","0","1","","0.3272336491","false","126","","0.08912034734","main_expt","","0.25119817","","0.2089783764","","0.3272336491","","","","","",""
"222","","bandit","202","548400","0.0-164.0-0.0","11300659","wem/bandit_single","A10A25H4472NHN","pain","8","","75","K","2","","0","1","0","","0.21334071","false","127","","0.05948163","main_expt","","0.2312690923","","0.21334071","","0.3153677968","","","","","",""
"486","","bandit","203","550648","0.0-165.0-0.0","11300659","wem/bandit_single","A10A25H4472NHN","pain","8","","75","K","2","","0","0","1","","0.1916283041","false","128","","0.06525821595","main_expt","","0.2741150261","","0.1916283041","","0.3317710332","","","","","",""
"1008","","bandit","204","553418","0.0-166.0-0.0","11300659","wem/bandit_single","A10A25H4472NHN","pain","8","","75","K","2","","0","0","1","","0.1810604207","false","129","","0.04677418535","main_expt","","0.2804264122","","0.1810604207","","0.3818586719","","","","","",""
"494","","bandit","205","555675","0.0-167.0-0.0","11300659","wem/bandit_single","A10A25H4472NHN","pain","8","","75","K","2","","0","0","1","","0.1492319935","false","130","","0.04931785787","main_expt","","0.2746384559","","0.1492319935","","0.3778611376","","","","","",""
"172","","bandit","206","557607","0.0-168.0-0.0","11300659","wem/bandit_single","A10A25H4472NHN","pain","8","","75","K","2","","0","0","1","","0.129351286","false","131","","0.03231589458","main_expt","","0.3052944487","","0.129351286","","0.3745485054","","","","","",""
"1586","","bandit","207","560955","0.0-169.0-0.0","11300659","wem/bandit_single","A10A25H4472NHN","pain","8","","75","K","2","","0","0","1","","0.1020216346","false","132","","0.0374336399","main_expt","","0.2871604017","","0.1020216346","","0.3901944836","","","","","",""
"4244","","bandit","208","566965","0.0-170.0-0.0","11300659","wem/bandit_single","A10A25H4472NHN","pain","8","","75","K","2","","0","0","1","","0.1100395313","false","133","","0.04583961862","main_expt","","0.2262434135","","0.1100395313","","0.3245875462","","","","","",""
"742","","bandit","209","569472","0.0-171.0-0.0","11300659","wem/bandit_single","A10A25H4472NHN","pain","8","","76","L","3","","0","0","1","","0.2794858075","false","134","","0.04150300199","main_expt","","0.2020687113","","0.1078381017","","0.2794858075","","","","","",""
"2628","","bandit","210","573863","0.0-172.0-0.0","11300659","wem/bandit_single","A10A25H4472NHN","pain","8","","76","L","3","","0","1","0","","0.2867414221","false","135","","0.04663842542","main_expt","","0.2168620662","","0.1093486249","","0.2867414221","","","","","",""
"8897","","bandit","211","584522","0.0-173.0-0.0","11300659","wem/bandit_single","A10A25H4472NHN","pain","8","","75","K","2","","0","0","1","","0.1246456113","false","136","","0.06291357963","main_expt","","0.151139006","","0.1246456113","","0.2388941587","","","","","",""
"685","","bandit","212","586971","0.0-174.0-0.0","11300659","wem/bandit_single","A10A25H4472NHN","pain","8","","76","L","3","","0","1","0","","0.2301747732","false","137","","0.0848669819","main_expt","","0.1452995234","","0.1167447495","","0.2301747732","","","","","",""
"1208","","bandit","213","589945","0.0-175.0-0.0","11300659","wem/bandit_single","A10A25H4472NHN","pain","8","","76","L","3","","0","0","1","","0.2344721482","false","138","","0.1250360552","main_expt","","0.1599176777","","0.1357570265","","0.2344721482","","","","","",""
"9894","","bandit","214","601604","0.0-176.0-0.0","11300659","wem/bandit_single","A10A25H4472NHN","pain","8","","76","L","3","","0","0","1","","0.2351335283","false","139","","0.122190115","main_expt","","0.1704699841","","0.1616689495","","0.2351335283","","","","","",""
"1782","","bandit","215","605147","0.0-177.0-0.0","11300659","wem/bandit_single","A10A25H4472NHN","pain","8","","75","K","2","","0","0","1","","0.1979747013","false","140","","0.08666030548","main_expt","","0.1142956015","","0.1979747013","","0.2876903143","","","","","",""
"1221","","bandit","216","608134","0.0-178.0-0.0","11300659","wem/bandit_single","A10A25H4472NHN","pain","8","","72","H","0","img/none_selected.jpg","0","0","1","","0.09967801986","false","141","","0.09967801986","main_expt","","0.1206890816","","0.1708965128","","0.2865732071","","","","","",""
"1161","","bandit","217","611058","0.0-179.0-0.0","11300659","wem/bandit_single","A10A25H4472NHN","pain","8","","72","H","0","img/none_selected.jpg","0","1","0","","0.1125289611","false","142","","0.1125289611","main_expt","","0.1324259923","","0.204481367","","0.248943806","","","","","",""
"225","","bandit","218","613051","0.0-180.0-0.0","11300659","wem/bandit_single","A10A25H4472NHN","pain","8","","72","H","0","img/none_selected.jpg","0","0","1","","0.1467602081","false","143","","0.1467602081","main_expt","","0.09892217097","","0.1861099789","","0.2839045407","","","","","",""
"210","","bandit","219","615021","0.0-181.0-0.0","11300659","wem/bandit_single","A10A25H4472NHN","pain","8","","76","L","3","","0","0","1","","0.3150250783","false","144","","0.1467522766","main_expt","","0.1577744197","","0.1956465744","","0.3150250783","","","","","",""
"697","","bandit","220","617482","0.0-182.0-0.0","11300659","wem/bandit_single","A10A25H4472NHN","pain","8","","72","H","0","img/none_selected.jpg","0","0","1","","0.118212248","false","145","","0.118212248","main_expt","","0.1392006829","","0.2622876922","","0.3090395899","","","","","",""
"207","","bandit","221","619450","0.0-183.0-0.0","11300659","wem/bandit_single","A10A25H4472NHN","pain","8","","72","H","0","img/none_selected.jpg","0","0","1","","0.1089879874","false","146","","0.1089879874","main_expt","","0.1262993523","","0.304745079","","0.3122039877","","","","","",""
"79","","bandit","222","621291","0.0-184.0-0.0","11300659","wem/bandit_single","A10A25H4472NHN","pain","8","","72","H","0","img/none_selected.jpg","0","0","1","","0.1200469816","false","147","","0.1200469816","main_expt","","0.1970652478","","0.2888799162","","0.2959619691","","","","","",""
"31","","bandit","223","623082","0.0-185.0-0.0","11300659","wem/bandit_single","A10A25H4472NHN","pain","8","","72","H","0","img/none_selected.jpg","0","1","0","","0.1276189258","false","148","","0.1276189258","main_expt","","0.2502259542","","0.2290209364","","0.2395536641","","","","","",""
"68","","bandit","224","624911","0.0-186.0-0.0","11300659","wem/bandit_single","A10A25H4472NHN","pain","8","","72","H","0","img/none_selected.jpg","0","0","1","","0.1280703092","false","149","","0.1280703092","main_expt","","0.264890558","","0.1626908122","","0.2650868272","","","","","",""
"31","","bandit","225","626711","0.0-187.0-0.0","11300659","wem/bandit_single","A10A25H4472NHN","pain","8","","72","H","0","img/none_selected.jpg","0","0","1","","0.1260403861","false","150","","0.1260403861","main_expt","","0.2458403893","","0.1958031623","","0.2986082654","","","","","",""
"7","","bandit","226","628481","0.0-188.0-0.0","11300659","wem/bandit_single","A10A25H4472NHN","pain","8","","75","K","2","","0","0","1","","0.2110526716","false","151","","0.1472493067","main_expt","","0.3021038309","","0.2110526716","","0.2843767109","","","","","",""
"840","","bandit","227","631085","0.0-189.0-0.0","11300659","wem/bandit_single","A10A25H4472NHN","pain","8","","74","J","1","","0","0","1","","0.2863751765","false","152","","0.1256460397","main_expt","","0.2863751765","","0.239542308","","0.2910803031","","","","","",""
"82","","bandit","228","632931","0.0-190.0-0.0","11300659","wem/bandit_single","A10A25H4472NHN","pain","8","","76","L","3","","0","0","1","","0.2910028656","false","153","","0.1567097088","main_expt","","0.250244768","","0.2781725502","","0.2910028656","","","","","",""
"497","","bandit","229","635194","0.0-191.0-0.0","11300659","wem/bandit_single","A10A25H4472NHN","pain","8","","72","H","0","img/none_selected.jpg","0","0","1","","0.1473662378","false","154","","0.1473662378","main_expt","","0.2127808211","","0.228047793","","0.2845613835","","","","","",""
"71","","bandit","230","637029","0.0-192.0-0.0","11300659","wem/bandit_single","A10A25H4472NHN","pain","8","","76","L","3","","0","0","1","","0.2707345723","false","155","","0.1466549972","main_expt","","0.205053704","","0.2683949018","","0.2707345723","","","","","",""
"182","","bandit","231","638973","0.0-193.0-0.0","11300659","wem/bandit_single","A10A25H4472NHN","pain","8","","72","H","0","img/none_selected.jpg","0","0","1","","0.1127453184","false","156","","0.1127453184","main_expt","","0.1648482415","","0.3192141369","","0.3156720475","","","","","",""
"208","","bandit","232","640943","0.0-194.0-0.0","11300659","wem/bandit_single","A10A25H4472NHN","pain","8","","72","H","0","img/none_selected.jpg","0","0","1","","0.1577506677","false","157","","0.1577506677","main_expt","","0.1888047422","","0.3402823895","","0.3101066834","","","","","",""
"88","","bandit","233","642791","0.0-195.0-0.0","11300659","wem/bandit_single","A10A25H4472NHN","pain","8","","76","L","3","","0","1","0","","0.3236654942","false","158","","0.177177298","main_expt","","0.1759444775","","0.2944958958","","0.3236654942","","","","","",""
"210","","bandit","234","644769","0.0-196.0-0.0","11300659","wem/bandit_single","A10A25H4472NHN","pain","8","","76","L","3","","0","1","0","","0.2735657487","false","159","","0.1693510486","main_expt","","0.2066832709","","0.3007248388","","0.2735657487","","","","","",""
"109","","bandit","235","646641","0.0-197.0-0.0","11300659","wem/bandit_single","A10A25H4472NHN","pain","8","","76","L","3","","0","0","1","","0.2384912546","false","160","","0.1230292859","main_expt","","0.2570817279","","0.3179332055","","0.2384912546","","","","","",""
"208","","bandit","236","648610","0.0-198.0-0.0","11300659","wem/bandit_single","A10A25H4472NHN","pain","8","","76","L","3","","0","0","1","","0.2615252743","false","161","","0.07903667538","main_expt","","0.2244749933","","0.2506164635","","0.2615252743","","","","","",""
"80","","bandit","237","650452","0.0-199.0-0.0","11300659","wem/bandit_single","A10A25H4472NHN","pain","8","","75","K","2","","0","0","1","","0.2858836385","false","162","","0.1136507332","main_expt","","0.23263707","","0.2858836385","","0.2187643747","","","","","",""
"633","","bandit","238","652849","0.0-200.0-0.0","11300659","wem/bandit_single","A10A25H4472NHN","pain","8","","72","H","0","img/none_selected.jpg","0","0","1","","0.1137116213","false","163","","0.1137116213","main_expt","","0.2287127565","","0.2848163613","","0.1909081127","","","","","",""
"63","","bandit","239","654679","0.0-201.0-0.0","11300659","wem/bandit_single","A10A25H4472NHN","pain","8","","76","L","3","","0","0","1","","0.1808716434","false","164","","0.1254102563","main_expt","","0.2303253206","","0.2688566635","","0.1808716434","","","","","",""
"84","","bandit","240","656529","0.0-202.0-0.0","11300659","wem/bandit_single","A10A25H4472NHN","pain","8","","75","K","2","","0","0","1","","0.2921202554","false","165","","0.1216805934","main_expt","","0.2771057403","","0.2921202554","","0.2118073572","","","","","",""
"115","","bandit","241","658407","0.0-203.0-0.0","11300659","wem/bandit_single","A10A25H4472NHN","pain","8","","74","J","1","","0","0","1","","0.2371810998","false","166","","0.1291529517","main_expt","","0.2371810998","","0.3143591269","","0.2410554973","","","","","",""
"98","","bandit","242","660266","0.0-204.0-0.0","11300659","wem/bandit_single","A10A25H4472NHN","pain","8","","72","H","0","img/none_selected.jpg","0","0","1","","0.1535345887","false","167","","0.1535345887","main_expt","","0.2349122652","","0.2892924204","","0.2574005288","","","","","",""
"57","","bandit","243","662085","0.0-205.0-0.0","11300659","wem/bandit_single","A10A25H4472NHN","pain","8","","76","L","3","","0","1","0","","0.2729884233","false","168","","0.1435034989","main_expt","","0.1959020284","","0.2786305655","","0.2729884233","","","","","",""
"115","","bandit","244","663965","0.0-206.0-0.0","11300659","wem/bandit_single","A10A25H4472NHN","pain","8","","76","L","3","","0","0","1","","0.2625821735","false","169","","0.1957458285","main_expt","","0.1899859579","","0.246803054","","0.2625821735","","","","","",""
"100","","bandit","245","665825","0.0-207.0-0.0","11300659","wem/bandit_single","A10A25H4472NHN","pain","8","","76","L","3","","0","1","0","","0.3100542845","false","170","","0.1308867566","main_expt","","0.2213833812","","0.2375021307","","0.3100542845","","","","","",""
"108","","bandit","246","667699","0.0-208.0-0.0","11300659","wem/bandit_single","A10A25H4472NHN","pain","8","","76","L","3","","0","0","1","","0.3083945368","false","171","","0.1422271972","main_expt","","0.1589997081","","0.2965678991","","0.3083945368","","","","","",""
"106","","bandit","247","669572","0.0-209.0-0.0","11300659","wem/bandit_single","A10A25H4472NHN","pain","8","","76","L","3","","0","0","1","","0.3929186772","false","172","","0.1541925874","main_expt","","0.1669714507","","0.2696718616","","0.3929186772","","","","","",""
"130","","bandit","248","671471","0.0-210.0-0.0","11300659","wem/bandit_single","A10A25H4472NHN","pain","8","","76","L","3","","0","0","1","","0.4107736206","false","173","","0.1416394444","main_expt","","0.1699847696","","0.2576521005","","0.4107736206","","","","","",""
"878","","bandit","249","674114","0.0-211.0-0.0","11300659","wem/bandit_single","A10A25H4472NHN","pain","8","","72","H","0","img/none_selected.jpg","0","1","0","","0.1207830423","false","174","","0.1207830423","main_expt","","0.202136981","","0.2839516933","","0.4267170337","","","","","",""
"44","","bandit","250","675919","0.0-212.0-0.0","11300659","wem/bandit_single","A10A25H4472NHN","pain","8","","72","H","0","img/none_selected.jpg","0","0","1","","0.1636312712","false","175","","0.1636312712","main_expt","","0.1863880777","","0.2932452363","","0.420504823","","","","","",""
"150","","bandit","251","677832","0.0-213.0-0.0","11300659","wem/bandit_single","A10A25H4472NHN","pain","8","","74","J","1","","0","0","1","","0.1426909825","false","176","","0.186569684","main_expt","","0.1426909825","","0.3118313574","","0.3956962169","","","","","",""
"187","","bandit","252","679788","0.0-214.0-0.0","11300659","wem/bandit_single","A10A25H4472NHN","pain","8","","75","K","2","","0","0","1","","0.3378695823","false","177","","0.1089038478","main_expt","","0.1335645184","","0.3378695823","","0.3834761318","","","","","",""
"24","","bandit","253","681577","0.0-215.0-0.0","11300659","wem/bandit_single","A10A25H4472NHN","pain","8","","72","H","0","img/none_selected.jpg","0","0","1","","0.08465244813","false","178","","0.08465244813","main_expt","","0.09719791569","","0.3234122319","","0.4167112469","","","","","",""
"88","","bandit","254","683430","0.0-216.0-0.0","11300659","wem/bandit_single","A10A25H4472NHN","pain","8","","72","H","0","img/none_selected.jpg","0","0","1","","0.1015747644","false","179","","0.1015747644","main_expt","","0.07123289457","","0.3281528324","","0.4370197561","","","","","",""
"571","","bandit","255","685764","0.0-217.0-0.0","11300659","wem/bandit_single","A10A25H4472NHN","pain","8","","76","L","3","","0","1","0","","0.3776598584","false","180","","0.1277953302","main_expt","","0.05555663239","","0.340497037","","0.3776598584","","","","","",""
"176","","bandit","256","687703","0.0-218.0-0.0","11300659","wem/bandit_single","A10A25H4472NHN","pain","8","","76","L","3","","0","0","1","","0.3636519722","false","181","","0.1854921141","main_expt","","0.04396828199","","0.3007371283","","0.3636519722","","","","","",""
"85","","bandit","257","689557","0.0-219.0-0.0","11300659","wem/bandit_single","A10A25H4472NHN","pain","8","","76","L","3","","0","0","1","","0.3246411676","false","182","","0.2273529654","main_expt","","0.02691259782","","0.3190136055","","0.3246411676","","","","","",""
"87","","bandit","258","691406","0.0-220.0-0.0","11300659","wem/bandit_single","A10A25H4472NHN","pain","8","","76","L","3","","0","0","1","","0.3187018958","false","183","","0.2600234541","main_expt","","0.04807599522","","0.322323442","","0.3187018958","","","","","",""
"831","","bandit","259","693999","0.0-221.0-0.0","11300659","wem/bandit_single","A10A25H4472NHN","pain","8","","72","H","0","img/none_selected.jpg","0","0","1","","0.2689652485","false","184","","0.2689652485","main_expt","","0.05076165442","","0.3086696071","","0.3497063737","","","","","",""
"1358","","bandit","260","697119","0.0-222.0-0.0","11300659","wem/bandit_single","A10A25H4472NHN","pain","8","","72","H","0","img/none_selected.jpg","0","0","1","","0.2646203852","false","185","","0.2646203852","main_expt","","0.1128087831","","0.3146814862","","0.3334532315","","","","","",""
"46","","bandit","261","698928","0.0-223.0-0.0","11300659","wem/bandit_single","A10A25H4472NHN","pain","8","","72","H","0","img/none_selected.jpg","0","0","1","","0.2038557162","false","186","","0.2038557162","main_expt","","0.1592260056","","0.3353274036","","0.3511592443","","","","","",""
"83","","bandit","262","700779","0.0-224.0-0.0","11300659","wem/bandit_single","A10A25H4472NHN","pain","8","","75","K","2","","0","1","0","","0.331036234","false","187","","0.2643634763","main_expt","","0.2195828404","","0.331036234","","0.3758503369","","","","","",""
"215","","bandit","263","702761","0.0-225.0-0.0","11300659","wem/bandit_single","A10A25H4472NHN","pain","8","","75","K","2","","0","1","0","","0.3061178756","false","188","","0.2137054787","main_expt","","0.214856838","","0.3061178756","","0.3951098987","","","","","",""
"152","","bandit","264","704682","0.0-226.0-0.0","11300659","wem/bandit_single","A10A25H4472NHN","pain","8","","75","K","2","","0","1","0","","0.3455914038","false","189","","0.2349639762","main_expt","","0.2103369464","","0.3455914038","","0.3766733461","","","","","",""
"144","","bandit","265","706591","0.0-227.0-0.0","11300659","wem/bandit_single","A10A25H4472NHN","pain","8","","75","K","2","","0","1","0","","0.3734842368","false","190","","0.2067261929","main_expt","","0.1932940482","","0.3734842368","","0.3974997784","","","","","",""
"74","","bandit","266","708428","0.0-228.0-0.0","11300659","wem/bandit_single","A10A25H4472NHN","pain","8","","75","K","2","","0","1","0","","0.3648323685","false","191","","0.275245882","main_expt","","0.2285646161","","0.3648323685","","0.4174686418","","","","","",""
"84","","bandit","267","710274","0.0-229.0-0.0","11300659","wem/bandit_single","A10A25H4472NHN","pain","8","","75","K","2","","0","0","1","","0.3339781981","false","192","","0.306220044","main_expt","","0.2589031043","","0.3339781981","","0.3963748123","","","","","",""
"118","","bandit","268","712153","0.0-230.0-0.0","11300659","wem/bandit_single","A10A25H4472NHN","pain","8","","76","L","3","","0","0","1","","0.3921748604","false","193","","0.3035773814","main_expt","","0.2195537535","","0.3342714415","","0.3921748604","","","","","",""
"507","","bandit","269","714422","0.0-231.0-0.0","11300659","wem/bandit_single","A10A25H4472NHN","pain","8","","72","H","0","img/none_selected.jpg","0","0","1","","0.2510827831","false","194","","0.2510827831","main_expt","","0.2027550427","","0.3241295504","","0.3580841109","","","","","",""
"68","","bandit","270","716253","0.0-232.0-0.0","11300659","wem/bandit_single","A10A25H4472NHN","pain","8","","75","K","2","","0","1","0","","0.3116310431","false","195","","0.2455858858","main_expt","","0.1862287394","","0.3116310431","","0.3508589263","","","","","",""
"69","","bandit","271","718084","0.0-233.0-0.0","11300659","wem/bandit_single","A10A25H4472NHN","pain","8","","75","K","2","","0","1","0","","0.3757707762","false","196","","0.2514601016","main_expt","","0.1892299528","","0.3757707762","","0.3580593089","","","","","",""
"45","","bandit","272","719896","0.0-234.0-0.0","11300659","wem/bandit_single","A10A25H4472NHN","pain","8","","75","K","2","","0","0","1","","0.3510132286","false","197","","0.2735270373","main_expt","","0.2217707201","","0.3510132286","","0.325214339","","","","","",""
"62","","bandit","273","721726","0.0-235.0-0.0","11300659","wem/bandit_single","A10A25H4472NHN","pain","8","","75","K","2","","0","1","0","","0.3775824693","false","198","","0.1856542716","main_expt","","0.2622368769","","0.3775824693","","0.3214736551","","","","","",""
"43","","bandit","274","723537","0.0-236.0-0.0","11300659","wem/bandit_single","A10A25H4472NHN","pain","8","","75","K","2","","0","0","1","","0.3591355879","false","199","","0.1439471636","main_expt","","0.2566369559","","0.3591355879","","0.3134841864","","","","","",""
"13","","bandit","275","725312","0.0-237.0-0.0","11300659","wem/bandit_single","A10A25H4472NHN","pain","8","","75","K","2","","0","0","1","","0.4329566742","false","200","","0.1920673188","main_expt","","0.2405232655","","0.4329566742","","0.3484934822","","","","","",""
"38","","bandit","276","727115","0.0-238.0-0.0","11300659","wem/bandit_single","A10A25H4472NHN","pain","8","","75","K","2","","0","0","1","","0.4316294991","false","201","","0.2139557707","main_expt","","0.191632201","","0.4316294991","","0.3509587021","","","","","",""
"542","","bandit","277","729421","0.0-239.0-0.0","11300659","wem/bandit_single","A10A25H4472NHN","pain","8","","76","L","3","","0","0","1","","0.3472711197","false","202","","0.2411081829","main_expt","","0.1860277461","","0.4446061493","","0.3472711197","","","","","",""
"13","","bandit","278","731193","0.0-240.0-0.0","11300659","wem/bandit_single","A10A25H4472NHN","pain","8","","72","H","0","img/none_selected.jpg","0","1","0","","0.2229679022","false","203","","0.2229679022","main_expt","","0.1959395152","","0.4350640844","","0.3501901851","","","","","",""
"39","","bandit","279","732995","0.0-241.0-0.0","11300659","wem/bandit_single","A10A25H4472NHN","pain","8","","72","H","0","img/none_selected.jpg","0","1","0","","0.2094072873","false","204","","0.2094072873","main_expt","","0.1909798814","","0.4511953558","","0.4021923856","","","","","",""
"41","","bandit","280","734803","0.0-242.0-0.0","11300659","wem/bandit_single","A10A25H4472NHN","pain","8","","72","H","0","img/none_selected.jpg","0","0","1","","0.2061243076","false","205","","0.2061243076","main_expt","","0.1952925147","","0.4444608137","","0.4103624794","","","","","",""
"46","","bandit","281","736616","0.0-243.0-0.0","11300659","wem/bandit_single","A10A25H4472NHN","pain","8","","72","H","0","img/none_selected.jpg","0","1","0","","0.1830656651","false","206","","0.1830656651","main_expt","","0.2333477628","","0.4174874576","","0.3884407208","","","","","",""
"48","","bandit","282","738427","0.0-244.0-0.0","11300659","wem/bandit_single","A10A25H4472NHN","pain","8","","72","H","0","img/none_selected.jpg","0","0","1","","0.1806213093","false","207","","0.1806213093","main_expt","","0.2366383375","","0.4473837798","","0.4205181933","","","","","",""
"66","","bandit","283","740258","0.0-245.0-0.0","11300659","wem/bandit_single","A10A25H4472NHN","pain","8","","72","H","0","img/none_selected.jpg","0","1","0","","0.1547428587","false","208","","0.1547428587","main_expt","","0.2588239296","","0.4423282801","","0.39705837","","","","","",""
"51","","bandit","284","742071","0.0-246.0-0.0","11300659","wem/bandit_single","A10A25H4472NHN","pain","8","","72","H","0","img/none_selected.jpg","0","0","1","","0.1633509089","false","209","","0.1633509089","main_expt","","0.2109346514","","0.4495798672","","0.3763678409","","","","","",""
"92","","bandit","285","743926","0.0-247.0-0.0","11300659","wem/bandit_single","A10A25H4472NHN","pain","8","","72","H","0","img/none_selected.jpg","0","0","1","","0.194224154","false","210","","0.194224154","main_expt","","0.2352346414","","0.4604116181","","0.329669689","","","","","",""
"104","","bandit","286","745795","0.0-248.0-0.0","11300659","wem/bandit_single","A10A25H4472NHN","pain","8","","72","H","0","img/none_selected.jpg","0","0","1","","0.1428536625","false","211","","0.1428536625","main_expt","","0.1919095989","","0.4515605979","","0.3234151823","","","","","",""
"100","","bandit","287","747664","0.0-249.0-0.0","11300659","wem/bandit_single","A10A25H4472NHN","pain","8","","72","H","0","img/none_selected.jpg","0","0","1","","0.1876263767","false","212","","0.1876263767","main_expt","","0.2511997366","","0.3796359761","","0.346289724","","","","","",""
"118","","bandit","288","749548","0.0-250.0-0.0","11300659","wem/bandit_single","A10A25H4472NHN","pain","8","","75","K","2","","0","1","0","","0.4098311692","false","213","","0.1767426991","main_expt","","0.2247602752","","0.4098311692","","0.3579646626","","","","","",""
"87","","bandit","289","751402","0.0-251.0-0.0","11300659","wem/bandit_single","A10A25H4472NHN","pain","8","","75","K","2","","0","0","1","","0.3758430492","false","214","","0.1997003326","main_expt","","0.2078026042","","0.3758430492","","0.3871938136","","","","","",""
"189","","bandit","290","753353","0.0-252.0-0.0","11300659","wem/bandit_single","A10A25H4472NHN","pain","8","","75","K","2","","0","1","0","","0.3391734167","false","215","","0.1753208105","main_expt","","0.2000367883","","0.3391734167","","0.4072701047","","","","","",""
"127","","bandit","291","755244","0.0-253.0-0.0","11300659","wem/bandit_single","A10A25H4472NHN","pain","8","","75","K","2","","0","1","0","","0.3292806148","false","216","","0.1526073348","main_expt","","0.1850279066","","0.3292806148","","0.4139997029","","","","","",""
"115","","bandit","292","757121","0.0-254.0-0.0","11300659","wem/bandit_single","A10A25H4472NHN","pain","8","","75","K","2","","0","1","0","","0.3672552775","false","217","","0.1885901152","main_expt","","0.1862329662","","0.3672552775","","0.4058129166","","","","","",""
"81","","bandit","293","758964","0.0-255.0-0.0","11300659","wem/bandit_single","A10A25H4472NHN","pain","8","","75","K","2","","0","1","0","","0.3540988412","false","218","","0.2068683321","main_expt","","0.2076422808","","0.3540988412","","0.3831507141","","","","","",""
"173","","bandit","294","760907","0.0-256.0-0.0","11300659","wem/bandit_single","A10A25H4472NHN","pain","8","","75","K","2","","0","0","1","","0.3705907093","false","219","","0.1830460615","main_expt","","0.1693095695","","0.3705907093","","0.3975704748","","","","","",""
"303","","bandit","295","762977","0.0-257.0-0.0","11300659","wem/bandit_single","A10A25H4472NHN","pain","8","","75","K","2","","0","1","0","","0.4071767116","false","220","","0.1510464272","main_expt","","0.1643321708","","0.4071767116","","0.420208779","","","","","",""
"273","","bandit","296","765020","0.0-258.0-0.0","11300659","wem/bandit_single","A10A25H4472NHN","pain","8","","75","K","2","","0","0","1","","0.4000591573","false","221","","0.1195154075","main_expt","","0.1755642267","","0.4000591573","","0.4277126104","","","","","",""
"63","","bandit","297","766848","0.0-259.0-0.0","11300659","wem/bandit_single","A10A25H4472NHN","pain","8","","75","K","2","","0","0","1","","0.4257242725","false","222","","0.1322821073","main_expt","","0.2047466037","","0.4257242725","","0.4098861052","","","","","",""
"363","","bandit","298","768975","0.0-260.0-0.0","11300659","wem/bandit_single","A10A25H4472NHN","pain","8","","75","K","2","","0","1","0","","0.4084538547","false","223","","0.1634864242","main_expt","","0.1261696039","","0.4084538547","","0.3865692481","","","","","",""
"139","","bandit","299","770880","0.0-261.0-0.0","11300659","wem/bandit_single","A10A25H4472NHN","pain","8","","75","K","2","","0","1","0","","0.3756333804","false","224","","0.1927622759","main_expt","","0.1671605087","","0.3756333804","","0.3942994903","","","","","",""
"1134","","bandit","300","773784","0.0-262.0-0.0","11300659","wem/bandit_single","A10A25H4472NHN","pain","8","","75","K","2","","0","1","0","","0.3977261909","false","225","","0.1949177646","main_expt","","0.1498322393","","0.3977261909","","0.3444994861","","","","","",""
"693","","bandit","301","776241","0.0-263.0-0.0","11300659","wem/bandit_single","A10A25H4472NHN","pain","8","","75","K","2","","0","0","1","","0.3876796808","false","226","","0.1675301724","main_expt","","0.106170416","","0.3876796808","","0.4042132592","","","","","",""
"294","","bandit","302","778300","0.0-264.0-0.0","11300659","wem/bandit_single","A10A25H4472NHN","pain","8","","75","K","2","","0","1","0","","0.3213858912","false","227","","0.163375113","main_expt","","0.0897934899","","0.3213858912","","0.3906229402","","","","","",""
"453","","bandit","303","780517","0.0-265.0-0.0","11300659","wem/bandit_single","A10A25H4472NHN","pain","8","","75","K","2","","0","0","1","","0.3331191915","false","228","","0.195474145","main_expt","","0.09443294629","","0.3331191915","","0.3417164876","","","","","",""
"199","","bandit","304","782477","0.0-266.0-0.0","11300659","wem/bandit_single","A10A25H4472NHN","pain","8","","75","K","2","","0","1","0","","0.308496805","false","229","","0.2410354958","main_expt","","0.0848669953","","0.308496805","","0.3222205624","","","","","",""
"137","","bandit","305","784383","0.0-267.0-0.0","11300659","wem/bandit_single","A10A25H4472NHN","pain","8","","75","K","2","","0","0","1","","0.2734654059","false","230","","0.2567648542","main_expt","","0.0701458292","","0.2734654059","","0.3442672336","","","","","",""
"158","","bandit","306","786309","0.0-268.0-0.0","11300659","wem/bandit_single","A10A25H4472NHN","pain","8","","75","K","2","","0","0","1","","0.292212981","false","231","","0.2304241664","main_expt","","0.1251282835","","0.292212981","","0.3164459362","","","","","",""
"269","","bandit","307","788338","0.0-269.0-0.0","11300659","wem/bandit_single","A10A25H4472NHN","pain","8","","75","K","2","","0","1","0","","0.2516656152","false","232","","0.2264886823","main_expt","","0.1124912266","","0.2516656152","","0.3396906789","","","","","",""
"191","","bandit","308","790295","0.0-270.0-0.0","11300659","wem/bandit_single","A10A25H4472NHN","pain","8","","75","K","2","","0","1","0","","0.2563877418","false","233","","0.1892320941","main_expt","","0.1535494164","","0.2563877418","","0.3008540409","","","","","",""
"221","","bandit","309","792281","0.0-271.0-0.0","11300659","wem/bandit_single","A10A25H4472NHN","pain","8","","75","K","2","","0","0","1","","0.283882603","false","234","","0.1556895318","main_expt","","0.1389628654","","0.283882603","","0.2767988229","","","","","",""
"2155","","bandit","310","796201","0.0-272.0-0.0","11300659","wem/bandit_single","A10A25H4472NHN","pain","8","","75","K","2","","0","0","1","","0.2758852766","false","235","","0.1976044491","main_expt","","0.1680793718","","0.2758852766","","0.2507781603","","","","","",""
"128","","bandit","311","798094","0.0-273.0-0.0","11300659","wem/bandit_single","A10A25H4472NHN","pain","8","","72","H","0","img/none_selected.jpg","0","0","1","","0.1468950029","false","236","","0.1468950029","main_expt","","0.2037097706","","0.2434452049","","0.3091667607","","","","","",""
"538","","bandit","312","800400","0.0-274.0-0.0","11300659","wem/bandit_single","A10A25H4472NHN","pain","8","","76","L","3","","0","0","1","","0.2883211118","false","237","","0.1365515699","main_expt","","0.1897176974","","0.2405517979","","0.2883211118","","","","","",""
"75","","bandit","313","802238","0.0-275.0-0.0","11300659","wem/bandit_single","A10A25H4472NHN","pain","8","","75","K","2","","0","0","1","","0.2260832521","false","238","","0.1527077476","main_expt","","0.2317710791","","0.2260832521","","0.2756444762","","","","","",""
"114","","bandit","314","804116","0.0-276.0-0.0","11300659","wem/bandit_single","A10A25H4472NHN","pain","8","","75","K","2","","0","0","1","","0.2061693665","false","239","","0.1315224722","main_expt","","0.2206906913","","0.2061693665","","0.3061346513","","","","","",""
"99","","bandit","315","805978","0.0-277.0-0.0","11300659","wem/bandit_single","A10A25H4472NHN","pain","8","","72","H","0","img/none_selected.jpg","0","0","1","","0.1398926963","false","240","","0.1398926963","main_expt","","0.2155283076","","0.2203195159","","0.3274201615","","","","","",""
"46","","bandit","316","807795","0.0-278.0-0.0","11300659","wem/bandit_single","A10A25H4472NHN","pain","8","","74","J","1","","0","0","1","","0.2386015387","false","241","","0.1698873683","main_expt","","0.2386015387","","0.2230507071","","0.2838770346","","","","","",""
"90","","bandit","317","809654","0.0-279.0-0.0","11300659","wem/bandit_single","A10A25H4472NHN","pain","8","","75","K","2","","0","0","1","","0.1834748297","false","242","","0.1693915972","main_expt","","0.2178179326","","0.1834748297","","0.261873528","","","","","",""
"45","","bandit","318","811465","0.0-280.0-0.0","11300659","wem/bandit_single","A10A25H4472NHN","pain","8","","76","L","3","","0","0","1","","0.2346518895","false","243","","0.2011280514","main_expt","","0.2209910316","","0.1450766806","","0.2346518895","","","","","",""
"44","","bandit","319","813278","0.0-281.0-0.0","11300659","wem/bandit_single","A10A25H4472NHN","pain","8","","75","K","2","","0","0","1","","0.1407015906","false","244","","0.283074141","main_expt","","0.2202366047","","0.1407015906","","0.2253303202","","","","","",""
"38","","bandit","320","815079","0.0-282.0-0.0","11300659","wem/bandit_single","A10A25H4472NHN","pain","8","","72","H","0","img/none_selected.jpg","0","1","0","","0.2960363525","false","245","","0.2960363525","main_expt","","0.2369425358","","0.1386250556","","0.2379184421","","","","","",""
"78","","bandit","321","816920","0.0-283.0-0.0","11300659","wem/bandit_single","A10A25H4472NHN","pain","8","","72","H","0","img/none_selected.jpg","0","0","1","","0.2985154159","false","246","","0.2985154159","main_expt","","0.2437218948","","0.1561911267","","0.1704118475","","","","","",""
"764","","bandit","322","819451","0.0-284.0-0.0","11300659","wem/bandit_single","A10A25H4472NHN","pain","8","","72","H","0","img/none_selected.jpg","0","0","1","","0.3159682012","false","247","","0.3159682012","main_expt","","0.2573167276","","0.251644506","","0.1520093858","","","","","",""
"66","","bandit","323","821281","0.0-285.0-0.0","11300659","wem/bandit_single","A10A25H4472NHN","pain","8","","72","H","0","img/none_selected.jpg","0","0","1","","0.2937445921","false","248","","0.2937445921","main_expt","","0.255349996","","0.2541276422","","0.1246217458","","","","","",""
"114","","bandit","324","823158","0.0-286.0-0.0","11300659","wem/bandit_single","A10A25H4472NHN","pain","8","","72","H","0","img/none_selected.jpg","0","0","1","","0.2794909668","false","249","","0.2794909668","main_expt","","0.2866877344","","0.1924412691","","0.1525969556","","","","","",""
"95","","bandit","325","825021","0.0-287.0-0.0","11300659","wem/bandit_single","A10A25H4472NHN","pain","8","","72","H","0","img/none_selected.jpg","0","0","1","","0.2327966623","false","250","","0.2327966623","main_expt","","0.2330780591","","0.1397358892","","0.1500628479","","","","","",""
"461","","bandit","326","827247","0.0-288.0-0.0","11300659","wem/bandit_single","A10A25H4472NHN","pain","8","","75","K","2","","0","0","1","","0.1362233376","false","251","","0.2595602212","main_expt","","0.2580196572","","0.1362233376","","0.1141396938","","","","","",""
"115","","bandit","327","829125","0.0-289.0-0.0","11300659","wem/bandit_single","A10A25H4472NHN","pain","8","","76","L","3","","0","0","1","","0.1476089834","false","252","","0.2715763176","main_expt","","0.2003146692","","0.1796418735","","0.1476089834","","","","","",""
"32","","bandit","328","830928","0.0-290.0-0.0","11300659","wem/bandit_single","A10A25H4472NHN","pain","8","","75","K","2","","0","0","1","","0.1833608075","false","253","","0.3146654463","main_expt","","0.1651092288","","0.1833608075","","0.175183139","","","","","",""
"156","","bandit","329","832849","0.0-291.0-0.0","11300659","wem/bandit_single","A10A25H4472NHN","pain","8","","74","J","1","","0","0","1","","0.1413675546","false","254","","0.3037610447","main_expt","","0.1413675546","","0.1983034343","","0.1916323123","","","","","",""
"116","","bandit","330","834731","0.0-292.0-0.0","11300659","wem/bandit_single","A10A25H4472NHN","pain","8","","75","K","2","","0","1","0","","0.2286544637","false","255","","0.287825992","main_expt","","0.1801919014","","0.2286544637","","0.1888714334","","","","","",""
"85","","bandit","331","836580","0.0-293.0-0.0","11300659","wem/bandit_single","A10A25H4472NHN","pain","8","","75","K","2","","0","0","1","","0.2502735072","false","256","","0.2673332977","main_expt","","0.1883387327","","0.2502735072","","0.2338577058","","","","","",""
"21","","bandit","332","838366","0.0-294.0-0.0","11300659","wem/bandit_single","A10A25H4472NHN","pain","8","","72","H","0","img/none_selected.jpg","0","0","1","","0.2867614738","false","257","","0.2867614738","main_expt","","0.1757220287","","0.2657937058","","0.2235288738","","","","","",""
"51","","bandit","333","840182","0.0-295.0-0.0","11300659","wem/bandit_single","A10A25H4472NHN","pain","8","","75","K","2","","0","0","1","","0.2326681124","false","258","","0.2432485896","main_expt","","0.1817694486","","0.2326681124","","0.2256298632","","","","","",""
"142","","bandit","334","842087","0.0-296.0-0.0","11300659","wem/bandit_single","A10A25H4472NHN","pain","8","","75","K","2","","0","0","1","","0.2128848171","false","259","","0.2433124215","main_expt","","0.1938363466","","0.2128848171","","0.229367941","","","","","",""
"0","","bandit","335","843856","0.0-297.0-0.0","11300659","wem/bandit_single","A10A25H4472NHN","pain","8","","75","K","2","","0","0","1","","0.261065439","false","260","","0.202057327","main_expt","","0.2129025296","","0.261065439","","0.2585863351","","","","","",""
"655","","bandit","336","846276","0.0-298.0-0.0","11300659","wem/bandit_single","A10A25H4472NHN","pain","8","","76","L","3","","0","0","1","","0.2748644017","false","261","","0.163702413","main_expt","","0.1931457884","","0.2693274395","","0.2748644017","","","","","",""
"90","","bandit","337","848131","0.0-299.0-0.0","11300659","wem/bandit_single","A10A25H4472NHN","pain","8","","72","H","0","img/none_selected.jpg","0","0","1","","0.1317961998","false","262","","0.1317961998","main_expt","","0.183306516","","0.3386888623","","0.288340978","","","","","",""
"683","","bandit","338","850584","0.0-300.0-0.0","11300659","wem/bandit_single","A10A25H4472NHN","pain","8","","72","H","0","img/none_selected.jpg","0","0","1","","0.09680570831","false","263","","0.09680570831","main_expt","","0.1293037787","","0.3645909238","","0.3151532186","","","","","",""
"211","","bandit","339","852559","0.0-301.0-0.0","11300659","wem/bandit_single","A10A25H4472NHN","pain","8","","72","H","0","img/none_selected.jpg","0","0","1","","0.08846786375","false","264","","0.08846786375","main_expt","","0.1386072774","","0.3437159196","","0.2931268787","","","","","",""
"224","","bandit","340","854551","0.0-302.0-0.0","11300659","wem/bandit_single","A10A25H4472NHN","pain","8","","76","L","3","","0","0","1","","0.3131275506","false","265","","0.08556864258","main_expt","","0.1511252148","","0.3644358952","","0.3131275506","","","","","",""
"645","","bandit","341","856963","0.0-303.0-0.0","11300659","wem/bandit_single","A10A25H4472NHN","pain","8","","76","L","3","","0","1","0","","0.336523231","false","266","","0.0706515048","main_expt","","0.2186772706","","0.3904852039","","0.336523231","","","","","",""
"118","","bandit","342","858854","0.0-304.0-0.0","11300659","wem/bandit_single","A10A25H4472NHN","pain","8","","76","L","3","","0","0","1","","0.2850369317","false","267","","0.0747424838","main_expt","","0.2625163009","","0.3896615427","","0.2850369317","","","","","",""
"516","","bandit","343","861136","0.0-305.0-0.0","11300659","wem/bandit_single","A10A25H4472NHN","pain","8","","75","K","2","","0","1","0","","0.4017278216","false","268","","0.112617448","main_expt","","0.3140442454","","0.4017278216","","0.3163307124","","","","","",""
"184","","bandit","344","863084","0.0-306.0-0.0","11300659","wem/bandit_single","A10A25H4472NHN","pain","8","","75","K","2","","0","0","1","","0.370996795","false","269","","0.1406639307","main_expt","","0.3069084364","","0.370996795","","0.2956683275","","","","","",""
"119","","bandit","345","864973","0.0-307.0-0.0","11300659","wem/bandit_single","A10A25H4472NHN","pain","8","","76","L","3","","0","1","0","","0.3574655381","false","270","","0.1398727949","main_expt","","0.2814908846","","0.4255483526","","0.3574655381","","","","","",""
"56","","bandit","346","866793","0.0-308.0-0.0","11300659","wem/bandit_single","A10A25H4472NHN","pain","8","","76","L","3","","0","1","0","","0.3969117111","false","271","","0.1430486157","main_expt","","0.3060786573","","0.3948114384","","0.3969117111","","","","","",""
"7","","bandit","347","868566","0.0-309.0-0.0","11300659","wem/bandit_single","A10A25H4472NHN","pain","8","","76","L","3","","0","0","1","","0.3938657786","false","272","","0.1872928851","main_expt","","0.3555003363","","0.3713372483","","0.3938657786","","","","","",""
"536","","bandit","348","870866","0.0-310.0-0.0","11300659","wem/bandit_single","A10A25H4472NHN","pain","8","","75","K","2","","0","0","1","","0.3650537767","false","273","","0.1769074474","main_expt","","0.3980140183","","0.3650537767","","0.3903330825","","","","","",""
"146","","bandit","349","872778","0.0-311.0-0.0","11300659","wem/bandit_single","A10A25H4472NHN","pain","8","","72","H","0","img/none_selected.jpg","0","0","1","","0.1820324592","false","274","","0.1820324592","main_expt","","0.4077181827","","0.3414565802","","0.4236793781","","","","","",""
"19","","bandit","350","874564","0.0-312.0-0.0","11300659","wem/bandit_single","A10A25H4472NHN","pain","8","","75","K","2","","0","0","1","","0.3027622838","false","275","","0.1923133529","main_expt","","0.4142369189","","0.3027622838","","0.4320968281","","","","","",""
"511","","bandit","351","876840","0.0-313.0-0.0","11300659","wem/bandit_single","A10A25H4472NHN","pain","8","","76","L","3","","0","1","0","","0.4017915655","false","276","","0.1917589367","main_expt","","0.4250096067","","0.3125082267","","0.4017915655","","","","","",""
"211","","bandit","352","878817","0.0-314.0-0.0","11300659","wem/bandit_single","A10A25H4472NHN","pain","8","","76","L","3","","0","1","0","","0.3548215972","false","277","","0.1667093518","main_expt","","0.4378988515","","0.348890663","","0.3548215972","","","","","",""
"202","","bandit","353","880785","0.0-315.0-0.0","11300659","wem/bandit_single","A10A25H4472NHN","pain","8","","76","L","3","","0","0","1","","0.3683165275","false","278","","0.1695638059","main_expt","","0.4323676568","","0.3341457036","","0.3683165275","","","","","",""
"177","","bandit","354","882727","0.0-316.0-0.0","11300659","wem/bandit_single","A10A25H4472NHN","pain","8","","76","L","3","","0","1","0","","0.3750953637","false","279","","0.1696283439","main_expt","","0.4391545144","","0.2341959149","","0.3750953637","","","","","",""
"135","","bandit","355","884629","0.0-317.0-0.0","11300659","wem/bandit_single","A10A25H4472NHN","pain","8","","76","L","3","","0","0","1","","0.3557095414","false","280","","0.09227733008","main_expt","","0.4467207207","","0.1839622844","","0.3557095414","","","","","",""
"128","","bandit","356","886522","0.0-318.0-0.0","11300659","wem/bandit_single","A10A25H4472NHN","pain","8","","76","L","3","","0","0","1","","0.374333358","false","281","","0.08059064446","main_expt","","0.3922333676","","0.1303375237","","0.374333358","","","","","",""
"225","","bandit","357","888514","0.0-319.0-0.0","11300659","wem/bandit_single","A10A25H4472NHN","pain","8","","76","L","3","","0","0","1","","0.3786855632","false","282","","0.06236597977","main_expt","","0.4243132136","","0.07449941097","","0.3786855632","","","","","",""
"263","","bandit","358","890542","0.0-320.0-0.0","11300659","wem/bandit_single","A10A25H4472NHN","pain","8","","75","K","2","","0","0","1","","0.08783129911","false","283","","0.07782340279","main_expt","","0.4187362854","","0.08783129911","","0.437514669","","","","","",""
"112","","bandit","359","892419","0.0-321.0-0.0","11300659","wem/bandit_single","A10A25H4472NHN","pain","8","","72","H","0","img/none_selected.jpg","0","0","1","","0.07564660971","false","284","","0.07564660971","main_expt","","0.422543139","","0.08228152097","","0.410198323","","","","","",""
"67","","bandit","360","894252","0.0-322.0-0.0","11300659","wem/bandit_single","A10A25H4472NHN","pain","8","","75","K","2","","0","1","0","","0.09246744832","false","285","","0.08237135124","main_expt","","0.434302279","","0.09246744832","","0.3777139522","","","","","",""
"90","","bandit","361","896108","0.0-323.0-0.0","11300659","wem/bandit_single","A10A25H4472NHN","pain","8","","75","K","2","","0","0","1","","0.08394792075","false","286","","0.05670298638","main_expt","","0.4094725029","","0.08394792075","","0.3841171753","","","","","",""
"258","","bandit","362","898138","0.0-324.0-0.0","11300659","wem/bandit_single","A10A25H4472NHN","pain","8","","74","J","1","","0","0","1","","0.3778080042","false","287","","0.06647452785","main_expt","","0.3778080042","","0.1021913287","","0.3641862554","","","","","",""
"221","","bandit","363","900131","0.0-325.0-0.0","11300659","wem/bandit_single","A10A25H4472NHN","pain","8","","75","K","2","","0","0","1","","0.1188664616","false","288","","0.04859701272","main_expt","","0.3671495563","","0.1188664616","","0.3192590496","","","","","",""
"15","","bandit","364","901920","0.0-326.0-0.0","11300659","wem/bandit_single","A10A25H4472NHN","pain","8","","76","L","3","","0","0","1","","0.3384054944","false","289","","0.04246321062","main_expt","","0.3622055636","","0.1050513492","","0.3384054944","","","","","",""
"144","","bandit","365","903835","0.0-327.0-0.0","11300659","wem/bandit_single","A10A25H4472NHN","pain","8","","76","L","3","","0","0","1","","0.329366118","false","290","","0.08307379137","main_expt","","0.3616647964","","0.1304324694","","0.329366118","","","","","",""
"70","","bandit","366","905672","0.0-328.0-0.0","11300659","wem/bandit_single","A10A25H4472NHN","pain","8","","76","L","3","","0","0","1","","0.38061917","false","291","","0.09664054691","main_expt","","0.3521760992","","0.09707891459","","0.38061917","","","","","",""
"132","","bandit","367","907566","0.0-329.0-0.0","11300659","wem/bandit_single","A10A25H4472NHN","pain","8","","75","K","2","","0","0","1","","0.1166693976","false","292","","0.1089287446","main_expt","","0.3062989856","","0.1166693976","","0.3703624541","","","","","",""
"36","","bandit","368","909370","0.0-330.0-0.0","11300659","wem/bandit_single","A10A25H4472NHN","pain","8","","72","H","0","img/none_selected.jpg","0","0","1","","0.1426967363","false","293","","0.1426967363","main_expt","","0.2594623792","","0.1448282665","","0.3554666564","","","","","",""
"90","","bandit","369","911224","0.0-331.0-0.0","11300659","wem/bandit_single","A10A25H4472NHN","pain","8","","74","J","1","","0","0","1","","0.2666401727","false","294","","0.08295656842","main_expt","","0.2666401727","","0.1486412875","","0.3976604504","","","","","",""
"75","","bandit","370","913067","0.0-332.0-0.0","11300659","wem/bandit_single","A10A25H4472NHN","pain","8","","75","K","2","","0","0","1","","0.1266024918","false","295","","0.07441347029","main_expt","","0.2160621863","","0.1266024918","","0.3567340825","","","","","",""
"171","","bandit","371","915007","0.0-333.0-0.0","11300659","wem/bandit_single","A10A25H4472NHN","pain","8","","75","K","2","","0","0","1","","0.1499702932","false","296","","0.08167080543","main_expt","","0.1924669582","","0.1499702932","","0.3802278382","","","","","",""
"62","","bandit","372","916836","0.0-334.0-0.0","11300659","wem/bandit_single","A10A25H4472NHN","pain","8","","76","L","3","","0","1","0","","0.3764104085","false","297","","0.06721412472","main_expt","","0.2572135825","","0.1124444021","","0.3764104085","","","","","",""
"79","","bandit","373","918680","0.0-335.0-0.0","11300659","wem/bandit_single","A10A25H4472NHN","pain","8","","76","L","3","","0","0","1","","0.3801851674","false","298","","0.1106754059","main_expt","","0.2660288188","","0.122133656","","0.3801851674","","","","","",""
"84","","bandit","374","920530","0.0-336.0-0.0","11300659","wem/bandit_single","A10A25H4472NHN","pain","8","","75","K","2","","0","0","1","","0.1064281731","false","299","","0.146580741","main_expt","","0.2708303459","","0.1064281731","","0.37372938","","","","","",""
