"rt","responses","trial_type","trial_index","time_elapsed","internal_node_id","subjID","study","MID","cond","drift","key_press","respCharCode","respKey","respChoiceNum","respChoice","gems","bombs","no_reward","GemPrChosen","BombPrChosen","practice","trial_counter","WinPr_0","LosePr_0","trial_label","WinPr_1","LosePr_1","WinPr_2","LosePr_2","WinPr_3","LosePr_3","Q0","Q1","Q2","gender","age","ethnicity"
"17558","{""Q0"":""A29P6YNXQBBFCM""}","survey-text","0","17564","0.0-0.0","11334842","wem/bandit_single","A29P6YNXQBBFCM","gain","2","","","","","","","","","","","","","","","","","","","","","","","","","","",""
"3242","","text","1","21808","0.0-1.0","11334842","wem/bandit_single","A29P6YNXQBBFCM","gain","2","32","","","","","","","","","","","","","","","","","","","","","","","","","",""
"10605","","text","2","32413","0.0-2.0","11334842","wem/bandit_single","A29P6YNXQBBFCM","gain","2","32","","","","","","","","","","","","","","","","","","","","","","","","","",""
"36926","","text","3","69341","0.0-3.0","11334842","wem/bandit_single","A29P6YNXQBBFCM","gain","2","32","","","","","","","","","","","","","","","","","","","","","","","","","",""
"10361","","text","4","79704","0.0-4.0","11334842","wem/bandit_single","A29P6YNXQBBFCM","gain","2","32","","","","","","","","","","","","","","","","","","","","","","","","","",""
"85174","","text","5","164881","0.0-5.0","11334842","wem/bandit_single","A29P6YNXQBBFCM","gain","2","32","","","","","","","","","","","","","","","","","","","","","","","","","",""
"16761","","text","6","181646","0.0-6.0","11334842","wem/bandit_single","A29P6YNXQBBFCM","gain","2","32","","","","","","","","","","","","","","","","","","","","","","","","","",""
"10594","","text","7","192241","0.0-7.0","11334842","wem/bandit_single","A29P6YNXQBBFCM","gain","2","32","","","","","","","","","","","","","","","","","","","","","","","","","",""
"6769","","text","8","199011","0.0-8.0","11334842","wem/bandit_single","A29P6YNXQBBFCM","gain","2","32","","","","","","","","","","","","","","","","","","","","","","","","","",""
"2686","","text","9","201697","0.0-9.0","11334842","wem/bandit_single","A29P6YNXQBBFCM","gain","2","32","","","","","","","","","","","","","","","","","","","","","","","","","",""
"7667","","text","10","209366","0.0-10.0","11334842","wem/bandit_single","A29P6YNXQBBFCM","gain","2","32","","","","","","","","","","","","","","","","","","","","","","","","","",""
"6777","","text","11","216144","0.0-11.0","11334842","wem/bandit_single","A29P6YNXQBBFCM","gain","2","32","","","","","","","","","","","","","","","","","","","","","","","","","",""
"4096","","bandit","12","221745","0.0-12.0-0.0","11334842","wem/bandit_single","A29P6YNXQBBFCM","gain","2","","74","J","0","img/none_selected_demo.jpg","0","0","1","0","0","true","0","0","0","","","","","","","","","","","","",""
"4739","","bandit","13","228236","0.0-13.0-0.0","11334842","wem/bandit_single","A29P6YNXQBBFCM","gain","2","","75","K","0","img/none_selected_demo.jpg","0","0","1","0","0","true","0","0","0","","","","","","","","","","","","",""
"7203","","text","14","235690","0.0-14.0","11334842","wem/bandit_single","A29P6YNXQBBFCM","gain","2","32","","","","","","","","","","","","","","","","","","","","","","","","","",""
"1954","","text","15","237646","0.0-15.0","11334842","wem/bandit_single","A29P6YNXQBBFCM","gain","2","32","","","","","","","","","","","","","","","","","","","","","","","","","",""
"12772","","text","16","250418","0.0-16.0","11334842","wem/bandit_single","A29P6YNXQBBFCM","gain","2","32","","","","","","","","","","","","","","","","","","","","","","","","","",""
"2404","","text","17","252824","0.0-17.0","11334842","wem/bandit_single","A29P6YNXQBBFCM","gain","2","32","","","","","","","","","","","","","","","","","","","","","","","","","",""
"4736","","bandit","18","259063","0.0-18.0-0.0","11334842","wem/bandit_single","A29P6YNXQBBFCM","gain","2","","74","J","0","img/none_selected_demo.jpg","1","0","0","0.8","0","true","0","0.8","0","80_20_practice","0.2","0","","","","","","","","","",""
"1321","","bandit","19","262138","0.0-18.0-1.0","11334842","wem/bandit_single","A29P6YNXQBBFCM","gain","2","","74","J","0","img/none_selected_demo.jpg","1","0","0","0.8","0","true","0","0.8","0","80_20_practice","0.2","0","","","","","","","","","",""
"543","","bandit","20","264432","0.0-18.0-2.0","11334842","wem/bandit_single","A29P6YNXQBBFCM","gain","2","","75","K","1","","0","0","1","0.2","0","true","0","0.8","0","80_20_practice","0.2","0","","","","","","","","","",""
"411","","bandit","21","266596","0.0-18.0-3.0","11334842","wem/bandit_single","A29P6YNXQBBFCM","gain","2","","74","J","0","img/none_selected_demo.jpg","1","0","0","0.8","0","true","0","0.8","0","80_20_practice","0.2","0","","","","","","","","","",""
"631","","bandit","22","268982","0.0-18.0-4.0","11334842","wem/bandit_single","A29P6YNXQBBFCM","gain","2","","74","J","0","img/none_selected_demo.jpg","0","0","1","0.8","0","true","0","0.8","0","80_20_practice","0.2","0","","","","","","","","","",""
"852","","bandit","23","271586","0.0-18.0-5.0","11334842","wem/bandit_single","A29P6YNXQBBFCM","gain","2","","74","J","0","img/none_selected_demo.jpg","1","0","0","0.8","0","true","0","0.8","0","80_20_practice","0.2","0","","","","","","","","","",""
"3740","","bandit","24","277078","0.0-18.0-6.0","11334842","wem/bandit_single","A29P6YNXQBBFCM","gain","2","","74","J","0","img/none_selected_demo.jpg","1","0","0","0.8","0","true","0","0.8","0","80_20_practice","0.2","0","","","","","","","","","",""
"600","","bandit","25","279430","0.0-18.0-7.0","11334842","wem/bandit_single","A29P6YNXQBBFCM","gain","2","","74","J","0","img/none_selected_demo.jpg","1","0","0","0.8","0","true","0","0.8","0","80_20_practice","0.2","0","","","","","","","","","",""
"1864","","bandit","26","283047","0.0-18.0-8.0","11334842","wem/bandit_single","A29P6YNXQBBFCM","gain","2","","75","K","1","","0","0","1","0.2","0","true","0","0.8","0","80_20_practice","0.2","0","","","","","","","","","",""
"829","","bandit","27","285628","0.0-18.0-9.0","11334842","wem/bandit_single","A29P6YNXQBBFCM","gain","2","","75","K","1","","1","0","0","0.2","0","true","0","0.8","0","80_20_practice","0.2","0","","","","","","","","","",""
"2951","","bandit","28","290332","0.0-18.0-10.0","11334842","wem/bandit_single","A29P6YNXQBBFCM","gain","2","","74","J","0","img/none_selected_demo.jpg","1","0","0","0.8","0","true","0","0.8","0","80_20_practice","0.2","0","","","","","","","","","",""
"1186","","bandit","29","293271","0.0-18.0-11.0","11334842","wem/bandit_single","A29P6YNXQBBFCM","gain","2","","74","J","0","img/none_selected_demo.jpg","1","0","0","0.8","0","true","0","0.8","0","80_20_practice","0.2","0","","","","","","","","","",""
"1009","","bandit","30","296034","0.0-18.0-12.0","11334842","wem/bandit_single","A29P6YNXQBBFCM","gain","2","","75","K","1","","0","0","1","0.2","0","true","0","0.8","0","80_20_practice","0.2","0","","","","","","","","","",""
"1038","","bandit","31","298825","0.0-18.0-13.0","11334842","wem/bandit_single","A29P6YNXQBBFCM","gain","2","","74","J","0","img/none_selected_demo.jpg","1","0","0","0.8","0","true","0","0.8","0","80_20_practice","0.2","0","","","","","","","","","",""
"800","","bandit","32","301378","0.0-18.0-14.0","11334842","wem/bandit_single","A29P6YNXQBBFCM","gain","2","","74","J","0","img/none_selected_demo.jpg","1","0","0","0.8","0","true","0","0.8","0","80_20_practice","0.2","0","","","","","","","","","",""
"612","","bandit","33","303743","0.0-18.0-15.0","11334842","wem/bandit_single","A29P6YNXQBBFCM","gain","2","","75","K","1","","0","0","1","0.2","0","true","0","0.8","0","80_20_practice","0.2","0","","","","","","","","","",""
"1639","","bandit","34","307135","0.0-18.0-16.0","11334842","wem/bandit_single","A29P6YNXQBBFCM","gain","2","","74","J","0","img/none_selected_demo.jpg","1","0","0","0.8","0","true","0","0.8","0","80_20_practice","0.2","0","","","","","","","","","",""
"937","","bandit","35","309827","0.0-18.0-17.0","11334842","wem/bandit_single","A29P6YNXQBBFCM","gain","2","","74","J","0","img/none_selected_demo.jpg","1","0","0","0.8","0","true","0","0.8","0","80_20_practice","0.2","0","","","","","","","","","",""
"1017","","bandit","36","312596","0.0-18.0-18.0","11334842","wem/bandit_single","A29P6YNXQBBFCM","gain","2","","74","J","0","img/none_selected_demo.jpg","1","0","0","0.8","0","true","0","0.8","0","80_20_practice","0.2","0","","","","","","","","","",""
"1279","","bandit","37","315634","0.0-18.0-19.0","11334842","wem/bandit_single","A29P6YNXQBBFCM","gain","2","","74","J","0","img/none_selected_demo.jpg","1","0","0","0.8","0","true","0","0.8","0","80_20_practice","0.2","0","","","","","","","","","",""
"10205","","text","38","326092","0.0-19.0","11334842","wem/bandit_single","A29P6YNXQBBFCM","gain","2","32","","","","","","","","","","","","","","","","","","","","","","","","","",""
"3280","","bandit","39","330874","0.0-20.0-0.0","11334842","wem/bandit_single","A29P6YNXQBBFCM","gain","2","","74","J","0","img/none_selected_demo.jpg","0","0","1","0","0","true","0","0","0","","0","0","","","","","","","","","",""
"626","","text","40","331752","0.0-21.0","11334842","wem/bandit_single","A29P6YNXQBBFCM","gain","2","75","","","","","","","","","","","","","","","","","","","","","","","","","",""
"4906","","text","41","336659","0.0-22.0","11334842","wem/bandit_single","A29P6YNXQBBFCM","gain","2","32","","","","","","","","","","","","","","","","","","","","","","","","","",""
"3345","","text","42","340006","0.0-23.0","11334842","wem/bandit_single","A29P6YNXQBBFCM","gain","2","32","","","","","","","","","","","","","","","","","","","","","","","","","",""
"3249","","text","43","343255","0.0-24.0","11334842","wem/bandit_single","A29P6YNXQBBFCM","gain","2","32","","","","","","","","","","","","","","","","","","","","","","","","","",""
"2693","","text","44","345950","0.0-25.0","11334842","wem/bandit_single","A29P6YNXQBBFCM","gain","2","32","","","","","","","","","","","","","","","","","","","","","","","","","",""
"2510","","text","45","348461","0.0-26.0","11334842","wem/bandit_single","A29P6YNXQBBFCM","gain","2","32","","","","","","","","","","","","","","","","","","","","","","","","","",""
"2212","","text","46","350674","0.0-27.0","11334842","wem/bandit_single","A29P6YNXQBBFCM","gain","2","32","","","","","","","","","","","","","","","","","","","","","","","","","",""
"1072","","text","47","351747","0.0-28.0","11334842","wem/bandit_single","A29P6YNXQBBFCM","gain","2","32","","","","","","","","","","","","","","","","","","","","","","","","","",""
"1034","","text","48","352783","0.0-29.0","11334842","wem/bandit_single","A29P6YNXQBBFCM","gain","2","32","","","","","","","","","","","","","","","","","","","","","","","","","",""
"958","","text","49","353743","0.0-30.0","11334842","wem/bandit_single","A29P6YNXQBBFCM","gain","2","32","","","","","","","","","","","","","","","","","","","","","","","","","",""
"6379","","text","50","360124","0.0-31.0","11334842","wem/bandit_single","A29P6YNXQBBFCM","gain","2","32","","","","","","","","","","","","","","","","","","","","","","","","","",""
"7431","","bandit","51","369056","0.0-32.0-0.0","11334842","wem/bandit_single","A29P6YNXQBBFCM","gain","2","","72","H","0","img/none_selected.jpg","1","0","0","0.8","0","true","0","0.8","0","full_practice","0.2","0","0.6","0","0.2","0","","","","","",""
"870","","bandit","52","371678","0.0-32.0-1.0","11334842","wem/bandit_single","A29P6YNXQBBFCM","gain","2","","75","K","2","","1","0","0","0.6","0","true","0","0.8","0","full_practice","0.2","0","0.6","0","0.2","0","","","","","",""
"638","","bandit","53","374069","0.0-32.0-2.0","11334842","wem/bandit_single","A29P6YNXQBBFCM","gain","2","","74","J","1","","0","0","1","0.2","0","true","0","0.8","0","full_practice","0.2","0","0.6","0","0.2","0","","","","","",""
"1618","","bandit","54","377440","0.0-32.0-3.0","11334842","wem/bandit_single","A29P6YNXQBBFCM","gain","2","","76","L","3","","1","0","0","0.2","0","true","0","0.8","0","full_practice","0.2","0","0.6","0","0.2","0","","","","","",""
"1290","","bandit","55","380482","0.0-32.0-4.0","11334842","wem/bandit_single","A29P6YNXQBBFCM","gain","2","","72","H","0","img/none_selected.jpg","1","0","0","0.8","0","true","0","0.8","0","full_practice","0.2","0","0.6","0","0.2","0","","","","","",""
"789","","bandit","56","383025","0.0-32.0-5.0","11334842","wem/bandit_single","A29P6YNXQBBFCM","gain","2","","76","L","3","","0","0","1","0.2","0","true","0","0.8","0","full_practice","0.2","0","0.6","0","0.2","0","","","","","",""
"652","","bandit","57","385429","0.0-32.0-6.0","11334842","wem/bandit_single","A29P6YNXQBBFCM","gain","2","","74","J","1","","0","0","1","0.2","0","true","0","0.8","0","full_practice","0.2","0","0.6","0","0.2","0","","","","","",""
"167","","bandit","58","387348","0.0-32.0-7.0","11334842","wem/bandit_single","A29P6YNXQBBFCM","gain","2","","75","K","2","","1","0","0","0.6","0","true","0","0.8","0","full_practice","0.2","0","0.6","0","0.2","0","","","","","",""
"619","","bandit","59","389720","0.0-32.0-8.0","11334842","wem/bandit_single","A29P6YNXQBBFCM","gain","2","","72","H","0","img/none_selected.jpg","1","0","0","0.8","0","true","0","0.8","0","full_practice","0.2","0","0.6","0","0.2","0","","","","","",""
"666","","bandit","60","392138","0.0-32.0-9.0","11334842","wem/bandit_single","A29P6YNXQBBFCM","gain","2","","75","K","2","","0","0","1","0.6","0","true","0","0.8","0","full_practice","0.2","0","0.6","0","0.2","0","","","","","",""
"48","","bandit","61","393938","0.0-32.0-10.0","11334842","wem/bandit_single","A29P6YNXQBBFCM","gain","2","","72","H","0","img/none_selected.jpg","1","0","0","0.8","0","true","0","0.8","0","full_practice","0.2","0","0.6","0","0.2","0","","","","","",""
"657","","bandit","62","396348","0.0-32.0-11.0","11334842","wem/bandit_single","A29P6YNXQBBFCM","gain","2","","72","H","0","img/none_selected.jpg","0","0","1","0.8","0","true","0","0.8","0","full_practice","0.2","0","0.6","0","0.2","0","","","","","",""
"152","","bandit","63","398252","0.0-32.0-12.0","11334842","wem/bandit_single","A29P6YNXQBBFCM","gain","2","","76","L","3","","0","0","1","0.2","0","true","0","0.8","0","full_practice","0.2","0","0.6","0","0.2","0","","","","","",""
"1695","","bandit","64","401701","0.0-32.0-13.0","11334842","wem/bandit_single","A29P6YNXQBBFCM","gain","2","","74","J","1","","0","0","1","0.2","0","true","0","0.8","0","full_practice","0.2","0","0.6","0","0.2","0","","","","","",""
"799","","bandit","65","404254","0.0-32.0-14.0","11334842","wem/bandit_single","A29P6YNXQBBFCM","gain","2","","75","K","2","","1","0","0","0.6","0","true","0","0.8","0","full_practice","0.2","0","0.6","0","0.2","0","","","","","",""
"998","","bandit","66","407005","0.0-32.0-15.0","11334842","wem/bandit_single","A29P6YNXQBBFCM","gain","2","","76","L","3","","0","0","1","0.2","0","true","0","0.8","0","full_practice","0.2","0","0.6","0","0.2","0","","","","","",""
"958","","bandit","67","409715","0.0-32.0-16.0","11334842","wem/bandit_single","A29P6YNXQBBFCM","gain","2","","72","H","0","img/none_selected.jpg","1","0","0","0.8","0","true","0","0.8","0","full_practice","0.2","0","0.6","0","0.2","0","","","","","",""
"1743","","bandit","68","413212","0.0-32.0-17.0","11334842","wem/bandit_single","A29P6YNXQBBFCM","gain","2","","72","H","0","img/none_selected.jpg","1","0","0","0.8","0","true","0","0.8","0","full_practice","0.2","0","0.6","0","0.2","0","","","","","",""
"261","","bandit","69","415225","0.0-32.0-18.0","11334842","wem/bandit_single","A29P6YNXQBBFCM","gain","2","","74","J","1","","0","0","1","0.2","0","true","0","0.8","0","full_practice","0.2","0","0.6","0","0.2","0","","","","","",""
"15003","","bandit","70","432021","0.0-32.0-19.0","11334842","wem/bandit_single","A29P6YNXQBBFCM","gain","2","","75","K","2","","0","0","1","0.6","0","true","0","0.8","0","full_practice","0.2","0","0.6","0","0.2","0","","","","","",""
"5643","","text","71","437919","0.0-33.0","11334842","wem/bandit_single","A29P6YNXQBBFCM","gain","2","32","","","","","","","","","","","","","","","","","","","","","","","","","",""
"1956","","text","72","440878","0.0-34.0","11334842","wem/bandit_single","A29P6YNXQBBFCM","gain","2","32","","","","","","","","","","","","","","","","","","","","","","","","","",""
"1710","","text","73","442590","0.0-35.0","11334842","wem/bandit_single","A29P6YNXQBBFCM","gain","2","32","","","","","","","","","","","","","","","","","","","","","","","","","",""
"928","","text","74","443519","0.0-36.0","11334842","wem/bandit_single","A29P6YNXQBBFCM","gain","2","32","","","","","","","","","","","","","","","","","","","","","","","","","",""
"1726","","text","75","445247","0.0-37.0","11334842","wem/bandit_single","A29P6YNXQBBFCM","gain","2","32","","","","","","","","","","","","","","","","","","","","","","","","","",""
"2797","","bandit","76","449549","0.0-38.0-0.0","11334842","wem/bandit_single","A29P6YNXQBBFCM","gain","2","","74","J","1","","0","0","1","0.1196507759","","false","1","0.03692567881","","main_expt","0.1196507759","","0.1473353724","","0.1047922924","","","","","","",""
"5633","","bandit","77","456964","0.0-39.0-0.0","11334842","wem/bandit_single","A29P6YNXQBBFCM","gain","2","","72","H","0","img/none_selected.jpg","0","0","1","0.0535834513","","false","2","0.0535834513","","main_expt","0.1434551849","","0.1471364572","","0.09232691068","","","","","","",""
"281","","bandit","78","458999","0.0-40.0-0.0","11334842","wem/bandit_single","A29P6YNXQBBFCM","gain","2","","75","K","2","","1","0","0","0.1792173289","","false","3","0.06455495551","","main_expt","0.1966750378","","0.1792173289","","0.07878604621","","","","","","",""
"743","","bandit","79","461494","0.0-41.0-0.0","11334842","wem/bandit_single","A29P6YNXQBBFCM","gain","2","","76","L","3","","0","0","1","0.06180226224","","false","4","0.1075220519","","main_expt","0.1731728381","","0.2089457512","","0.06180226224","","","","","","",""
"264","","bandit","80","463510","0.0-42.0-0.0","11334842","wem/bandit_single","A29P6YNXQBBFCM","gain","2","","72","H","0","img/none_selected.jpg","0","0","1","0.1459974634","","false","5","0.1459974634","","main_expt","0.151671232","","0.2627176439","","0.05657605877","","","","","","",""
"2102","","bandit","81","467364","0.0-43.0-0.0","11334842","wem/bandit_single","A29P6YNXQBBFCM","gain","2","","75","K","2","","0","0","1","0.2052823447","","false","6","0.1119865757","","main_expt","0.2201434377","","0.2052823447","","0.03926223851","","","","","","",""
"204","","bandit","82","469321","0.0-44.0-0.0","11334842","wem/bandit_single","A29P6YNXQBBFCM","gain","2","","74","J","1","","0","0","1","0.1924323999","","false","7","0.1135710889","","main_expt","0.1924323999","","0.2424381104","","0.02952185798","","","","","","",""
"334","","bandit","83","471408","0.0-45.0-0.0","11334842","wem/bandit_single","A29P6YNXQBBFCM","gain","2","","76","L","3","","0","0","1","0.01847757052","","false","8","0.148696524","","main_expt","0.187431757","","0.2324683495","","0.01847757052","","","","","","",""
"504","","bandit","84","473664","0.0-46.0-0.0","11334842","wem/bandit_single","A29P6YNXQBBFCM","gain","2","","72","H","0","img/none_selected.jpg","0","0","1","0.1181121295","","false","9","0.1181121295","","main_expt","0.197470847","","0.2440295668","","0.02695314055","","","","","","",""
"427","","bandit","85","475844","0.0-47.0-0.0","11334842","wem/bandit_single","A29P6YNXQBBFCM","gain","2","","72","H","0","img/none_selected.jpg","1","0","0","0.1082266346","","false","10","0.1082266346","","main_expt","0.2298270047","","0.2465422232","","0.02234311218","","","","","","",""
"623","","bandit","86","478219","0.0-48.0-0.0","11334842","wem/bandit_single","A29P6YNXQBBFCM","gain","2","","72","H","0","img/none_selected.jpg","0","0","1","0.1102162287","","false","11","0.1102162287","","main_expt","0.2124937163","","0.1529972956","","0.04960883058","","","","","","",""
"1437","","bandit","87","481410","0.0-49.0-0.0","11334842","wem/bandit_single","A29P6YNXQBBFCM","gain","2","","74","J","1","","0","0","1","0.2043121782","","false","12","0.1420736562","","main_expt","0.2043121782","","0.1827224572","","0.06086541187","","","","","","",""
"735","","bandit","88","483897","0.0-50.0-0.0","11334842","wem/bandit_single","A29P6YNXQBBFCM","gain","2","","74","J","1","","1","0","0","0.2122729008","","false","13","0.1582971975","","main_expt","0.2122729008","","0.1973099221","","0.06603274732","","","","","","",""
"618","","bandit","89","486268","0.0-51.0-0.0","11334842","wem/bandit_single","A29P6YNXQBBFCM","gain","2","","74","J","1","","0","0","1","0.1748916548","","false","14","0.1278364912","","main_expt","0.1748916548","","0.2002936143","","0.06952645267","","","","","","",""
"955","","bandit","90","488976","0.0-52.0-0.0","11334842","wem/bandit_single","A29P6YNXQBBFCM","gain","2","","75","K","2","","0","0","1","0.2100222876","","false","15","0.1389591295","","main_expt","0.1598041939","","0.2100222876","","0.06705093019","","","","","","",""
"781","","bandit","91","491509","0.0-53.0-0.0","11334842","wem/bandit_single","A29P6YNXQBBFCM","gain","2","","75","K","2","","1","0","0","0.192095419","","false","16","0.1087507618","","main_expt","0.1496559895","","0.192095419","","0.08739136862","","","","","","",""
"790","","bandit","92","494052","0.0-54.0-0.0","11334842","wem/bandit_single","A29P6YNXQBBFCM","gain","2","","75","K","2","","0","0","1","0.2057363858","","false","17","0.1591778588","","main_expt","0.1855105105","","0.2057363858","","0.0633177824","","","","","","",""
"705","","bandit","93","496509","0.0-55.0-0.0","11334842","wem/bandit_single","A29P6YNXQBBFCM","gain","2","","74","J","1","","0","0","1","0.180786103","","false","18","0.1612769879","","main_expt","0.180786103","","0.2142317849","","0.05969087175","","","","","","",""
"198","","bandit","94","498461","0.0-56.0-0.0","11334842","wem/bandit_single","A29P6YNXQBBFCM","gain","2","","76","L","3","","1","0","0","0.08316546351","","false","19","0.1706614454","","main_expt","0.1867551017","","0.2416868574","","0.08316546351","","","","","","",""
"608","","bandit","95","500822","0.0-57.0-0.0","11334842","wem/bandit_single","A29P6YNXQBBFCM","gain","2","","76","L","3","","0","0","1","0.08506169859","","false","20","0.2173206475","","main_expt","0.2414580321","","0.2556662882","","0.08506169859","","","","","","",""
"1000","","bandit","96","503575","0.0-58.0-0.0","11334842","wem/bandit_single","A29P6YNXQBBFCM","gain","2","","72","H","0","img/none_selected.jpg","0","0","1","0.2297715145","","false","21","0.2297715145","","main_expt","0.2552731096","","0.2484624222","","0.08337624199","","","","","","",""
"295","","bandit","97","505623","0.0-59.0-0.0","11334842","wem/bandit_single","A29P6YNXQBBFCM","gain","2","","74","J","1","","0","0","1","0.2706059063","","false","22","0.2893552095","","main_expt","0.2706059063","","0.3180013331","","0.09400888178","","","","","","",""
"2163","","bandit","98","509540","0.0-60.0-0.0","11334842","wem/bandit_single","A29P6YNXQBBFCM","gain","2","","74","J","1","","1","0","0","0.2240124609","","false","23","0.1756353462","","main_expt","0.2240124609","","0.3018869565","","0.08373077729","","","","","","",""
"1027","","bandit","99","512321","0.0-61.0-0.0","11334842","wem/bandit_single","A29P6YNXQBBFCM","gain","2","","75","K","2","","0","0","1","0.3479913718","","false","24","0.144307289","","main_expt","0.2337623096","","0.3479913718","","0.07394888686","","","","","","",""
"762","","bandit","100","514839","0.0-62.0-0.0","11334842","wem/bandit_single","A29P6YNXQBBFCM","gain","2","","74","J","1","","0","0","1","0.1992837424","","false","25","0.1103761204","","main_expt","0.1992837424","","0.3851600672","","0.1177231478","","","","","","",""
"258","","bandit","101","516849","0.0-63.0-0.0","11334842","wem/bandit_single","A29P6YNXQBBFCM","gain","2","","72","H","0","img/none_selected.jpg","0","0","1","0.09313295331","","false","26","0.09313295331","","main_expt","0.2273902023","","0.3771699284","","0.1137187285","","","","","","",""
"141","","bandit","102","518743","0.0-64.0-0.0","11334842","wem/bandit_single","A29P6YNXQBBFCM","gain","2","","72","H","0","img/none_selected.jpg","0","0","1","0.07841862492","","false","27","0.07841862492","","main_expt","0.2020281611","","0.3284072512","","0.1380279251","","","","","","",""
"539","","bandit","103","521037","0.0-65.0-0.0","11334842","wem/bandit_single","A29P6YNXQBBFCM","gain","2","","72","H","0","img/none_selected.jpg","0","0","1","0.0635621653","","false","28","0.0635621653","","main_expt","0.2121805601","","0.3708797381","","0.1926536066","","","","","","",""
"55","","bandit","104","522855","0.0-66.0-0.0","11334842","wem/bandit_single","A29P6YNXQBBFCM","gain","2","","74","J","1","","0","0","1","0.1986823058","","false","29","0.04349452081","","main_expt","0.1986823058","","0.3630760189","","0.1919064193","","","","","","",""
"278","","bandit","105","524887","0.0-67.0-0.0","11334842","wem/bandit_single","A29P6YNXQBBFCM","gain","2","","75","K","2","","0","0","1","0.3414786107","","false","30","0.06175929786","","main_expt","0.2674628916","","0.3414786107","","0.1767437005","","","","","","",""
"1517","","bandit","106","528157","0.0-68.0-0.0","11334842","wem/bandit_single","A29P6YNXQBBFCM","gain","2","","76","L","3","","0","0","1","0.2417082081","","false","31","0.06380111671","","main_expt","0.2862820789","","0.3536929226","","0.2417082081","","","","","","",""
"30388","","bandit","107","560300","0.0-69.0-0.0","11334842","wem/bandit_single","A29P6YNXQBBFCM","gain","2","","72","H","0","img/none_selected.jpg","0","0","1","0.08507033619","","false","32","0.08507033619","","main_expt","0.2895619367","","0.3238646006","","0.2312742115","","","","","","",""
"2604","","bandit","108","564658","0.0-70.0-0.0","11334842","wem/bandit_single","A29P6YNXQBBFCM","gain","2","","75","K","2","","0","0","1","0.3018803865","","false","33","0.1242974044","","main_expt","0.312502841","","0.3018803865","","0.2247834387","","","","","","",""
"653","","bandit","109","567066","0.0-71.0-0.0","11334842","wem/bandit_single","A29P6YNXQBBFCM","gain","2","","74","J","1","","0","0","1","0.2830864838","","false","34","0.158311101","","main_expt","0.2830864838","","0.2551449341","","0.1192543008","","","","","","",""
"780","","bandit","110","569600","0.0-72.0-0.0","11334842","wem/bandit_single","A29P6YNXQBBFCM","gain","2","","76","L","3","","1","0","0","0.1336327135","","false","35","0.1293969191","","main_expt","0.2489219385","","0.3200580053","","0.1336327135","","","","","","",""
"656","","bandit","111","572011","0.0-73.0-0.0","11334842","wem/bandit_single","A29P6YNXQBBFCM","gain","2","","76","L","3","","0","0","1","0.09851205292","","false","36","0.1800853883","","main_expt","0.2090346537","","0.3241899647","","0.09851205292","","","","","","",""
"3355","","bandit","112","577120","0.0-74.0-0.0","11334842","wem/bandit_single","A29P6YNXQBBFCM","gain","2","","72","H","0","img/none_selected.jpg","0","0","1","0.1025448258","","false","37","0.1025448258","","main_expt","0.210385238","","0.3029113802","","0.05943694951","","","","","","",""
"1751","","bandit","113","580624","0.0-75.0-0.0","11334842","wem/bandit_single","A29P6YNXQBBFCM","gain","2","","74","J","1","","0","0","1","0.162227856","","false","38","0.1604021245","","main_expt","0.162227856","","0.2958592888","","0.06217728149","","","","","","",""
"434","","bandit","114","582811","0.0-76.0-0.0","11334842","wem/bandit_single","A29P6YNXQBBFCM","gain","2","","75","K","2","","1","0","0","0.2941945884","","false","39","0.1336531769","","main_expt","0.1444893634","","0.2941945884","","0.08902833973","","","","","","",""
"554","","bandit","115","585119","0.0-77.0-0.0","11334842","wem/bandit_single","A29P6YNXQBBFCM","gain","2","","75","K","2","","0","0","1","0.2784490849","","false","40","0.1356889635","","main_expt","0.1340169349","","0.2784490849","","0.1098655825","","","","","","",""
"119","","bandit","116","586992","0.0-78.0-0.0","11334842","wem/bandit_single","A29P6YNXQBBFCM","gain","2","","75","K","2","","0","0","1","0.2943099773","","false","41","0.1434276379","","main_expt","0.1019114547","","0.2943099773","","0.125718056","","","","","","",""
"60","","bandit","117","588805","0.0-79.0-0.0","11334842","wem/bandit_single","A29P6YNXQBBFCM","gain","2","","76","L","3","","0","0","1","0.07668278466","","false","42","0.1432973755","","main_expt","0.07379386716","","0.2502187242","","0.07668278466","","","","","","",""
"63","","bandit","118","590622","0.0-80.0-0.0","11334842","wem/bandit_single","A29P6YNXQBBFCM","gain","2","","72","H","0","img/none_selected.jpg","1","0","0","0.1605884153","","false","43","0.1605884153","","main_expt","0.08186566242","","0.2691097515","","0.08403116819","","","","","","",""
"186","","bandit","119","592562","0.0-81.0-0.0","11334842","wem/bandit_single","A29P6YNXQBBFCM","gain","2","","75","K","2","","0","0","1","0.2601206974","","false","44","0.1396132557","","main_expt","0.08692603594","","0.2601206974","","0.08258467284","","","","","","",""
"158","","bandit","120","594472","0.0-82.0-0.0","11334842","wem/bandit_single","A29P6YNXQBBFCM","gain","2","","75","K","2","","0","0","1","0.3222012474","","false","45","0.2250933593","","main_expt","0.1212470101","","0.3222012474","","0.07253936928","","","","","","",""
"172","","bandit","121","596397","0.0-83.0-0.0","11334842","wem/bandit_single","A29P6YNXQBBFCM","gain","2","","75","K","2","","0","0","1","0.3060845752","","false","46","0.1826421925","","main_expt","0.134661007","","0.3060845752","","0.05374479905","","","","","","",""
"128","","bandit","122","598279","0.0-84.0-0.0","11334842","wem/bandit_single","A29P6YNXQBBFCM","gain","2","","76","L","3","","0","0","1","0.06764850751","","false","47","0.1706758886","","main_expt","0.1377890551","","0.290950603","","0.06764850751","","","","","","",""
"48","","bandit","123","600080","0.0-85.0-0.0","11334842","wem/bandit_single","A29P6YNXQBBFCM","gain","2","","75","K","2","","1","0","0","0.329307254","","false","48","0.1686178854","","main_expt","0.1325860966","","0.329307254","","0.05656727153","","","","","","",""
"24","","bandit","124","601860","0.0-86.0-0.0","11334842","wem/bandit_single","A29P6YNXQBBFCM","gain","2","","75","K","2","","1","0","0","0.405044281","","false","49","0.1822379713","","main_expt","0.1231750139","","0.405044281","","0.08131597157","","","","","","",""
"25","","bandit","125","603638","0.0-87.0-0.0","11334842","wem/bandit_single","A29P6YNXQBBFCM","gain","2","","72","H","0","img/none_selected.jpg","0","0","1","0.2513484478","","false","50","0.2513484478","","main_expt","0.1565964086","","0.4121919591","","0.08274267654","","","","","","",""
"209","","bandit","126","605602","0.0-88.0-0.0","11334842","wem/bandit_single","A29P6YNXQBBFCM","gain","2","","75","K","2","","1","0","0","0.4271607293","","false","51","0.2812942615","","main_expt","0.1464659706","","0.4271607293","","0.1154896937","","","","","","",""
"89","","bandit","127","607446","0.0-89.0-0.0","11334842","wem/bandit_single","A29P6YNXQBBFCM","gain","2","","75","K","2","","0","0","1","0.4249516559","","false","52","0.2224049931","","main_expt","0.1196909414","","0.4249516559","","0.07649260985","","","","","","",""
"30","","bandit","128","609229","0.0-90.0-0.0","11334842","wem/bandit_single","A29P6YNXQBBFCM","gain","2","","76","L","3","","0","0","1","0.06211708307","","false","53","0.2135714686","","main_expt","0.1578713891","","0.414238899","","0.06211708307","","","","","","",""
"43","","bandit","129","611026","0.0-91.0-0.0","11334842","wem/bandit_single","A29P6YNXQBBFCM","gain","2","","76","L","3","","0","0","1","0.05122165179","","false","54","0.2471494284","","main_expt","0.1420893662","","0.4404827494","","0.05122165179","","","","","","",""
"9","","bandit","130","612788","0.0-92.0-0.0","11334842","wem/bandit_single","A29P6YNXQBBFCM","gain","2","","72","H","0","img/none_selected.jpg","0","0","1","0.26732004","","false","55","0.26732004","","main_expt","0.1255118638","","0.4258944343","","0.05779626682","","","","","","",""
"58","","bandit","131","614600","0.0-93.0-0.0","11334842","wem/bandit_single","A29P6YNXQBBFCM","gain","2","","76","L","3","","0","0","1","0.06578325953","","false","56","0.258853447","","main_expt","0.1040792381","","0.4058732664","","0.06578325953","","","","","","",""
"302","","bandit","132","616655","0.0-94.0-0.0","11334842","wem/bandit_single","A29P6YNXQBBFCM","gain","2","","74","J","1","","0","0","1","0.1058118143","","false","57","0.247757255","","main_expt","0.1058118143","","0.4269212616","","0.07487929626","","","","","","",""
"36","","bandit","133","618446","0.0-95.0-0.0","11334842","wem/bandit_single","A29P6YNXQBBFCM","gain","2","","75","K","2","","0","0","1","0.4120073189","","false","58","0.2380046022","","main_expt","0.08107820888","","0.4120073189","","0.05601765109","","","","","","",""
"9","","bandit","134","620209","0.0-96.0-0.0","11334842","wem/bandit_single","A29P6YNXQBBFCM","gain","2","","74","J","1","","0","0","1","0.115954585","","false","59","0.273239949","","main_expt","0.115954585","","0.367464959","","0.07158824907","","","","","","",""
"127","","bandit","135","622091","0.0-97.0-0.0","11334842","wem/bandit_single","A29P6YNXQBBFCM","gain","2","","76","L","3","","0","0","1","0.1021813758","","false","60","0.314936794","","main_expt","0.190529156","","0.3113576115","","0.1021813758","","","","","","",""
"194","","bandit","136","624040","0.0-98.0-0.0","11334842","wem/bandit_single","A29P6YNXQBBFCM","gain","2","","75","K","2","","0","0","1","0.3217665369","","false","61","0.3361315769","","main_expt","0.2024767933","","0.3217665369","","0.1422244628","","","","","","",""
"139","","bandit","137","625932","0.0-99.0-0.0","11334842","wem/bandit_single","A29P6YNXQBBFCM","gain","2","","76","L","3","","0","0","1","0.1543762338","","false","62","0.3012470308","","main_expt","0.1478811465","","0.3396020841","","0.1543762338","","","","","","",""
"101","","bandit","138","627787","0.0-100.0-0.0","11334842","wem/bandit_single","A29P6YNXQBBFCM","gain","2","","75","K","2","","0","0","1","0.3326008901","","false","63","0.3035933772","","main_expt","0.1472080331","","0.3326008901","","0.1957871903","","","","","","",""
"31","","bandit","139","629574","0.0-101.0-0.0","11334842","wem/bandit_single","A29P6YNXQBBFCM","gain","2","","72","H","0","img/none_selected.jpg","0","0","1","0.3061864711","","false","64","0.3061864711","","main_expt","0.1523556625","","0.2759567044","","0.1998827037","","","","","","",""
"161","","bandit","140","631489","0.0-102.0-0.0","11334842","wem/bandit_single","A29P6YNXQBBFCM","gain","2","","72","H","0","img/none_selected.jpg","0","0","1","0.2795045379","","false","65","0.2795045379","","main_expt","0.1640586258","","0.330340259","","0.2229124218","","","","","","",""
"182","","bandit","141","633425","0.0-103.0-0.0","11334842","wem/bandit_single","A29P6YNXQBBFCM","gain","2","","75","K","2","","0","0","1","0.394496842","","false","66","0.2624990872","","main_expt","0.1559289375","","0.394496842","","0.2821528041","","","","","","",""
"138","","bandit","142","635316","0.0-104.0-0.0","11334842","wem/bandit_single","A29P6YNXQBBFCM","gain","2","","76","L","3","","0","0","1","0.2228434199","","false","67","0.2316809648","","main_expt","0.09042099393","","0.3780229448","","0.2228434199","","","","","","",""
"184","","bandit","143","637253","0.0-105.0-0.0","11334842","wem/bandit_single","A29P6YNXQBBFCM","gain","2","","72","H","0","img/none_selected.jpg","1","0","0","0.2266776066","","false","68","0.2266776066","","main_expt","0.08874767337","","0.313258317","","0.2039549584","","","","","","",""
"91","","bandit","144","639099","0.0-106.0-0.0","11334842","wem/bandit_single","A29P6YNXQBBFCM","gain","2","","74","J","1","","0","0","1","0.09103688118","","false","69","0.1734363374","","main_expt","0.09103688118","","0.3466590849","","0.1998164138","","","","","","",""
"92","","bandit","145","640944","0.0-107.0-0.0","11334842","wem/bandit_single","A29P6YNXQBBFCM","gain","2","","75","K","2","","0","0","1","0.3389702644","","false","70","0.1469163378","","main_expt","0.139461016","","0.3389702644","","0.1936545157","","","","","","",""
"188","","bandit","146","642886","0.0-108.0-0.0","11334842","wem/bandit_single","A29P6YNXQBBFCM","gain","2","","72","H","0","img/none_selected.jpg","0","0","1","0.1903103683","","false","71","0.1903103683","","main_expt","0.1269809057","","0.3037518088","","0.1875420319","","","","","","",""
"152","","bandit","147","644807","0.0-109.0-0.0","11334842","wem/bandit_single","A29P6YNXQBBFCM","gain","2","","76","L","3","","0","0","1","0.2275961541","","false","72","0.2364630875","","main_expt","0.1541032278","","0.3007282465","","0.2275961541","","","","","","",""
"214","","bandit","148","646782","0.0-110.0-0.0","11334842","wem/bandit_single","A29P6YNXQBBFCM","gain","2","","74","J","1","","1","0","0","0.1618198783","","false","73","0.2715971604","","main_expt","0.1618198783","","0.2796446257","","0.2485431464","","","","","","",""
"170","","bandit","149","648707","0.0-111.0-0.0","11334842","wem/bandit_single","A29P6YNXQBBFCM","gain","2","","72","H","0","img/none_selected.jpg","0","0","1","0.2716254876","","false","74","0.2716254876","","main_expt","0.1428156761","","0.2729876577","","0.2394527842","","","","","","",""
"9","","bandit","150","650469","0.0-112.0-0.0","11334842","wem/bandit_single","A29P6YNXQBBFCM","gain","2","","75","K","2","","0","0","1","0.2067723694","","false","75","0.2998540279","","main_expt","0.1312504708","","0.2067723694","","0.2074684787","","","","","","",""
"24","","bandit","151","652246","0.0-113.0-0.0","11334842","wem/bandit_single","A29P6YNXQBBFCM","gain","2","","72","H","0","img/none_selected.jpg","1","0","0","0.3195890579","","false","76","0.3195890579","","main_expt","0.1002429729","","0.2130899639","","0.178133335","","","","","","",""
"9","","bandit","152","654009","0.0-114.0-0.0","11334842","wem/bandit_single","A29P6YNXQBBFCM","gain","2","","76","L","3","","0","0","1","0.1788248706","","false","77","0.2856322382","","main_expt","0.07543037954","","0.2109525889","","0.1788248706","","","","","","",""
"130","","bandit","153","655893","0.0-115.0-0.0","11334842","wem/bandit_single","A29P6YNXQBBFCM","gain","2","","74","J","1","","0","0","1","0.1153668935","","false","78","0.2919105172","","main_expt","0.1153668935","","0.1884332626","","0.1530293784","","","","","","",""
"92","","bandit","154","657738","0.0-116.0-0.0","11334842","wem/bandit_single","A29P6YNXQBBFCM","gain","2","","72","H","0","img/none_selected.jpg","0","0","1","0.2567181874","","false","79","0.2567181874","","main_expt","0.07716777456","","0.1883433777","","0.1593806387","","","","","","",""
"141","","bandit","155","659635","0.0-117.0-0.0","11334842","wem/bandit_single","A29P6YNXQBBFCM","gain","2","","76","L","3","","0","0","1","0.1428411119","","false","80","0.3200023444","","main_expt","0.08058819474","","0.1998795799","","0.1428411119","","","","","","",""
"192","","bandit","156","661581","0.0-118.0-0.0","11334842","wem/bandit_single","A29P6YNXQBBFCM","gain","2","","75","K","2","","0","0","1","0.1651756375","","false","81","0.3117755618","","main_expt","0.09856946308","","0.1651756375","","0.1982686668","","","","","","",""
"9","","bandit","157","663344","0.0-119.0-0.0","11334842","wem/bandit_single","A29P6YNXQBBFCM","gain","2","","75","K","2","","0","0","1","0.2235829688","","false","82","0.3379160562","","main_expt","0.1000946235","","0.2235829688","","0.2291501313","","","","","","",""
"28","","bandit","158","665127","0.0-120.0-0.0","11334842","wem/bandit_single","A29P6YNXQBBFCM","gain","2","","75","K","2","","1","0","0","0.2456561592","","false","83","0.3620865136","","main_expt","0.06687408093","","0.2456561592","","0.2259362275","","","","","","",""
"83","","bandit","159","666964","0.0-121.0-0.0","11334842","wem/bandit_single","A29P6YNXQBBFCM","gain","2","","76","L","3","","0","0","1","0.1733031115","","false","84","0.3904685548","","main_expt","0.06463964557","","0.2790354554","","0.1733031115","","","","","","",""
"160","","bandit","160","668877","0.0-122.0-0.0","11334842","wem/bandit_single","A29P6YNXQBBFCM","gain","2","","76","L","3","","1","0","0","0.1577379057","","false","85","0.4201611698","","main_expt","0.09044174456","","0.2389339959","","0.1577379057","","","","","","",""
"85","","bandit","161","670717","0.0-123.0-0.0","11334842","wem/bandit_single","A29P6YNXQBBFCM","gain","2","","75","K","2","","0","0","1","0.2905830411","","false","86","0.4544588035","","main_expt","0.07242924321","","0.2905830411","","0.1646880331","","","","","","",""
"122","","bandit","162","672594","0.0-124.0-0.0","11334842","wem/bandit_single","A29P6YNXQBBFCM","gain","2","","76","L","3","","0","0","1","0.157008097","","false","87","0.4444110865","","main_expt","0.06356931104","","0.3336128518","","0.157008097","","","","","","",""
"150","","bandit","163","674498","0.0-125.0-0.0","11334842","wem/bandit_single","A29P6YNXQBBFCM","gain","2","","76","L","3","","0","0","1","0.14663069","","false","88","0.4276611285","","main_expt","0.08819972964","","0.3720796031","","0.14663069","","","","","","",""
"53","","bandit","164","676307","0.0-126.0-0.0","11334842","wem/bandit_single","A29P6YNXQBBFCM","gain","2","","72","H","0","img/none_selected.jpg","0","0","1","0.395063318","","false","89","0.395063318","","main_expt","0.09388884115","","0.3383028484","","0.1510377787","","","","","","",""
"32","","bandit","165","678092","0.0-127.0-0.0","11334842","wem/bandit_single","A29P6YNXQBBFCM","gain","2","","72","H","0","img/none_selected.jpg","1","0","0","0.3790569413","","false","90","0.3790569413","","main_expt","0.1265583984","","0.3550100304","","0.1600185234","","","","","","",""
"179","","bandit","166","680026","0.0-128.0-0.0","11334842","wem/bandit_single","A29P6YNXQBBFCM","gain","2","","74","J","1","","0","0","1","0.09433033469","","false","91","0.3763017738","","main_expt","0.09433033469","","0.4198742783","","0.1618321768","","","","","","",""
"25","","bandit","167","681805","0.0-129.0-0.0","11334842","wem/bandit_single","A29P6YNXQBBFCM","gain","2","","76","L","3","","0","0","1","0.1408839615","","false","92","0.3829045729","","main_expt","0.05111462501","","0.4522920775","","0.1408839615","","","","","","",""
"145","","bandit","168","683706","0.0-130.0-0.0","11334842","wem/bandit_single","A29P6YNXQBBFCM","gain","2","","74","J","1","","0","0","1","0.05378689714","","false","93","0.4155552038","","main_expt","0.05378689714","","0.4572096334","","0.1675332925","","","","","","",""
"61","","bandit","169","685521","0.0-131.0-0.0","11334842","wem/bandit_single","A29P6YNXQBBFCM","gain","2","","75","K","2","","1","0","0","0.457248447","","false","94","0.3964247486","","main_expt","0.04385487208","","0.457248447","","0.2154783406","","","","","","",""
"193","","bandit","170","687469","0.0-132.0-0.0","11334842","wem/bandit_single","A29P6YNXQBBFCM","gain","2","","75","K","2","","1","0","0","0.4284600246","","false","95","0.4028729744","","main_expt","0.02374316345","","0.4284600246","","0.2434825378","","","","","","",""
"127","","bandit","171","689353","0.0-133.0-0.0","11334842","wem/bandit_single","A29P6YNXQBBFCM","gain","2","","75","K","2","","0","0","1","0.4213934208","","false","96","0.3937220057","","main_expt","0.01119532444","","0.4213934208","","0.300751002","","","","","","",""
"83","","bandit","172","691189","0.0-134.0-0.0","11334842","wem/bandit_single","A29P6YNXQBBFCM","gain","2","","75","K","2","","0","0","1","0.4093218277","","false","97","0.3951408858","","main_expt","0.01205949719","","0.4093218277","","0.2390268827","","","","","","",""
"128","","bandit","173","693073","0.0-135.0-0.0","11334842","wem/bandit_single","A29P6YNXQBBFCM","gain","2","","75","K","2","","0","0","1","0.4011771953","","false","98","0.3872505806","","main_expt","0.02530753644","","0.4011771953","","0.1872158766","","","","","","",""
"28","","bandit","174","694856","0.0-136.0-0.0","11334842","wem/bandit_single","A29P6YNXQBBFCM","gain","2","","75","K","2","","0","0","1","0.4319140629","","false","99","0.3237376228","","main_expt","0.02318317113","","0.4319140629","","0.2281726053","","","","","","",""
"57","","bandit","175","696667","0.0-137.0-0.0","11334842","wem/bandit_single","A29P6YNXQBBFCM","gain","2","","74","J","1","","0","0","1","0.01577819671","","false","100","0.3840854176","","main_expt","0.01577819671","","0.4388591553","","0.2322026393","","","","","","",""
"76","","bandit","176","698498","0.0-138.0-0.0","11334842","wem/bandit_single","A29P6YNXQBBFCM","gain","2","","75","K","2","","0","0","1","0.4405661836","","false","101","0.4043087267","","main_expt","0.03767304301","","0.4405661836","","0.2675158553","","","","","","",""
"98","","bandit","177","700350","0.0-139.0-0.0","11334842","wem/bandit_single","A29P6YNXQBBFCM","gain","2","","72","H","0","img/none_selected.jpg","0","0","1","0.423372456","","false","102","0.423372456","","main_expt","0.03003558128","","0.4155134761","","0.2334450153","","","","","","",""
"174","","bandit","178","702279","0.0-140.0-0.0","11334842","wem/bandit_single","A29P6YNXQBBFCM","gain","2","","72","H","0","img/none_selected.jpg","1","0","0","0.4305794097","","false","103","0.4305794097","","main_expt","0.04748945294","","0.4079284656","","0.2546104349","","","","","","",""
"10","","bandit","179","704044","0.0-141.0-0.0","11334842","wem/bandit_single","A29P6YNXQBBFCM","gain","2","","75","K","2","","0","0","1","0.3827156199","","false","104","0.4515631957","","main_expt","0.06674284653","","0.3827156199","","0.2657782481","","","","","","",""
"17","","bandit","180","705814","0.0-142.0-0.0","11334842","wem/bandit_single","A29P6YNXQBBFCM","gain","2","","76","L","3","","0","0","1","0.2397797145","","false","105","0.454723383","","main_expt","0.0806059128","","0.3892206975","","0.2397797145","","","","","","",""
"222","","bandit","181","707801","0.0-143.0-0.0","11334842","wem/bandit_single","A29P6YNXQBBFCM","gain","2","","74","J","1","","0","0","1","0.1147522423","","false","106","0.4487898282","","main_expt","0.1147522423","","0.3499671591","","0.1744994936","","","","","","",""
"16","","bandit","182","709570","0.0-144.0-0.0","11334842","wem/bandit_single","A29P6YNXQBBFCM","gain","2","","72","H","0","img/none_selected.jpg","0","0","1","0.4300484018","","false","107","0.4300484018","","main_expt","0.1225979079","","0.3378870415","","0.2004436591","","","","","","",""
"207","","bandit","183","711531","0.0-145.0-0.0","11334842","wem/bandit_single","A29P6YNXQBBFCM","gain","2","","75","K","2","","0","0","1","0.3206855754","","false","108","0.4056187414","","main_expt","0.1808232933","","0.3206855754","","0.1781349215","","","","","","",""
"8","","bandit","184","713304","0.0-146.0-0.0","11334842","wem/bandit_single","A29P6YNXQBBFCM","gain","2","","76","L","3","","0","0","1","0.1603989886","","false","109","0.4145536126","","main_expt","0.2004688742","","0.3412252333","","0.1603989886","","","","","","",""
"42","","bandit","185","715102","0.0-147.0-0.0","11334842","wem/bandit_single","A29P6YNXQBBFCM","gain","2","","74","J","1","","0","0","1","0.2261403934","","false","110","0.3897928763","","main_expt","0.2261403934","","0.3650365033","","0.1300992081","","","","","","",""
"78","","bandit","186","716934","0.0-148.0-0.0","11334842","wem/bandit_single","A29P6YNXQBBFCM","gain","2","","72","H","0","img/none_selected.jpg","0","0","1","0.4150540561","","false","111","0.4150540561","","main_expt","0.1612973213","","0.341048274","","0.1740321776","","","","","","",""
"156","","bandit","187","718845","0.0-149.0-0.0","11334842","wem/bandit_single","A29P6YNXQBBFCM","gain","2","","75","K","2","","0","0","1","0.3254027875","","false","112","0.4394636757","","main_expt","0.1655724556","","0.3254027875","","0.2444477537","","","","","","",""
"122","","bandit","188","720721","0.0-150.0-0.0","11334842","wem/bandit_single","A29P6YNXQBBFCM","gain","2","","75","K","2","","0","0","1","0.308059901","","false","113","0.4301961846","","main_expt","0.1319876284","","0.308059901","","0.2195244909","","","","","","",""
"152","","bandit","189","722628","0.0-151.0-0.0","11334842","wem/bandit_single","A29P6YNXQBBFCM","gain","2","","74","J","1","","0","0","1","0.1147934267","","false","114","0.4497687286","","main_expt","0.1147934267","","0.3238695313","","0.2719971232","","","","","","",""
"138","","bandit","190","724522","0.0-152.0-0.0","11334842","wem/bandit_single","A29P6YNXQBBFCM","gain","2","","76","L","3","","0","0","1","0.2447677414","","false","115","0.4448888627","","main_expt","0.1301750396","","0.3315084933","","0.2447677414","","","","","","",""
"51","","bandit","191","726327","0.0-153.0-0.0","11334842","wem/bandit_single","A29P6YNXQBBFCM","gain","2","","75","K","2","","0","0","1","0.3234657333","","false","116","0.3905844751","","main_expt","0.130185029","","0.3234657333","","0.2296513069","","","","","","",""
"255","","bandit","192","728336","0.0-154.0-0.0","11334842","wem/bandit_single","A29P6YNXQBBFCM","gain","2","","74","J","1","","0","0","1","0.1548944576","","false","117","0.424359093","","main_expt","0.1548944576","","0.300593156","","0.2151266314","","","","","","",""
"9048","","bandit","193","740067","0.0-155.0-0.0","11334842","wem/bandit_single","A29P6YNXQBBFCM","gain","2","","75","K","2","","0","0","1","0.3585138177","","false","118","0.4121010571","","main_expt","0.172903741","","0.3585138177","","0.1311834018","","","","","","",""
"69","","bandit","194","741896","0.0-156.0-0.0","11334842","wem/bandit_single","A29P6YNXQBBFCM","gain","2","","74","J","1","","0","0","1","0.1707570171","","false","119","0.4117558181","","main_expt","0.1707570171","","0.3062020697","","0.1190099868","","","","","","",""
"5666","","bandit","195","749315","0.0-157.0-0.0","11334842","wem/bandit_single","A29P6YNXQBBFCM","gain","2","","75","K","2","","0","0","1","0.3312553157","","false","120","0.4275669698","","main_expt","0.1870802187","","0.3312553157","","0.1117686876","","","","","","",""
"176","","bandit","196","751247","0.0-158.0-0.0","11334842","wem/bandit_single","A29P6YNXQBBFCM","gain","2","","72","H","0","img/none_selected.jpg","0","0","1","0.4428986123","","false","121","0.4428986123","","main_expt","0.1870161021","","0.3892509988","","0.1415869423","","","","","","",""
"68","","bandit","197","753070","0.0-159.0-0.0","11334842","wem/bandit_single","A29P6YNXQBBFCM","gain","2","","72","H","0","img/none_selected.jpg","1","0","0","0.4376246318","","false","122","0.4376246318","","main_expt","0.1926804843","","0.4330036483","","0.1398412585","","","","","","",""
"81","","bandit","198","754905","0.0-160.0-0.0","11334842","wem/bandit_single","A29P6YNXQBBFCM","gain","2","","74","J","1","","1","0","0","0.2057615037","","false","123","0.4153394585","","main_expt","0.2057615037","","0.4555957022","","0.1163210087","","","","","","",""
"114","","bandit","199","756774","0.0-161.0-0.0","11334842","wem/bandit_single","A29P6YNXQBBFCM","gain","2","","75","K","2","","0","0","1","0.4565029776","","false","124","0.4203389285","","main_expt","0.2639565913","","0.4565029776","","0.07344578178","","","","","","",""
"35","","bandit","200","758563","0.0-162.0-0.0","11334842","wem/bandit_single","A29P6YNXQBBFCM","gain","2","","74","J","1","","0","0","1","0.3672341475","","false","125","0.3710029205","","main_expt","0.3672341475","","0.4511527373","","0.08752025541","","","","","","",""
"70","","bandit","201","760388","0.0-163.0-0.0","11334842","wem/bandit_single","A29P6YNXQBBFCM","gain","2","","75","K","2","","0","0","1","0.4426171603","","false","126","0.3465273485","","main_expt","0.3606148775","","0.4426171603","","0.1064058914","","","","","","",""
"15","","bandit","202","762159","0.0-164.0-0.0","11334842","wem/bandit_single","A29P6YNXQBBFCM","gain","2","","72","H","0","img/none_selected.jpg","1","0","0","0.4106613481","","false","127","0.4106613481","","main_expt","0.4079700646","","0.4259104728","","0.1103525866","","","","","","",""
"184","","bandit","203","764098","0.0-165.0-0.0","11334842","wem/bandit_single","A29P6YNXQBBFCM","gain","2","","72","H","0","img/none_selected.jpg","0","0","1","0.4377707947","","false","128","0.4377707947","","main_expt","0.4204919645","","0.4543754413","","0.1060480298","","","","","","",""
"18","","bandit","204","765871","0.0-166.0-0.0","11334842","wem/bandit_single","A29P6YNXQBBFCM","gain","2","","75","K","2","","1","0","0","0.4587533269","","false","129","0.4481781661","","main_expt","0.4040923387","","0.4587533269","","0.1332603285","","","","","","",""
"98","","bandit","205","767723","0.0-167.0-0.0","11334842","wem/bandit_single","A29P6YNXQBBFCM","gain","2","","72","H","0","img/none_selected.jpg","0","0","1","0.4301237728","","false","130","0.4301237728","","main_expt","0.3906791758","","0.4618517855","","0.09182468565","","","","","","",""
"113","","bandit","206","769590","0.0-168.0-0.0","11334842","wem/bandit_single","A29P6YNXQBBFCM","gain","2","","72","H","0","img/none_selected.jpg","0","0","1","0.4457858875","","false","131","0.4457858875","","main_expt","0.380553204","","0.4622878414","","0.09388333002","","","","","","",""
"17","","bandit","207","771363","0.0-169.0-0.0","11334842","wem/bandit_single","A29P6YNXQBBFCM","gain","2","","76","L","3","","0","0","1","0.07277513685","","false","132","0.4732894157","","main_expt","0.4000467043","","0.4624711794","","0.07277513685","","","","","","",""
"172","","bandit","208","773289","0.0-170.0-0.0","11334842","wem/bandit_single","A29P6YNXQBBFCM","gain","2","","72","H","0","img/none_selected.jpg","0","0","1","0.4607838047","","false","133","0.4607838047","","main_expt","0.3929100345","","0.4794526202","","0.1108266248","","","","","","",""
"100","","bandit","209","775144","0.0-171.0-0.0","11334842","wem/bandit_single","A29P6YNXQBBFCM","gain","2","","76","L","3","","1","0","0","0.1466671782","","false","134","0.4663808264","","main_expt","0.4009617203","","0.481632873","","0.1466671782","","","","","","",""
"145","","bandit","210","777043","0.0-172.0-0.0","11334842","wem/bandit_single","A29P6YNXQBBFCM","gain","2","","72","H","0","img/none_selected.jpg","1","0","0","0.4625615306","","false","135","0.4625615306","","main_expt","0.3859426802","","0.4667599148","","0.1625995743","","","","","","",""
"17","","bandit","211","778815","0.0-173.0-0.0","11334842","wem/bandit_single","A29P6YNXQBBFCM","gain","2","","74","J","1","","0","0","1","0.4089350186","","false","136","0.4629143089","","main_expt","0.4089350186","","0.4468402508","","0.1555673637","","","","","","",""
"14","","bandit","212","780583","0.0-174.0-0.0","11334842","wem/bandit_single","A29P6YNXQBBFCM","gain","2","","75","K","2","","0","0","1","0.4331537256","","false","137","0.4644074349","","main_expt","0.4009707033","","0.4331537256","","0.1395554881","","","","","","",""
"9","","bandit","213","782349","0.0-175.0-0.0","11334842","wem/bandit_single","A29P6YNXQBBFCM","gain","2","","75","K","2","","0","0","1","0.4578477473","","false","138","0.4741213624","","main_expt","0.4116224971","","0.4578477473","","0.1387442451","","","","","","",""
"113","","bandit","214","784216","0.0-176.0-0.0","11334842","wem/bandit_single","A29P6YNXQBBFCM","gain","2","","75","K","2","","0","0","1","0.464919911","","false","139","0.4736492243","","main_expt","0.4129411324","","0.464919911","","0.1693780048","","","","","","",""
"120","","bandit","215","786091","0.0-177.0-0.0","11334842","wem/bandit_single","A29P6YNXQBBFCM","gain","2","","75","K","2","","0","0","1","0.4614371154","","false","140","0.4752570035","","main_expt","0.4494235083","","0.4614371154","","0.1753437518","","","","","","",""
"11003","","bandit","216","798847","0.0-178.0-0.0","11334842","wem/bandit_single","A29P6YNXQBBFCM","gain","2","","72","H","0","img/none_selected.jpg","1","0","0","0.4857055712","","false","141","0.4857055712","","main_expt","0.4453484197","","0.4747872093","","0.2288512635","","","","","","",""
"283","","bandit","217","800886","0.0-179.0-0.0","11334842","wem/bandit_single","A29P6YNXQBBFCM","gain","2","","75","K","2","","0","0","1","0.4513335087","","false","142","0.4792724089","","main_expt","0.4604546146","","0.4513335087","","0.2579513082","","","","","","",""
"89","","bandit","218","802730","0.0-180.0-0.0","11334842","wem/bandit_single","A29P6YNXQBBFCM","gain","2","","74","J","1","","1","0","0","0.4826245684","","false","143","0.48057755","","main_expt","0.4826245684","","0.4198830698","","0.21432658","","","","","","",""
"238","","bandit","219","804722","0.0-181.0-0.0","11334842","wem/bandit_single","A29P6YNXQBBFCM","gain","2","","72","H","0","img/none_selected.jpg","0","0","1","0.4777600445","","false","144","0.4777600445","","main_expt","0.4890981767","","0.3673231636","","0.1938021535","","","","","","",""
"127","","bandit","220","806603","0.0-182.0-0.0","11334842","wem/bandit_single","A29P6YNXQBBFCM","gain","2","","75","K","2","","0","0","1","0.3772368795","","false","145","0.4735071841","","main_expt","0.4680822138","","0.3772368795","","0.206497324","","","","","","",""
"154","","bandit","221","808513","0.0-183.0-0.0","11334842","wem/bandit_single","A29P6YNXQBBFCM","gain","2","","75","K","2","","0","0","1","0.3767069828","","false","146","0.4598241197","","main_expt","0.4660155258","","0.3767069828","","0.1857351915","","","","","","",""
"223","","bandit","222","810492","0.0-184.0-0.0","11334842","wem/bandit_single","A29P6YNXQBBFCM","gain","2","","76","L","3","","0","0","1","0.1046475439","","false","147","0.4279993213","","main_expt","0.4723880167","","0.4039806626","","0.1046475439","","","","","","",""
"1025","","bandit","223","813272","0.0-185.0-0.0","11334842","wem/bandit_single","A29P6YNXQBBFCM","gain","2","","74","J","1","","1","0","0","0.4692947112","","false","148","0.4422782314","","main_expt","0.4692947112","","0.4178396587","","0.1098111678","","","","","","",""
"209","","bandit","224","815234","0.0-186.0-0.0","11334842","wem/bandit_single","A29P6YNXQBBFCM","gain","2","","72","H","0","img/none_selected.jpg","1","0","0","0.4514785706","","false","149","0.4514785706","","main_expt","0.4702562614","","0.3932004216","","0.1221971929","","","","","","",""
"206","","bandit","225","817194","0.0-187.0-0.0","11334842","wem/bandit_single","A29P6YNXQBBFCM","gain","2","","74","J","1","","0","0","1","0.4714094479","","false","150","0.4189864991","","main_expt","0.4714094479","","0.4103897693","","0.1354034315","","","","","","",""
"316","","bandit","226","819265","0.0-188.0-0.0","11334842","wem/bandit_single","A29P6YNXQBBFCM","gain","2","","76","L","3","","0","0","1","0.1041822367","","false","151","0.4389233528","","main_expt","0.4761401221","","0.4122179041","","0.1041822367","","","","","","",""
"639","","bandit","227","821659","0.0-189.0-0.0","11334842","wem/bandit_single","A29P6YNXQBBFCM","gain","2","","74","J","1","","1","0","0","0.4697737123","","false","152","0.4244236929","","main_expt","0.4697737123","","0.3952463752","","0.09038071171","","","","","","",""
"68","","bandit","228","823490","0.0-190.0-0.0","11334842","wem/bandit_single","A29P6YNXQBBFCM","gain","2","","75","K","2","","0","0","1","0.3877384472","","false","153","0.4476471014","","main_expt","0.446753433","","0.3877384472","","0.08460578514","","","","","","",""
"159","","bandit","229","825404","0.0-191.0-0.0","11334842","wem/bandit_single","A29P6YNXQBBFCM","gain","2","","72","H","0","img/none_selected.jpg","0","0","1","0.4505336387","","false","154","0.4505336387","","main_expt","0.4588815304","","0.3551427127","","0.06957086972","","","","","","",""
"179","","bandit","230","827338","0.0-192.0-0.0","11334842","wem/bandit_single","A29P6YNXQBBFCM","gain","2","","75","K","2","","1","0","0","0.3027898514","","false","155","0.466992112","","main_expt","0.4483664475","","0.3027898514","","0.07570805595","","","","","","",""
"200","","bandit","231","829294","0.0-193.0-0.0","11334842","wem/bandit_single","A29P6YNXQBBFCM","gain","2","","74","J","1","","0","0","1","0.4383670719","","false","156","0.4383448919","","main_expt","0.4383670719","","0.3245978035","","0.1010055374","","","","","","",""
"103","","bandit","232","831152","0.0-194.0-0.0","11334842","wem/bandit_single","A29P6YNXQBBFCM","gain","2","","75","K","2","","0","0","1","0.3293821827","","false","157","0.4181306447","","main_expt","0.42990192","","0.3293821827","","0.09959580587","","","","","","",""
"186","","bandit","233","833093","0.0-195.0-0.0","11334842","wem/bandit_single","A29P6YNXQBBFCM","gain","2","","75","K","2","","1","0","0","0.3053991167","","false","158","0.4322591637","","main_expt","0.4112902825","","0.3053991167","","0.09130540219","","","","","","",""
"58","","bandit","234","834906","0.0-196.0-0.0","11334842","wem/bandit_single","A29P6YNXQBBFCM","gain","2","","75","K","2","","0","0","1","0.3475565739","","false","159","0.4129829621","","main_expt","0.4085113589","","0.3475565739","","0.07080299429","","","","","","",""
"160","","bandit","235","836820","0.0-197.0-0.0","11334842","wem/bandit_single","A29P6YNXQBBFCM","gain","2","","74","J","1","","1","0","0","0.4079314082","","false","160","0.4094933958","","main_expt","0.4079314082","","0.327393219","","0.05017383151","","","","","","",""
"225","","bandit","236","838801","0.0-198.0-0.0","11334842","wem/bandit_single","A29P6YNXQBBFCM","gain","2","","74","J","1","","0","0","1","0.3631501835","","false","161","0.404058003","","main_expt","0.3631501835","","0.303429729","","0.03820476969","","","","","","",""
"64","","bandit","237","840621","0.0-199.0-0.0","11334842","wem/bandit_single","A29P6YNXQBBFCM","gain","2","","74","J","1","","0","0","1","0.3470346279","","false","162","0.3846726044","","main_expt","0.3470346279","","0.3079210788","","0.02512507724","","","","","","",""
"704","","bandit","238","843079","0.0-200.0-0.0","11334842","wem/bandit_single","A29P6YNXQBBFCM","gain","2","","72","H","0","img/none_selected.jpg","0","0","1","0.4016559577","","false","163","0.4016559577","","main_expt","0.372656257","","0.3004483846","","0.03932379445","","","","","","",""
"38","","bandit","239","844872","0.0-201.0-0.0","11334842","wem/bandit_single","A29P6YNXQBBFCM","gain","2","","74","J","1","","0","0","1","0.3802753243","","false","164","0.3566256613","","main_expt","0.3802753243","","0.2886014424","","0.01829840099","","","","","","",""
"293","","bandit","240","846920","0.0-202.0-0.0","11334842","wem/bandit_single","A29P6YNXQBBFCM","gain","2","","75","K","2","","0","0","1","0.2088325088","","false","165","0.3509524146","","main_expt","0.3881672334","","0.2088325088","","0.02415252971","","","","","","",""
"3612","","bandit","241","852287","0.0-203.0-0.0","11334842","wem/bandit_single","A29P6YNXQBBFCM","gain","2","","72","H","0","img/none_selected.jpg","1","0","0","0.2773632025","","false","166","0.2773632025","","main_expt","0.359536632","","0.2160195985","","0.02185778449","","","","","","",""
"815","","bandit","242","854858","0.0-204.0-0.0","11334842","wem/bandit_single","A29P6YNXQBBFCM","gain","2","","74","J","1","","0","0","1","0.3693034809","","false","167","0.3022689801","","main_expt","0.3693034809","","0.1836534764","","0.02761124673","","","","","","",""
"6303","","bandit","243","862918","0.0-205.0-0.0","11334842","wem/bandit_single","A29P6YNXQBBFCM","gain","2","","74","J","1","","1","0","0","0.3449050916","","false","168","0.2937690027","","main_expt","0.3449050916","","0.1701024481","","0.02160611799","","","","","","",""
"114","","bandit","244","864786","0.0-206.0-0.0","11334842","wem/bandit_single","A29P6YNXQBBFCM","gain","2","","72","H","0","img/none_selected.jpg","0","0","1","0.2488586406","","false","169","0.2488586406","","main_expt","0.3515710367","","0.1896079261","","0.02113437328","","","","","","",""
"50","","bandit","245","866593","0.0-207.0-0.0","11334842","wem/bandit_single","A29P6YNXQBBFCM","gain","2","","75","K","2","","0","0","1","0.2377789273","","false","170","0.2112819205","","main_expt","0.3233833909","","0.2377789273","","0.01292956957","","","","","","",""
"139","","bandit","246","868486","0.0-208.0-0.0","11334842","wem/bandit_single","A29P6YNXQBBFCM","gain","2","","72","H","0","img/none_selected.jpg","0","0","1","0.2217900108","","false","171","0.2217900108","","main_expt","0.2468086364","","0.2640247014","","0.01989811998","","","","","","",""
"106","","bandit","247","870346","0.0-209.0-0.0","11334842","wem/bandit_single","A29P6YNXQBBFCM","gain","2","","75","K","2","","1","0","0","0.2055846389","","false","172","0.2387596097","","main_expt","0.3408906282","","0.2055846389","","0.0296351857","","","","","","",""
"127","","bandit","248","872230","0.0-210.0-0.0","11334842","wem/bandit_single","A29P6YNXQBBFCM","gain","2","","74","J","1","","1","0","0","0.3252944763","","false","173","0.2602125502","","main_expt","0.3252944763","","0.2438181894","","0.03540771295","","","","","","",""
"73","","bandit","249","874061","0.0-211.0-0.0","11334842","wem/bandit_single","A29P6YNXQBBFCM","gain","2","","74","J","1","","0","0","1","0.3200904142","","false","174","0.2202846771","","main_expt","0.3200904142","","0.2733147352","","0.03725130304","","","","","","",""
"130","","bandit","250","875946","0.0-212.0-0.0","11334842","wem/bandit_single","A29P6YNXQBBFCM","gain","2","","74","J","1","","0","0","1","0.3622659173","","false","175","0.233285157","","main_expt","0.3622659173","","0.2767671147","","0.03242602151","","","","","","",""
"59","","bandit","251","877759","0.0-213.0-0.0","11334842","wem/bandit_single","A29P6YNXQBBFCM","gain","2","","74","J","1","","0","0","1","0.2937007374","","false","176","0.2264555061","","main_expt","0.2937007374","","0.2195478827","","0.04697917163","","","","","","",""
"9","","bandit","252","879523","0.0-214.0-0.0","11334842","wem/bandit_single","A29P6YNXQBBFCM","gain","2","","74","J","1","","0","0","1","0.2513366018","","false","177","0.241841845","","main_expt","0.2513366018","","0.1515864758","","0.04124559051","","","","","","",""
"159","","bandit","253","881436","0.0-215.0-0.0","11334842","wem/bandit_single","A29P6YNXQBBFCM","gain","2","","76","L","3","","0","0","1","0.06205026603","","false","178","0.2423953475","","main_expt","0.3159509921","","0.1618037694","","0.06205026603","","","","","","",""
"110","","bandit","254","883301","0.0-216.0-0.0","11334842","wem/bandit_single","A29P6YNXQBBFCM","gain","2","","75","K","2","","0","0","1","0.1653326191","","false","179","0.2523089652","","main_expt","0.2899582247","","0.1653326191","","0.08412795639","","","","","","",""
"55","","bandit","255","885112","0.0-217.0-0.0","11334842","wem/bandit_single","A29P6YNXQBBFCM","gain","2","","76","L","3","","0","0","1","0.1304099397","","false","180","0.2223981335","","main_expt","0.3371390753","","0.1751853148","","0.1304099397","","","","","","",""
"22","","bandit","256","886898","0.0-218.0-0.0","11334842","wem/bandit_single","A29P6YNXQBBFCM","gain","2","","74","J","1","","1","0","0","0.3365963609","","false","181","0.2319473409","","main_expt","0.3365963609","","0.211978586","","0.1801801058","","","","","","",""
"47","","bandit","257","888702","0.0-219.0-0.0","11334842","wem/bandit_single","A29P6YNXQBBFCM","gain","2","","72","H","0","img/none_selected.jpg","0","0","1","0.2338578761","","false","182","0.2338578761","","main_expt","0.2643366398","","0.2323199139","","0.1951504204","","","","","","",""
"20","","bandit","258","890478","0.0-220.0-0.0","11334842","wem/bandit_single","A29P6YNXQBBFCM","gain","2","","74","J","1","","0","0","1","0.2464000872","","false","183","0.265472663","","main_expt","0.2464000872","","0.2252803731","","0.2330781564","","","","","","",""
"46","","bandit","259","892280","0.0-221.0-0.0","11334842","wem/bandit_single","A29P6YNXQBBFCM","gain","2","","76","L","3","","0","0","1","0.2711395555","","false","184","0.2826161147","","main_expt","0.3039071009","","0.1614269484","","0.2711395555","","","","","","",""
"85","","bandit","260","894121","0.0-222.0-0.0","11334842","wem/bandit_single","A29P6YNXQBBFCM","gain","2","","76","L","3","","0","0","1","0.2182249031","","false","185","0.2542525597","","main_expt","0.3100879913","","0.1636939604","","0.2182249031","","","","","","",""
"159","","bandit","261","896036","0.0-223.0-0.0","11334842","wem/bandit_single","A29P6YNXQBBFCM","gain","2","","74","J","1","","1","0","0","0.28505789","","false","186","0.260460085","","main_expt","0.28505789","","0.1744134641","","0.2609412602","","","","","","",""
"171","","bandit","262","897962","0.0-224.0-0.0","11334842","wem/bandit_single","A29P6YNXQBBFCM","gain","2","","75","K","2","","0","0","1","0.1955069844","","false","187","0.2119714508","","main_expt","0.2698122055","","0.1955069844","","0.2242136054","","","","","","",""
"9","","bandit","263","899726","0.0-225.0-0.0","11334842","wem/bandit_single","A29P6YNXQBBFCM","gain","2","","76","L","3","","0","0","1","0.2404864381","","false","188","0.1887053186","","main_expt","0.2270240414","","0.2289740151","","0.2404864381","","","","","","",""
"124","","bandit","264","901605","0.0-226.0-0.0","11334842","wem/bandit_single","A29P6YNXQBBFCM","gain","2","","74","J","1","","0","0","1","0.2182158859","","false","189","0.1944753942","","main_expt","0.2182158859","","0.2495887903","","0.2177927796","","","","","","",""
"88","","bandit","265","903449","0.0-227.0-0.0","11334842","wem/bandit_single","A29P6YNXQBBFCM","gain","2","","75","K","2","","0","0","1","0.2815424982","","false","190","0.2163673671","","main_expt","0.2445882628","","0.2815424982","","0.2445379922","","","","","","",""
"40","","bandit","266","905245","0.0-228.0-0.0","11334842","wem/bandit_single","A29P6YNXQBBFCM","gain","2","","74","J","1","","1","0","0","0.2733302752","","false","191","0.2584180811","","main_expt","0.2733302752","","0.2401402076","","0.2910265903","","","","","","",""
"180","","bandit","267","907180","0.0-229.0-0.0","11334842","wem/bandit_single","A29P6YNXQBBFCM","gain","2","","75","K","2","","1","0","0","0.2510809658","","false","192","0.2555063139","","main_expt","0.2776932955","","0.2510809658","","0.3095983682","","","","","","",""
"33","","bandit","268","908968","0.0-230.0-0.0","11334842","wem/bandit_single","A29P6YNXQBBFCM","gain","2","","72","H","0","img/none_selected.jpg","1","0","0","0.2694863875","","false","193","0.2694863875","","main_expt","0.3335190616","","0.2875405407","","0.3217156539","","","","","","",""
"135","","bandit","269","910858","0.0-231.0-0.0","11334842","wem/bandit_single","A29P6YNXQBBFCM","gain","2","","75","K","2","","1","0","0","0.2183543786","","false","194","0.2894821148","","main_expt","0.3308991278","","0.2183543786","","0.278878796","","","","","","",""
"164","","bandit","270","912777","0.0-232.0-0.0","11334842","wem/bandit_single","A29P6YNXQBBFCM","gain","2","","72","H","0","img/none_selected.jpg","1","0","0","0.3028339589","","false","195","0.3028339589","","main_expt","0.3676749275","","0.2626349305","","0.2738334973","","","","","","",""
"145","","bandit","271","914678","0.0-233.0-0.0","11334842","wem/bandit_single","A29P6YNXQBBFCM","gain","2","","75","K","2","","1","0","0","0.2046446137","","false","196","0.3051171059","","main_expt","0.3523241719","","0.2046446137","","0.2494818112","","","","","","",""
"88","","bandit","272","916522","0.0-234.0-0.0","11334842","wem/bandit_single","A29P6YNXQBBFCM","gain","2","","72","H","0","img/none_selected.jpg","0","0","1","0.2901305303","","false","197","0.2901305303","","main_expt","0.3874168703","","0.2122082762","","0.2620473779","","","","","","",""
"143","","bandit","273","918420","0.0-235.0-0.0","11334842","wem/bandit_single","A29P6YNXQBBFCM","gain","2","","75","K","2","","0","0","1","0.1962120249","","false","198","0.2403600488","","main_expt","0.4072223947","","0.1962120249","","0.3153682745","","","","","","",""
"135","","bandit","274","920310","0.0-236.0-0.0","11334842","wem/bandit_single","A29P6YNXQBBFCM","gain","2","","72","H","0","img/none_selected.jpg","0","0","1","0.2034733728","","false","199","0.2034733728","","main_expt","0.4284861426","","0.1840541487","","0.2424407548","","","","","","",""
"180","","bandit","275","922246","0.0-237.0-0.0","11334842","wem/bandit_single","A29P6YNXQBBFCM","gain","2","","75","K","2","","0","0","1","0.1575563837","","false","200","0.2193557146","","main_expt","0.4181746593","","0.1575563837","","0.2692586032","","","","","","",""
"157","","bandit","276","924158","0.0-238.0-0.0","11334842","wem/bandit_single","A29P6YNXQBBFCM","gain","2","","76","L","3","","0","0","1","0.2605377594","","false","201","0.2412650678","","main_expt","0.4134190678","","0.138860739","","0.2605377594","","","","","","",""
"158","","bandit","277","926073","0.0-239.0-0.0","11334842","wem/bandit_single","A29P6YNXQBBFCM","gain","2","","76","L","3","","0","0","1","0.2372211354","","false","202","0.2106041824","","main_expt","0.4255663607","","0.1216759056","","0.2372211354","","","","","","",""
"57","","bandit","278","927885","0.0-240.0-0.0","11334842","wem/bandit_single","A29P6YNXQBBFCM","gain","2","","74","J","1","","1","0","0","0.4267176133","","false","203","0.2182463191","","main_expt","0.4267176133","","0.1085797693","","0.20896917","","","","","","",""
"116","","bandit","279","929755","0.0-241.0-0.0","11334842","wem/bandit_single","A29P6YNXQBBFCM","gain","2","","74","J","1","","1","0","0","0.460819217","","false","204","0.2060997213","","main_expt","0.460819217","","0.08750272662","","0.2277156902","","","","","","",""
"345","","bandit","280","931858","0.0-242.0-0.0","11334842","wem/bandit_single","A29P6YNXQBBFCM","gain","2","","74","J","1","","0","0","1","0.4797370756","","false","205","0.2179237498","","main_expt","0.4797370756","","0.1119911725","","0.2096017385","","","","","","",""
"62","","bandit","281","933676","0.0-243.0-0.0","11334842","wem/bandit_single","A29P6YNXQBBFCM","gain","2","","76","L","3","","0","0","1","0.2293009918","","false","206","0.194566176","","main_expt","0.4850202511","","0.105166696","","0.2293009918","","","","","","",""
"225","","bandit","282","935757","0.0-244.0-0.0","11334842","wem/bandit_single","A29P6YNXQBBFCM","gain","2","","76","L","3","","0","0","1","0.2613461541","","false","207","0.2540459421","","main_expt","0.4588339162","","0.07428909222","","0.2613461541","","","","","","",""
"22","","bandit","283","937534","0.0-245.0-0.0","11334842","wem/bandit_single","A29P6YNXQBBFCM","gain","2","","75","K","2","","0","0","1","0.08415887516","","false","208","0.2165425212","","main_expt","0.4704498371","","0.08415887516","","0.2921374763","","","","","","",""
"128","","bandit","284","939419","0.0-246.0-0.0","11334842","wem/bandit_single","A29P6YNXQBBFCM","gain","2","","72","H","0","img/none_selected.jpg","0","0","1","0.1808740619","","false","209","0.1808740619","","main_expt","0.4498430745","","0.05558253146","","0.2679345114","","","","","","",""
"137","","bandit","285","941314","0.0-247.0-0.0","11334842","wem/bandit_single","A29P6YNXQBBFCM","gain","2","","75","K","2","","0","0","1","0.04914985493","","false","210","0.2298827717","","main_expt","0.4463117693","","0.04914985493","","0.2356021564","","","","","","",""
"14","","bandit","286","943085","0.0-248.0-0.0","11334842","wem/bandit_single","A29P6YNXQBBFCM","gain","2","","75","K","2","","0","0","1","0.03798033643","","false","211","0.2533880575","","main_expt","0.422163821","","0.03798033643","","0.2152320876","","","","","","",""
"17","","bandit","287","944857","0.0-249.0-0.0","11334842","wem/bandit_single","A29P6YNXQBBFCM","gain","2","","76","L","3","","0","0","1","0.2216595069","","false","212","0.2771241442","","main_expt","0.3852039581","","0.03974322714","","0.2216595069","","","","","","",""
"78","","bandit","288","946691","0.0-250.0-0.0","11334842","wem/bandit_single","A29P6YNXQBBFCM","gain","2","","76","L","3","","0","0","1","0.2150176613","","false","213","0.3010302337","","main_expt","0.3822954745","","0.02384455773","","0.2150176613","","","","","","",""
"157","","bandit","289","948604","0.0-251.0-0.0","11334842","wem/bandit_single","A29P6YNXQBBFCM","gain","2","","74","J","1","","1","0","0","0.3608549874","","false","214","0.3409008015","","main_expt","0.3608549874","","0.03216660231","","0.1772129937","","","","","","",""
"432","","bandit","290","950800","0.0-252.0-0.0","11334842","wem/bandit_single","A29P6YNXQBBFCM","gain","2","","72","H","0","img/none_selected.jpg","0","0","1","0.3227810677","","false","215","0.3227810677","","main_expt","0.3621739951","","0.03095464101","","0.1584975441","","","","","","",""
"1667","","bandit","291","954223","0.0-253.0-0.0","11334842","wem/bandit_single","A29P6YNXQBBFCM","gain","2","","74","J","1","","1","0","0","0.3733564142","","false","216","0.3636386285","","main_expt","0.3733564142","","0.04011500866","","0.1256434713","","","","","","",""
"67","","bandit","292","956046","0.0-254.0-0.0","11334842","wem/bandit_single","A29P6YNXQBBFCM","gain","2","","76","L","3","","0","0","1","0.1601534085","","false","217","0.3649758886","","main_expt","0.3856473275","","0.02351309264","","0.1601534085","","","","","","",""
"216","","bandit","293","958018","0.0-255.0-0.0","11334842","wem/bandit_single","A29P6YNXQBBFCM","gain","2","","74","J","1","","0","0","1","0.3645608201","","false","218","0.3641131336","","main_expt","0.3645608201","","0.01650540734","","0.1514518834","","","","","","",""
"247","","bandit","294","960021","0.0-256.0-0.0","11334842","wem/bandit_single","A29P6YNXQBBFCM","gain","2","","74","J","1","","1","0","0","0.3851453746","","false","219","0.341156599","","main_expt","0.3851453746","","0.03577324375","","0.2415223947","","","","","","",""
"194","","bandit","295","961971","0.0-257.0-0.0","11334842","wem/bandit_single","A29P6YNXQBBFCM","gain","2","","74","J","1","","1","0","0","0.4075423229","","false","220","0.266049218","","main_expt","0.4075423229","","0.03655385126","","0.2248182851","","","","","","",""
"28","","bandit","296","963754","0.0-258.0-0.0","11334842","wem/bandit_single","A29P6YNXQBBFCM","gain","2","","72","H","0","img/none_selected.jpg","1","0","0","0.2359154628","","false","221","0.2359154628","","main_expt","0.4083347012","","0.03282050992","","0.2588925836","","","","","","",""
"722","","bandit","297","966232","0.0-259.0-0.0","11334842","wem/bandit_single","A29P6YNXQBBFCM","gain","2","","72","H","0","img/none_selected.jpg","0","0","1","0.2640726019","","false","222","0.2640726019","","main_expt","0.4083223781","","0.02558717114","","0.2025188389","","","","","","",""
"14008","","bandit","298","981995","0.0-260.0-0.0","11334842","wem/bandit_single","A29P6YNXQBBFCM","gain","2","","74","J","1","","1","0","0","0.4240474742","","false","223","0.1860418506","","main_expt","0.4240474742","","0.04788205671","","0.1609755914","","","","","","",""
"115","","bandit","299","983865","0.0-261.0-0.0","11334842","wem/bandit_single","A29P6YNXQBBFCM","gain","2","","72","H","0","img/none_selected.jpg","0","0","1","0.151875944","","false","224","0.151875944","","main_expt","0.4346876605","","0.05498715651","","0.2316748255","","","","","","",""
"9","","bandit","300","985629","0.0-262.0-0.0","11334842","wem/bandit_single","A29P6YNXQBBFCM","gain","2","","75","K","2","","0","0","1","0.056476577","","false","225","0.1209973656","","main_expt","0.4541072866","","0.056476577","","0.1605893144","","","","","","",""
"27","","bandit","301","987411","0.0-263.0-0.0","11334842","wem/bandit_single","A29P6YNXQBBFCM","gain","2","","75","K","2","","0","0","1","0.06361054401","","false","226","0.1503457952","","main_expt","0.4239515892","","0.06361054401","","0.1389366963","","","","","","",""
"128","","bandit","302","989296","0.0-264.0-0.0","11334842","wem/bandit_single","A29P6YNXQBBFCM","gain","2","","75","K","2","","0","0","1","0.03819722012","","false","227","0.1784166707","","main_expt","0.4122914309","","0.03819722012","","0.09987042713","","","","","","",""
"117","","bandit","303","991168","0.0-265.0-0.0","11334842","wem/bandit_single","A29P6YNXQBBFCM","gain","2","","74","J","1","","0","0","1","0.4022765074","","false","228","0.1729157366","","main_expt","0.4022765074","","0.03706892342","","0.1511988136","","","","","","",""
"50","","bandit","304","992974","0.0-266.0-0.0","11334842","wem/bandit_single","A29P6YNXQBBFCM","gain","2","","76","L","3","","0","0","1","0.1165125066","","false","229","0.2035050609","","main_expt","0.3991813765","","0.05619366589","","0.1165125066","","","","","","",""
"29817","","bandit","305","1024549","0.0-267.0-0.0","11334842","wem/bandit_single","A29P6YNXQBBFCM","gain","2","","74","J","1","","1","0","0","0.3771825363","","false","230","0.1677195288","","main_expt","0.3771825363","","0.02398835026","","0.09058018373","","","","","","",""
"172","","bandit","306","1026477","0.0-268.0-0.0","11334842","wem/bandit_single","A29P6YNXQBBFCM","gain","2","","76","L","3","","0","0","1","0.1254599363","","false","231","0.1568417205","","main_expt","0.4081115595","","0.01087418165","","0.1254599363","","","","","","",""
"53","","bandit","307","1028287","0.0-269.0-0.0","11334842","wem/bandit_single","A29P6YNXQBBFCM","gain","2","","74","J","1","","0","0","1","0.4227202023","","false","232","0.1733774055","","main_expt","0.4227202023","","0.005667282796","","0.09699218641","","","","","","",""
"145","","bandit","308","1030187","0.0-270.0-0.0","11334842","wem/bandit_single","A29P6YNXQBBFCM","gain","2","","75","K","2","","0","0","1","0.00711790457","","false","233","0.2318808439","","main_expt","0.4267606383","","0.00711790457","","0.07122003092","","","","","","",""
"146","","bandit","309","1032091","0.0-271.0-0.0","11334842","wem/bandit_single","A29P6YNXQBBFCM","gain","2","","75","K","2","","0","0","1","0.01087448681","","false","234","0.2728484722","","main_expt","0.4076790224","","0.01087448681","","0.07078025717","","","","","","",""
"116","","bandit","310","1033963","0.0-272.0-0.0","11334842","wem/bandit_single","A29P6YNXQBBFCM","gain","2","","72","H","0","img/none_selected.jpg","0","0","1","0.230842538","","false","235","0.230842538","","main_expt","0.3750136452","","0.008183852991","","0.04546889639","","","","","","",""
"153","","bandit","311","1035885","0.0-273.0-0.0","11334842","wem/bandit_single","A29P6YNXQBBFCM","gain","2","","76","L","3","","0","0","1","0.07949547843","","false","236","0.2565969246","","main_expt","0.3579900966","","0.00957014591","","0.07949547843","","","","","","",""
"24","","bandit","312","1037664","0.0-274.0-0.0","11334842","wem/bandit_single","A29P6YNXQBBFCM","gain","2","","76","L","3","","0","0","1","0.06498208703","","false","237","0.2661079812","","main_expt","0.3685919787","","0.02345003211","","0.06498208703","","","","","","",""
"194","","bandit","313","1039613","0.0-275.0-0.0","11334842","wem/bandit_single","A29P6YNXQBBFCM","gain","2","","76","L","3","","0","0","1","0.07283675032","","false","238","0.3192940022","","main_expt","0.3220789964","","0.02056264696","","0.07283675032","","","","","","",""
"9","","bandit","314","1041378","0.0-276.0-0.0","11334842","wem/bandit_single","A29P6YNXQBBFCM","gain","2","","76","L","3","","0","0","1","0.08723568047","","false","239","0.3150738333","","main_expt","0.3059519391","","0.02436326326","","0.08723568047","","","","","","",""
"161","","bandit","315","1043296","0.0-277.0-0.0","11334842","wem/bandit_single","A29P6YNXQBBFCM","gain","2","","76","L","3","","0","0","1","0.06404566497","","false","240","0.3008600842","","main_expt","0.3168560559","","0.0242835944","","0.06404566497","","","","","","",""
"191","","bandit","316","1045242","0.0-278.0-0.0","11334842","wem/bandit_single","A29P6YNXQBBFCM","gain","2","","76","L","3","","0","0","1","0.05187051438","","false","241","0.2677087501","","main_expt","0.269391424","","0.02652021178","","0.05187051438","","","","","","",""
"13","","bandit","317","1047011","0.0-279.0-0.0","11334842","wem/bandit_single","A29P6YNXQBBFCM","gain","2","","72","H","0","img/none_selected.jpg","0","0","1","0.2645585527","","false","242","0.2645585527","","main_expt","0.2061132751","","0.0264543433","","0.04056120823","","","","","","",""
"74","","bandit","318","1048841","0.0-280.0-0.0","11334842","wem/bandit_single","A29P6YNXQBBFCM","gain","2","","72","H","0","img/none_selected.jpg","0","0","1","0.2793098336","","false","243","0.2793098336","","main_expt","0.1996760118","","0.02176476481","","0.02806248696","","","","","","",""
"154","","bandit","319","1050753","0.0-281.0-0.0","11334842","wem/bandit_single","A29P6YNXQBBFCM","gain","2","","75","K","2","","0","0","1","0.01301534777","","false","244","0.285685864","","main_expt","0.1719334629","","0.01301534777","","0.04063524207","","","","","","",""
"282","","bandit","320","1052791","0.0-282.0-0.0","11334842","wem/bandit_single","A29P6YNXQBBFCM","gain","2","","74","J","1","","1","0","0","0.2264626889","","false","245","0.2792363563","","main_expt","0.2264626889","","0.02332936253","","0.03258124644","","","","","","",""
"111","","bandit","321","1054658","0.0-283.0-0.0","11334842","wem/bandit_single","A29P6YNXQBBFCM","gain","2","","75","K","2","","0","0","1","0.02379131239","","false","246","0.2721020884","","main_expt","0.2097999869","","0.02379131239","","0.034431304","","","","","","",""
"23","","bandit","322","1056437","0.0-284.0-0.0","11334842","wem/bandit_single","A29P6YNXQBBFCM","gain","2","","75","K","2","","0","0","1","0.02988301985","","false","247","0.2784836582","","main_expt","0.2190078117","","0.02988301985","","0.0335896152","","","","","","",""
"204","","bandit","323","1058398","0.0-285.0-0.0","11334842","wem/bandit_single","A29P6YNXQBBFCM","gain","2","","75","K","2","","0","0","1","0.04121629219","","false","248","0.2155360038","","main_expt","0.214739415","","0.04121629219","","0.0373608022","","","","","","",""
"76","","bandit","324","1060230","0.0-286.0-0.0","11334842","wem/bandit_single","A29P6YNXQBBFCM","gain","2","","72","H","0","img/none_selected.jpg","1","0","0","0.2182269439","","false","249","0.2182269439","","main_expt","0.2361668487","","0.03081548873","","0.04629433077","","","","","","",""
"478","","bandit","325","1062464","0.0-287.0-0.0","11334842","wem/bandit_single","A29P6YNXQBBFCM","gain","2","","72","H","0","img/none_selected.jpg","1","0","0","0.2794373206","","false","250","0.2794373206","","main_expt","0.2730147117","","0.02831669856","","0.04794370872","","","","","","",""
"578","","bandit","326","1064798","0.0-288.0-0.0","11334842","wem/bandit_single","A29P6YNXQBBFCM","gain","2","","75","K","2","","0","0","1","0.02600870455","","false","251","0.2925698281","","main_expt","0.2591269664","","0.02600870455","","0.06568157066","","","","","","",""
"23","","bandit","327","1066579","0.0-289.0-0.0","11334842","wem/bandit_single","A29P6YNXQBBFCM","gain","2","","75","K","2","","0","0","1","0.02705961599","","false","252","0.2727886948","","main_expt","0.3091321407","","0.02705961599","","0.07567030371","","","","","","",""
"56","","bandit","328","1068390","0.0-290.0-0.0","11334842","wem/bandit_single","A29P6YNXQBBFCM","gain","2","","76","L","3","","0","0","1","0.06628052114","","false","253","0.2470803404","","main_expt","0.2284010385","","0.01805963102","","0.06628052114","","","","","","",""
"270","","bandit","329","1070417","0.0-291.0-0.0","11334842","wem/bandit_single","A29P6YNXQBBFCM","gain","2","","74","J","1","","0","0","1","0.2452739286","","false","254","0.3366881304","","main_expt","0.2452739286","","0.01631706542","","0.08321976201","","","","","","",""
"54","","bandit","330","1072227","0.0-292.0-0.0","11334842","wem/bandit_single","A29P6YNXQBBFCM","gain","2","","72","H","0","img/none_selected.jpg","0","0","1","0.3781216995","","false","255","0.3781216995","","main_expt","0.2769296881","","0.01966147099","","0.1379446817","","","","","","",""
"240","","bandit","331","1074224","0.0-293.0-0.0","11334842","wem/bandit_single","A29P6YNXQBBFCM","gain","2","","72","H","0","img/none_selected.jpg","0","0","1","0.3565974786","","false","256","0.3565974786","","main_expt","0.222598086","","0.02801527349","","0.1104053019","","","","","","",""
"188","","bandit","332","1076168","0.0-294.0-0.0","11334842","wem/bandit_single","A29P6YNXQBBFCM","gain","2","","72","H","0","img/none_selected.jpg","0","0","1","0.3668333327","","false","257","0.3668333327","","main_expt","0.2497605863","","0.02393064904","","0.110095483","","","","","","",""
"132","","bandit","333","1078056","0.0-295.0-0.0","11334842","wem/bandit_single","A29P6YNXQBBFCM","gain","2","","72","H","0","img/none_selected.jpg","1","0","0","0.3978392262","","false","258","0.3978392262","","main_expt","0.248028097","","0.01715644076","","0.09250214804","","","","","","",""
"0","","bandit","334","1079814","0.0-296.0-0.0","11334842","wem/bandit_single","A29P6YNXQBBFCM","gain","2","","76","L","3","","0","0","1","0.1288972452","","false","259","0.3892622443","","main_expt","0.210079309","","0.01812234738","","0.1288972452","","","","","","",""
"81","","bandit","335","1081651","0.0-297.0-0.0","11334842","wem/bandit_single","A29P6YNXQBBFCM","gain","2","","75","K","2","","1","0","0","0.01699252537","","false","260","0.3787635018","","main_expt","0.1785868889","","0.01699252537","","0.127844668","","","","","","",""
"119","","bandit","336","1083529","0.0-298.0-0.0","11334842","wem/bandit_single","A29P6YNXQBBFCM","gain","2","","75","K","2","","0","0","1","0.02027773674","","false","261","0.4151771386","","main_expt","0.1855690742","","0.02027773674","","0.1408125104","","","","","","",""
"66","","bandit","337","1085352","0.0-299.0-0.0","11334842","wem/bandit_single","A29P6YNXQBBFCM","gain","2","","74","J","1","","0","0","1","0.2454672077","","false","262","0.4184001904","","main_expt","0.2454672077","","0.008159173947","","0.1423762304","","","","","","",""
"163","","bandit","338","1087272","0.0-300.0-0.0","11334842","wem/bandit_single","A29P6YNXQBBFCM","gain","2","","75","K","2","","0","0","1","0.00730364875","","false","263","0.4397427278","","main_expt","0.2423041147","","0.00730364875","","0.1237094287","","","","","","",""
"95","","bandit","339","1089124","0.0-301.0-0.0","11334842","wem/bandit_single","A29P6YNXQBBFCM","gain","2","","74","J","1","","0","0","1","0.2771483686","","false","264","0.4308816061","","main_expt","0.2771483686","","0.008891010149","","0.1110826985","","","","","","",""
"9","","bandit","340","1090888","0.0-302.0-0.0","11334842","wem/bandit_single","A29P6YNXQBBFCM","gain","2","","74","J","1","","1","0","0","0.2066329382","","false","265","0.4310956018","","main_expt","0.2066329382","","0.009434589262","","0.09816719149","","","","","","",""
"127","","bandit","341","1092774","0.0-303.0-0.0","11334842","wem/bandit_single","A29P6YNXQBBFCM","gain","2","","74","J","1","","0","0","1","0.1954640054","","false","266","0.4462346174","","main_expt","0.1954640054","","0.009503255165","","0.1313615454","","","","","","",""
"66","","bandit","342","1094596","0.0-304.0-0.0","11334842","wem/bandit_single","A29P6YNXQBBFCM","gain","2","","74","J","1","","0","0","1","0.132533774","","false","267","0.4649068607","","main_expt","0.132533774","","0.01294763698","","0.1039649444","","","","","","",""
"77","","bandit","343","1096437","0.0-305.0-0.0","11334842","wem/bandit_single","A29P6YNXQBBFCM","gain","2","","74","J","1","","0","0","1","0.1212355483","","false","268","0.4499385749","","main_expt","0.1212355483","","0.01002763249","","0.0758663636","","","","","","",""
"12","","bandit","344","1098207","0.0-306.0-0.0","11334842","wem/bandit_single","A29P6YNXQBBFCM","gain","2","","75","K","2","","0","0","1","0.009339874814","","false","269","0.4702815535","","main_expt","0.1363236216","","0.009339874814","","0.08641939852","","","","","","",""
"132","","bandit","345","1100095","0.0-307.0-0.0","11334842","wem/bandit_single","A29P6YNXQBBFCM","gain","2","","76","L","3","","0","0","1","0.08694739741","","false","270","0.4738293899","","main_expt","0.1061923246","","0.0101894737","","0.08694739741","","","","","","",""
"121","","bandit","346","1101974","0.0-308.0-0.0","11334842","wem/bandit_single","A29P6YNXQBBFCM","gain","2","","76","L","3","","0","0","1","0.07507278363","","false","271","0.4552130477","","main_expt","0.09682021381","","0.0101062795","","0.07507278363","","","","","","",""
"174","","bandit","347","1103904","0.0-309.0-0.0","11334842","wem/bandit_single","A29P6YNXQBBFCM","gain","2","","74","J","1","","0","0","1","0.0728164368","","false","272","0.4571227508","","main_expt","0.0728164368","","0.009276773287","","0.09002305832","","","","","","",""
"268","","bandit","348","1105930","0.0-310.0-0.0","11334842","wem/bandit_single","A29P6YNXQBBFCM","gain","2","","74","J","1","","1","0","0","0.1026255411","","false","273","0.4262778794","","main_expt","0.1026255411","","0.0113492324","","0.07941117108","","","","","","",""
"16","","bandit","349","1107702","0.0-311.0-0.0","11334842","wem/bandit_single","A29P6YNXQBBFCM","gain","2","","76","L","3","","0","0","1","0.09301171309","","false","274","0.4017895895","","main_expt","0.08683802548","","0.005483919941","","0.09301171309","","","","","","",""
"19","","bandit","350","1109477","0.0-312.0-0.0","11334842","wem/bandit_single","A29P6YNXQBBFCM","gain","2","","72","H","0","img/none_selected.jpg","1","0","0","0.4017548056","","false","275","0.4017548056","","main_expt","0.08250982893","","0.00462874381","","0.1012072593","","","","","","",""
"54","","bandit","351","1111287","0.0-313.0-0.0","11334842","wem/bandit_single","A29P6YNXQBBFCM","gain","2","","75","K","2","","0","0","1","0.009610611089","","false","276","0.4072561249","","main_expt","0.06031930624","","0.009610611089","","0.1230964009","","","","","","",""
"74","","bandit","352","1113118","0.0-314.0-0.0","11334842","wem/bandit_single","A29P6YNXQBBFCM","gain","2","","72","H","0","img/none_selected.jpg","0","0","1","0.3248287115","","false","277","0.3248287115","","main_expt","0.07169075363","","0.01319252808","","0.1320105939","","","","","","",""
"17","","bandit","353","1114902","0.0-315.0-0.0","11334842","wem/bandit_single","A29P6YNXQBBFCM","gain","2","","74","J","1","","0","0","1","0.119525529","","false","278","0.2954662343","","main_expt","0.119525529","","0.008560453299","","0.100271112","","","","","","",""
"124","","bandit","354","1116783","0.0-316.0-0.0","11334842","wem/bandit_single","A29P6YNXQBBFCM","gain","2","","76","L","3","","0","0","1","0.0752783975","","false","279","0.3430788315","","main_expt","0.05136608794","","0.02270234009","","0.0752783975","","","","","","",""
"152","","bandit","355","1118691","0.0-317.0-0.0","11334842","wem/bandit_single","A29P6YNXQBBFCM","gain","2","","75","K","2","","0","0","1","0.01842994591","","false","280","0.298888987","","main_expt","0.06692305053","","0.01842994591","","0.04609407158","","","","","","",""
"84","","bandit","356","1120533","0.0-318.0-0.0","11334842","wem/bandit_single","A29P6YNXQBBFCM","gain","2","","72","H","0","img/none_selected.jpg","0","0","1","0.317374049","","false","281","0.317374049","","main_expt","0.08594942048","","0.01750385803","","0.05874754036","","","","","","",""
"74","","bandit","357","1122366","0.0-319.0-0.0","11334842","wem/bandit_single","A29P6YNXQBBFCM","gain","2","","72","H","0","img/none_selected.jpg","0","0","1","0.2905756231","","false","282","0.2905756231","","main_expt","0.08562343316","","0.01075771148","","0.05911354127","","","","","","",""
"205","","bandit","358","1124327","0.0-320.0-0.0","11334842","wem/bandit_single","A29P6YNXQBBFCM","gain","2","","74","J","1","","0","0","1","0.06507866554","","false","283","0.335540713","","main_expt","0.06507866554","","0.009487342711","","0.0444902615","","","","","","",""
"9","","bandit","359","1126093","0.0-321.0-0.0","11334842","wem/bandit_single","A29P6YNXQBBFCM","gain","2","","75","K","2","","0","0","1","0.01035814212","","false","284","0.3569674754","","main_expt","0.05738126215","","0.01035814212","","0.03666520406","","","","","","",""
"100","","bandit","360","1127950","0.0-322.0-0.0","11334842","wem/bandit_single","A29P6YNXQBBFCM","gain","2","","76","L","3","","0","0","1","0.02451873239","","false","285","0.4068019922","","main_expt","0.06337296056","","0.01056818013","","0.02451873239","","","","","","",""
"134","","bandit","361","1129840","0.0-323.0-0.0","11334842","wem/bandit_single","A29P6YNXQBBFCM","gain","2","","75","K","2","","0","0","1","0.007821227136","","false","286","0.432978486","","main_expt","0.04649068967","","0.007821227136","","0.02877547985","","","","","","",""
"110","","bandit","362","1131706","0.0-324.0-0.0","11334842","wem/bandit_single","A29P6YNXQBBFCM","gain","2","","75","K","2","","0","0","1","0.01039042452","","false","287","0.4213006965","","main_expt","0.04946639224","","0.01039042452","","0.03331393821","","","","","","",""
"122","","bandit","363","1133585","0.0-325.0-0.0","11334842","wem/bandit_single","A29P6YNXQBBFCM","gain","2","","76","L","3","","0","0","1","0.02363643209","","false","288","0.4094413186","","main_expt","0.03962947871","","0.02141961277","","0.02363643209","","","","","","",""
"156","","bandit","364","1135499","0.0-326.0-0.0","11334842","wem/bandit_single","A29P6YNXQBBFCM","gain","2","","75","K","2","","0","0","1","0.02062414181","","false","289","0.3731302572","","main_expt","0.05295486238","","0.02062414181","","0.0366455232","","","","","","",""
"143","","bandit","365","1137401","0.0-327.0-0.0","11334842","wem/bandit_single","A29P6YNXQBBFCM","gain","2","","72","H","0","img/none_selected.jpg","0","0","1","0.4076032329","","false","290","0.4076032329","","main_expt","0.06311332932","","0.01411690602","","0.04887184979","","","","","","",""
"114","","bandit","366","1139272","0.0-328.0-0.0","11334842","wem/bandit_single","A29P6YNXQBBFCM","gain","2","","76","L","3","","0","0","1","0.03783642248","","false","291","0.4134699565","","main_expt","0.07741633782","","0.03188260643","","0.03783642248","","","","","","",""
"143","","bandit","367","1141172","0.0-329.0-0.0","11334842","wem/bandit_single","A29P6YNXQBBFCM","gain","2","","72","H","0","img/none_selected.jpg","1","0","0","0.3827884258","","false","292","0.3827884258","","main_expt","0.09064252153","","0.03429620073","","0.07820299584","","","","","","",""
"87","","bandit","368","1143016","0.0-330.0-0.0","11334842","wem/bandit_single","A29P6YNXQBBFCM","gain","2","","74","J","1","","0","0","1","0.07659126906","","false","293","0.4162015812","","main_expt","0.07659126906","","0.030392347","","0.07060894185","","","","","","",""
"59","","bandit","369","1144831","0.0-331.0-0.0","11334842","wem/bandit_single","A29P6YNXQBBFCM","gain","2","","74","J","1","","1","0","0","0.08042624432","","false","294","0.447674372","","main_expt","0.08042624432","","0.04782046051","","0.1051632986","","","","","","",""
"156","","bandit","370","1146745","0.0-332.0-0.0","11334842","wem/bandit_single","A29P6YNXQBBFCM","gain","2","","75","K","2","","0","0","1","0.06309063339","","false","295","0.4402126752","","main_expt","0.1216640212","","0.06309063339","","0.06624019153","","","","","","",""
"396","","bandit","371","1148899","0.0-333.0-0.0","11334842","wem/bandit_single","A29P6YNXQBBFCM","gain","2","","74","J","1","","0","0","1","0.1058257345","","false","296","0.4378891161","","main_expt","0.1058257345","","0.09511663338","","0.07088700909","","","","","","",""
"226","","bandit","372","1150881","0.0-334.0-0.0","11334842","wem/bandit_single","A29P6YNXQBBFCM","gain","2","","74","J","1","","0","0","1","0.1101311263","","false","297","0.468153315","","main_expt","0.1101311263","","0.07325770628","","0.0529580871","","","","","","",""
