"rt","responses","trial_type","trial_index","time_elapsed","internal_node_id","subjID","study","MID","cond","drift","key_press","respCharCode","respKey","respChoiceNum","respChoice","gems","bombs","no_reward","GemPrChosen","BombPrChosen","practice","trial_counter","WinPr_0","LosePr_0","trial_label","WinPr_1","LosePr_1","WinPr_2","LosePr_2","WinPr_3","LosePr_3","Q0","Q1","Q2","gender","age","ethnicity"
"7060","{""Q0"":""A5EU1AQJNC7F2""}","survey-text","0","7069","0.0-0.0","11824381","wem/bandit_single","A5EU1AQJNC7F2","pain","4","","","","","","","","","","","","","","","","","","","","","","","","","","",""
"16980","","text","1","25077","0.0-1.0","11824381","wem/bandit_single","A5EU1AQJNC7F2","pain","4","32","","","","","","","","","","","","","","","","","","","","","","","","","",""
"3851","","text","2","28940","0.0-2.0","11824381","wem/bandit_single","A5EU1AQJNC7F2","pain","4","32","","","","","","","","","","","","","","","","","","","","","","","","","",""
"10690","","text","3","39636","0.0-3.0","11824381","wem/bandit_single","A5EU1AQJNC7F2","pain","4","32","","","","","","","","","","","","","","","","","","","","","","","","","",""
"16103","","text","4","55744","0.0-4.0","11824381","wem/bandit_single","A5EU1AQJNC7F2","pain","4","32","","","","","","","","","","","","","","","","","","","","","","","","","",""
"18590","","text","5","74336","0.0-5.0","11824381","wem/bandit_single","A5EU1AQJNC7F2","pain","4","32","","","","","","","","","","","","","","","","","","","","","","","","","",""
"3842","","text","6","78179","0.0-6.0","11824381","wem/bandit_single","A5EU1AQJNC7F2","pain","4","32","","","","","","","","","","","","","","","","","","","","","","","","","",""
"1981","","text","7","80167","0.0-7.0","11824381","wem/bandit_single","A5EU1AQJNC7F2","pain","4","32","","","","","","","","","","","","","","","","","","","","","","","","","",""
"7269","","text","8","87449","0.0-8.0","11824381","wem/bandit_single","A5EU1AQJNC7F2","pain","4","32","","","","","","","","","","","","","","","","","","","","","","","","","",""
"1106","","text","9","88565","0.0-9.0","11824381","wem/bandit_single","A5EU1AQJNC7F2","pain","4","32","","","","","","","","","","","","","","","","","","","","","","","","","",""
"1674","","text","10","90242","0.0-10.0","11824381","wem/bandit_single","A5EU1AQJNC7F2","pain","4","32","","","","","","","","","","","","","","","","","","","","","","","","","",""
"7385","","text","11","97632","0.0-11.0","11824381","wem/bandit_single","A5EU1AQJNC7F2","pain","4","32","","","","","","","","","","","","","","","","","","","","","","","","","",""
"1711","","bandit","12","100888","0.0-12.0-0.0","11824381","wem/bandit_single","A5EU1AQJNC7F2","pain","4","","74","J","0","img/none_selected_demo.jpg","0","0","1","0","0","true","0","0","0","","","","","","","","","","","","",""
"718","","bandit","13","103408","0.0-13.0-0.0","11824381","wem/bandit_single","A5EU1AQJNC7F2","pain","4","","75","K","0","img/none_selected_demo.jpg","0","0","1","0","0","true","0","0","0","","","","","","","","","","","","",""
"1441","","text","14","105115","0.0-14.0","11824381","wem/bandit_single","A5EU1AQJNC7F2","pain","4","32","","","","","","","","","","","","","","","","","","","","","","","","","",""
"983","","text","15","106102","0.0-15.0","11824381","wem/bandit_single","A5EU1AQJNC7F2","pain","4","32","","","","","","","","","","","","","","","","","","","","","","","","","",""
"11567","","text","16","117672","0.0-16.0","11824381","wem/bandit_single","A5EU1AQJNC7F2","pain","4","32","","","","","","","","","","","","","","","","","","","","","","","","","",""
"2951","","text","17","120626","0.0-17.0","11824381","wem/bandit_single","A5EU1AQJNC7F2","pain","4","32","","","","","","","","","","","","","","","","","","","","","","","","","",""
"1996","","bandit","18","124158","0.0-18.0-0.0","11824381","wem/bandit_single","A5EU1AQJNC7F2","pain","4","","75","K","1","","0","1","0","0","0.2","true","0","0","0.8","80_20_practice","0","0.2","","","","","","","","","",""
"944","","bandit","19","126899","0.0-18.0-1.0","11824381","wem/bandit_single","A5EU1AQJNC7F2","pain","4","","75","K","1","","0","0","1","0","0.2","true","0","0","0.8","80_20_practice","0","0.2","","","","","","","","","",""
"200","","bandit","20","128883","0.0-18.0-2.0","11824381","wem/bandit_single","A5EU1AQJNC7F2","pain","4","","74","J","0","img/none_selected_demo.jpg","0","1","0","0","0.8","true","0","0","0.8","80_20_practice","0","0.2","","","","","","","","","",""
"1383","","bandit","21","132044","0.0-18.0-3.0","11824381","wem/bandit_single","A5EU1AQJNC7F2","pain","4","","74","J","0","img/none_selected_demo.jpg","0","1","0","0","0.8","true","0","0","0.8","80_20_practice","0","0.2","","","","","","","","","",""
"141","","bandit","22","133985","0.0-18.0-4.0","11824381","wem/bandit_single","A5EU1AQJNC7F2","pain","4","","74","J","0","img/none_selected_demo.jpg","0","1","0","0","0.8","true","0","0","0.8","80_20_practice","0","0.2","","","","","","","","","",""
"3884","","bandit","23","140399","0.0-18.0-5.0","11824381","wem/bandit_single","A5EU1AQJNC7F2","pain","4","","75","K","1","","0","0","1","0","0.2","true","0","0","0.8","80_20_practice","0","0.2","","","","","","","","","",""
"177","","bandit","24","142358","0.0-18.0-6.0","11824381","wem/bandit_single","A5EU1AQJNC7F2","pain","4","","74","J","0","img/none_selected_demo.jpg","0","0","1","0","0.8","true","0","0","0.8","80_20_practice","0","0.2","","","","","","","","","",""
"10711","","bandit","25","154872","0.0-18.0-7.0","11824381","wem/bandit_single","A5EU1AQJNC7F2","pain","4","","75","K","1","","0","0","1","0","0.2","true","0","0","0.8","80_20_practice","0","0.2","","","","","","","","","",""
"696","","bandit","26","157985","0.0-18.0-8.0","11824381","wem/bandit_single","A5EU1AQJNC7F2","pain","4","","75","K","1","","0","0","1","0","0.2","true","0","0","0.8","80_20_practice","0","0.2","","","","","","","","","",""
"5001","","bandit","27","165507","0.0-18.0-9.0","11824381","wem/bandit_single","A5EU1AQJNC7F2","pain","4","","75","K","1","","0","0","1","0","0.2","true","0","0","0.8","80_20_practice","0","0.2","","","","","","","","","",""
"397","","bandit","28","167986","0.0-18.0-10.0","11824381","wem/bandit_single","A5EU1AQJNC7F2","pain","4","","74","J","0","img/none_selected_demo.jpg","0","1","0","0","0.8","true","0","0","0.8","80_20_practice","0","0.2","","","","","","","","","",""
"3061","","bandit","29","173571","0.0-18.0-11.0","11824381","wem/bandit_single","A5EU1AQJNC7F2","pain","4","","74","J","0","img/none_selected_demo.jpg","0","0","1","0","0.8","true","0","0","0.8","80_20_practice","0","0.2","","","","","","","","","",""
"562","","bandit","30","175925","0.0-18.0-12.0","11824381","wem/bandit_single","A5EU1AQJNC7F2","pain","4","","74","J","0","img/none_selected_demo.jpg","0","1","0","0","0.8","true","0","0","0.8","80_20_practice","0","0.2","","","","","","","","","",""
"164","","bandit","31","177988","0.0-18.0-13.0","11824381","wem/bandit_single","A5EU1AQJNC7F2","pain","4","","75","K","1","","0","0","1","0","0.2","true","0","0","0.8","80_20_practice","0","0.2","","","","","","","","","",""
"7631","","bandit","32","188150","0.0-18.0-14.0","11824381","wem/bandit_single","A5EU1AQJNC7F2","pain","4","","74","J","0","img/none_selected_demo.jpg","0","1","0","0","0.8","true","0","0","0.8","80_20_practice","0","0.2","","","","","","","","","",""
"153","","bandit","33","190086","0.0-18.0-15.0","11824381","wem/bandit_single","A5EU1AQJNC7F2","pain","4","","75","K","1","","0","0","1","0","0.2","true","0","0","0.8","80_20_practice","0","0.2","","","","","","","","","",""
"778","","bandit","34","192658","0.0-18.0-16.0","11824381","wem/bandit_single","A5EU1AQJNC7F2","pain","4","","75","K","1","","0","0","1","0","0.2","true","0","0","0.8","80_20_practice","0","0.2","","","","","","","","","",""
"247","","bandit","35","194697","0.0-18.0-17.0","11824381","wem/bandit_single","A5EU1AQJNC7F2","pain","4","","74","J","0","img/none_selected_demo.jpg","0","1","0","0","0.8","true","0","0","0.8","80_20_practice","0","0.2","","","","","","","","","",""
"769","","bandit","36","197258","0.0-18.0-18.0","11824381","wem/bandit_single","A5EU1AQJNC7F2","pain","4","","74","J","0","img/none_selected_demo.jpg","0","1","0","0","0.8","true","0","0","0.8","80_20_practice","0","0.2","","","","","","","","","",""
"88","","bandit","37","199984","0.0-18.0-19.0","11824381","wem/bandit_single","A5EU1AQJNC7F2","pain","4","","75","K","1","","0","0","1","0","0.2","true","0","0","0.8","80_20_practice","0","0.2","","","","","","","","","",""
"6909","","text","38","207902","0.0-19.0","11824381","wem/bandit_single","A5EU1AQJNC7F2","pain","4","32","","","","","","","","","","","","","","","","","","","","","","","","","",""
"1519","","bandit","39","210933","0.0-20.0-0.0","11824381","wem/bandit_single","A5EU1AQJNC7F2","pain","4","","75","K","1","","0","0","1","0","0","true","0","0","0","","0","0","","","","","","","","","",""
"6062","","text","40","217251","0.0-21.0","11824381","wem/bandit_single","A5EU1AQJNC7F2","pain","4","32","","","","","","","","","","","","","","","","","","","","","","","","","",""
"14998","","text","41","232262","0.0-22.0","11824381","wem/bandit_single","A5EU1AQJNC7F2","pain","4","32","","","","","","","","","","","","","","","","","","","","","","","","","",""
"1342","","text","42","233620","0.0-23.0","11824381","wem/bandit_single","A5EU1AQJNC7F2","pain","4","32","","","","","","","","","","","","","","","","","","","","","","","","","",""
"1496","","text","43","235124","0.0-24.0","11824381","wem/bandit_single","A5EU1AQJNC7F2","pain","4","32","","","","","","","","","","","","","","","","","","","","","","","","","",""
"4191","","text","44","239331","0.0-25.0","11824381","wem/bandit_single","A5EU1AQJNC7F2","pain","4","32","","","","","","","","","","","","","","","","","","","","","","","","","",""
"1532","","text","45","240881","0.0-26.0","11824381","wem/bandit_single","A5EU1AQJNC7F2","pain","4","32","","","","","","","","","","","","","","","","","","","","","","","","","",""
"3451","","text","46","244340","0.0-27.0","11824381","wem/bandit_single","A5EU1AQJNC7F2","pain","4","32","","","","","","","","","","","","","","","","","","","","","","","","","",""
"1259","","text","47","245609","0.0-28.0","11824381","wem/bandit_single","A5EU1AQJNC7F2","pain","4","32","","","","","","","","","","","","","","","","","","","","","","","","","",""
"2029","","text","48","247646","0.0-29.0","11824381","wem/bandit_single","A5EU1AQJNC7F2","pain","4","32","","","","","","","","","","","","","","","","","","","","","","","","","",""
"1795","","text","49","249446","0.0-30.0","11824381","wem/bandit_single","A5EU1AQJNC7F2","pain","4","32","","","","","","","","","","","","","","","","","","","","","","","","","",""
"11494","","text","50","260952","0.0-31.0","11824381","wem/bandit_single","A5EU1AQJNC7F2","pain","4","32","","","","","","","","","","","","","","","","","","","","","","","","","",""
"459","","bandit","51","262935","0.0-32.0-0.0","11824381","wem/bandit_single","A5EU1AQJNC7F2","pain","4","","74","J","1","","0","0","1","0","0.2","true","0","0","0.8","full_practice","0","0.2","0","0.6","0","0.2","","","","","",""
"341","","bandit","52","265063","0.0-32.0-1.0","11824381","wem/bandit_single","A5EU1AQJNC7F2","pain","4","","72","H","0","img/none_selected.jpg","0","1","0","0","0.8","true","0","0","0.8","full_practice","0","0.2","0","0.6","0","0.2","","","","","",""
"75","","bandit","53","266932","0.0-32.0-2.0","11824381","wem/bandit_single","A5EU1AQJNC7F2","pain","4","","76","L","3","","0","0","1","0","0.2","true","0","0","0.8","full_practice","0","0.2","0","0.6","0","0.2","","","","","",""
"85","","bandit","54","268789","0.0-32.0-3.0","11824381","wem/bandit_single","A5EU1AQJNC7F2","pain","4","","75","K","2","","0","1","0","0","0.6","true","0","0","0.8","full_practice","0","0.2","0","0.6","0","0.2","","","","","",""
"27","","bandit","55","270602","0.0-32.0-4.0","11824381","wem/bandit_single","A5EU1AQJNC7F2","pain","4","","75","K","2","","0","0","1","0","0.6","true","0","0","0.8","full_practice","0","0.2","0","0.6","0","0.2","","","","","",""
"25","","bandit","56","272991","0.0-32.0-5.0","11824381","wem/bandit_single","A5EU1AQJNC7F2","pain","4","","72","H","0","img/none_selected.jpg","0","1","0","0","0.8","true","0","0","0.8","full_practice","0","0.2","0","0.6","0","0.2","","","","","",""
"1016","","bandit","57","276231","0.0-32.0-6.0","11824381","wem/bandit_single","A5EU1AQJNC7F2","pain","4","","76","L","3","","0","0","1","0","0.2","true","0","0","0.8","full_practice","0","0.2","0","0.6","0","0.2","","","","","",""
"101","","bandit","58","278984","0.0-32.0-7.0","11824381","wem/bandit_single","A5EU1AQJNC7F2","pain","4","","75","K","2","","0","1","0","0","0.6","true","0","0","0.8","full_practice","0","0.2","0","0.6","0","0.2","","","","","",""
"15206","","bandit","59","296712","0.0-32.0-8.0","11824381","wem/bandit_single","A5EU1AQJNC7F2","pain","4","","74","J","1","","0","0","1","0","0.2","true","0","0","0.8","full_practice","0","0.2","0","0.6","0","0.2","","","","","",""
"390","","bandit","60","298883","0.0-32.0-9.0","11824381","wem/bandit_single","A5EU1AQJNC7F2","pain","4","","72","H","0","img/none_selected.jpg","0","1","0","0","0.8","true","0","0","0.8","full_practice","0","0.2","0","0.6","0","0.2","","","","","",""
"83","","bandit","61","300748","0.0-32.0-10.0","11824381","wem/bandit_single","A5EU1AQJNC7F2","pain","4","","72","H","0","img/none_selected.jpg","0","0","1","0","0.8","true","0","0","0.8","full_practice","0","0.2","0","0.6","0","0.2","","","","","",""
"120","","bandit","62","302665","0.0-32.0-11.0","11824381","wem/bandit_single","A5EU1AQJNC7F2","pain","4","","75","K","2","","0","1","0","0","0.6","true","0","0","0.8","full_practice","0","0.2","0","0.6","0","0.2","","","","","",""
"266","","bandit","63","304703","0.0-32.0-12.0","11824381","wem/bandit_single","A5EU1AQJNC7F2","pain","4","","72","H","0","img/none_selected.jpg","0","1","0","0","0.8","true","0","0","0.8","full_practice","0","0.2","0","0.6","0","0.2","","","","","",""
"9","","bandit","64","306494","0.0-32.0-13.0","11824381","wem/bandit_single","A5EU1AQJNC7F2","pain","4","","75","K","2","","0","0","1","0","0.6","true","0","0","0.8","full_practice","0","0.2","0","0.6","0","0.2","","","","","",""
"34","","bandit","65","308289","0.0-32.0-14.0","11824381","wem/bandit_single","A5EU1AQJNC7F2","pain","4","","76","L","3","","0","0","1","0","0.2","true","0","0","0.8","full_practice","0","0.2","0","0.6","0","0.2","","","","","",""
"1967","","bandit","66","312034","0.0-32.0-15.0","11824381","wem/bandit_single","A5EU1AQJNC7F2","pain","4","","72","H","0","img/none_selected.jpg","0","1","0","0","0.8","true","0","0","0.8","full_practice","0","0.2","0","0.6","0","0.2","","","","","",""
"481","","bandit","67","314301","0.0-32.0-16.0","11824381","wem/bandit_single","A5EU1AQJNC7F2","pain","4","","72","H","0","img/none_selected.jpg","0","1","0","0","0.8","true","0","0","0.8","full_practice","0","0.2","0","0.6","0","0.2","","","","","",""
"402","","bandit","68","316488","0.0-32.0-17.0","11824381","wem/bandit_single","A5EU1AQJNC7F2","pain","4","","72","H","0","img/none_selected.jpg","0","0","1","0","0.8","true","0","0","0.8","full_practice","0","0.2","0","0.6","0","0.2","","","","","",""
"216","","bandit","69","318484","0.0-32.0-18.0","11824381","wem/bandit_single","A5EU1AQJNC7F2","pain","4","","75","K","2","","0","1","0","0","0.6","true","0","0","0.8","full_practice","0","0.2","0","0.6","0","0.2","","","","","",""
"56","","bandit","70","320340","0.0-32.0-19.0","11824381","wem/bandit_single","A5EU1AQJNC7F2","pain","4","","75","K","2","","0","0","1","0","0.6","true","0","0","0.8","full_practice","0","0.2","0","0.6","0","0.2","","","","","",""
"1727","","text","71","322348","0.0-33.0","11824381","wem/bandit_single","A5EU1AQJNC7F2","pain","4","32","","","","","","","","","","","","","","","","","","","","","","","","","",""
"6360","","text","72","329722","0.0-34.0","11824381","wem/bandit_single","A5EU1AQJNC7F2","pain","4","32","","","","","","","","","","","","","","","","","","","","","","","","","",""
"2723","","text","73","332461","0.0-35.0","11824381","wem/bandit_single","A5EU1AQJNC7F2","pain","4","32","","","","","","","","","","","","","","","","","","","","","","","","","",""
"2594","","text","74","335061","0.0-36.0","11824381","wem/bandit_single","A5EU1AQJNC7F2","pain","4","32","","","","","","","","","","","","","","","","","","","","","","","","","",""
"2623","","text","75","337691","0.0-37.0","11824381","wem/bandit_single","A5EU1AQJNC7F2","pain","4","32","","","","","","","","","","","","","","","","","","","","","","","","","",""
"742","","bandit","76","339958","0.0-38.0-0.0","11824381","wem/bandit_single","A5EU1AQJNC7F2","pain","4","","75","K","2","","0","0","1","","0.04789219489","false","1","","0.1530555908","main_expt","","0.1534711312","","0.04789219489","","0.2633340886","","","","","",""
"58","","bandit","77","341801","0.0-39.0-0.0","11824381","wem/bandit_single","A5EU1AQJNC7F2","pain","4","","74","J","1","","0","0","1","","0.1140054314","false","2","","0.103598712","main_expt","","0.1140054314","","0.06526788736","","0.288049036","","","","","",""
"827","","bandit","78","344420","0.0-40.0-0.0","11824381","wem/bandit_single","A5EU1AQJNC7F2","pain","4","","75","K","2","","0","0","1","","0.04764418461","false","3","","0.08136741005","main_expt","","0.1012650834","","0.04764418461","","0.2979487298","","","","","",""
"354","","bandit","79","346579","0.0-41.0-0.0","11824381","wem/bandit_single","A5EU1AQJNC7F2","pain","4","","76","L","3","","0","0","1","","0.3306303211","false","4","","0.08723083084","main_expt","","0.09541256236","","0.05056035824","","0.3306303211","","","","","",""
"90","","bandit","80","348444","0.0-42.0-0.0","11824381","wem/bandit_single","A5EU1AQJNC7F2","pain","4","","72","H","0","img/none_selected.jpg","0","0","1","","0.1255982651","false","5","","0.1255982651","main_expt","","0.07842998328","","0.05944929255","","0.2438199519","","","","","",""
"122","","bandit","81","350339","0.0-43.0-0.0","11824381","wem/bandit_single","A5EU1AQJNC7F2","pain","4","","72","H","0","img/none_selected.jpg","0","0","1","","0.09044777998","false","6","","0.09044777998","main_expt","","0.09158282766","","0.09562353852","","0.2362074668","","","","","",""
"12","","bandit","82","352126","0.0-44.0-0.0","11824381","wem/bandit_single","A5EU1AQJNC7F2","pain","4","","74","J","1","","0","0","1","","0.09712353232","false","7","","0.1067491613","main_expt","","0.09712353232","","0.08069121891","","0.2591683673","","","","","",""
"39","","bandit","83","353946","0.0-45.0-0.0","11824381","wem/bandit_single","A5EU1AQJNC7F2","pain","4","","76","L","3","","0","0","1","","0.2299415188","false","8","","0.15597148","main_expt","","0.08440361392","","0.07203927837","","0.2299415188","","","","","",""
"42","","bandit","84","355771","0.0-46.0-0.0","11824381","wem/bandit_single","A5EU1AQJNC7F2","pain","4","","76","L","3","","0","0","1","","0.2057198223","false","9","","0.2250404859","main_expt","","0.102519384","","0.08219025907","","0.2057198223","","","","","",""
"392","","bandit","85","357964","0.0-47.0-0.0","11824381","wem/bandit_single","A5EU1AQJNC7F2","pain","4","","75","K","2","","0","0","1","","0.06517742799","false","10","","0.2205918947","main_expt","","0.06157476224","","0.06517742799","","0.2002554128","","","","","",""
"47","","bandit","86","359808","0.0-48.0-0.0","11824381","wem/bandit_single","A5EU1AQJNC7F2","pain","4","","75","K","2","","0","0","1","","0.0549201251","false","11","","0.1999173076","main_expt","","0.05516119966","","0.0549201251","","0.2390702858","","","","","",""
"284","","bandit","87","361863","0.0-49.0-0.0","11824381","wem/bandit_single","A5EU1AQJNC7F2","pain","4","","74","J","1","","0","0","1","","0.04311537102","false","12","","0.2006159367","main_expt","","0.04311537102","","0.0630283727","","0.2309669968","","","","","",""
"275","","bandit","88","363945","0.0-50.0-0.0","11824381","wem/bandit_single","A5EU1AQJNC7F2","pain","4","","76","L","3","","0","1","0","","0.2667386483","false","13","","0.202674457","main_expt","","0.03895599675","","0.07136250487","","0.2667386483","","","","","",""
"54","","bandit","89","365784","0.0-51.0-0.0","11824381","wem/bandit_single","A5EU1AQJNC7F2","pain","4","","76","L","3","","0","0","1","","0.2057326914","false","14","","0.152812741","main_expt","","0.03256744162","","0.07333211558","","0.2057326914","","","","","",""
"501","","bandit","90","368081","0.0-52.0-0.0","11824381","wem/bandit_single","A5EU1AQJNC7F2","pain","4","","76","L","3","","0","0","1","","0.2081585857","false","15","","0.1648564856","main_expt","","0.01982065674","","0.1154740655","","0.2081585857","","","","","",""
"310","","bandit","91","370984","0.0-53.0-0.0","11824381","wem/bandit_single","A5EU1AQJNC7F2","pain","4","","72","H","0","img/none_selected.jpg","0","0","1","","0.1619055423","false","16","","0.1619055423","main_expt","","0.04082574049","","0.1011313391","","0.1909184248","","","","","",""
"25451","","bandit","92","398976","0.0-54.0-0.0","11824381","wem/bandit_single","A5EU1AQJNC7F2","pain","4","","72","H","0","img/none_selected.jpg","0","0","1","","0.1651197045","false","17","","0.1651197045","main_expt","","0.0363298649","","0.1447019112","","0.2198432556","","","","","",""
"974","","bandit","93","401725","0.0-55.0-0.0","11824381","wem/bandit_single","A5EU1AQJNC7F2","pain","4","","76","L","3","","0","0","1","","0.2347766335","false","18","","0.1079041081","main_expt","","0.07917382237","","0.1039364862","","0.2347766335","","","","","",""
"74","","bandit","94","403587","0.0-56.0-0.0","11824381","wem/bandit_single","A5EU1AQJNC7F2","pain","4","","74","J","1","","0","0","1","","0.08476555987","false","19","","0.1059999363","main_expt","","0.08476555987","","0.08759831402","","0.24668571","","","","","",""
"22","","bandit","95","405387","0.0-57.0-0.0","11824381","wem/bandit_single","A5EU1AQJNC7F2","pain","4","","75","K","2","","0","0","1","","0.08010338479","false","20","","0.1197169881","main_expt","","0.04047152317","","0.08010338479","","0.2355281317","","","","","",""
"249","","bandit","96","407427","0.0-58.0-0.0","11824381","wem/bandit_single","A5EU1AQJNC7F2","pain","4","","75","K","2","","0","0","1","","0.07820488182","false","21","","0.1338215077","main_expt","","0.07021106672","","0.07820488182","","0.2290721377","","","","","",""
"93","","bandit","97","409294","0.0-59.0-0.0","11824381","wem/bandit_single","A5EU1AQJNC7F2","pain","4","","72","H","0","img/none_selected.jpg","0","0","1","","0.1691749215","false","22","","0.1691749215","main_expt","","0.08794503477","","0.06301774499","","0.1982968879","","","","","",""
"11","","bandit","98","411078","0.0-60.0-0.0","11824381","wem/bandit_single","A5EU1AQJNC7F2","pain","4","","74","J","1","","0","0","1","","0.07274518233","false","23","","0.2100599157","main_expt","","0.07274518233","","0.04380944514","","0.1991555028","","","","","",""
"436","","bandit","99","413308","0.0-61.0-0.0","11824381","wem/bandit_single","A5EU1AQJNC7F2","pain","4","","74","J","1","","0","0","1","","0.09602528561","false","24","","0.1763606332","main_expt","","0.09602528561","","0.04485861341","","0.1700743611","","","","","",""
"306","","bandit","100","415405","0.0-62.0-0.0","11824381","wem/bandit_single","A5EU1AQJNC7F2","pain","4","","74","J","1","","0","0","1","","0.07148754983","false","25","","0.1155065599","main_expt","","0.07148754983","","0.08350983839","","0.2303117276","","","","","",""
"353","","bandit","101","417520","0.0-63.0-0.0","11824381","wem/bandit_single","A5EU1AQJNC7F2","pain","4","","76","L","3","","0","1","0","","0.2615068669","false","26","","0.08411514459","main_expt","","0.05591681381","","0.04946014148","","0.2615068669","","","","","",""
"45","","bandit","102","419347","0.0-64.0-0.0","11824381","wem/bandit_single","A5EU1AQJNC7F2","pain","4","","76","L","3","","0","0","1","","0.2108316327","false","27","","0.1192049255","main_expt","","0.06488914964","","0.07008172503","","0.2108316327","","","","","",""
"123","","bandit","103","421262","0.0-65.0-0.0","11824381","wem/bandit_single","A5EU1AQJNC7F2","pain","4","","76","L","3","","0","1","0","","0.2616222854","false","28","","0.1530516972","main_expt","","0.07067710387","","0.09766989806","","0.2616222854","","","","","",""
"82","","bandit","104","423136","0.0-66.0-0.0","11824381","wem/bandit_single","A5EU1AQJNC7F2","pain","4","","76","L","3","","0","0","1","","0.2754145478","false","29","","0.1243035263","main_expt","","0.06184318105","","0.1020433103","","0.2754145478","","","","","",""
"294","","bandit","105","425230","0.0-67.0-0.0","11824381","wem/bandit_single","A5EU1AQJNC7F2","pain","4","","72","H","0","img/none_selected.jpg","0","0","1","","0.2106934108","false","30","","0.2106934108","main_expt","","0.06562203124","","0.1128186897","","0.3091083038","","","","","",""
"20","","bandit","106","427015","0.0-68.0-0.0","11824381","wem/bandit_single","A5EU1AQJNC7F2","pain","4","","76","L","3","","0","1","0","","0.3032558385","false","31","","0.269819176","main_expt","","0.06340423818","","0.1021038766","","0.3032558385","","","","","",""
"13674","","bandit","107","443183","0.0-69.0-0.0","11824381","wem/bandit_single","A5EU1AQJNC7F2","pain","4","","74","J","1","","0","0","1","","0.08582013972","false","32","","0.2415851803","main_expt","","0.08582013972","","0.1010238501","","0.3160124579","","","","","",""
"264","","bandit","108","445244","0.0-70.0-0.0","11824381","wem/bandit_single","A5EU1AQJNC7F2","pain","4","","75","K","2","","0","0","1","","0.0674926465","false","33","","0.2754451294","main_expt","","0.1020351259","","0.0674926465","","0.355825184","","","","","",""
"788","","bandit","109","447823","0.0-71.0-0.0","11824381","wem/bandit_single","A5EU1AQJNC7F2","pain","4","","76","L","3","","0","1","0","","0.3380280112","false","34","","0.3566428969","main_expt","","0.07925884201","","0.1007783216","","0.3380280112","","","","","",""
"36","","bandit","110","449639","0.0-72.0-0.0","11824381","wem/bandit_single","A5EU1AQJNC7F2","pain","4","","72","H","0","img/none_selected.jpg","0","0","1","","0.2652811253","false","35","","0.2652811253","main_expt","","0.06071167626","","0.09542819821","","0.3772093912","","","","","",""
"453","","bandit","111","451875","0.0-73.0-0.0","11824381","wem/bandit_single","A5EU1AQJNC7F2","pain","4","","76","L","3","","0","0","1","","0.3916459715","false","36","","0.2472166127","main_expt","","0.05331310492","","0.07425724813","","0.3916459715","","","","","",""
"365","","bandit","112","454033","0.0-74.0-0.0","11824381","wem/bandit_single","A5EU1AQJNC7F2","pain","4","","76","L","3","","0","0","1","","0.3724196513","false","37","","0.2941536534","main_expt","","0.08395737389","","0.07325651263","","0.3724196513","","","","","",""
"420","","bandit","113","456250","0.0-75.0-0.0","11824381","wem/bandit_single","A5EU1AQJNC7F2","pain","4","","72","H","0","img/none_selected.jpg","0","1","0","","0.2850199379","false","38","","0.2850199379","main_expt","","0.07562804978","","0.06058557764","","0.3885064771","","","","","",""
"62","","bandit","114","458117","0.0-76.0-0.0","11824381","wem/bandit_single","A5EU1AQJNC7F2","pain","4","","72","H","0","img/none_selected.jpg","0","1","0","","0.2308750992","false","39","","0.2308750992","main_expt","","0.06339693541","","0.05480529152","","0.4332305888","","","","","",""
"373","","bandit","115","460291","0.0-77.0-0.0","11824381","wem/bandit_single","A5EU1AQJNC7F2","pain","4","","72","H","0","img/none_selected.jpg","0","1","0","","0.2166928419","false","40","","0.2166928419","main_expt","","0.07741261751","","0.08480448704","","0.4320021358","","","","","",""
"347","","bandit","116","462422","0.0-78.0-0.0","11824381","wem/bandit_single","A5EU1AQJNC7F2","pain","4","","72","H","0","img/none_selected.jpg","0","0","1","","0.222341992","false","41","","0.222341992","main_expt","","0.08199889575","","0.07863220129","","0.4378374231","","","","","",""
"12","","bandit","117","464992","0.0-79.0-0.0","11824381","wem/bandit_single","A5EU1AQJNC7F2","pain","4","","76","L","3","","0","0","1","","0.4138470733","false","42","","0.2420609394","main_expt","","0.1252939417","","0.07947159818","","0.4138470733","","","","","",""
"22355","","bandit","118","489878","0.0-80.0-0.0","11824381","wem/bandit_single","A5EU1AQJNC7F2","pain","4","","76","L","3","","0","1","0","","0.3618848001","false","43","","0.2683234569","main_expt","","0.1464491551","","0.0747194724","","0.3618848001","","","","","",""
"226","","bandit","119","491880","0.0-81.0-0.0","11824381","wem/bandit_single","A5EU1AQJNC7F2","pain","4","","76","L","3","","0","0","1","","0.3902132048","false","44","","0.2592073096","main_expt","","0.1846315016","","0.06873866496","","0.3902132048","","","","","",""
"490","","bandit","120","494160","0.0-82.0-0.0","11824381","wem/bandit_single","A5EU1AQJNC7F2","pain","4","","72","H","0","img/none_selected.jpg","0","0","1","","0.258850709","false","45","","0.258850709","main_expt","","0.1454302639","","0.05624711086","","0.370584769","","","","","",""
"219","","bandit","121","496982","0.0-83.0-0.0","11824381","wem/bandit_single","A5EU1AQJNC7F2","pain","4","","72","H","0","img/none_selected.jpg","0","0","1","","0.2162528617","false","46","","0.2162528617","main_expt","","0.1420401956","","0.06710767933","","0.3416192418","","","","","",""
"34592","","bandit","122","534092","0.0-84.0-0.0","11824381","wem/bandit_single","A5EU1AQJNC7F2","pain","4","","72","H","0","img/none_selected.jpg","0","1","0","","0.1380472806","false","47","","0.1380472806","main_expt","","0.2049545467","","0.05828218186","","0.3254497978","","","","","",""
"297","","bandit","123","536185","0.0-85.0-0.0","11824381","wem/bandit_single","A5EU1AQJNC7F2","pain","4","","72","H","0","img/none_selected.jpg","0","0","1","","0.1673270425","false","48","","0.1673270425","main_expt","","0.1608881285","","0.1161016377","","0.3438960799","","","","","",""
"17","","bandit","124","537988","0.0-86.0-0.0","11824381","wem/bandit_single","A5EU1AQJNC7F2","pain","4","","76","L","3","","0","0","1","","0.3405395495","false","49","","0.1637821127","main_expt","","0.2001806823","","0.1135844416","","0.3405395495","","","","","",""
"198","","bandit","125","539984","0.0-87.0-0.0","11824381","wem/bandit_single","A5EU1AQJNC7F2","pain","4","","75","K","2","","0","0","1","","0.1646239324","false","50","","0.1826101584","main_expt","","0.2061381611","","0.1646239324","","0.3305224856","","","","","",""
"198","","bandit","126","541979","0.0-88.0-0.0","11824381","wem/bandit_single","A5EU1AQJNC7F2","pain","4","","74","J","1","","0","0","1","","0.2369791141","false","51","","0.2270371056","main_expt","","0.2369791141","","0.1699716213","","0.2304924019","","","","","",""
"90","","bandit","127","543846","0.0-89.0-0.0","11824381","wem/bandit_single","A5EU1AQJNC7F2","pain","4","","74","J","1","","0","0","1","","0.2378663067","false","52","","0.2203225001","main_expt","","0.2378663067","","0.1762937123","","0.2832256505","","","","","",""
"126","","bandit","128","545766","0.0-90.0-0.0","11824381","wem/bandit_single","A5EU1AQJNC7F2","pain","4","","76","L","3","","0","0","1","","0.2391441838","false","53","","0.2776849753","main_expt","","0.2063519028","","0.2287193473","","0.2391441838","","","","","",""
"11378","","bandit","129","558935","0.0-91.0-0.0","11824381","wem/bandit_single","A5EU1AQJNC7F2","pain","4","","76","L","3","","0","0","1","","0.2697071588","false","54","","0.2454572706","main_expt","","0.2439582882","","0.2356834932","","0.2697071588","","","","","",""
"18","","bandit","130","560732","0.0-92.0-0.0","11824381","wem/bandit_single","A5EU1AQJNC7F2","pain","4","","76","L","3","","0","0","1","","0.2875326611","false","55","","0.2382153161","main_expt","","0.2381950618","","0.306547883","","0.2875326611","","","","","",""
"428","","bandit","131","562960","0.0-93.0-0.0","11824381","wem/bandit_single","A5EU1AQJNC7F2","pain","4","","76","L","3","","0","0","1","","0.2854258916","false","56","","0.1960908288","main_expt","","0.1800346575","","0.2853582168","","0.2854258916","","","","","",""
"564","","bandit","132","565304","0.0-94.0-0.0","11824381","wem/bandit_single","A5EU1AQJNC7F2","pain","4","","76","L","3","","0","0","1","","0.3445045135","false","57","","0.2042340564","main_expt","","0.2336203315","","0.2834250679","","0.3445045135","","","","","",""
"141","","bandit","133","567220","0.0-95.0-0.0","11824381","wem/bandit_single","A5EU1AQJNC7F2","pain","4","","72","H","0","img/none_selected.jpg","0","0","1","","0.1490893454","false","58","","0.1490893454","main_expt","","0.189887459","","0.2690284398","","0.3390226593","","","","","",""
"168","","bandit","134","569192","0.0-96.0-0.0","11824381","wem/bandit_single","A5EU1AQJNC7F2","pain","4","","72","H","0","img/none_selected.jpg","0","0","1","","0.1581154669","false","59","","0.1581154669","main_expt","","0.1548607402","","0.2616697142","","0.2666291788","","","","","",""
"643","","bandit","135","571614","0.0-97.0-0.0","11824381","wem/bandit_single","A5EU1AQJNC7F2","pain","4","","72","H","0","img/none_selected.jpg","0","0","1","","0.1715954381","false","60","","0.1715954381","main_expt","","0.1233285174","","0.2704186185","","0.246985882","","","","","",""
"20","","bandit","136","573416","0.0-98.0-0.0","11824381","wem/bandit_single","A5EU1AQJNC7F2","pain","4","","74","J","1","","0","0","1","","0.186549837","false","61","","0.1999420892","main_expt","","0.186549837","","0.3376037184","","0.2171589204","","","","","",""
"487","","bandit","137","575700","0.0-99.0-0.0","11824381","wem/bandit_single","A5EU1AQJNC7F2","pain","4","","76","L","3","","0","0","1","","0.2677831299","false","62","","0.1539309088","main_expt","","0.1420872584","","0.3098521258","","0.2677831299","","","","","",""
"309","","bandit","138","577805","0.0-100.0-0.0","11824381","wem/bandit_single","A5EU1AQJNC7F2","pain","4","","74","J","1","","0","0","1","","0.151707711","false","63","","0.1085632924","main_expt","","0.151707711","","0.3137631198","","0.2303454974","","","","","",""
"121","","bandit","139","579702","0.0-101.0-0.0","11824381","wem/bandit_single","A5EU1AQJNC7F2","pain","4","","76","L","3","","0","0","1","","0.196947777","false","64","","0.1370187426","main_expt","","0.1474827626","","0.3179430645","","0.196947777","","","","","",""
"995","","bandit","140","582482","0.0-102.0-0.0","11824381","wem/bandit_single","A5EU1AQJNC7F2","pain","4","","76","L","3","","0","0","1","","0.1645630622","false","65","","0.1322062037","main_expt","","0.1746529425","","0.2980330155","","0.1645630622","","","","","",""
"280","","bandit","141","584564","0.0-103.0-0.0","11824381","wem/bandit_single","A5EU1AQJNC7F2","pain","4","","72","H","0","img/none_selected.jpg","0","0","1","","0.1496501041","false","66","","0.1496501041","main_expt","","0.1310865155","","0.2537140377","","0.1533283495","","","","","",""
"524","","bandit","142","586886","0.0-104.0-0.0","11824381","wem/bandit_single","A5EU1AQJNC7F2","pain","4","","75","K","2","","0","0","1","","0.2153704701","false","67","","0.1626820295","main_expt","","0.1370872981","","0.2153704701","","0.1708403009","","","","","",""
"278","","bandit","143","588960","0.0-105.0-0.0","11824381","wem/bandit_single","A5EU1AQJNC7F2","pain","4","","75","K","2","","0","0","1","","0.2417705853","false","68","","0.1989514297","main_expt","","0.09914494933","","0.2417705853","","0.1887917493","","","","","",""
"10637","","bandit","144","602149","0.0-106.0-0.0","11824381","wem/bandit_single","A5EU1AQJNC7F2","pain","4","","75","K","2","","0","0","1","","0.3235463827","false","69","","0.1888867792","main_expt","","0.1092411584","","0.3235463827","","0.2160515082","","","","","",""
"249","","bandit","145","604186","0.0-107.0-0.0","11824381","wem/bandit_single","A5EU1AQJNC7F2","pain","4","","72","H","0","img/none_selected.jpg","0","0","1","","0.1767550628","false","70","","0.1767550628","main_expt","","0.1213917008","","0.3647615206","","0.2778565133","","","","","",""
"61","","bandit","146","606048","0.0-108.0-0.0","11824381","wem/bandit_single","A5EU1AQJNC7F2","pain","4","","76","L","3","","0","1","0","","0.2623699359","false","71","","0.1253641033","main_expt","","0.1479005197","","0.3472934012","","0.2623699359","","","","","",""
"20","","bandit","147","607844","0.0-109.0-0.0","11824381","wem/bandit_single","A5EU1AQJNC7F2","pain","4","","76","L","3","","0","0","1","","0.2574081817","false","72","","0.1319365506","main_expt","","0.1931369739","","0.2965124106","","0.2574081817","","","","","",""
"122","","bandit","148","609755","0.0-110.0-0.0","11824381","wem/bandit_single","A5EU1AQJNC7F2","pain","4","","76","L","3","","0","0","1","","0.2503470883","false","73","","0.1061905376","main_expt","","0.1900103681","","0.2823595977","","0.2503470883","","","","","",""
"235","","bandit","149","611766","0.0-111.0-0.0","11824381","wem/bandit_single","A5EU1AQJNC7F2","pain","4","","76","L","3","","0","1","0","","0.2710758316","false","74","","0.1303083533","main_expt","","0.1344428369","","0.2835749375","","0.2710758316","","","","","",""
"62","","bandit","150","613617","0.0-112.0-0.0","11824381","wem/bandit_single","A5EU1AQJNC7F2","pain","4","","76","L","3","","0","1","0","","0.260759121","false","75","","0.1359111238","main_expt","","0.1528357022","","0.3526847528","","0.260759121","","","","","",""
"323","","bandit","151","615735","0.0-113.0-0.0","11824381","wem/bandit_single","A5EU1AQJNC7F2","pain","4","","76","L","3","","0","0","1","","0.2610050464","false","76","","0.1128391495","main_expt","","0.1898592508","","0.3434196486","","0.2610050464","","","","","",""
"456","","bandit","152","617990","0.0-114.0-0.0","11824381","wem/bandit_single","A5EU1AQJNC7F2","pain","4","","76","L","3","","0","0","1","","0.1920601856","false","77","","0.1118044987","main_expt","","0.191464519","","0.3073782559","","0.1920601856","","","","","",""
"411","","bandit","153","620172","0.0-115.0-0.0","11824381","wem/bandit_single","A5EU1AQJNC7F2","pain","4","","72","H","0","img/none_selected.jpg","0","0","1","","0.1315400358","false","78","","0.1315400358","main_expt","","0.2665821314","","0.3200097729","","0.1726035312","","","","","",""
"60","","bandit","154","622010","0.0-116.0-0.0","11824381","wem/bandit_single","A5EU1AQJNC7F2","pain","4","","76","L","3","","0","0","1","","0.1974193715","false","79","","0.1421279646","main_expt","","0.2510402579","","0.3406321397","","0.1974193715","","","","","",""
"11","","bandit","155","623810","0.0-117.0-0.0","11824381","wem/bandit_single","A5EU1AQJNC7F2","pain","4","","72","H","0","img/none_selected.jpg","0","0","1","","0.1666910293","false","80","","0.1666910293","main_expt","","0.2803090616","","0.2934749235","","0.1771423485","","","","","",""
"575","","bandit","156","626175","0.0-118.0-0.0","11824381","wem/bandit_single","A5EU1AQJNC7F2","pain","4","","72","H","0","img/none_selected.jpg","0","0","1","","0.1514130178","false","81","","0.1514130178","main_expt","","0.3053401272","","0.3080678564","","0.1689426189","","","","","",""
"770","","bandit","157","628731","0.0-119.0-0.0","11824381","wem/bandit_single","A5EU1AQJNC7F2","pain","4","","76","L","3","","0","0","1","","0.2008945118","false","82","","0.1667518413","main_expt","","0.3079009489","","0.3118316764","","0.2008945118","","","","","",""
"19703","","bandit","158","650217","0.0-120.0-0.0","11824381","wem/bandit_single","A5EU1AQJNC7F2","pain","4","","76","L","3","","0","0","1","","0.2679993971","false","83","","0.1620161121","main_expt","","0.3294465445","","0.2539803618","","0.2679993971","","","","","",""
"534","","bandit","159","652550","0.0-121.0-0.0","11824381","wem/bandit_single","A5EU1AQJNC7F2","pain","4","","72","H","0","img/none_selected.jpg","0","0","1","","0.1920696542","false","84","","0.1920696542","main_expt","","0.3567704092","","0.2665148507","","0.2187304288","","","","","",""
"220","","bandit","160","654580","0.0-122.0-0.0","11824381","wem/bandit_single","A5EU1AQJNC7F2","pain","4","","76","L","3","","0","0","1","","0.2668074714","false","85","","0.1790321084","main_expt","","0.3637986046","","0.2638978108","","0.2668074714","","","","","",""
"336","","bandit","161","656701","0.0-123.0-0.0","11824381","wem/bandit_single","A5EU1AQJNC7F2","pain","4","","74","J","1","","0","0","1","","0.3661817966","false","86","","0.1644507099","main_expt","","0.3661817966","","0.2430370424","","0.3011617684","","","","","",""
"29","","bandit","162","658504","0.0-124.0-0.0","11824381","wem/bandit_single","A5EU1AQJNC7F2","pain","4","","76","L","3","","0","0","1","","0.2866912597","false","87","","0.1731377232","main_expt","","0.349996741","","0.2369050713","","0.2866912597","","","","","",""
"15","","bandit","163","660307","0.0-125.0-0.0","11824381","wem/bandit_single","A5EU1AQJNC7F2","pain","4","","76","L","3","","0","0","1","","0.2921806028","false","88","","0.1562940882","main_expt","","0.3021468993","","0.2322244834","","0.2921806028","","","","","",""
"314","","bandit","164","662394","0.0-126.0-0.0","11824381","wem/bandit_single","A5EU1AQJNC7F2","pain","4","","76","L","3","","0","0","1","","0.2877077994","false","89","","0.1344734597","main_expt","","0.2752269066","","0.214722025","","0.2877077994","","","","","",""
"1","","bandit","165","664192","0.0-127.0-0.0","11824381","wem/bandit_single","A5EU1AQJNC7F2","pain","4","","72","H","0","img/none_selected.jpg","0","0","1","","0.1192135027","false","90","","0.1192135027","main_expt","","0.3172240337","","0.1767670318","","0.2390413286","","","","","",""
"330","","bandit","166","666320","0.0-128.0-0.0","11824381","wem/bandit_single","A5EU1AQJNC7F2","pain","4","","72","H","0","img/none_selected.jpg","0","0","1","","0.1639104845","false","91","","0.1639104845","main_expt","","0.3049723864","","0.1391375388","","0.2582098676","","","","","",""
"230","","bandit","167","668984","0.0-129.0-0.0","11824381","wem/bandit_single","A5EU1AQJNC7F2","pain","4","","72","H","0","img/none_selected.jpg","0","0","1","","0.1960431165","false","92","","0.1960431165","main_expt","","0.3261529518","","0.1283323985","","0.3066747335","","","","","",""
"11017","","bandit","168","682548","0.0-130.0-0.0","11824381","wem/bandit_single","A5EU1AQJNC7F2","pain","4","","76","L","3","","0","0","1","","0.3051362106","false","93","","0.2137056669","main_expt","","0.3550538726","","0.07538544447","","0.3051362106","","","","","",""
"1123","","bandit","169","685443","0.0-131.0-0.0","11824381","wem/bandit_single","A5EU1AQJNC7F2","pain","4","","76","L","3","","0","0","1","","0.3433649514","false","94","","0.2188004936","main_expt","","0.3335231974","","0.07407963518","","0.3433649514","","","","","",""
"61","","bandit","170","687308","0.0-132.0-0.0","11824381","wem/bandit_single","A5EU1AQJNC7F2","pain","4","","76","L","3","","0","1","0","","0.3638642947","false","95","","0.2442185641","main_expt","","0.3060397856","","0.06265185683","","0.3638642947","","","","","",""
"474","","bandit","171","689592","0.0-133.0-0.0","11824381","wem/bandit_single","A5EU1AQJNC7F2","pain","4","","76","L","3","","0","1","0","","0.3433071503","false","96","","0.2062156096","main_expt","","0.3420618169","","0.0626930361","","0.3433071503","","","","","",""
"41","","bandit","172","691401","0.0-134.0-0.0","11824381","wem/bandit_single","A5EU1AQJNC7F2","pain","4","","76","L","3","","0","0","1","","0.3287523936","false","97","","0.1824441478","main_expt","","0.3451805041","","0.03702031205","","0.3287523936","","","","","",""
"16","","bandit","173","693208","0.0-135.0-0.0","11824381","wem/bandit_single","A5EU1AQJNC7F2","pain","4","","76","L","3","","0","0","1","","0.3384657171","false","98","","0.1741419228","main_expt","","0.3067376926","","0.02896114516","","0.3384657171","","","","","",""
"3941","","bandit","174","698929","0.0-136.0-0.0","11824381","wem/bandit_single","A5EU1AQJNC7F2","pain","4","","76","L","3","","0","1","0","","0.3929596429","false","99","","0.1402348549","main_expt","","0.2980645096","","0.04301278827","","0.3929596429","","","","","",""
"59","","bandit","175","700788","0.0-137.0-0.0","11824381","wem/bandit_single","A5EU1AQJNC7F2","pain","4","","76","L","3","","0","0","1","","0.3972918561","false","100","","0.1856728267","main_expt","","0.2862788702","","0.03198738169","","0.3972918561","","","","","",""
"10923","","bandit","176","713490","0.0-138.0-0.0","11824381","wem/bandit_single","A5EU1AQJNC7F2","pain","4","","76","L","3","","0","0","1","","0.4064604032","false","101","","0.1731032509","main_expt","","0.2622165861","","0.03387094668","","0.4064604032","","","","","",""
"186","","bandit","177","715485","0.0-139.0-0.0","11824381","wem/bandit_single","A5EU1AQJNC7F2","pain","4","","76","L","3","","0","1","0","","0.4273413635","false","102","","0.1387116465","main_expt","","0.3261799811","","0.0235124197","","0.4273413635","","","","","",""
"36","","bandit","178","717316","0.0-140.0-0.0","11824381","wem/bandit_single","A5EU1AQJNC7F2","pain","4","","76","L","3","","0","0","1","","0.4566487837","false","103","","0.1880660303","main_expt","","0.334814711","","0.02482610326","","0.4566487837","","","","","",""
"445","","bandit","179","719542","0.0-141.0-0.0","11824381","wem/bandit_single","A5EU1AQJNC7F2","pain","4","","76","L","3","","0","1","0","","0.459539636","false","104","","0.142060421","main_expt","","0.3486298313","","0.03330094042","","0.459539636","","","","","",""
"841","","bandit","180","722989","0.0-142.0-0.0","11824381","wem/bandit_single","A5EU1AQJNC7F2","pain","4","","76","L","3","","0","1","0","","0.4462881264","false","105","","0.1839839798","main_expt","","0.3538911629","","0.06543537915","","0.4462881264","","","","","",""
"18257","","bandit","181","743770","0.0-143.0-0.0","11824381","wem/bandit_single","A5EU1AQJNC7F2","pain","4","","76","L","3","","0","1","0","","0.4417011126","false","106","","0.1691947451","main_expt","","0.3886974852","","0.07051160025","","0.4417011126","","","","","",""
"107","","bandit","182","745678","0.0-144.0-0.0","11824381","wem/bandit_single","A5EU1AQJNC7F2","pain","4","","76","L","3","","0","0","1","","0.4419194373","false","107","","0.180010917","main_expt","","0.3489433712","","0.08830456602","","0.4419194373","","","","","",""
"121","","bandit","183","747614","0.0-145.0-0.0","11824381","wem/bandit_single","A5EU1AQJNC7F2","pain","4","","76","L","3","","0","1","0","","0.4061848383","false","108","","0.1338722415","main_expt","","0.3901728218","","0.05921849724","","0.4061848383","","","","","",""
"148","","bandit","184","749560","0.0-146.0-0.0","11824381","wem/bandit_single","A5EU1AQJNC7F2","pain","4","","76","L","3","","0","1","0","","0.3906669636","false","109","","0.1350853679","main_expt","","0.4006799949","","0.04581125366","","0.3906669636","","","","","",""
"153","","bandit","185","751493","0.0-147.0-0.0","11824381","wem/bandit_single","A5EU1AQJNC7F2","pain","4","","76","L","3","","0","1","0","","0.3969614195","false","110","","0.184551263","main_expt","","0.3867714499","","0.08345510588","","0.3969614195","","","","","",""
"344","","bandit","186","753626","0.0-148.0-0.0","11824381","wem/bandit_single","A5EU1AQJNC7F2","pain","4","","76","L","3","","0","0","1","","0.370186674","false","111","","0.2635344293","main_expt","","0.4252141842","","0.07355878572","","0.370186674","","","","","",""
"341","","bandit","187","755982","0.0-149.0-0.0","11824381","wem/bandit_single","A5EU1AQJNC7F2","pain","4","","76","L","3","","0","1","0","","0.3488043283","false","112","","0.2972025743","main_expt","","0.4197282726","","0.09226575929","","0.3488043283","","","","","",""
"9582","","bandit","188","768103","0.0-150.0-0.0","11824381","wem/bandit_single","A5EU1AQJNC7F2","pain","4","","76","L","3","","0","1","0","","0.2886117592","false","113","","0.2853398636","main_expt","","0.4371411526","","0.07711661396","","0.2886117592","","","","","",""
"9732","","bandit","189","779648","0.0-151.0-0.0","11824381","wem/bandit_single","A5EU1AQJNC7F2","pain","4","","76","L","3","","0","0","1","","0.3507025671","false","114","","0.2354235092","main_expt","","0.4523407119","","0.09366406151","","0.3507025671","","","","","",""
"133","","bandit","190","781562","0.0-152.0-0.0","11824381","wem/bandit_single","A5EU1AQJNC7F2","pain","4","","76","L","3","","0","1","0","","0.3308051733","false","115","","0.2228923984","main_expt","","0.4544977282","","0.09297781317","","0.3308051733","","","","","",""
"115","","bandit","191","783472","0.0-153.0-0.0","11824381","wem/bandit_single","A5EU1AQJNC7F2","pain","4","","76","L","3","","0","1","0","","0.2696902145","false","116","","0.182615248","main_expt","","0.4458191396","","0.09292735615","","0.2696902145","","","","","",""
"340","","bandit","192","785602","0.0-154.0-0.0","11824381","wem/bandit_single","A5EU1AQJNC7F2","pain","4","","76","L","3","","0","1","0","","0.3048340551","false","117","","0.1702457594","main_expt","","0.4384124693","","0.1277349031","","0.3048340551","","","","","",""
"1110","","bandit","193","788518","0.0-155.0-0.0","11824381","wem/bandit_single","A5EU1AQJNC7F2","pain","4","","76","L","3","","0","0","1","","0.2682044258","false","118","","0.2075823826","main_expt","","0.4590850855","","0.1057820856","","0.2682044258","","","","","",""
"372","","bandit","194","790677","0.0-156.0-0.0","11824381","wem/bandit_single","A5EU1AQJNC7F2","pain","4","","76","L","3","","0","1","0","","0.2314514612","false","119","","0.2281388084","main_expt","","0.4718937063","","0.08453932314","","0.2314514612","","","","","",""
"478","","bandit","195","792970","0.0-157.0-0.0","11824381","wem/bandit_single","A5EU1AQJNC7F2","pain","4","","76","L","3","","0","0","1","","0.197474053","false","120","","0.2620651535","main_expt","","0.4645470247","","0.1106897037","","0.197474053","","","","","",""
"9951","","bandit","196","804706","0.0-158.0-0.0","11824381","wem/bandit_single","A5EU1AQJNC7F2","pain","4","","76","L","3","","0","0","1","","0.1819521248","false","121","","0.2953433235","main_expt","","0.4422277234","","0.1200625234","","0.1819521248","","","","","",""
"104","","bandit","197","806607","0.0-159.0-0.0","11824381","wem/bandit_single","A5EU1AQJNC7F2","pain","4","","76","L","3","","0","0","1","","0.171732915","false","122","","0.2702367277","main_expt","","0.4150525319","","0.1570760405","","0.171732915","","","","","",""
"852","","bandit","198","809986","0.0-160.0-0.0","11824381","wem/bandit_single","A5EU1AQJNC7F2","pain","4","","76","L","3","","0","0","1","","0.1577660673","false","123","","0.3190818872","main_expt","","0.4356762379","","0.1616024906","","0.1577660673","","","","","",""
"2130","","bandit","199","814630","0.0-161.0-0.0","11824381","wem/bandit_single","A5EU1AQJNC7F2","pain","4","","76","L","3","","0","0","1","","0.1384195938","false","124","","0.3415455108","main_expt","","0.4475351861","","0.1371750093","","0.1384195938","","","","","",""
"457","","bandit","200","816871","0.0-162.0-0.0","11824381","wem/bandit_single","A5EU1AQJNC7F2","pain","4","","76","L","3","","0","1","0","","0.1367208018","false","125","","0.3955313072","main_expt","","0.4310995666","","0.1293707667","","0.1367208018","","","","","",""
"802","","bandit","201","819470","0.0-163.0-0.0","11824381","wem/bandit_single","A5EU1AQJNC7F2","pain","4","","76","L","3","","0","0","1","","0.14570125","false","126","","0.4150522509","main_expt","","0.4246911586","","0.1231453761","","0.14570125","","","","","",""
"264","","bandit","202","821538","0.0-164.0-0.0","11824381","wem/bandit_single","A5EU1AQJNC7F2","pain","4","","76","L","3","","0","0","1","","0.116128816","false","127","","0.3803228979","main_expt","","0.3855858577","","0.1044431599","","0.116128816","","","","","",""
"659","","bandit","203","823984","0.0-165.0-0.0","11824381","wem/bandit_single","A5EU1AQJNC7F2","pain","4","","76","L","3","","0","1","0","","0.1118736017","false","128","","0.4028097642","main_expt","","0.3886900275","","0.07509994275","","0.1118736017","","","","","",""
"391","","bandit","204","826171","0.0-166.0-0.0","11824381","wem/bandit_single","A5EU1AQJNC7F2","pain","4","","76","L","3","","0","0","1","","0.1153634536","false","129","","0.3759087187","main_expt","","0.3712880315","","0.07499531951","","0.1153634536","","","","","",""
"755","","bandit","205","828705","0.0-167.0-0.0","11824381","wem/bandit_single","A5EU1AQJNC7F2","pain","4","","76","L","3","","0","0","1","","0.09323577747","false","130","","0.3578404683","main_expt","","0.3163545042","","0.06898381409","","0.09323577747","","","","","",""
"14","","bandit","206","830493","0.0-168.0-0.0","11824381","wem/bandit_single","A5EU1AQJNC7F2","pain","4","","76","L","3","","0","0","1","","0.1064947735","false","131","","0.3874222675","main_expt","","0.3203759455","","0.08255272978","","0.1064947735","","","","","",""
"289","","bandit","207","832565","0.0-169.0-0.0","11824381","wem/bandit_single","A5EU1AQJNC7F2","pain","4","","76","L","3","","0","0","1","","0.1574274544","false","132","","0.3773694481","main_expt","","0.3128419263","","0.06266196304","","0.1574274544","","","","","",""
"1673","","bandit","208","836026","0.0-170.0-0.0","11824381","wem/bandit_single","A5EU1AQJNC7F2","pain","4","","76","L","3","","0","0","1","","0.1613106331","false","133","","0.3961249281","main_expt","","0.3057041938","","0.06584579886","","0.1613106331","","","","","",""
"1337","","bandit","209","839163","0.0-171.0-0.0","11824381","wem/bandit_single","A5EU1AQJNC7F2","pain","4","","76","L","3","","0","0","1","","0.1660744508","false","134","","0.4152923946","main_expt","","0.2816585421","","0.05935363428","","0.1660744508","","","","","",""
"214","","bandit","210","841179","0.0-172.0-0.0","11824381","wem/bandit_single","A5EU1AQJNC7F2","pain","4","","76","L","3","","0","0","1","","0.1973964499","false","135","","0.4424865849","main_expt","","0.2955422992","","0.05732645975","","0.1973964499","","","","","",""
"128","","bandit","211","843111","0.0-173.0-0.0","11824381","wem/bandit_single","A5EU1AQJNC7F2","pain","4","","72","H","0","img/none_selected.jpg","0","1","0","","0.4465543098","false","136","","0.4465543098","main_expt","","0.3509846551","","0.07342087183","","0.1813196928","","","","","",""
"217","","bandit","212","845118","0.0-174.0-0.0","11824381","wem/bandit_single","A5EU1AQJNC7F2","pain","4","","72","H","0","img/none_selected.jpg","0","1","0","","0.4520996047","false","137","","0.4520996047","main_expt","","0.3344410146","","0.07676045657","","0.1859539446","","","","","",""
"535","","bandit","213","847455","0.0-175.0-0.0","11824381","wem/bandit_single","A5EU1AQJNC7F2","pain","4","","72","H","0","img/none_selected.jpg","0","1","0","","0.428300575","false","138","","0.428300575","main_expt","","0.2657268636","","0.09127868582","","0.1014888705","","","","","",""
"295","","bandit","214","849540","0.0-176.0-0.0","11824381","wem/bandit_single","A5EU1AQJNC7F2","pain","4","","72","H","0","img/none_selected.jpg","0","0","1","","0.419833238","false","139","","0.419833238","main_expt","","0.2267955479","","0.1057771966","","0.09034098631","","","","","",""
"14734","","bandit","215","866064","0.0-177.0-0.0","11824381","wem/bandit_single","A5EU1AQJNC7F2","pain","4","","74","J","1","","0","0","1","","0.2278141127","false","140","","0.423721229","main_expt","","0.2278141127","","0.1134354218","","0.09102227313","","","","","",""
"363","","bandit","216","868237","0.0-178.0-0.0","11824381","wem/bandit_single","A5EU1AQJNC7F2","pain","4","","72","H","0","img/none_selected.jpg","0","1","0","","0.4382479885","false","141","","0.4382479885","main_expt","","0.23653477","","0.1205694848","","0.1095349378","","","","","",""
"50","","bandit","217","870096","0.0-179.0-0.0","11824381","wem/bandit_single","A5EU1AQJNC7F2","pain","4","","72","H","0","img/none_selected.jpg","0","1","0","","0.4247465964","false","142","","0.4247465964","main_expt","","0.2155890047","","0.1423721259","","0.1184068784","","","","","",""
"185","","bandit","218","872075","0.0-180.0-0.0","11824381","wem/bandit_single","A5EU1AQJNC7F2","pain","4","","72","H","0","img/none_selected.jpg","0","0","1","","0.3978340057","false","143","","0.3978340057","main_expt","","0.2203428631","","0.1199770031","","0.1056920569","","","","","",""
"32","","bandit","219","873892","0.0-181.0-0.0","11824381","wem/bandit_single","A5EU1AQJNC7F2","pain","4","","72","H","0","img/none_selected.jpg","0","0","1","","0.4094639435","false","144","","0.4094639435","main_expt","","0.1834171178","","0.1431068991","","0.1563123998","","","","","",""
"74","","bandit","220","875758","0.0-182.0-0.0","11824381","wem/bandit_single","A5EU1AQJNC7F2","pain","4","","72","H","0","img/none_selected.jpg","0","1","0","","0.4198905501","false","145","","0.4198905501","main_expt","","0.2064693802","","0.1630017245","","0.09088636348","","","","","",""
"655","","bandit","221","879159","0.0-183.0-0.0","11824381","wem/bandit_single","A5EU1AQJNC7F2","pain","4","","72","H","0","img/none_selected.jpg","0","0","1","","0.4050886303","false","146","","0.4050886303","main_expt","","0.1342941172","","0.145034553","","0.0827806059","","","","","",""
"76","","bandit","222","881019","0.0-184.0-0.0","11824381","wem/bandit_single","A5EU1AQJNC7F2","pain","4","","72","H","0","img/none_selected.jpg","0","1","0","","0.3785891444","false","147","","0.3785891444","main_expt","","0.1515740161","","0.1488017726","","0.1149215639","","","","","",""
"215","","bandit","223","883992","0.0-185.0-0.0","11824381","wem/bandit_single","A5EU1AQJNC7F2","pain","4","","72","H","0","img/none_selected.jpg","0","0","1","","0.3854511928","false","148","","0.3854511928","main_expt","","0.1212747878","","0.1582677895","","0.1099148444","","","","","",""
"7541","","bandit","224","894048","0.0-186.0-0.0","11824381","wem/bandit_single","A5EU1AQJNC7F2","pain","4","","72","H","0","img/none_selected.jpg","0","1","0","","0.3928641012","false","149","","0.3928641012","main_expt","","0.08453377975","","0.1647072654","","0.1127327795","","","","","",""
"13","","bandit","225","895833","0.0-187.0-0.0","11824381","wem/bandit_single","A5EU1AQJNC7F2","pain","4","","72","H","0","img/none_selected.jpg","0","0","1","","0.3981420368","false","150","","0.3981420368","main_expt","","0.1060211344","","0.1333243968","","0.1477728786","","","","","",""
"465","","bandit","226","898105","0.0-188.0-0.0","11824381","wem/bandit_single","A5EU1AQJNC7F2","pain","4","","76","L","3","","0","0","1","","0.1634569086","false","151","","0.3954234158","main_expt","","0.06473992137","","0.1232516149","","0.1634569086","","","","","",""
"317","","bandit","227","900215","0.0-189.0-0.0","11824381","wem/bandit_single","A5EU1AQJNC7F2","pain","4","","76","L","3","","0","1","0","","0.2119786212","false","152","","0.3684376671","main_expt","","0.07847139908","","0.1218764731","","0.2119786212","","","","","",""
"226","","bandit","228","902242","0.0-190.0-0.0","11824381","wem/bandit_single","A5EU1AQJNC7F2","pain","4","","76","L","3","","0","0","1","","0.190815194","false","153","","0.3586265296","main_expt","","0.06170083269","","0.1181944444","","0.190815194","","","","","",""
"3","","bandit","229","904016","0.0-191.0-0.0","11824381","wem/bandit_single","A5EU1AQJNC7F2","pain","4","","72","H","0","img/none_selected.jpg","0","0","1","","0.3711835277","false","154","","0.3711835277","main_expt","","0.07752027139","","0.1524072167","","0.2539230859","","","","","",""
"889","","bandit","230","907409","0.0-192.0-0.0","11824381","wem/bandit_single","A5EU1AQJNC7F2","pain","4","","72","H","0","img/none_selected.jpg","0","1","0","","0.3296220366","false","155","","0.3296220366","main_expt","","0.07430376846","","0.2181316645","","0.2214647723","","","","","",""
"283","","bandit","231","909983","0.0-193.0-0.0","11824381","wem/bandit_single","A5EU1AQJNC7F2","pain","4","","72","H","0","img/none_selected.jpg","0","1","0","","0.287903252","false","156","","0.287903252","main_expt","","0.05925504694","","0.213475765","","0.1812397975","","","","","",""
"19135","","bandit","232","931649","0.0-194.0-0.0","11824381","wem/bandit_single","A5EU1AQJNC7F2","pain","4","","74","J","1","","0","0","1","","0.0737155059","false","157","","0.296290929","main_expt","","0.0737155059","","0.2264995707","","0.1447548225","","","","","",""
"211","","bandit","233","933659","0.0-195.0-0.0","11824381","wem/bandit_single","A5EU1AQJNC7F2","pain","4","","72","H","0","img/none_selected.jpg","0","0","1","","0.2721348168","false","158","","0.2721348168","main_expt","","0.05755321342","","0.2991482761","","0.1458137519","","","","","",""
"569","","bandit","234","936002","0.0-196.0-0.0","11824381","wem/bandit_single","A5EU1AQJNC7F2","pain","4","","76","L","3","","0","0","1","","0.1035755389","false","159","","0.2765185667","main_expt","","0.1007830752","","0.3365391658","","0.1035755389","","","","","",""
"212","","bandit","235","938002","0.0-197.0-0.0","11824381","wem/bandit_single","A5EU1AQJNC7F2","pain","4","","72","H","0","img/none_selected.jpg","0","0","1","","0.3162688162","false","160","","0.3162688162","main_expt","","0.06149362121","","0.313402929","","0.1142027444","","","","","",""
"37","","bandit","236","939994","0.0-198.0-0.0","11824381","wem/bandit_single","A5EU1AQJNC7F2","pain","4","","72","H","0","img/none_selected.jpg","0","1","0","","0.3302336848","false","161","","0.3302336848","main_expt","","0.09516109007","","0.3529908654","","0.1510988582","","","","","",""
"68757","","bandit","237","1011267","0.0-199.0-0.0","11824381","wem/bandit_single","A5EU1AQJNC7F2","pain","4","","72","H","0","img/none_selected.jpg","0","0","1","","0.3622896815","false","162","","0.3622896815","main_expt","","0.08429007215","","0.3608295961","","0.1720124831","","","","","",""
"318","","bandit","238","1013378","0.0-200.0-0.0","11824381","wem/bandit_single","A5EU1AQJNC7F2","pain","4","","72","H","0","img/none_selected.jpg","0","0","1","","0.3696580379","false","163","","0.3696580379","main_expt","","0.1199893575","","0.4197284319","","0.2119433459","","","","","",""
"179","","bandit","239","1015368","0.0-201.0-0.0","11824381","wem/bandit_single","A5EU1AQJNC7F2","pain","4","","76","L","3","","0","0","1","","0.2413639604","false","164","","0.3217553384","main_expt","","0.1353867718","","0.4162507976","","0.2413639604","","","","","",""
"38","","bandit","240","1017179","0.0-202.0-0.0","11824381","wem/bandit_single","A5EU1AQJNC7F2","pain","4","","76","L","3","","0","1","0","","0.3231443763","false","165","","0.2370356752","main_expt","","0.08700720397","","0.424344073","","0.3231443763","","","","","",""
"18021","","bandit","241","1036993","0.0-203.0-0.0","11824381","wem/bandit_single","A5EU1AQJNC7F2","pain","4","","76","L","3","","0","0","1","","0.2907209657","false","166","","0.1952619304","main_expt","","0.09613155095","","0.4385436022","","0.2907209657","","","","","",""
"295","","bandit","242","1039077","0.0-204.0-0.0","11824381","wem/bandit_single","A5EU1AQJNC7F2","pain","4","","76","L","3","","0","1","0","","0.2386263765","false","167","","0.2008635704","main_expt","","0.08740230362","","0.4428370211","","0.2386263765","","","","","",""
"30","","bandit","243","1040895","0.0-205.0-0.0","11824381","wem/bandit_single","A5EU1AQJNC7F2","pain","4","","76","L","3","","0","0","1","","0.2802872421","false","168","","0.2872582577","main_expt","","0.1033010443","","0.4475632301","","0.2802872421","","","","","",""
"467","","bandit","244","1043161","0.0-206.0-0.0","11824381","wem/bandit_single","A5EU1AQJNC7F2","pain","4","","76","L","3","","0","1","0","","0.2858578204","false","169","","0.2478638945","main_expt","","0.1288835215","","0.4358894507","","0.2858578204","","","","","",""
"51","","bandit","245","1044996","0.0-207.0-0.0","11824381","wem/bandit_single","A5EU1AQJNC7F2","pain","4","","76","L","3","","0","0","1","","0.3542119366","false","170","","0.2335785199","main_expt","","0.0821831217","","0.4401344765","","0.3542119366","","","","","",""
"21","","bandit","246","1046799","0.0-208.0-0.0","11824381","wem/bandit_single","A5EU1AQJNC7F2","pain","4","","76","L","3","","0","0","1","","0.363516632","false","171","","0.263029084","main_expt","","0.08448133796","","0.4182824287","","0.363516632","","","","","",""
"60","","bandit","247","1048662","0.0-209.0-0.0","11824381","wem/bandit_single","A5EU1AQJNC7F2","pain","4","","72","H","0","img/none_selected.jpg","0","0","1","","0.282237019","false","172","","0.282237019","main_expt","","0.1142172702","","0.4206293302","","0.3285232471","","","","","",""
"251","","bandit","248","1050713","0.0-210.0-0.0","11824381","wem/bandit_single","A5EU1AQJNC7F2","pain","4","","72","H","0","img/none_selected.jpg","0","0","1","","0.2798091978","false","173","","0.2798091978","main_expt","","0.1585219493","","0.4424673434","","0.3379934215","","","","","",""
"231","","bandit","249","1052985","0.0-211.0-0.0","11824381","wem/bandit_single","A5EU1AQJNC7F2","pain","4","","75","K","2","","0","0","1","","0.4470793942","false","174","","0.2782342077","main_expt","","0.2167008269","","0.4470793942","","0.2937018888","","","","","",""
"3296","","bandit","250","1058791","0.0-212.0-0.0","11824381","wem/bandit_single","A5EU1AQJNC7F2","pain","4","","72","H","0","img/none_selected.jpg","0","0","1","","0.3095951925","false","175","","0.3095951925","main_expt","","0.2564405216","","0.4466152725","","0.2691073907","","","","","",""
"9761","","bandit","251","1070336","0.0-213.0-0.0","11824381","wem/bandit_single","A5EU1AQJNC7F2","pain","4","","76","L","3","","0","0","1","","0.2797966768","false","176","","0.3149167583","main_expt","","0.2740916264","","0.4622816701","","0.2797966768","","","","","",""
"92","","bandit","252","1072238","0.0-214.0-0.0","11824381","wem/bandit_single","A5EU1AQJNC7F2","pain","4","","76","L","3","","0","0","1","","0.2956207272","false","177","","0.3057016371","main_expt","","0.2701885048","","0.4791174255","","0.2956207272","","","","","",""
"108","","bandit","253","1074133","0.0-215.0-0.0","11824381","wem/bandit_single","A5EU1AQJNC7F2","pain","4","","76","L","3","","0","1","0","","0.2903749226","false","178","","0.2973749651","main_expt","","0.2525299603","","0.4878404122","","0.2903749226","","","","","",""
"170","","bandit","254","1076091","0.0-216.0-0.0","11824381","wem/bandit_single","A5EU1AQJNC7F2","pain","4","","76","L","3","","0","0","1","","0.2324022499","false","179","","0.3205080684","main_expt","","0.2923151224","","0.4871204803","","0.2324022499","","","","","",""
"487","","bandit","255","1078377","0.0-217.0-0.0","11824381","wem/bandit_single","A5EU1AQJNC7F2","pain","4","","76","L","3","","0","0","1","","0.157369965","false","180","","0.3668921479","main_expt","","0.2712435876","","0.4783768728","","0.157369965","","","","","",""
"848","","bandit","256","1081349","0.0-218.0-0.0","11824381","wem/bandit_single","A5EU1AQJNC7F2","pain","4","","72","H","0","img/none_selected.jpg","0","0","1","","0.36743573","false","181","","0.36743573","main_expt","","0.2911825171","","0.4791844977","","0.1928111427","","","","","",""
"184","","bandit","257","1083317","0.0-219.0-0.0","11824381","wem/bandit_single","A5EU1AQJNC7F2","pain","4","","74","J","1","","0","0","1","","0.2812290194","false","182","","0.3444330154","main_expt","","0.2812290194","","0.4796326775","","0.1831473083","","","","","",""
"89","","bandit","258","1085206","0.0-220.0-0.0","11824381","wem/bandit_single","A5EU1AQJNC7F2","pain","4","","74","J","1","","0","0","1","","0.2998653002","false","183","","0.376594699","main_expt","","0.2998653002","","0.4610412729","","0.1367876881","","","","","",""
"16","","bandit","259","1087000","0.0-221.0-0.0","11824381","wem/bandit_single","A5EU1AQJNC7F2","pain","4","","74","J","1","","0","0","1","","0.3019566185","false","184","","0.3576767422","main_expt","","0.3019566185","","0.4654872089","","0.1225312115","","","","","",""
"230","","bandit","260","1089042","0.0-222.0-0.0","11824381","wem/bandit_single","A5EU1AQJNC7F2","pain","4","","72","H","0","img/none_selected.jpg","0","1","0","","0.3420219295","false","185","","0.3420219295","main_expt","","0.3297019868","","0.4579605539","","0.1342014861","","","","","",""
"74","","bandit","261","1090935","0.0-223.0-0.0","11824381","wem/bandit_single","A5EU1AQJNC7F2","pain","4","","72","H","0","img/none_selected.jpg","0","0","1","","0.3398722127","false","186","","0.3398722127","main_expt","","0.3522504082","","0.4285966985","","0.1302900424","","","","","",""
"16","","bandit","262","1092723","0.0-224.0-0.0","11824381","wem/bandit_single","A5EU1AQJNC7F2","pain","4","","72","H","0","img/none_selected.jpg","0","1","0","","0.3329123812","false","187","","0.3329123812","main_expt","","0.3716798598","","0.4348535533","","0.1721475048","","","","","",""
"291","","bandit","263","1094799","0.0-225.0-0.0","11824381","wem/bandit_single","A5EU1AQJNC7F2","pain","4","","72","H","0","img/none_selected.jpg","0","1","0","","0.3185375489","false","188","","0.3185375489","main_expt","","0.3516931858","","0.4485299143","","0.194848396","","","","","",""
"171","","bandit","264","1096767","0.0-226.0-0.0","11824381","wem/bandit_single","A5EU1AQJNC7F2","pain","4","","72","H","0","img/none_selected.jpg","0","0","1","","0.2819885058","false","189","","0.2819885058","main_expt","","0.311825216","","0.4108460603","","0.2010474049","","","","","",""
"603","","bandit","265","1099177","0.0-227.0-0.0","11824381","wem/bandit_single","A5EU1AQJNC7F2","pain","4","","72","H","0","img/none_selected.jpg","0","1","0","","0.2938453289","false","190","","0.2938453289","main_expt","","0.3228194114","","0.4276881046","","0.2388592571","","","","","",""
"46","","bandit","266","1101989","0.0-228.0-0.0","11824381","wem/bandit_single","A5EU1AQJNC7F2","pain","4","","72","H","0","img/none_selected.jpg","0","1","0","","0.3252392313","false","191","","0.3252392313","main_expt","","0.3070679034","","0.4252680513","","0.2125939305","","","","","",""
"8992","","bandit","267","1113493","0.0-229.0-0.0","11824381","wem/bandit_single","A5EU1AQJNC7F2","pain","4","","72","H","0","img/none_selected.jpg","0","1","0","","0.2886148476","false","192","","0.2886148476","main_expt","","0.3224985291","","0.4128843357","","0.2494953747","","","","","",""
"180","","bandit","268","1115472","0.0-230.0-0.0","11824381","wem/bandit_single","A5EU1AQJNC7F2","pain","4","","72","H","0","img/none_selected.jpg","0","0","1","","0.2985788169","false","193","","0.2985788169","main_expt","","0.3869795439","","0.3935422506","","0.2831479201","","","","","",""
"548","","bandit","269","1117834","0.0-231.0-0.0","11824381","wem/bandit_single","A5EU1AQJNC7F2","pain","4","","76","L","3","","0","0","1","","0.3119862296","false","194","","0.2480640489","main_expt","","0.4012627402","","0.3844836544","","0.3119862296","","","","","",""
"268","","bandit","270","1119894","0.0-232.0-0.0","11824381","wem/bandit_single","A5EU1AQJNC7F2","pain","4","","76","L","3","","0","1","0","","0.3216729489","false","195","","0.2512767584","main_expt","","0.3984750166","","0.3676726872","","0.3216729489","","","","","",""
"117","","bandit","271","1121812","0.0-233.0-0.0","11824381","wem/bandit_single","A5EU1AQJNC7F2","pain","4","","76","L","3","","0","0","1","","0.3321806914","false","196","","0.2465093633","main_expt","","0.354698241","","0.3789354293","","0.3321806914","","","","","",""
"350","","bandit","272","1123971","0.0-234.0-0.0","11824381","wem/bandit_single","A5EU1AQJNC7F2","pain","4","","76","L","3","","0","0","1","","0.3046277309","false","197","","0.2064088789","main_expt","","0.388220233","","0.3163718389","","0.3046277309","","","","","",""
"51","","bandit","273","1125818","0.0-235.0-0.0","11824381","wem/bandit_single","A5EU1AQJNC7F2","pain","4","","72","H","0","img/none_selected.jpg","0","1","0","","0.1991167995","false","198","","0.1991167995","main_expt","","0.3702696144","","0.3791854339","","0.2780350238","","","","","",""
"693","","bandit","274","1128311","0.0-236.0-0.0","11824381","wem/bandit_single","A5EU1AQJNC7F2","pain","4","","72","H","0","img/none_selected.jpg","0","1","0","","0.217931059","false","199","","0.217931059","main_expt","","0.3901406761","","0.3677616307","","0.2933352516","","","","","",""
"201","","bandit","275","1130307","0.0-237.0-0.0","11824381","wem/bandit_single","A5EU1AQJNC7F2","pain","4","","72","H","0","img/none_selected.jpg","0","0","1","","0.1684289921","false","200","","0.1684289921","main_expt","","0.3606677237","","0.3696360463","","0.2826656477","","","","","",""
"192","","bandit","276","1132298","0.0-238.0-0.0","11824381","wem/bandit_single","A5EU1AQJNC7F2","pain","4","","72","H","0","img/none_selected.jpg","0","1","0","","0.1526494416","false","201","","0.1526494416","main_expt","","0.3608273241","","0.3685313937","","0.2337361703","","","","","",""
"32","","bandit","277","1134110","0.0-239.0-0.0","11824381","wem/bandit_single","A5EU1AQJNC7F2","pain","4","","72","H","0","img/none_selected.jpg","0","0","1","","0.1474087426","false","202","","0.1474087426","main_expt","","0.3495453025","","0.354480527","","0.1697000529","","","","","",""
"28","","bandit","278","1135923","0.0-240.0-0.0","11824381","wem/bandit_single","A5EU1AQJNC7F2","pain","4","","72","H","0","img/none_selected.jpg","0","0","1","","0.1499100939","false","203","","0.1499100939","main_expt","","0.3660628182","","0.3420940801","","0.1941246875","","","","","",""
"135","","bandit","279","1137862","0.0-241.0-0.0","11824381","wem/bandit_single","A5EU1AQJNC7F2","pain","4","","72","H","0","img/none_selected.jpg","0","1","0","","0.173155318","false","204","","0.173155318","main_expt","","0.337040125","","0.3365711719","","0.2006574904","","","","","",""
"342","","bandit","280","1139998","0.0-242.0-0.0","11824381","wem/bandit_single","A5EU1AQJNC7F2","pain","4","","72","H","0","img/none_selected.jpg","0","0","1","","0.1813441082","false","205","","0.1813441082","main_expt","","0.303371863","","0.3517226909","","0.1905393187","","","","","",""
"216","","bandit","281","1142006","0.0-243.0-0.0","11824381","wem/bandit_single","A5EU1AQJNC7F2","pain","4","","72","H","0","img/none_selected.jpg","0","0","1","","0.1491413167","false","206","","0.1491413167","main_expt","","0.256221391","","0.3476038752","","0.1715448013","","","","","",""
"2418","","bandit","282","1146207","0.0-244.0-0.0","11824381","wem/bandit_single","A5EU1AQJNC7F2","pain","4","","74","J","1","","0","0","1","","0.2368802791","false","207","","0.08847738283","main_expt","","0.2368802791","","0.3349551135","","0.1857981004","","","","","",""
"849","","bandit","283","1148848","0.0-245.0-0.0","11824381","wem/bandit_single","A5EU1AQJNC7F2","pain","4","","74","J","1","","0","0","1","","0.1949321076","false","208","","0.1283817583","main_expt","","0.1949321076","","0.342580335","","0.2102455122","","","","","",""
"91","","bandit","284","1150983","0.0-246.0-0.0","11824381","wem/bandit_single","A5EU1AQJNC7F2","pain","4","","72","H","0","img/none_selected.jpg","0","1","0","","0.116273769","false","209","","0.116273769","main_expt","","0.1838736563","","0.3043768385","","0.2400108979","","","","","",""
"8933","","bandit","285","1162461","0.0-247.0-0.0","11824381","wem/bandit_single","A5EU1AQJNC7F2","pain","4","","72","H","0","img/none_selected.jpg","0","0","1","","0.1255054793","false","210","","0.1255054793","main_expt","","0.2021797606","","0.2578785415","","0.2756077388","","","","","",""
"76","","bandit","286","1164325","0.0-248.0-0.0","11824381","wem/bandit_single","A5EU1AQJNC7F2","pain","4","","72","H","0","img/none_selected.jpg","0","0","1","","0.1183517879","false","211","","0.1183517879","main_expt","","0.1724183734","","0.2684152162","","0.2509099491","","","","","",""
"518","","bandit","287","1166636","0.0-249.0-0.0","11824381","wem/bandit_single","A5EU1AQJNC7F2","pain","4","","72","H","0","img/none_selected.jpg","0","0","1","","0.05794836862","false","212","","0.05794836862","main_expt","","0.1730984207","","0.2734791169","","0.1980821896","","","","","",""
"159","","bandit","288","1168581","0.0-250.0-0.0","11824381","wem/bandit_single","A5EU1AQJNC7F2","pain","4","","76","L","3","","0","0","1","","0.1925164192","false","213","","0.05975327623","main_expt","","0.1324166562","","0.2278558496","","0.1925164192","","","","","",""
"30","","bandit","289","1170406","0.0-251.0-0.0","11824381","wem/bandit_single","A5EU1AQJNC7F2","pain","4","","76","L","3","","0","0","1","","0.2265747235","false","214","","0.08438277685","main_expt","","0.1503769339","","0.3028606466","","0.2265747235","","","","","",""
"494","","bandit","290","1172683","0.0-252.0-0.0","11824381","wem/bandit_single","A5EU1AQJNC7F2","pain","4","","76","L","3","","0","0","1","","0.2019374621","false","215","","0.06249742642","main_expt","","0.1957560139","","0.2931323275","","0.2019374621","","","","","",""
"32","","bandit","291","1174500","0.0-253.0-0.0","11824381","wem/bandit_single","A5EU1AQJNC7F2","pain","4","","72","H","0","img/none_selected.jpg","0","0","1","","0.03962767808","false","216","","0.03962767808","main_expt","","0.2405167914","","0.3496422565","","0.1789305456","","","","","",""
"126","","bandit","292","1176990","0.0-254.0-0.0","11824381","wem/bandit_single","A5EU1AQJNC7F2","pain","4","","72","H","0","img/none_selected.jpg","0","0","1","","0.04234009702","false","217","","0.04234009702","main_expt","","0.1730494568","","0.3773047798","","0.1749198907","","","","","",""
"11412","","bandit","293","1190927","0.0-255.0-0.0","11824381","wem/bandit_single","A5EU1AQJNC7F2","pain","4","","74","J","1","","0","0","1","","0.194438436","false","218","","0.03503126556","main_expt","","0.194438436","","0.3416605923","","0.1735363699","","","","","",""
"131","","bandit","294","1192848","0.0-256.0-0.0","11824381","wem/bandit_single","A5EU1AQJNC7F2","pain","4","","72","H","0","img/none_selected.jpg","0","0","1","","0.04555228435","false","219","","0.04555228435","main_expt","","0.1883779435","","0.3559276739","","0.2007391453","","","","","",""
"12","","bandit","295","1194663","0.0-257.0-0.0","11824381","wem/bandit_single","A5EU1AQJNC7F2","pain","4","","72","H","0","img/none_selected.jpg","0","0","1","","0.03183460319","false","220","","0.03183460319","main_expt","","0.146052069","","0.3535435837","","0.2082644318","","","","","",""
"48","","bandit","296","1196490","0.0-258.0-0.0","11824381","wem/bandit_single","A5EU1AQJNC7F2","pain","4","","76","L","3","","0","1","0","","0.1821586712","false","221","","0.05071015327","main_expt","","0.1494285134","","0.3418709783","","0.1821586712","","","","","",""
"207","","bandit","297","1198497","0.0-259.0-0.0","11824381","wem/bandit_single","A5EU1AQJNC7F2","pain","4","","76","L","3","","0","1","0","","0.2158533928","false","222","","0.04027023507","main_expt","","0.182387278","","0.3004905908","","0.2158533928","","","","","",""
"40","","bandit","298","1200332","0.0-260.0-0.0","11824381","wem/bandit_single","A5EU1AQJNC7F2","pain","4","","76","L","3","","0","0","1","","0.1832968935","false","223","","0.05247893246","main_expt","","0.198140534","","0.3691689592","","0.1832968935","","","","","",""
"107","","bandit","299","1202231","0.0-261.0-0.0","11824381","wem/bandit_single","A5EU1AQJNC7F2","pain","4","","76","L","3","","0","1","0","","0.1701073256","false","224","","0.06352932029","main_expt","","0.1957066115","","0.2915556832","","0.1701073256","","","","","",""
"10961","","bandit","300","1214978","0.0-262.0-0.0","11824381","wem/bandit_single","A5EU1AQJNC7F2","pain","4","","72","H","0","img/none_selected.jpg","0","0","1","","0.04388745626","false","225","","0.04388745626","main_expt","","0.2132826896","","0.3175642321","","0.1599508429","","","","","",""
"138","","bandit","301","1216937","0.0-263.0-0.0","11824381","wem/bandit_single","A5EU1AQJNC7F2","pain","4","","76","L","3","","0","0","1","","0.1801289829","false","226","","0.0536624769","main_expt","","0.2679811769","","0.2803716623","","0.1801289829","","","","","",""
"306","","bandit","302","1219016","0.0-264.0-0.0","11824381","wem/bandit_single","A5EU1AQJNC7F2","pain","4","","76","L","3","","0","1","0","","0.1920788888","false","227","","0.07211167966","main_expt","","0.2101601544","","0.2506224893","","0.1920788888","","","","","",""
"38","","bandit","303","1220857","0.0-265.0-0.0","11824381","wem/bandit_single","A5EU1AQJNC7F2","pain","4","","76","L","3","","0","0","1","","0.1540575712","false","228","","0.04486621846","main_expt","","0.1808571688","","0.2890404278","","0.1540575712","","","","","",""
"58","","bandit","304","1222718","0.0-266.0-0.0","11824381","wem/bandit_single","A5EU1AQJNC7F2","pain","4","","76","L","3","","0","0","1","","0.161449161","false","229","","0.05387953984","main_expt","","0.1132309001","","0.2746035793","","0.161449161","","","","","",""
"450","","bandit","305","1224992","0.0-267.0-0.0","11824381","wem/bandit_single","A5EU1AQJNC7F2","pain","4","","76","L","3","","0","0","1","","0.1413021421","false","230","","0.03848872117","main_expt","","0.1450818377","","0.282726532","","0.1413021421","","","","","",""
"4330","","bandit","306","1231107","0.0-268.0-0.0","11824381","wem/bandit_single","A5EU1AQJNC7F2","pain","4","","72","H","0","img/none_selected.jpg","0","0","1","","0.04669383004","false","231","","0.04669383004","main_expt","","0.1077137685","","0.3472256411","","0.1745796094","","","","","",""
"2253","","bandit","307","1235163","0.0-269.0-0.0","11824381","wem/bandit_single","A5EU1AQJNC7F2","pain","4","","72","H","0","img/none_selected.jpg","0","0","1","","0.03395804074","false","232","","0.03395804074","main_expt","","0.06427161289","","0.3994934702","","0.1680880834","","","","","",""
"341","","bandit","308","1237310","0.0-270.0-0.0","11824381","wem/bandit_single","A5EU1AQJNC7F2","pain","4","","76","L","3","","0","0","1","","0.213250795","false","233","","0.05150109453","main_expt","","0.1060089469","","0.4029083043","","0.213250795","","","","","",""
"107","","bandit","309","1239229","0.0-271.0-0.0","11824381","wem/bandit_single","A5EU1AQJNC7F2","pain","4","","76","L","3","","0","0","1","","0.221091899","false","234","","0.06099663442","main_expt","","0.1117154146","","0.4486287737","","0.221091899","","","","","",""
"23","","bandit","310","1241996","0.0-272.0-0.0","11824381","wem/bandit_single","A5EU1AQJNC7F2","pain","4","","76","L","3","","0","1","0","","0.2688923835","false","235","","0.05202127711","main_expt","","0.1276115887","","0.4561120354","","0.2688923835","","","","","",""
"8452","","bandit","311","1252966","0.0-273.0-0.0","11824381","wem/bandit_single","A5EU1AQJNC7F2","pain","4","","76","L","3","","0","1","0","","0.2323123402","false","236","","0.07001303924","main_expt","","0.1786916187","","0.4375102443","","0.2323123402","","","","","",""
"463","","bandit","312","1255231","0.0-274.0-0.0","11824381","wem/bandit_single","A5EU1AQJNC7F2","pain","4","","76","L","3","","0","0","1","","0.174764536","false","237","","0.07602679398","main_expt","","0.1896980961","","0.4582573195","","0.174764536","","","","","",""
"2","","bandit","313","1257004","0.0-275.0-0.0","11824381","wem/bandit_single","A5EU1AQJNC7F2","pain","4","","76","L","3","","0","1","0","","0.1654919337","false","238","","0.08775462142","main_expt","","0.2205101014","","0.4463811869","","0.1654919337","","","","","",""
"85","","bandit","314","1258882","0.0-276.0-0.0","11824381","wem/bandit_single","A5EU1AQJNC7F2","pain","4","","76","L","3","","0","0","1","","0.2402574844","false","239","","0.06721086637","main_expt","","0.2661717939","","0.4507479662","","0.2402574844","","","","","",""
"59","","bandit","315","1260759","0.0-277.0-0.0","11824381","wem/bandit_single","A5EU1AQJNC7F2","pain","4","","76","L","3","","0","0","1","","0.2445968751","false","240","","0.07433064979","main_expt","","0.1972661282","","0.4504038859","","0.2445968751","","","","","",""
"572","","bandit","316","1263120","0.0-278.0-0.0","11824381","wem/bandit_single","A5EU1AQJNC7F2","pain","4","","76","L","3","","0","0","1","","0.2708632627","false","241","","0.08919714094","main_expt","","0.1868253343","","0.4346931185","","0.2708632627","","","","","",""
"124","","bandit","317","1265060","0.0-279.0-0.0","11824381","wem/bandit_single","A5EU1AQJNC7F2","pain","4","","72","H","0","img/none_selected.jpg","0","0","1","","0.06159770715","false","242","","0.06159770715","main_expt","","0.1649449253","","0.3898892773","","0.2047807489","","","","","",""
"292","","bandit","318","1267173","0.0-280.0-0.0","11824381","wem/bandit_single","A5EU1AQJNC7F2","pain","4","","72","H","0","img/none_selected.jpg","0","0","1","","0.05299296545","false","243","","0.05299296545","main_expt","","0.184368772","","0.4033463229","","0.222122474","","","","","",""
"326","","bandit","319","1269312","0.0-281.0-0.0","11824381","wem/bandit_single","A5EU1AQJNC7F2","pain","4","","72","H","0","img/none_selected.jpg","0","0","1","","0.06275569833","false","244","","0.06275569833","main_expt","","0.2121467569","","0.4096532456","","0.2425992204","","","","","",""
"143","","bandit","320","1271259","0.0-282.0-0.0","11824381","wem/bandit_single","A5EU1AQJNC7F2","pain","4","","76","L","3","","0","0","1","","0.2173978931","false","245","","0.06673215917","main_expt","","0.1894702338","","0.3779527256","","0.2173978931","","","","","",""
"106","","bandit","321","1273165","0.0-283.0-0.0","11824381","wem/bandit_single","A5EU1AQJNC7F2","pain","4","","76","L","3","","0","0","1","","0.2218069129","false","246","","0.06500670021","main_expt","","0.2018459735","","0.3953318503","","0.2218069129","","","","","",""
"246","","bandit","322","1275991","0.0-284.0-0.0","11824381","wem/bandit_single","A5EU1AQJNC7F2","pain","4","","76","L","3","","0","0","1","","0.1888628326","false","247","","0.07271559664","main_expt","","0.1986179994","","0.4287890539","","0.1888628326","","","","","",""
"10473","","bandit","323","1288975","0.0-285.0-0.0","11824381","wem/bandit_single","A5EU1AQJNC7F2","pain","4","","76","L","3","","0","0","1","","0.1722509531","false","248","","0.09654775784","main_expt","","0.1299779064","","0.4104310255","","0.1722509531","","","","","",""
"678","","bandit","324","1291449","0.0-286.0-0.0","11824381","wem/bandit_single","A5EU1AQJNC7F2","pain","4","","76","L","3","","0","0","1","","0.2541205998","false","249","","0.1179039307","main_expt","","0.1590650881","","0.4116337798","","0.2541205998","","","","","",""
"294","","bandit","325","1293525","0.0-287.0-0.0","11824381","wem/bandit_single","A5EU1AQJNC7F2","pain","4","","76","L","3","","0","0","1","","0.2664885101","false","250","","0.1265890049","main_expt","","0.1213614167","","0.426505214","","0.2664885101","","","","","",""
"228","","bandit","326","1295544","0.0-288.0-0.0","11824381","wem/bandit_single","A5EU1AQJNC7F2","pain","4","","76","L","3","","0","0","1","","0.2519669898","false","251","","0.1039398773","main_expt","","0.1099334476","","0.3949293487","","0.2519669898","","","","","",""
"128","","bandit","327","1297476","0.0-289.0-0.0","11824381","wem/bandit_single","A5EU1AQJNC7F2","pain","4","","72","H","0","img/none_selected.jpg","0","0","1","","0.107940897","false","252","","0.107940897","main_expt","","0.1087011898","","0.3913077142","","0.2932098873","","","","","",""
"58","","bandit","328","1299321","0.0-290.0-0.0","11824381","wem/bandit_single","A5EU1AQJNC7F2","pain","4","","72","H","0","img/none_selected.jpg","0","0","1","","0.1136461566","false","253","","0.1136461566","main_expt","","0.09397011719","","0.3648650894","","0.3179249839","","","","","",""
"95","","bandit","329","1301206","0.0-291.0-0.0","11824381","wem/bandit_single","A5EU1AQJNC7F2","pain","4","","74","J","1","","0","0","1","","0.08474648857","false","254","","0.1374631792","main_expt","","0.08474648857","","0.3452883024","","0.2908620441","","","","","",""
"1533","","bandit","330","1304536","0.0-292.0-0.0","11824381","wem/bandit_single","A5EU1AQJNC7F2","pain","4","","75","K","2","","0","0","1","","0.2943306686","false","255","","0.1453945637","main_expt","","0.1025854271","","0.2943306686","","0.3067265453","","","","","",""
"1417","","bandit","331","1307769","0.0-293.0-0.0","11824381","wem/bandit_single","A5EU1AQJNC7F2","pain","4","","76","L","3","","0","0","1","","0.3133222149","false","256","","0.1543600678","main_expt","","0.08686152536","","0.3225000795","","0.3133222149","","","","","",""
"907","","bandit","332","1310987","0.0-294.0-0.0","11824381","wem/bandit_single","A5EU1AQJNC7F2","pain","4","","76","L","3","","0","1","0","","0.3194106209","false","257","","0.107160473","main_expt","","0.08667022303","","0.3199750271","","0.3194106209","","","","","",""
"8757","","bandit","333","1322288","0.0-295.0-0.0","11824381","wem/bandit_single","A5EU1AQJNC7F2","pain","4","","76","L","3","","0","0","1","","0.35032938","false","258","","0.0567043194","main_expt","","0.1158580788","","0.355105101","","0.35032938","","","","","",""
"106","","bandit","334","1324208","0.0-296.0-0.0","11824381","wem/bandit_single","A5EU1AQJNC7F2","pain","4","","72","H","0","img/none_selected.jpg","0","0","1","","0.05418204449","false","259","","0.05418204449","main_expt","","0.08241329339","","0.3566572827","","0.3856615787","","","","","",""
"171","","bandit","335","1326177","0.0-297.0-0.0","11824381","wem/bandit_single","A5EU1AQJNC7F2","pain","4","","74","J","1","","0","0","1","","0.09346186364","false","260","","0.0423658587","main_expt","","0.09346186364","","0.3492833521","","0.3977147975","","","","","",""
"395","","bandit","336","1328363","0.0-298.0-0.0","11824381","wem/bandit_single","A5EU1AQJNC7F2","pain","4","","72","H","0","img/none_selected.jpg","0","0","1","","0.08097208102","false","261","","0.08097208102","main_expt","","0.07434745577","","0.3406934897","","0.4011116255","","","","","",""
"103","","bandit","337","1330275","0.0-299.0-0.0","11824381","wem/bandit_single","A5EU1AQJNC7F2","pain","4","","74","J","1","","0","0","1","","0.1177047137","false","262","","0.05731993864","main_expt","","0.1177047137","","0.3604065233","","0.4149706566","","","","","",""
"494","","bandit","338","1332574","0.0-300.0-0.0","11824381","wem/bandit_single","A5EU1AQJNC7F2","pain","4","","75","K","2","","0","1","0","","0.3584147688","false","263","","0.07314079116","main_expt","","0.09530987449","","0.3584147688","","0.4476629791","","","","","",""
"95","","bandit","339","1334985","0.0-301.0-0.0","11824381","wem/bandit_single","A5EU1AQJNC7F2","pain","4","","75","K","2","","0","0","1","","0.3723043834","false","264","","0.08382102311","main_expt","","0.07595610255","","0.3723043834","","0.4640453953","","","","","",""
"801","","bandit","340","1338049","0.0-302.0-0.0","11824381","wem/bandit_single","A5EU1AQJNC7F2","pain","4","","76","L","3","","0","0","1","","0.4465377191","false","265","","0.1065624759","main_expt","","0.08850347459","","0.316280577","","0.4465377191","","","","","",""
"106","","bandit","341","1339987","0.0-303.0-0.0","11824381","wem/bandit_single","A5EU1AQJNC7F2","pain","4","","75","K","2","","0","1","0","","0.269287162","false","266","","0.1253885588","main_expt","","0.1215706641","","0.269287162","","0.4183068553","","","","","",""
"436","","bandit","342","1342899","0.0-304.0-0.0","11824381","wem/bandit_single","A5EU1AQJNC7F2","pain","4","","75","K","2","","0","0","1","","0.2280314931","false","267","","0.09016252172","main_expt","","0.1841144129","","0.2280314931","","0.4268145795","","","","","",""
"2283","","bandit","343","1347787","0.0-305.0-0.0","11824381","wem/bandit_single","A5EU1AQJNC7F2","pain","4","","75","K","2","","0","0","1","","0.2243604643","false","268","","0.08700052181","main_expt","","0.1409141681","","0.2243604643","","0.4319202891","","","","","",""
"225","","bandit","344","1349820","0.0-306.0-0.0","11824381","wem/bandit_single","A5EU1AQJNC7F2","pain","4","","72","H","0","img/none_selected.jpg","0","0","1","","0.09500676271","false","269","","0.09500676271","main_expt","","0.1011197226","","0.2334807581","","0.4493038861","","","","","",""
"435","","bandit","345","1352044","0.0-307.0-0.0","11824381","wem/bandit_single","A5EU1AQJNC7F2","pain","4","","75","K","2","","0","0","1","","0.2376518603","false","270","","0.07607499825","main_expt","","0.118556502","","0.2376518603","","0.443059266","","","","","",""
"8693","","bandit","346","1362545","0.0-308.0-0.0","11824381","wem/bandit_single","A5EU1AQJNC7F2","pain","4","","76","L","3","","0","1","0","","0.4362671961","false","271","","0.08946946819","main_expt","","0.131750931","","0.2139372972","","0.4362671961","","","","","",""
"348","","bandit","347","1364696","0.0-309.0-0.0","11824381","wem/bandit_single","A5EU1AQJNC7F2","pain","4","","76","L","3","","0","1","0","","0.4452199348","false","272","","0.108288805","main_expt","","0.174678733","","0.157688628","","0.4452199348","","","","","",""
"52","","bandit","348","1366984","0.0-310.0-0.0","11824381","wem/bandit_single","A5EU1AQJNC7F2","pain","4","","75","K","2","","0","0","1","","0.271098703","false","273","","0.105491008","main_expt","","0.1730415972","","0.271098703","","0.454652927","","","","","",""
"528","","bandit","349","1370034","0.0-311.0-0.0","11824381","wem/bandit_single","A5EU1AQJNC7F2","pain","4","","75","K","2","","0","1","0","","0.2778056479","false","274","","0.1059149547","main_expt","","0.1520576313","","0.2778056479","","0.4646374989","","","","","",""
"970","","bandit","350","1372990","0.0-312.0-0.0","11824381","wem/bandit_single","A5EU1AQJNC7F2","pain","4","","75","K","2","","0","0","1","","0.2698457611","false","275","","0.09894283875","main_expt","","0.1007060326","","0.2698457611","","0.4535579815","","","","","",""
"20823","","bandit","351","1396344","0.0-313.0-0.0","11824381","wem/bandit_single","A5EU1AQJNC7F2","pain","4","","76","L","3","","0","0","1","","0.4319407295","false","276","","0.07695295732","main_expt","","0.08844777519","","0.2774836338","","0.4319407295","","","","","",""
"146","","bandit","352","1398307","0.0-314.0-0.0","11824381","wem/bandit_single","A5EU1AQJNC7F2","pain","4","","75","K","2","","0","1","0","","0.3222794015","false","277","","0.0896712608","main_expt","","0.1315613084","","0.3222794015","","0.4475260374","","","","","",""
"50","","bandit","353","1400152","0.0-315.0-0.0","11824381","wem/bandit_single","A5EU1AQJNC7F2","pain","4","","75","K","2","","0","1","0","","0.3122447371","false","278","","0.1343695578","main_expt","","0.1508492864","","0.3122447371","","0.4553849104","","","","","",""
"0","","bandit","354","1401945","0.0-316.0-0.0","11824381","wem/bandit_single","A5EU1AQJNC7F2","pain","4","","75","K","2","","0","0","1","","0.2934764685","false","279","","0.1106050404","main_expt","","0.1181182825","","0.2934764685","","0.4621871954","","","","","",""
"51","","bandit","355","1403794","0.0-317.0-0.0","11824381","wem/bandit_single","A5EU1AQJNC7F2","pain","4","","76","L","3","","0","0","1","","0.4482597109","false","280","","0.114105974","main_expt","","0.1244803533","","0.290984208","","0.4482597109","","","","","",""
"110","","bandit","356","1405720","0.0-318.0-0.0","11824381","wem/bandit_single","A5EU1AQJNC7F2","pain","4","","76","L","3","","0","1","0","","0.4347423019","false","281","","0.1246337516","main_expt","","0.105821284","","0.2974260948","","0.4347423019","","","","","",""
"169","","bandit","357","1407673","0.0-319.0-0.0","11824381","wem/bandit_single","A5EU1AQJNC7F2","pain","4","","76","L","3","","0","0","1","","0.4583393623","false","282","","0.079988156","main_expt","","0.1562468179","","0.2972171025","","0.4583393623","","","","","",""
"199","","bandit","358","1409681","0.0-320.0-0.0","11824381","wem/bandit_single","A5EU1AQJNC7F2","pain","4","","75","K","2","","0","0","1","","0.2821487798","false","283","","0.06901380195","main_expt","","0.1478322318","","0.2821487798","","0.4497532375","","","","","",""
"187","","bandit","359","1411675","0.0-321.0-0.0","11824381","wem/bandit_single","A5EU1AQJNC7F2","pain","4","","72","H","0","img/none_selected.jpg","0","0","1","","0.05901051183","false","284","","0.05901051183","main_expt","","0.1371678423","","0.2739939459","","0.4312811421","","","","","",""
"14","","bandit","360","1413481","0.0-322.0-0.0","11824381","wem/bandit_single","A5EU1AQJNC7F2","pain","4","","74","J","1","","0","0","1","","0.12762277","false","285","","0.1126944794","main_expt","","0.12762277","","0.2251097973","","0.4599346403","","","","","",""
"250","","bandit","361","1415528","0.0-323.0-0.0","11824381","wem/bandit_single","A5EU1AQJNC7F2","pain","4","","75","K","2","","0","0","1","","0.2124690726","false","286","","0.09646131279","main_expt","","0.1587978561","","0.2124690726","","0.4588450488","","","","","",""
"1117","","bandit","362","1418453","0.0-324.0-0.0","11824381","wem/bandit_single","A5EU1AQJNC7F2","pain","4","","75","K","2","","0","0","1","","0.2311163105","false","287","","0.0795853072","main_expt","","0.1262084743","","0.2311163105","","0.4684539465","","","","","",""
"415","","bandit","363","1420667","0.0-325.0-0.0","11824381","wem/bandit_single","A5EU1AQJNC7F2","pain","4","","76","L","3","","0","0","1","","0.4555823871","false","288","","0.07210460151","main_expt","","0.08849331384","","0.2178761709","","0.4555823871","","","","","",""
"215","","bandit","364","1422678","0.0-326.0-0.0","11824381","wem/bandit_single","A5EU1AQJNC7F2","pain","4","","75","K","2","","0","0","1","","0.2656120211","false","289","","0.08807043944","main_expt","","0.1082793638","","0.2656120211","","0.4779982095","","","","","",""
"56","","bandit","365","1424536","0.0-327.0-0.0","11824381","wem/bandit_single","A5EU1AQJNC7F2","pain","4","","76","L","3","","0","1","0","","0.4806691972","false","290","","0.09097769709","main_expt","","0.1591187351","","0.2756957417","","0.4806691972","","","","","",""
"325","","bandit","366","1426657","0.0-328.0-0.0","11824381","wem/bandit_single","A5EU1AQJNC7F2","pain","4","","76","L","3","","0","0","1","","0.4856322508","false","291","","0.1486720085","main_expt","","0.1766493085","","0.3111580235","","0.4856322508","","","","","",""
"338","","bandit","367","1428791","0.0-329.0-0.0","11824381","wem/bandit_single","A5EU1AQJNC7F2","pain","4","","76","L","3","","0","1","0","","0.4905538215","false","292","","0.166368556","main_expt","","0.1303677554","","0.3019137931","","0.4905538215","","","","","",""
"455","","bandit","368","1431047","0.0-330.0-0.0","11824381","wem/bandit_single","A5EU1AQJNC7F2","pain","4","","76","L","3","","0","0","1","","0.4915741327","false","293","","0.1516979355","main_expt","","0.1553518032","","0.2930542664","","0.4915741327","","","","","",""
"52","","bandit","369","1432908","0.0-331.0-0.0","11824381","wem/bandit_single","A5EU1AQJNC7F2","pain","4","","75","K","2","","0","1","0","","0.294566814","false","294","","0.142642289","main_expt","","0.1586445557","","0.294566814","","0.4854109815","","","","","",""
"583","","bandit","370","1435307","0.0-332.0-0.0","11824381","wem/bandit_single","A5EU1AQJNC7F2","pain","4","","75","K","2","","0","1","0","","0.2590601899","false","295","","0.1038045902","main_expt","","0.1474370852","","0.2590601899","","0.4737464351","","","","","",""
"1446","","bandit","371","1438556","0.0-333.0-0.0","11824381","wem/bandit_single","A5EU1AQJNC7F2","pain","4","","75","K","2","","0","1","0","","0.260130188","false","296","","0.1055366566","main_expt","","0.1281429101","","0.260130188","","0.4752126994","","","","","",""
"543","","bandit","372","1440901","0.0-334.0-0.0","11824381","wem/bandit_single","A5EU1AQJNC7F2","pain","4","","76","L","3","","0","1","0","","0.47087989","false","297","","0.07292146603","main_expt","","0.1486346553","","0.243487995","","0.47087989","","","","","",""
"277","","bandit","373","1442983","0.0-335.0-0.0","11824381","wem/bandit_single","A5EU1AQJNC7F2","pain","4","","75","K","2","","0","0","1","","0.2746908113","false","298","","0.07361350609","main_expt","","0.154412059","","0.2746908113","","0.454436629","","","","","",""
