"rt","responses","trial_type","trial_index","time_elapsed","internal_node_id","subjID","study","MID","cond","drift","key_press","respCharCode","respKey","respChoiceNum","respChoice","gems","bombs","no_reward","GemPrChosen","BombPrChosen","practice","trial_counter","WinPr_0","LosePr_0","trial_label","WinPr_1","LosePr_1","WinPr_2","LosePr_2","WinPr_3","LosePr_3","Q0","Q1","Q2","gender","age","ethnicity"
"15764","{""Q0"":""A1JVO7FLPATHUB""}","survey-text","0","15768","0.0-0.0","13910690","wem/bandit_single","A1JVO7FLPATHUB","pain","6","","","","","","","","","","","","","","","","","","","","","","","","","","",""
"1647","","text","1","18418","0.0-1.0","13910690","wem/bandit_single","A1JVO7FLPATHUB","pain","6","32","","","","","","","","","","","","","","","","","","","","","","","","","",""
"5193","","text","2","23612","0.0-2.0","13910690","wem/bandit_single","A1JVO7FLPATHUB","pain","6","32","","","","","","","","","","","","","","","","","","","","","","","","","",""
"12045","","text","3","35658","0.0-3.0","13910690","wem/bandit_single","A1JVO7FLPATHUB","pain","6","32","","","","","","","","","","","","","","","","","","","","","","","","","",""
"8979","","text","4","44637","0.0-4.0","13910690","wem/bandit_single","A1JVO7FLPATHUB","pain","6","32","","","","","","","","","","","","","","","","","","","","","","","","","",""
"8010","","text","5","52648","0.0-5.0","13910690","wem/bandit_single","A1JVO7FLPATHUB","pain","6","32","","","","","","","","","","","","","","","","","","","","","","","","","",""
"6162","","text","6","58812","0.0-6.0","13910690","wem/bandit_single","A1JVO7FLPATHUB","pain","6","32","","","","","","","","","","","","","","","","","","","","","","","","","",""
"5349","","text","7","64163","0.0-7.0","13910690","wem/bandit_single","A1JVO7FLPATHUB","pain","6","32","","","","","","","","","","","","","","","","","","","","","","","","","",""
"3472","","text","8","67636","0.0-8.0","13910690","wem/bandit_single","A1JVO7FLPATHUB","pain","6","32","","","","","","","","","","","","","","","","","","","","","","","","","",""
"1908","","text","9","69546","0.0-9.0","13910690","wem/bandit_single","A1JVO7FLPATHUB","pain","6","32","","","","","","","","","","","","","","","","","","","","","","","","","",""
"1313","","text","10","70859","0.0-10.0","13910690","wem/bandit_single","A1JVO7FLPATHUB","pain","6","32","","","","","","","","","","","","","","","","","","","","","","","","","",""
"7678","","text","11","78539","0.0-11.0","13910690","wem/bandit_single","A1JVO7FLPATHUB","pain","6","32","","","","","","","","","","","","","","","","","","","","","","","","","",""
"1030","","bandit","12","81076","0.0-12.0-0.0","13910690","wem/bandit_single","A1JVO7FLPATHUB","pain","6","","74","J","0","img/none_selected_demo.jpg","0","0","1","0","0","true","0","0","0","","","","","","","","","","","","",""
"463","","bandit","13","83295","0.0-13.0-0.0","13910690","wem/bandit_single","A1JVO7FLPATHUB","pain","6","","75","K","0","img/none_selected_demo.jpg","0","0","1","0","0","true","0","0","0","","","","","","","","","","","","",""
"1720","","text","14","85268","0.0-14.0","13910690","wem/bandit_single","A1JVO7FLPATHUB","pain","6","32","","","","","","","","","","","","","","","","","","","","","","","","","",""
"938","","text","15","86206","0.0-15.0","13910690","wem/bandit_single","A1JVO7FLPATHUB","pain","6","32","","","","","","","","","","","","","","","","","","","","","","","","","",""
"1783","","text","16","87990","0.0-16.0","13910690","wem/bandit_single","A1JVO7FLPATHUB","pain","6","32","","","","","","","","","","","","","","","","","","","","","","","","","",""
"2110","","text","17","90101","0.0-17.0","13910690","wem/bandit_single","A1JVO7FLPATHUB","pain","6","32","","","","","","","","","","","","","","","","","","","","","","","","","",""
"844","","bandit","18","92450","0.0-18.0-0.0","13910690","wem/bandit_single","A1JVO7FLPATHUB","pain","6","","74","J","0","img/none_selected_demo.jpg","0","1","0","0","0.8","true","0","0","0.8","80_20_practice","0","0.2","","","","","","","","","",""
"27","","bandit","19","94234","0.0-18.0-1.0","13910690","wem/bandit_single","A1JVO7FLPATHUB","pain","6","","75","K","1","","0","0","1","0","0.2","true","0","0","0.8","80_20_practice","0","0.2","","","","","","","","","",""
"5","","bandit","20","95992","0.0-18.0-2.0","13910690","wem/bandit_single","A1JVO7FLPATHUB","pain","6","","74","J","0","img/none_selected_demo.jpg","0","0","1","0","0.8","true","0","0","0.8","80_20_practice","0","0.2","","","","","","","","","",""
"0","","bandit","21","97748","0.0-18.0-3.0","13910690","wem/bandit_single","A1JVO7FLPATHUB","pain","6","","74","J","0","img/none_selected_demo.jpg","0","1","0","0","0.8","true","0","0","0.8","80_20_practice","0","0.2","","","","","","","","","",""
"1310","","bandit","22","100813","0.0-18.0-4.0","13910690","wem/bandit_single","A1JVO7FLPATHUB","pain","6","","74","J","0","img/none_selected_demo.jpg","0","1","0","0","0.8","true","0","0","0.8","80_20_practice","0","0.2","","","","","","","","","",""
"2688","","bandit","23","105255","0.0-18.0-5.0","13910690","wem/bandit_single","A1JVO7FLPATHUB","pain","6","","74","J","0","img/none_selected_demo.jpg","0","1","0","0","0.8","true","0","0","0.8","80_20_practice","0","0.2","","","","","","","","","",""
"1125","","bandit","24","108134","0.0-18.0-6.0","13910690","wem/bandit_single","A1JVO7FLPATHUB","pain","6","","74","J","0","img/none_selected_demo.jpg","0","1","0","0","0.8","true","0","0","0.8","80_20_practice","0","0.2","","","","","","","","","",""
"382","","bandit","25","110270","0.0-18.0-7.0","13910690","wem/bandit_single","A1JVO7FLPATHUB","pain","6","","74","J","0","img/none_selected_demo.jpg","0","1","0","0","0.8","true","0","0","0.8","80_20_practice","0","0.2","","","","","","","","","",""
"248","","bandit","26","112274","0.0-18.0-8.0","13910690","wem/bandit_single","A1JVO7FLPATHUB","pain","6","","74","J","0","img/none_selected_demo.jpg","0","0","1","0","0.8","true","0","0","0.8","80_20_practice","0","0.2","","","","","","","","","",""
"155","","bandit","27","114183","0.0-18.0-9.0","13910690","wem/bandit_single","A1JVO7FLPATHUB","pain","6","","74","J","0","img/none_selected_demo.jpg","0","1","0","0","0.8","true","0","0","0.8","80_20_practice","0","0.2","","","","","","","","","",""
"342","","bandit","28","116279","0.0-18.0-10.0","13910690","wem/bandit_single","A1JVO7FLPATHUB","pain","6","","74","J","0","img/none_selected_demo.jpg","0","1","0","0","0.8","true","0","0","0.8","80_20_practice","0","0.2","","","","","","","","","",""
"530","","bandit","29","118565","0.0-18.0-11.0","13910690","wem/bandit_single","A1JVO7FLPATHUB","pain","6","","74","J","0","img/none_selected_demo.jpg","0","1","0","0","0.8","true","0","0","0.8","80_20_practice","0","0.2","","","","","","","","","",""
"1061","","bandit","30","121381","0.0-18.0-12.0","13910690","wem/bandit_single","A1JVO7FLPATHUB","pain","6","","75","K","1","","0","0","1","0","0.2","true","0","0","0.8","80_20_practice","0","0.2","","","","","","","","","",""
"29","","bandit","31","123166","0.0-18.0-13.0","13910690","wem/bandit_single","A1JVO7FLPATHUB","pain","6","","74","J","0","img/none_selected_demo.jpg","0","1","0","0","0.8","true","0","0","0.8","80_20_practice","0","0.2","","","","","","","","","",""
"153","","bandit","32","125074","0.0-18.0-14.0","13910690","wem/bandit_single","A1JVO7FLPATHUB","pain","6","","74","J","0","img/none_selected_demo.jpg","0","1","0","0","0.8","true","0","0","0.8","80_20_practice","0","0.2","","","","","","","","","",""
"217","","bandit","33","127045","0.0-18.0-15.0","13910690","wem/bandit_single","A1JVO7FLPATHUB","pain","6","","74","J","0","img/none_selected_demo.jpg","0","1","0","0","0.8","true","0","0","0.8","80_20_practice","0","0.2","","","","","","","","","",""
"217","","bandit","34","129017","0.0-18.0-16.0","13910690","wem/bandit_single","A1JVO7FLPATHUB","pain","6","","74","J","0","img/none_selected_demo.jpg","0","1","0","0","0.8","true","0","0","0.8","80_20_practice","0","0.2","","","","","","","","","",""
"467","","bandit","35","131239","0.0-18.0-17.0","13910690","wem/bandit_single","A1JVO7FLPATHUB","pain","6","","74","J","0","img/none_selected_demo.jpg","0","1","0","0","0.8","true","0","0","0.8","80_20_practice","0","0.2","","","","","","","","","",""
"153","","bandit","36","133148","0.0-18.0-18.0","13910690","wem/bandit_single","A1JVO7FLPATHUB","pain","6","","74","J","0","img/none_selected_demo.jpg","0","1","0","0","0.8","true","0","0","0.8","80_20_practice","0","0.2","","","","","","","","","",""
"372","","bandit","37","135275","0.0-18.0-19.0","13910690","wem/bandit_single","A1JVO7FLPATHUB","pain","6","","74","J","0","img/none_selected_demo.jpg","0","1","0","0","0.8","true","0","0","0.8","80_20_practice","0","0.2","","","","","","","","","",""
"3314","","text","38","138843","0.0-19.0","13910690","wem/bandit_single","A1JVO7FLPATHUB","pain","6","32","","","","","","","","","","","","","","","","","","","","","","","","","",""
"1258","","bandit","39","141605","0.0-20.0-0.0","13910690","wem/bandit_single","A1JVO7FLPATHUB","pain","6","","74","J","0","img/none_selected_demo.jpg","0","0","1","0","0","true","0","0","0","","0","0","","","","","","","","","",""
"4535","","text","40","146392","0.0-21.0","13910690","wem/bandit_single","A1JVO7FLPATHUB","pain","6","32","","","","","","","","","","","","","","","","","","","","","","","","","",""
"1814","","text","41","148207","0.0-22.0","13910690","wem/bandit_single","A1JVO7FLPATHUB","pain","6","32","","","","","","","","","","","","","","","","","","","","","","","","","",""
"2736","","text","42","150945","0.0-23.0","13910690","wem/bandit_single","A1JVO7FLPATHUB","pain","6","32","","","","","","","","","","","","","","","","","","","","","","","","","",""
"3691","","text","43","154636","0.0-24.0","13910690","wem/bandit_single","A1JVO7FLPATHUB","pain","6","32","","","","","","","","","","","","","","","","","","","","","","","","","",""
"10074","","text","44","164712","0.0-25.0","13910690","wem/bandit_single","A1JVO7FLPATHUB","pain","6","32","","","","","","","","","","","","","","","","","","","","","","","","","",""
"1688","","text","45","166402","0.0-26.0","13910690","wem/bandit_single","A1JVO7FLPATHUB","pain","6","32","","","","","","","","","","","","","","","","","","","","","","","","","",""
"2440","","text","46","168842","0.0-27.0","13910690","wem/bandit_single","A1JVO7FLPATHUB","pain","6","32","","","","","","","","","","","","","","","","","","","","","","","","","",""
"2596","","text","47","171440","0.0-28.0","13910690","wem/bandit_single","A1JVO7FLPATHUB","pain","6","32","","","","","","","","","","","","","","","","","","","","","","","","","",""
"3564","","text","48","175007","0.0-29.0","13910690","wem/bandit_single","A1JVO7FLPATHUB","pain","6","32","","","","","","","","","","","","","","","","","","","","","","","","","",""
"2690","","text","49","177698","0.0-30.0","13910690","wem/bandit_single","A1JVO7FLPATHUB","pain","6","32","","","","","","","","","","","","","","","","","","","","","","","","","",""
"2158","","text","50","179858","0.0-31.0","13910690","wem/bandit_single","A1JVO7FLPATHUB","pain","6","32","","","","","","","","","","","","","","","","","","","","","","","","","",""
"688","","bandit","51","182048","0.0-32.0-0.0","13910690","wem/bandit_single","A1JVO7FLPATHUB","pain","6","","72","H","0","img/none_selected.jpg","0","1","0","0","0.8","true","0","0","0.8","full_practice","0","0.2","0","0.6","0","0.2","","","","","",""
"68","","bandit","52","183872","0.0-32.0-1.0","13910690","wem/bandit_single","A1JVO7FLPATHUB","pain","6","","74","J","1","","0","0","1","0","0.2","true","0","0","0.8","full_practice","0","0.2","0","0.6","0","0.2","","","","","",""
"685","","bandit","53","186314","0.0-32.0-2.0","13910690","wem/bandit_single","A1JVO7FLPATHUB","pain","6","","75","K","2","","0","1","0","0","0.6","true","0","0","0.8","full_practice","0","0.2","0","0.6","0","0.2","","","","","",""
"58","","bandit","54","188129","0.0-32.0-3.0","13910690","wem/bandit_single","A1JVO7FLPATHUB","pain","6","","76","L","3","","0","0","1","0","0.2","true","0","0","0.8","full_practice","0","0.2","0","0.6","0","0.2","","","","","",""
"310","","bandit","55","190195","0.0-32.0-4.0","13910690","wem/bandit_single","A1JVO7FLPATHUB","pain","6","","72","H","0","img/none_selected.jpg","0","1","0","0","0.8","true","0","0","0.8","full_practice","0","0.2","0","0.6","0","0.2","","","","","",""
"248","","bandit","56","192198","0.0-32.0-5.0","13910690","wem/bandit_single","A1JVO7FLPATHUB","pain","6","","72","H","0","img/none_selected.jpg","0","0","1","0","0.8","true","0","0","0.8","full_practice","0","0.2","0","0.6","0","0.2","","","","","",""
"122","","bandit","57","194076","0.0-32.0-6.0","13910690","wem/bandit_single","A1JVO7FLPATHUB","pain","6","","72","H","0","img/none_selected.jpg","0","1","0","0","0.8","true","0","0","0.8","full_practice","0","0.2","0","0.6","0","0.2","","","","","",""
"998","","bandit","58","196831","0.0-32.0-7.0","13910690","wem/bandit_single","A1JVO7FLPATHUB","pain","6","","72","H","0","img/none_selected.jpg","0","1","0","0","0.8","true","0","0","0.8","full_practice","0","0.2","0","0.6","0","0.2","","","","","",""
"466","","bandit","59","199053","0.0-32.0-8.0","13910690","wem/bandit_single","A1JVO7FLPATHUB","pain","6","","72","H","0","img/none_selected.jpg","0","1","0","0","0.8","true","0","0","0.8","full_practice","0","0.2","0","0.6","0","0.2","","","","","",""
"128","","bandit","60","200939","0.0-32.0-9.0","13910690","wem/bandit_single","A1JVO7FLPATHUB","pain","6","","72","H","0","img/none_selected.jpg","0","0","1","0","0.8","true","0","0","0.8","full_practice","0","0.2","0","0.6","0","0.2","","","","","",""
"91","","bandit","61","202786","0.0-32.0-10.0","13910690","wem/bandit_single","A1JVO7FLPATHUB","pain","6","","72","H","0","img/none_selected.jpg","0","1","0","0","0.8","true","0","0","0.8","full_practice","0","0.2","0","0.6","0","0.2","","","","","",""
"185","","bandit","62","204725","0.0-32.0-11.0","13910690","wem/bandit_single","A1JVO7FLPATHUB","pain","6","","72","H","0","img/none_selected.jpg","0","1","0","0","0.8","true","0","0","0.8","full_practice","0","0.2","0","0.6","0","0.2","","","","","",""
"216","","bandit","63","206697","0.0-32.0-12.0","13910690","wem/bandit_single","A1JVO7FLPATHUB","pain","6","","72","H","0","img/none_selected.jpg","0","1","0","0","0.8","true","0","0","0.8","full_practice","0","0.2","0","0.6","0","0.2","","","","","",""
"27","","bandit","64","208481","0.0-32.0-13.0","13910690","wem/bandit_single","A1JVO7FLPATHUB","pain","6","","72","H","0","img/none_selected.jpg","0","1","0","0","0.8","true","0","0","0.8","full_practice","0","0.2","0","0.6","0","0.2","","","","","",""
"91","","bandit","65","210328","0.0-32.0-14.0","13910690","wem/bandit_single","A1JVO7FLPATHUB","pain","6","","72","H","0","img/none_selected.jpg","0","1","0","0","0.8","true","0","0","0.8","full_practice","0","0.2","0","0.6","0","0.2","","","","","",""
"119","","bandit","66","212204","0.0-32.0-15.0","13910690","wem/bandit_single","A1JVO7FLPATHUB","pain","6","","72","H","0","img/none_selected.jpg","0","1","0","0","0.8","true","0","0","0.8","full_practice","0","0.2","0","0.6","0","0.2","","","","","",""
"310","","bandit","67","214271","0.0-32.0-16.0","13910690","wem/bandit_single","A1JVO7FLPATHUB","pain","6","","72","H","0","img/none_selected.jpg","0","1","0","0","0.8","true","0","0","0.8","full_practice","0","0.2","0","0.6","0","0.2","","","","","",""
"130","","bandit","68","216156","0.0-32.0-17.0","13910690","wem/bandit_single","A1JVO7FLPATHUB","pain","6","","72","H","0","img/none_selected.jpg","0","0","1","0","0.8","true","0","0","0.8","full_practice","0","0.2","0","0.6","0","0.2","","","","","",""
"28","","bandit","69","217939","0.0-32.0-18.0","13910690","wem/bandit_single","A1JVO7FLPATHUB","pain","6","","72","H","0","img/none_selected.jpg","0","1","0","0","0.8","true","0","0","0.8","full_practice","0","0.2","0","0.6","0","0.2","","","","","",""
"122","","bandit","70","219818","0.0-32.0-19.0","13910690","wem/bandit_single","A1JVO7FLPATHUB","pain","6","","72","H","0","img/none_selected.jpg","0","1","0","0","0.8","true","0","0","0.8","full_practice","0","0.2","0","0.6","0","0.2","","","","","",""
"4157","","text","71","224230","0.0-33.0","13910690","wem/bandit_single","A1JVO7FLPATHUB","pain","6","32","","","","","","","","","","","","","","","","","","","","","","","","","",""
"84881","","text","72","310115","0.0-34.0","13910690","wem/bandit_single","A1JVO7FLPATHUB","pain","6","32","","","","","","","","","","","","","","","","","","","","","","","","","",""
"3909","","text","73","314026","0.0-35.0","13910690","wem/bandit_single","A1JVO7FLPATHUB","pain","6","32","","","","","","","","","","","","","","","","","","","","","","","","","",""
"4317","","text","74","318344","0.0-36.0","13910690","wem/bandit_single","A1JVO7FLPATHUB","pain","6","32","","","","","","","","","","","","","","","","","","","","","","","","","",""
"1796","","text","75","320142","0.0-37.0","13910690","wem/bandit_single","A1JVO7FLPATHUB","pain","6","32","","","","","","","","","","","","","","","","","","","","","","","","","",""
"7321","","bandit","76","328969","0.0-38.0-0.0","13910690","wem/bandit_single","A1JVO7FLPATHUB","pain","6","","74","J","1","","0","1","0","","0.1142009487","false","1","","0.3785571591","main_expt","","0.1142009487","","0.1623639982","","0.1940838181","","","","","",""
"27","","bandit","77","330753","0.0-39.0-0.0","13910690","wem/bandit_single","A1JVO7FLPATHUB","pain","6","","74","J","1","","0","0","1","","0.09165924831","false","2","","0.3894156921","main_expt","","0.09165924831","","0.1864124343","","0.2410489397","","","","","",""
"1686","","bandit","78","334195","0.0-40.0-0.0","13910690","wem/bandit_single","A1JVO7FLPATHUB","pain","6","","74","J","1","","0","0","1","","0.1174954382","false","3","","0.4125386255","main_expt","","0.1174954382","","0.1494323563","","0.2645422736","","","","","",""
"246","","bandit","79","336198","0.0-41.0-0.0","13910690","wem/bandit_single","A1JVO7FLPATHUB","pain","6","","74","J","1","","0","0","1","","0.1426329369","false","4","","0.3990363537","main_expt","","0.1426329369","","0.1266436655","","0.1984909652","","","","","",""
"37","","bandit","80","337993","0.0-42.0-0.0","13910690","wem/bandit_single","A1JVO7FLPATHUB","pain","6","","75","K","2","","0","0","1","","0.1476492511","false","5","","0.454435597","main_expt","","0.1503595054","","0.1476492511","","0.1239860826","","","","","",""
"27","","bandit","81","339777","0.0-43.0-0.0","13910690","wem/bandit_single","A1JVO7FLPATHUB","pain","6","","72","H","0","img/none_selected.jpg","0","1","0","","0.4583077461","false","6","","0.4583077461","main_expt","","0.1646450236","","0.1525625276","","0.06805906468","","","","","",""
"35","","bandit","82","341567","0.0-44.0-0.0","13910690","wem/bandit_single","A1JVO7FLPATHUB","pain","6","","72","H","0","img/none_selected.jpg","0","0","1","","0.4617786505","false","7","","0.4617786505","main_expt","","0.2031930874","","0.1856713893","","0.05890971721","","","","","",""
"811","","bandit","83","344135","0.0-45.0-0.0","13910690","wem/bandit_single","A1JVO7FLPATHUB","pain","6","","72","H","0","img/none_selected.jpg","0","1","0","","0.475168559","false","8","","0.475168559","main_expt","","0.181996894","","0.2108076934","","0.0832196585","","","","","",""
"716","","bandit","84","346605","0.0-46.0-0.0","13910690","wem/bandit_single","A1JVO7FLPATHUB","pain","6","","72","H","0","img/none_selected.jpg","0","1","0","","0.458325554","false","9","","0.458325554","main_expt","","0.1673845292","","0.1956497028","","0.1325638406","","","","","",""
"372","","bandit","85","348733","0.0-47.0-0.0","13910690","wem/bandit_single","A1JVO7FLPATHUB","pain","6","","72","H","0","img/none_selected.jpg","0","0","1","","0.4316924572","false","10","","0.4316924572","main_expt","","0.2328473308","","0.1582923175","","0.1196898321","","","","","",""
"1007","","bandit","86","351496","0.0-48.0-0.0","13910690","wem/bandit_single","A1JVO7FLPATHUB","pain","6","","72","H","0","img/none_selected.jpg","0","1","0","","0.3756511011","false","11","","0.3756511011","main_expt","","0.20589494","","0.167734997","","0.1103103944","","","","","",""
"498","","bandit","87","353750","0.0-49.0-0.0","13910690","wem/bandit_single","A1JVO7FLPATHUB","pain","6","","72","H","0","img/none_selected.jpg","0","1","0","","0.3549088727","false","12","","0.3549088727","main_expt","","0.2246944015","","0.2150601968","","0.06819125589","","","","","",""
"307","","bandit","88","355815","0.0-50.0-0.0","13910690","wem/bandit_single","A1JVO7FLPATHUB","pain","6","","72","H","0","img/none_selected.jpg","0","0","1","","0.3455803359","false","13","","0.3455803359","main_expt","","0.2613447163","","0.252216208","","0.07076675629","","","","","",""
"1310","","bandit","89","358882","0.0-51.0-0.0","13910690","wem/bandit_single","A1JVO7FLPATHUB","pain","6","","72","H","0","img/none_selected.jpg","0","0","1","","0.3809937316","false","14","","0.3809937316","main_expt","","0.212655478","","0.2184022087","","0.09241451512","","","","","",""
"90","","bandit","90","360728","0.0-52.0-0.0","13910690","wem/bandit_single","A1JVO7FLPATHUB","pain","6","","74","J","1","","0","0","1","","0.1679070286","false","15","","0.3479508526","main_expt","","0.1679070286","","0.210005203","","0.07205700739","","","","","",""
"259","","bandit","91","362744","0.0-53.0-0.0","13910690","wem/bandit_single","A1JVO7FLPATHUB","pain","6","","76","L","3","","0","0","1","","0.04760190598","false","16","","0.3287514515","main_expt","","0.1774383452","","0.2402495983","","0.04760190598","","","","","",""
"58","","bandit","92","364559","0.0-54.0-0.0","13910690","wem/bandit_single","A1JVO7FLPATHUB","pain","6","","75","K","2","","0","0","1","","0.2766196603","false","17","","0.4008698656","main_expt","","0.1562672395","","0.2766196603","","0.03958098904","","","","","",""
"27","","bandit","93","366343","0.0-55.0-0.0","13910690","wem/bandit_single","A1JVO7FLPATHUB","pain","6","","72","H","0","img/none_selected.jpg","0","0","1","","0.3845126264","false","18","","0.3845126264","main_expt","","0.1407597156","","0.3193638145","","0.03128671198","","","","","",""
"28","","bandit","94","368127","0.0-56.0-0.0","13910690","wem/bandit_single","A1JVO7FLPATHUB","pain","6","","74","J","1","","0","0","1","","0.1310890834","false","19","","0.3979941068","main_expt","","0.1310890834","","0.2953318626","","0.04453616628","","","","","",""
"310","","bandit","95","370194","0.0-57.0-0.0","13910690","wem/bandit_single","A1JVO7FLPATHUB","pain","6","","75","K","2","","0","1","0","","0.3007143328","false","20","","0.3920029867","main_expt","","0.1317163977","","0.3007143328","","0.04596917346","","","","","",""
"28","","bandit","96","371976","0.0-58.0-0.0","13910690","wem/bandit_single","A1JVO7FLPATHUB","pain","6","","75","K","2","","0","0","1","","0.3105995928","false","21","","0.4057752261","main_expt","","0.1752537558","","0.3105995928","","0.04297504417","","","","","",""
"376","","bandit","97","374106","0.0-59.0-0.0","13910690","wem/bandit_single","A1JVO7FLPATHUB","pain","6","","75","K","2","","0","0","1","","0.3742057862","false","22","","0.4072420822","main_expt","","0.2064983175","","0.3742057862","","0.04739698515","","","","","",""
"91","","bandit","98","375953","0.0-60.0-0.0","13910690","wem/bandit_single","A1JVO7FLPATHUB","pain","6","","76","L","3","","0","0","1","","0.08003173613","false","23","","0.3798298113","main_expt","","0.216691321","","0.3439758112","","0.08003173613","","","","","",""
"624","","bandit","99","378332","0.0-61.0-0.0","13910690","wem/bandit_single","A1JVO7FLPATHUB","pain","6","","72","H","0","img/none_selected.jpg","0","1","0","","0.3329856024","false","24","","0.3329856024","main_expt","","0.2342773894","","0.3549138733","","0.09868307827","","","","","",""
"404","","bandit","100","380491","0.0-62.0-0.0","13910690","wem/bandit_single","A1JVO7FLPATHUB","pain","6","","72","H","0","img/none_selected.jpg","0","0","1","","0.3337381726","false","25","","0.3337381726","main_expt","","0.2378870173","","0.3811330683","","0.07950464875","","","","","",""
"279","","bandit","101","382528","0.0-63.0-0.0","13910690","wem/bandit_single","A1JVO7FLPATHUB","pain","6","","74","J","1","","0","0","1","","0.2555438901","false","26","","0.3650510818","main_expt","","0.2555438901","","0.3131907418","","0.09697268327","","","","","",""
"90","","bandit","102","384374","0.0-64.0-0.0","13910690","wem/bandit_single","A1JVO7FLPATHUB","pain","6","","75","K","2","","0","1","0","","0.3210571327","false","27","","0.3930286133","main_expt","","0.2487754609","","0.3210571327","","0.09831328215","","","","","",""
"559","","bandit","103","386691","0.0-65.0-0.0","13910690","wem/bandit_single","A1JVO7FLPATHUB","pain","6","","75","K","2","","0","0","1","","0.3350138966","false","28","","0.3849328395","main_expt","","0.2023297646","","0.3350138966","","0.08798585883","","","","","",""
"183","","bandit","104","388629","0.0-66.0-0.0","13910690","wem/bandit_single","A1JVO7FLPATHUB","pain","6","","75","K","2","","0","1","0","","0.3491704597","false","29","","0.3635333449","main_expt","","0.1824385616","","0.3491704597","","0.1001400419","","","","","",""
"59","","bandit","105","390447","0.0-67.0-0.0","13910690","wem/bandit_single","A1JVO7FLPATHUB","pain","6","","75","K","2","","0","0","1","","0.3515390533","false","30","","0.3870800473","main_expt","","0.2108935763","","0.3515390533","","0.100360092","","","","","",""
"58","","bandit","106","392260","0.0-68.0-0.0","13910690","wem/bandit_single","A1JVO7FLPATHUB","pain","6","","75","K","2","","0","0","1","","0.3116189274","false","31","","0.407818568","main_expt","","0.2212072473","","0.3116189274","","0.1235489826","","","","","",""
"29","","bandit","107","394044","0.0-69.0-0.0","13910690","wem/bandit_single","A1JVO7FLPATHUB","pain","6","","75","K","2","","0","1","0","","0.2923613921","false","32","","0.4365503818","main_expt","","0.2349080289","","0.2923613921","","0.0999088058","","","","","",""
"91","","bandit","108","395890","0.0-70.0-0.0","13910690","wem/bandit_single","A1JVO7FLPATHUB","pain","6","","75","K","2","","0","1","0","","0.2833872006","false","33","","0.438397095","main_expt","","0.2233211346","","0.2833872006","","0.1229353218","","","","","",""
"779","","bandit","109","398426","0.0-71.0-0.0","13910690","wem/bandit_single","A1JVO7FLPATHUB","pain","6","","75","K","2","","0","0","1","","0.251012165","false","34","","0.4225996483","main_expt","","0.2328620384","","0.251012165","","0.1174339591","","","","","",""
"383","","bandit","110","400564","0.0-72.0-0.0","13910690","wem/bandit_single","A1JVO7FLPATHUB","pain","6","","75","K","2","","0","1","0","","0.2150204629","false","35","","0.3719427837","main_expt","","0.2442853791","","0.2150204629","","0.08922948311","","","","","",""
"89","","bandit","111","402411","0.0-73.0-0.0","13910690","wem/bandit_single","A1JVO7FLPATHUB","pain","6","","75","K","2","","0","0","1","","0.2003821391","false","36","","0.3643608465","main_expt","","0.2536962779","","0.2003821391","","0.1065429935","","","","","",""
"58","","bandit","112","404226","0.0-74.0-0.0","13910690","wem/bandit_single","A1JVO7FLPATHUB","pain","6","","75","K","2","","0","0","1","","0.1584744983","false","37","","0.3951734682","main_expt","","0.1968410568","","0.1584744983","","0.119331244","","","","","",""
"999","","bandit","113","406980","0.0-75.0-0.0","13910690","wem/bandit_single","A1JVO7FLPATHUB","pain","6","","76","L","3","","0","0","1","","0.1140529394","false","38","","0.4106313244","main_expt","","0.1903576104","","0.1107345946","","0.1140529394","","","","","",""
"60","","bandit","114","408796","0.0-76.0-0.0","13910690","wem/bandit_single","A1JVO7FLPATHUB","pain","6","","72","H","0","img/none_selected.jpg","0","1","0","","0.385877281","false","39","","0.385877281","main_expt","","0.2094560733","","0.1922112034","","0.1377706652","","","","","",""
"287","","bandit","115","410838","0.0-77.0-0.0","13910690","wem/bandit_single","A1JVO7FLPATHUB","pain","6","","72","H","0","img/none_selected.jpg","0","1","0","","0.3814638094","false","40","","0.3814638094","main_expt","","0.2157952434","","0.202991566","","0.1686011578","","","","","",""
"308","","bandit","116","412905","0.0-78.0-0.0","13910690","wem/bandit_single","A1JVO7FLPATHUB","pain","6","","72","H","0","img/none_selected.jpg","0","1","0","","0.3569976603","false","41","","0.3569976603","main_expt","","0.1982376225","","0.257249123","","0.1640814413","","","","","",""
"277","","bandit","117","414938","0.0-79.0-0.0","13910690","wem/bandit_single","A1JVO7FLPATHUB","pain","6","","72","H","0","img/none_selected.jpg","0","1","0","","0.3254656301","false","42","","0.3254656301","main_expt","","0.1815133425","","0.3139605103","","0.1444461896","","","","","",""
"591","","bandit","118","417286","0.0-80.0-0.0","13910690","wem/bandit_single","A1JVO7FLPATHUB","pain","6","","72","H","0","img/none_selected.jpg","0","1","0","","0.3061667188","false","43","","0.3061667188","main_expt","","0.1804658283","","0.2859416922","","0.1466097136","","","","","",""
"184","","bandit","119","419225","0.0-81.0-0.0","13910690","wem/bandit_single","A1JVO7FLPATHUB","pain","6","","72","H","0","img/none_selected.jpg","0","0","1","","0.3247162798","false","44","","0.3247162798","main_expt","","0.1453808853","","0.2344477797","","0.1701376127","","","","","",""
"318","","bandit","120","421300","0.0-82.0-0.0","13910690","wem/bandit_single","A1JVO7FLPATHUB","pain","6","","72","H","0","img/none_selected.jpg","0","1","0","","0.3464274235","false","45","","0.3464274235","main_expt","","0.1975985391","","0.25278305","","0.2382164817","","","","","",""
"128","","bandit","121","423185","0.0-83.0-0.0","13910690","wem/bandit_single","A1JVO7FLPATHUB","pain","6","","72","H","0","img/none_selected.jpg","0","1","0","","0.2853596265","false","46","","0.2853596265","main_expt","","0.2099331931","","0.2447001663","","0.2817064876","","","","","",""
"716","","bandit","122","425657","0.0-84.0-0.0","13910690","wem/bandit_single","A1JVO7FLPATHUB","pain","6","","72","H","0","img/none_selected.jpg","0","0","1","","0.2781892211","false","47","","0.2781892211","main_expt","","0.2373708448","","0.2439886488","","0.3449614965","","","","","",""
"153","","bandit","123","427566","0.0-85.0-0.0","13910690","wem/bandit_single","A1JVO7FLPATHUB","pain","6","","72","H","0","img/none_selected.jpg","0","0","1","","0.2802769371","false","48","","0.2802769371","main_expt","","0.2929879582","","0.3453423138","","0.2846403666","","","","","",""
"373","","bandit","124","429695","0.0-86.0-0.0","13910690","wem/bandit_single","A1JVO7FLPATHUB","pain","6","","74","J","1","","0","0","1","","0.2643709298","false","49","","0.3162769287","main_expt","","0.2643709298","","0.3208634608","","0.3292227521","","","","","",""
"130","","bandit","125","431583","0.0-87.0-0.0","13910690","wem/bandit_single","A1JVO7FLPATHUB","pain","6","","74","J","1","","0","0","1","","0.2666646559","false","50","","0.2524095143","main_expt","","0.2666646559","","0.2600740437","","0.270904054","","","","","",""
"122","","bandit","126","433461","0.0-88.0-0.0","13910690","wem/bandit_single","A1JVO7FLPATHUB","pain","6","","76","L","3","","0","0","1","","0.2503066232","false","51","","0.2630113652","main_expt","","0.2550538978","","0.2451527442","","0.2503066232","","","","","",""
"217","","bandit","127","435432","0.0-89.0-0.0","13910690","wem/bandit_single","A1JVO7FLPATHUB","pain","6","","75","K","2","","0","1","0","","0.1882651979","false","52","","0.2707742251","main_expt","","0.3235330097","","0.1882651979","","0.2405173112","","","","","",""
"154","","bandit","128","437343","0.0-90.0-0.0","13910690","wem/bandit_single","A1JVO7FLPATHUB","pain","6","","75","K","2","","0","0","1","","0.1930778153","false","53","","0.2150274285","main_expt","","0.347433539","","0.1930778153","","0.2966352861","","","","","",""
"215","","bandit","129","439315","0.0-91.0-0.0","13910690","wem/bandit_single","A1JVO7FLPATHUB","pain","6","","75","K","2","","0","0","1","","0.2216955806","false","54","","0.2326572497","main_expt","","0.3368202787","","0.2216955806","","0.2887198369","","","","","",""
"120","","bandit","130","441192","0.0-92.0-0.0","13910690","wem/bandit_single","A1JVO7FLPATHUB","pain","6","","75","K","2","","0","0","1","","0.2422165651","false","55","","0.2134399586","main_expt","","0.3503124627","","0.2422165651","","0.2801160178","","","","","",""
"29","","bandit","131","442976","0.0-93.0-0.0","13910690","wem/bandit_single","A1JVO7FLPATHUB","pain","6","","74","J","1","","0","1","0","","0.368841946","false","56","","0.2394891912","main_expt","","0.368841946","","0.228979269","","0.3022415889","","","","","",""
"90","","bandit","132","444822","0.0-94.0-0.0","13910690","wem/bandit_single","A1JVO7FLPATHUB","pain","6","","74","J","1","","0","0","1","","0.3883837061","false","57","","0.2942469327","main_expt","","0.3883837061","","0.243325051","","0.3300995428","","","","","",""
"28","","bandit","133","446606","0.0-95.0-0.0","13910690","wem/bandit_single","A1JVO7FLPATHUB","pain","6","","74","J","1","","0","0","1","","0.4116863428","false","58","","0.369295693","main_expt","","0.4116863428","","0.2326991071","","0.3393984951","","","","","",""
"498","","bandit","134","448861","0.0-96.0-0.0","13910690","wem/bandit_single","A1JVO7FLPATHUB","pain","6","","76","L","3","","0","0","1","","0.3592245678","false","59","","0.3663837161","main_expt","","0.3980375199","","0.2480349675","","0.3592245678","","","","","",""
"121","","bandit","135","450738","0.0-97.0-0.0","13910690","wem/bandit_single","A1JVO7FLPATHUB","pain","6","","76","L","3","","0","0","1","","0.3431938453","false","60","","0.3578669063","main_expt","","0.3849919156","","0.2591134247","","0.3431938453","","","","","",""
"153","","bandit","136","452648","0.0-98.0-0.0","13910690","wem/bandit_single","A1JVO7FLPATHUB","pain","6","","76","L","3","","0","0","1","","0.3622980041","false","61","","0.3901807011","main_expt","","0.3822359719","","0.2828027123","","0.3622980041","","","","","",""
"122","","bandit","137","454526","0.0-99.0-0.0","13910690","wem/bandit_single","A1JVO7FLPATHUB","pain","6","","72","H","0","img/none_selected.jpg","0","0","1","","0.4199484271","false","62","","0.4199484271","main_expt","","0.3356955782","","0.2645717152","","0.3898917795","","","","","",""
"249","","bandit","138","456531","0.0-100.0-0.0","13910690","wem/bandit_single","A1JVO7FLPATHUB","pain","6","","74","J","1","","0","0","1","","0.2961333539","false","63","","0.431710707","main_expt","","0.2961333539","","0.3164731366","","0.3730814422","","","","","",""
"217","","bandit","139","458504","0.0-101.0-0.0","13910690","wem/bandit_single","A1JVO7FLPATHUB","pain","6","","75","K","2","","0","0","1","","0.3549458842","false","64","","0.4302834116","main_expt","","0.3332154777","","0.3549458842","","0.359514794","","","","","",""
"871","","bandit","140","461134","0.0-102.0-0.0","13910690","wem/bandit_single","A1JVO7FLPATHUB","pain","6","","72","H","0","img/none_selected.jpg","0","1","0","","0.3985691748","false","65","","0.3985691748","main_expt","","0.35785358","","0.288515421","","0.3114607296","","","","","",""
"308","","bandit","141","463198","0.0-103.0-0.0","13910690","wem/bandit_single","A1JVO7FLPATHUB","pain","6","","72","H","0","img/none_selected.jpg","0","0","1","","0.4041176093","false","66","","0.4041176093","main_expt","","0.406057841","","0.3011993237","","0.2942291023","","","","","",""
"6003","","bandit","142","470958","0.0-104.0-0.0","13910690","wem/bandit_single","A1JVO7FLPATHUB","pain","6","","72","H","0","img/none_selected.jpg","0","1","0","","0.4007812862","false","67","","0.4007812862","main_expt","","0.4196038874","","0.345072876","","0.3320533568","","","","","",""
"591","","bandit","143","473304","0.0-105.0-0.0","13910690","wem/bandit_single","A1JVO7FLPATHUB","pain","6","","72","H","0","img/none_selected.jpg","0","1","0","","0.4294162969","false","68","","0.4294162969","main_expt","","0.3890604874","","0.3196529892","","0.3600975808","","","","","",""
"28","","bandit","144","475089","0.0-106.0-0.0","13910690","wem/bandit_single","A1JVO7FLPATHUB","pain","6","","72","H","0","img/none_selected.jpg","0","0","1","","0.3767619451","false","69","","0.3767619451","main_expt","","0.4084138829","","0.3649702463","","0.2872110667","","","","","",""
"405","","bandit","145","477249","0.0-107.0-0.0","13910690","wem/bandit_single","A1JVO7FLPATHUB","pain","6","","72","H","0","img/none_selected.jpg","0","0","1","","0.3777248691","false","70","","0.3777248691","main_expt","","0.3468887804","","0.356932825","","0.295141158","","","","","",""
"372","","bandit","146","479378","0.0-108.0-0.0","13910690","wem/bandit_single","A1JVO7FLPATHUB","pain","6","","72","H","0","img/none_selected.jpg","0","0","1","","0.3795242786","false","71","","0.3795242786","main_expt","","0.341524862","","0.3835678776","","0.3206647592","","","","","",""
"120","","bandit","147","481255","0.0-109.0-0.0","13910690","wem/bandit_single","A1JVO7FLPATHUB","pain","6","","74","J","1","","0","1","0","","0.3749246652","false","72","","0.3665841139","main_expt","","0.3749246652","","0.4212385026","","0.3264000429","","","","","",""
"2093","","bandit","148","485106","0.0-110.0-0.0","13910690","wem/bandit_single","A1JVO7FLPATHUB","pain","6","","74","J","1","","0","0","1","","0.3871824506","false","73","","0.3651794524","main_expt","","0.3871824506","","0.4261424303","","0.333972891","","","","","",""
"777","","bandit","149","487640","0.0-111.0-0.0","13910690","wem/bandit_single","A1JVO7FLPATHUB","pain","6","","74","J","1","","0","1","0","","0.3721906724","false","74","","0.3550305672","main_expt","","0.3721906724","","0.3977974162","","0.3616968722","","","","","",""
"810","","bandit","150","490206","0.0-112.0-0.0","13910690","wem/bandit_single","A1JVO7FLPATHUB","pain","6","","74","J","1","","0","0","1","","0.3111946895","false","75","","0.2927321298","main_expt","","0.3111946895","","0.4267201321","","0.3975057441","","","","","",""
"339","","bandit","151","492302","0.0-113.0-0.0","13910690","wem/bandit_single","A1JVO7FLPATHUB","pain","6","","74","J","1","","0","0","1","","0.3336428477","false","76","","0.2842047713","main_expt","","0.3336428477","","0.4263250047","","0.3807363423","","","","","",""
"372","","bandit","152","494431","0.0-114.0-0.0","13910690","wem/bandit_single","A1JVO7FLPATHUB","pain","6","","74","J","1","","0","0","1","","0.2972108807","false","77","","0.291961298","main_expt","","0.2972108807","","0.4081139898","","0.394346207","","","","","",""
"216","","bandit","153","496404","0.0-115.0-0.0","13910690","wem/bandit_single","A1JVO7FLPATHUB","pain","6","","75","K","2","","0","0","1","","0.4081745619","false","78","","0.2772504781","main_expt","","0.3500338334","","0.4081745619","","0.4130135997","","","","","",""
"152","","bandit","154","498314","0.0-116.0-0.0","13910690","wem/bandit_single","A1JVO7FLPATHUB","pain","6","","76","L","3","","0","0","1","","0.388257836","false","79","","0.2910266255","main_expt","","0.3382579744","","0.4210543479","","0.388257836","","","","","",""
"308","","bandit","155","500381","0.0-117.0-0.0","13910690","wem/bandit_single","A1JVO7FLPATHUB","pain","6","","72","H","0","img/none_selected.jpg","0","0","1","","0.3236474027","false","80","","0.3236474027","main_expt","","0.2848378437","","0.4173400146","","0.402189785","","","","","",""
"276","","bandit","156","502413","0.0-118.0-0.0","13910690","wem/bandit_single","A1JVO7FLPATHUB","pain","6","","74","J","1","","0","0","1","","0.2824957966","false","81","","0.3171491255","main_expt","","0.2824957966","","0.3876294662","","0.4188164015","","","","","",""
"98","","bandit","157","504269","0.0-119.0-0.0","13910690","wem/bandit_single","A1JVO7FLPATHUB","pain","6","","74","J","1","","0","0","1","","0.2921189703","false","82","","0.3253049084","main_expt","","0.2921189703","","0.3960397656","","0.3923487362","","","","","",""
"215","","bandit","158","506241","0.0-120.0-0.0","13910690","wem/bandit_single","A1JVO7FLPATHUB","pain","6","","75","K","2","","0","0","1","","0.4048972575","false","83","","0.2650825447","main_expt","","0.346808059","","0.4048972575","","0.3765831671","","","","","",""
"277","","bandit","159","508276","0.0-121.0-0.0","13910690","wem/bandit_single","A1JVO7FLPATHUB","pain","6","","75","K","2","","0","1","0","","0.4261464595","false","84","","0.2860936523","main_expt","","0.3142369957","","0.4261464595","","0.3744655151","","","","","",""
"372","","bandit","160","510405","0.0-122.0-0.0","13910690","wem/bandit_single","A1JVO7FLPATHUB","pain","6","","75","K","2","","0","0","1","","0.4252889048","false","85","","0.2965161573","main_expt","","0.3336664699","","0.4252889048","","0.4097897279","","","","","",""
"130","","bandit","161","512294","0.0-123.0-0.0","13910690","wem/bandit_single","A1JVO7FLPATHUB","pain","6","","72","H","0","img/none_selected.jpg","0","0","1","","0.2718920201","false","86","","0.2718920201","main_expt","","0.3487181938","","0.4234238012","","0.4365994201","","","","","",""
"29","","bandit","162","514081","0.0-124.0-0.0","13910690","wem/bandit_single","A1JVO7FLPATHUB","pain","6","","74","J","1","","0","0","1","","0.3595256023","false","87","","0.2663647104","main_expt","","0.3595256023","","0.4493325849","","0.4485753971","","","","","",""
"636","","bandit","163","516474","0.0-125.0-0.0","13910690","wem/bandit_single","A1JVO7FLPATHUB","pain","6","","75","K","2","","0","0","1","","0.4618336953","false","88","","0.2505207396","main_expt","","0.3633435887","","0.4618336953","","0.4682155013","","","","","",""
"995","","bandit","164","519227","0.0-126.0-0.0","13910690","wem/bandit_single","A1JVO7FLPATHUB","pain","6","","72","H","0","img/none_selected.jpg","0","1","0","","0.2380326514","false","89","","0.2380326514","main_expt","","0.3301577903","","0.470357169","","0.455546077","","","","","",""
"464","","bandit","165","521449","0.0-127.0-0.0","13910690","wem/bandit_single","A1JVO7FLPATHUB","pain","6","","72","H","0","img/none_selected.jpg","0","0","1","","0.2825572521","false","90","","0.2825572521","main_expt","","0.2983975746","","0.4756012524","","0.4648286352","","","","","",""
"473","","bandit","166","523679","0.0-128.0-0.0","13910690","wem/bandit_single","A1JVO7FLPATHUB","pain","6","","72","H","0","img/none_selected.jpg","0","0","1","","0.3629334232","false","91","","0.3629334232","main_expt","","0.2708507867","","0.4661355378","","0.4597569826","","","","","",""
"120","","bandit","167","525557","0.0-129.0-0.0","13910690","wem/bandit_single","A1JVO7FLPATHUB","pain","6","","74","J","1","","0","0","1","","0.2025174094","false","92","","0.4318733099","main_expt","","0.2025174094","","0.4640816948","","0.4636055165","","","","","",""
"2813","","bandit","168","530126","0.0-130.0-0.0","13910690","wem/bandit_single","A1JVO7FLPATHUB","pain","6","","72","H","0","img/none_selected.jpg","0","1","0","","0.4354989634","false","93","","0.4354989634","main_expt","","0.1991535532","","0.4745032584","","0.4344757896","","","","","",""
"412","","bandit","169","532297","0.0-131.0-0.0","13910690","wem/bandit_single","A1JVO7FLPATHUB","pain","6","","72","H","0","img/none_selected.jpg","0","0","1","","0.4569950804","false","94","","0.4569950804","main_expt","","0.2072674268","","0.4713826624","","0.4540573516","","","","","",""
"465","","bandit","170","534519","0.0-132.0-0.0","13910690","wem/bandit_single","A1JVO7FLPATHUB","pain","6","","74","J","1","","0","0","1","","0.2139910976","false","95","","0.4626037768","main_expt","","0.2139910976","","0.4518091014","","0.467393544","","","","","",""
"527","","bandit","171","536804","0.0-133.0-0.0","13910690","wem/bandit_single","A1JVO7FLPATHUB","pain","6","","75","K","2","","0","0","1","","0.4610288074","false","96","","0.4632162831","main_expt","","0.1714021876","","0.4610288074","","0.4523779492","","","","","",""
"60","","bandit","172","538620","0.0-134.0-0.0","13910690","wem/bandit_single","A1JVO7FLPATHUB","pain","6","","76","L","3","","0","1","0","","0.4734298584","false","97","","0.4574348148","main_expt","","0.1776734449","","0.4610411697","","0.4734298584","","","","","",""
"403","","bandit","173","540780","0.0-135.0-0.0","13910690","wem/bandit_single","A1JVO7FLPATHUB","pain","6","","76","L","3","","0","0","1","","0.4822123269","false","98","","0.4551488225","main_expt","","0.2143852757","","0.4658458747","","0.4822123269","","","","","",""
"402","","bandit","174","542940","0.0-136.0-0.0","13910690","wem/bandit_single","A1JVO7FLPATHUB","pain","6","","76","L","3","","0","0","1","","0.4829706494","false","99","","0.4604873832","main_expt","","0.2341872784","","0.4372748216","","0.4829706494","","","","","",""
"90","","bandit","175","544786","0.0-137.0-0.0","13910690","wem/bandit_single","A1JVO7FLPATHUB","pain","6","","76","L","3","","0","0","1","","0.4918551361","false","100","","0.4364445071","main_expt","","0.2835639283","","0.4237986198","","0.4918551361","","","","","",""
"527","","bandit","176","547070","0.0-138.0-0.0","13910690","wem/bandit_single","A1JVO7FLPATHUB","pain","6","","76","L","3","","0","1","0","","0.4891782125","false","101","","0.4152010141","main_expt","","0.3342764243","","0.4239408107","","0.4891782125","","","","","",""
"967","","bandit","177","549793","0.0-139.0-0.0","13910690","wem/bandit_single","A1JVO7FLPATHUB","pain","6","","76","L","3","","0","0","1","","0.484620563","false","102","","0.4463558977","main_expt","","0.3693598309","","0.4482877494","","0.484620563","","","","","",""
"0","","bandit","178","551551","0.0-140.0-0.0","13910690","wem/bandit_single","A1JVO7FLPATHUB","pain","6","","72","H","0","img/none_selected.jpg","0","0","1","","0.4519222506","false","103","","0.4519222506","main_expt","","0.3465782007","","0.4319618448","","0.4880888492","","","","","",""
"1810","","bandit","179","555119","0.0-141.0-0.0","13910690","wem/bandit_single","A1JVO7FLPATHUB","pain","6","","74","J","1","","0","0","1","","0.356437927","false","104","","0.44950272","main_expt","","0.356437927","","0.3989131432","","0.4862983338","","","","","",""
"90","","bandit","180","556966","0.0-142.0-0.0","13910690","wem/bandit_single","A1JVO7FLPATHUB","pain","6","","75","K","2","","0","0","1","","0.3718051273","false","105","","0.4631277203","main_expt","","0.349556789","","0.3718051273","","0.4761426531","","","","","",""
"152","","bandit","181","558874","0.0-143.0-0.0","13910690","wem/bandit_single","A1JVO7FLPATHUB","pain","6","","76","L","3","","0","1","0","","0.4724420891","false","106","","0.4761070442","main_expt","","0.3368343046","","0.3820213715","","0.4724420891","","","","","",""
"278","","bandit","182","560910","0.0-144.0-0.0","13910690","wem/bandit_single","A1JVO7FLPATHUB","pain","6","","76","L","3","","0","1","0","","0.4544285192","false","107","","0.4574049266","main_expt","","0.3492990444","","0.3903902173","","0.4544285192","","","","","",""
"59","","bandit","183","562727","0.0-145.0-0.0","13910690","wem/bandit_single","A1JVO7FLPATHUB","pain","6","","76","L","3","","0","1","0","","0.4489506099","false","108","","0.4342229458","main_expt","","0.3657086014","","0.424383047","","0.4489506099","","","","","",""
"151","","bandit","184","564635","0.0-146.0-0.0","13910690","wem/bandit_single","A1JVO7FLPATHUB","pain","6","","76","L","3","","0","0","1","","0.4357570441","false","109","","0.4437976733","main_expt","","0.3473329542","","0.3732822228","","0.4357570441","","","","","",""
"151","","bandit","185","566544","0.0-147.0-0.0","13910690","wem/bandit_single","A1JVO7FLPATHUB","pain","6","","76","L","3","","0","0","1","","0.4243789051","false","110","","0.4131704669","main_expt","","0.3937482981","","0.3545846445","","0.4243789051","","","","","",""
"89","","bandit","186","568390","0.0-148.0-0.0","13910690","wem/bandit_single","A1JVO7FLPATHUB","pain","6","","76","L","3","","0","1","0","","0.4235572131","false","111","","0.3849612216","main_expt","","0.4067223002","","0.2861948885","","0.4235572131","","","","","",""
"778","","bandit","187","570925","0.0-149.0-0.0","13910690","wem/bandit_single","A1JVO7FLPATHUB","pain","6","","76","L","3","","0","1","0","","0.4216330179","false","112","","0.4197473064","main_expt","","0.3791461054","","0.3148935151","","0.4216330179","","","","","",""
"434","","bandit","188","573118","0.0-150.0-0.0","13910690","wem/bandit_single","A1JVO7FLPATHUB","pain","6","","76","L","3","","0","0","1","","0.3981229654","false","113","","0.4477672952","main_expt","","0.3697872407","","0.310891148","","0.3981229654","","","","","",""
"632","","bandit","189","575507","0.0-151.0-0.0","13910690","wem/bandit_single","A1JVO7FLPATHUB","pain","6","","76","L","3","","0","0","1","","0.4051483532","false","114","","0.4347577032","main_expt","","0.3542284497","","0.3312817134","","0.4051483532","","","","","",""
"588","","bandit","190","577853","0.0-152.0-0.0","13910690","wem/bandit_single","A1JVO7FLPATHUB","pain","6","","76","L","3","","0","1","0","","0.3664587937","false","115","","0.4123529648","main_expt","","0.3424252445","","0.3328181623","","0.3664587937","","","","","",""
"435","","bandit","191","580044","0.0-153.0-0.0","13910690","wem/bandit_single","A1JVO7FLPATHUB","pain","6","","76","L","3","","0","0","1","","0.3815824605","false","116","","0.4374051313","main_expt","","0.3364913945","","0.282168926","","0.3815824605","","","","","",""
"716","","bandit","192","582518","0.0-154.0-0.0","13910690","wem/bandit_single","A1JVO7FLPATHUB","pain","6","","76","L","3","","0","0","1","","0.3718524962","false","117","","0.4336999329","main_expt","","0.3607093693","","0.3282440564","","0.3718524962","","","","","",""
"1059","","bandit","193","585333","0.0-155.0-0.0","13910690","wem/bandit_single","A1JVO7FLPATHUB","pain","6","","76","L","3","","0","1","0","","0.3228128462","false","118","","0.4609057125","main_expt","","0.3651530194","","0.3735758205","","0.3228128462","","","","","",""
"3689","","bandit","194","590779","0.0-156.0-0.0","13910690","wem/bandit_single","A1JVO7FLPATHUB","pain","6","","76","L","3","","0","1","0","","0.3303119184","false","119","","0.4644995027","main_expt","","0.391691743","","0.4085136599","","0.3303119184","","","","","",""
"2968","","bandit","195","595505","0.0-157.0-0.0","13910690","wem/bandit_single","A1JVO7FLPATHUB","pain","6","","76","L","3","","0","0","1","","0.3566896217","false","120","","0.4699288035","main_expt","","0.3892352466","","0.4152109264","","0.3566896217","","","","","",""
"462","","bandit","196","597726","0.0-158.0-0.0","13910690","wem/bandit_single","A1JVO7FLPATHUB","pain","6","","76","L","3","","0","0","1","","0.3938610898","false","121","","0.48416914","main_expt","","0.4119078466","","0.4362055741","","0.3938610898","","","","","",""
"496","","bandit","197","599979","0.0-159.0-0.0","13910690","wem/bandit_single","A1JVO7FLPATHUB","pain","6","","76","L","3","","0","0","1","","0.3846692282","false","122","","0.4744752566","main_expt","","0.3864510994","","0.4381361327","","0.3846692282","","","","","",""
"66","","bandit","198","601802","0.0-160.0-0.0","13910690","wem/bandit_single","A1JVO7FLPATHUB","pain","6","","72","H","0","img/none_selected.jpg","0","0","1","","0.4770694964","false","123","","0.4770694964","main_expt","","0.3206095238","","0.4266523018","","0.3479888462","","","","","",""
"90","","bandit","199","603649","0.0-161.0-0.0","13910690","wem/bandit_single","A1JVO7FLPATHUB","pain","6","","74","J","1","","0","0","1","","0.3004639257","false","124","","0.4882663864","main_expt","","0.3004639257","","0.3976500929","","0.3446564944","","","","","",""
"153","","bandit","200","605559","0.0-162.0-0.0","13910690","wem/bandit_single","A1JVO7FLPATHUB","pain","6","","75","K","2","","0","0","1","","0.4004048686","false","125","","0.4867438878","main_expt","","0.2718713493","","0.4004048686","","0.3742116014","","","","","",""
"26","","bandit","201","607343","0.0-163.0-0.0","13910690","wem/bandit_single","A1JVO7FLPATHUB","pain","6","","72","H","0","img/none_selected.jpg","0","1","0","","0.4859509926","false","126","","0.4859509926","main_expt","","0.312825386","","0.3978852423","","0.3522130289","","","","","",""
"27","","bandit","202","609126","0.0-164.0-0.0","13910690","wem/bandit_single","A1JVO7FLPATHUB","pain","6","","72","H","0","img/none_selected.jpg","0","0","1","","0.4910312391","false","127","","0.4910312391","main_expt","","0.2929193121","","0.4164913371","","0.4136983804","","","","","",""
"153","","bandit","203","611035","0.0-165.0-0.0","13910690","wem/bandit_single","A1JVO7FLPATHUB","pain","6","","74","J","1","","0","1","0","","0.3483635392","false","128","","0.4916106826","main_expt","","0.3483635392","","0.4273270633","","0.3740150402","","","","","",""
"904","","bandit","204","613696","0.0-166.0-0.0","13910690","wem/bandit_single","A1JVO7FLPATHUB","pain","6","","75","K","2","","0","1","0","","0.4403517336","false","129","","0.4774596984","main_expt","","0.3180783589","","0.4403517336","","0.3561584853","","","","","",""
"121","","bandit","205","615574","0.0-167.0-0.0","13910690","wem/bandit_single","A1JVO7FLPATHUB","pain","6","","74","J","1","","0","0","1","","0.332672873","false","130","","0.4792113904","main_expt","","0.332672873","","0.436469863","","0.3781611856","","","","","",""
"402","","bandit","206","617734","0.0-168.0-0.0","13910690","wem/bandit_single","A1JVO7FLPATHUB","pain","6","","74","J","1","","0","0","1","","0.3172252399","false","131","","0.4761250173","main_expt","","0.3172252399","","0.467157068","","0.3972118802","","","","","",""
"349","","bandit","207","619842","0.0-169.0-0.0","13910690","wem/bandit_single","A1JVO7FLPATHUB","pain","6","","75","K","2","","0","1","0","","0.4747764211","false","132","","0.4782449011","main_expt","","0.2808852702","","0.4747764211","","0.3951630556","","","","","",""
"26","","bandit","208","621625","0.0-170.0-0.0","13910690","wem/bandit_single","A1JVO7FLPATHUB","pain","6","","75","K","2","","0","0","1","","0.4662147581","false","133","","0.4789501527","main_expt","","0.2846237695","","0.4662147581","","0.3918056992","","","","","",""
"151","","bandit","209","623534","0.0-171.0-0.0","13910690","wem/bandit_single","A1JVO7FLPATHUB","pain","6","","75","K","2","","0","0","1","","0.4711951182","false","134","","0.4821877595","main_expt","","0.3115497245","","0.4711951182","","0.395342783","","","","","",""
"99","","bandit","210","625391","0.0-172.0-0.0","13910690","wem/bandit_single","A1JVO7FLPATHUB","pain","6","","76","L","3","","0","1","0","","0.3867762939","false","135","","0.4863767518","main_expt","","0.3413582918","","0.4540730246","","0.3867762939","","","","","",""
"214","","bandit","211","627364","0.0-173.0-0.0","13910690","wem/bandit_single","A1JVO7FLPATHUB","pain","6","","76","L","3","","0","0","1","","0.3929594686","false","136","","0.4887786445","main_expt","","0.316763081","","0.4412688847","","0.3929594686","","","","","",""
"151","","bandit","212","629272","0.0-174.0-0.0","13910690","wem/bandit_single","A1JVO7FLPATHUB","pain","6","","76","L","3","","0","0","1","","0.3067223256","false","137","","0.4896902137","main_expt","","0.2585559296","","0.4585130214","","0.3067223256","","","","","",""
"267","","bandit","213","631296","0.0-175.0-0.0","13910690","wem/bandit_single","A1JVO7FLPATHUB","pain","6","","72","H","0","img/none_selected.jpg","0","0","1","","0.4754525561","false","138","","0.4754525561","main_expt","","0.2320291273","","0.4413786145","","0.3444805877","","","","","",""
"59","","bandit","214","633114","0.0-176.0-0.0","13910690","wem/bandit_single","A1JVO7FLPATHUB","pain","6","","74","J","1","","0","1","0","","0.2705305451","false","139","","0.4525902595","main_expt","","0.2705305451","","0.4235974169","","0.4025185773","","","","","",""
"340","","bandit","215","635210","0.0-177.0-0.0","13910690","wem/bandit_single","A1JVO7FLPATHUB","pain","6","","74","J","1","","0","1","0","","0.2115164241","false","140","","0.474141966","main_expt","","0.2115164241","","0.3993595144","","0.4000290511","","","","","",""
"89","","bandit","216","637057","0.0-178.0-0.0","13910690","wem/bandit_single","A1JVO7FLPATHUB","pain","6","","74","J","1","","0","0","1","","0.2166269704","false","141","","0.4642583801","main_expt","","0.2166269704","","0.3845482665","","0.4052231698","","","","","",""
"120","","bandit","217","638934","0.0-179.0-0.0","13910690","wem/bandit_single","A1JVO7FLPATHUB","pain","6","","74","J","1","","0","0","1","","0.2477117994","false","142","","0.4713728632","main_expt","","0.2477117994","","0.3636407915","","0.3881257509","","","","","",""
"184","","bandit","218","640874","0.0-180.0-0.0","13910690","wem/bandit_single","A1JVO7FLPATHUB","pain","6","","74","J","1","","0","0","1","","0.2347168821","false","143","","0.4714731714","main_expt","","0.2347168821","","0.3360879677","","0.4101759482","","","","","",""
"434","","bandit","219","643065","0.0-181.0-0.0","13910690","wem/bandit_single","A1JVO7FLPATHUB","pain","6","","75","K","2","","0","1","0","","0.2886719504","false","144","","0.4777196865","main_expt","","0.190213181","","0.2886719504","","0.4100488723","","","","","",""
"90","","bandit","220","644913","0.0-182.0-0.0","13910690","wem/bandit_single","A1JVO7FLPATHUB","pain","6","","75","K","2","","0","0","1","","0.2607344777","false","145","","0.467438704","main_expt","","0.2873677543","","0.2607344777","","0.4294240464","","","","","",""
"56","","bandit","221","646727","0.0-183.0-0.0","13910690","wem/bandit_single","A1JVO7FLPATHUB","pain","6","","75","K","2","","0","0","1","","0.261523257","false","146","","0.4764572222","main_expt","","0.3434581746","","0.261523257","","0.4447984025","","","","","",""
"340","","bandit","222","648825","0.0-184.0-0.0","13910690","wem/bandit_single","A1JVO7FLPATHUB","pain","6","","75","K","2","","0","1","0","","0.2768268543","false","147","","0.4670163239","main_expt","","0.3677167414","","0.2768268543","","0.4339083406","","","","","",""
"26","","bandit","223","650608","0.0-185.0-0.0","13910690","wem/bandit_single","A1JVO7FLPATHUB","pain","6","","75","K","2","","0","0","1","","0.2822793125","false","148","","0.4762727371","main_expt","","0.378672096","","0.2822793125","","0.4200875786","","","","","",""
"1247","","bandit","224","653613","0.0-186.0-0.0","13910690","wem/bandit_single","A1JVO7FLPATHUB","pain","6","","75","K","2","","0","1","0","","0.3100291085","false","149","","0.4763998188","main_expt","","0.3447579657","","0.3100291085","","0.4370731276","","","","","",""
"591","","bandit","225","655960","0.0-187.0-0.0","13910690","wem/bandit_single","A1JVO7FLPATHUB","pain","6","","75","K","2","","0","0","1","","0.3473977335","false","150","","0.4534074178","main_expt","","0.3225325285","","0.3473977335","","0.4606741766","","","","","",""
"1163","","bandit","226","658881","0.0-188.0-0.0","13910690","wem/bandit_single","A1JVO7FLPATHUB","pain","6","","75","K","2","","0","1","0","","0.3755194153","false","151","","0.4518750411","main_expt","","0.2971371866","","0.3755194153","","0.4831185644","","","","","",""
"1779","","bandit","227","662417","0.0-189.0-0.0","13910690","wem/bandit_single","A1JVO7FLPATHUB","pain","6","","75","K","2","","0","0","1","","0.3931135366","false","152","","0.4724220712","main_expt","","0.2436525959","","0.3931135366","","0.489350082","","","","","",""
"1747","","bandit","228","665921","0.0-190.0-0.0","13910690","wem/bandit_single","A1JVO7FLPATHUB","pain","6","","75","K","2","","0","0","1","","0.3704791656","false","153","","0.4655138208","main_expt","","0.2745817176","","0.3704791656","","0.4874668037","","","","","",""
"1436","","bandit","229","669114","0.0-191.0-0.0","13910690","wem/bandit_single","A1JVO7FLPATHUB","pain","6","","75","K","2","","0","1","0","","0.3918087328","false","154","","0.466892577","main_expt","","0.2354012901","","0.3918087328","","0.4906252114","","","","","",""
"6814","","bandit","230","677687","0.0-192.0-0.0","13910690","wem/bandit_single","A1JVO7FLPATHUB","pain","6","","75","K","2","","0","1","0","","0.3629162862","false","155","","0.4696525674","main_expt","","0.2125693007","","0.3629162862","","0.4807331657","","","","","",""
"10165","","bandit","231","689609","0.0-193.0-0.0","13910690","wem/bandit_single","A1JVO7FLPATHUB","pain","6","","75","K","2","","0","0","1","","0.3329402669","false","156","","0.4798639378","main_expt","","0.2344806361","","0.3329402669","","0.4886913858","","","","","",""
"4844","","bandit","232","696212","0.0-194.0-0.0","13910690","wem/bandit_single","A1JVO7FLPATHUB","pain","6","","75","K","2","","0","0","1","","0.2681960896","false","157","","0.4706110477","main_expt","","0.1314384861","","0.2681960896","","0.4791259403","","","","","",""
"2905","","bandit","233","700875","0.0-195.0-0.0","13910690","wem/bandit_single","A1JVO7FLPATHUB","pain","6","","75","K","2","","0","1","0","","0.2540197996","false","158","","0.4469873257","main_expt","","0.181857365","","0.2540197996","","0.4733263956","","","","","",""
"557","","bandit","234","703190","0.0-196.0-0.0","13910690","wem/bandit_single","A1JVO7FLPATHUB","pain","6","","75","K","2","","0","1","0","","0.2609952623","false","159","","0.4239904196","main_expt","","0.158015958","","0.2609952623","","0.4815819336","","","","","",""
"152","","bandit","235","705099","0.0-197.0-0.0","13910690","wem/bandit_single","A1JVO7FLPATHUB","pain","6","","75","K","2","","0","0","1","","0.2023108268","false","160","","0.4459131135","main_expt","","0.141078422","","0.2023108268","","0.4721468952","","","","","",""
"2123","","bandit","236","708980","0.0-198.0-0.0","13910690","wem/bandit_single","A1JVO7FLPATHUB","pain","6","","75","K","2","","0","0","1","","0.2500661268","false","161","","0.4186734055","main_expt","","0.1347361735","","0.2500661268","","0.4711146003","","","","","",""
"526","","bandit","237","711266","0.0-199.0-0.0","13910690","wem/bandit_single","A1JVO7FLPATHUB","pain","6","","75","K","2","","0","1","0","","0.2540596089","false","162","","0.3857154427","main_expt","","0.09535719087","","0.2540596089","","0.4712261849","","","","","",""
"55","","bandit","238","713079","0.0-200.0-0.0","13910690","wem/bandit_single","A1JVO7FLPATHUB","pain","6","","75","K","2","","0","1","0","","0.2601053227","false","163","","0.4174701589","main_expt","","0.08326456225","","0.2601053227","","0.4845321786","","","","","",""
"965","","bandit","239","715802","0.0-201.0-0.0","13910690","wem/bandit_single","A1JVO7FLPATHUB","pain","6","","75","K","2","","0","0","1","","0.2541421927","false","164","","0.3890878976","main_expt","","0.09053498257","","0.2541421927","","0.4759389929","","","","","",""
"746","","bandit","240","718306","0.0-202.0-0.0","13910690","wem/bandit_single","A1JVO7FLPATHUB","pain","6","","75","K","2","","0","0","1","","0.2481661974","false","165","","0.4138915172","main_expt","","0.08506048778","","0.2481661974","","0.4720948066","","","","","",""
"3885","","bandit","241","723948","0.0-203.0-0.0","13910690","wem/bandit_single","A1JVO7FLPATHUB","pain","6","","75","K","2","","0","1","0","","0.2774316831","false","166","","0.3965001983","main_expt","","0.1313511463","","0.2774316831","","0.4785392204","","","","","",""
"10425","","bandit","242","736131","0.0-204.0-0.0","13910690","wem/bandit_single","A1JVO7FLPATHUB","pain","6","","75","K","2","","0","1","0","","0.2487678046","false","167","","0.3565429409","main_expt","","0.1176964862","","0.2487678046","","0.4807372421","","","","","",""
"370","","bandit","243","738260","0.0-205.0-0.0","13910690","wem/bandit_single","A1JVO7FLPATHUB","pain","6","","75","K","2","","0","0","1","","0.3058486258","false","168","","0.3697134737","main_expt","","0.08442850793","","0.3058486258","","0.4679921472","","","","","",""
"1152","","bandit","244","741171","0.0-206.0-0.0","13910690","wem/bandit_single","A1JVO7FLPATHUB","pain","6","","75","K","2","","0","0","1","","0.3196595105","false","169","","0.3754926497","main_expt","","0.08508452716","","0.3196595105","","0.4504326489","","","","","",""
"130","","bandit","245","743058","0.0-207.0-0.0","13910690","wem/bandit_single","A1JVO7FLPATHUB","pain","6","","75","K","2","","0","0","1","","0.2675331271","false","170","","0.3688606114","main_expt","","0.06647736925","","0.2675331271","","0.4575738232","","","","","",""
"651","","bandit","246","745467","0.0-208.0-0.0","13910690","wem/bandit_single","A1JVO7FLPATHUB","pain","6","","75","K","2","","0","1","0","","0.2898788388","false","171","","0.3548436987","main_expt","","0.05048422731","","0.2898788388","","0.4515033555","","","","","",""
"2625","","bandit","247","749848","0.0-209.0-0.0","13910690","wem/bandit_single","A1JVO7FLPATHUB","pain","6","","75","K","2","","0","0","1","","0.3066863737","false","172","","0.3789739593","main_expt","","0.05782489063","","0.3066863737","","0.4804896953","","","","","",""
"6752","","bandit","248","758359","0.0-210.0-0.0","13910690","wem/bandit_single","A1JVO7FLPATHUB","pain","6","","75","K","2","","0","0","1","","0.2694007619","false","173","","0.361488512","main_expt","","0.05297704283","","0.2694007619","","0.4915792717","","","","","",""
"3624","","bandit","249","763742","0.0-211.0-0.0","13910690","wem/bandit_single","A1JVO7FLPATHUB","pain","6","","75","K","2","","0","0","1","","0.2754062015","false","174","","0.3460135238","main_expt","","0.05353397103","","0.2754062015","","0.4861742571","","","","","",""
"276","","bandit","250","765776","0.0-212.0-0.0","13910690","wem/bandit_single","A1JVO7FLPATHUB","pain","6","","75","K","2","","0","1","0","","0.296446081","false","175","","0.3522158256","main_expt","","0.03778759003","","0.296446081","","0.4817940596","","","","","",""
"88","","bandit","251","767622","0.0-213.0-0.0","13910690","wem/bandit_single","A1JVO7FLPATHUB","pain","6","","75","K","2","","0","0","1","","0.3058710094","false","176","","0.2998164985","main_expt","","0.02527008277","","0.3058710094","","0.4757066075","","","","","",""
"3906","","bandit","252","773287","0.0-214.0-0.0","13910690","wem/bandit_single","A1JVO7FLPATHUB","pain","6","","75","K","2","","0","0","1","","0.2349503117","false","177","","0.2523084086","main_expt","","0.03305249037","","0.2349503117","","0.4781570811","","","","","",""
"401","","bandit","253","775446","0.0-215.0-0.0","13910690","wem/bandit_single","A1JVO7FLPATHUB","pain","6","","75","K","2","","0","1","0","","0.2619038699","false","178","","0.304071788","main_expt","","0.03386287722","","0.2619038699","","0.4800614517","","","","","",""
"245","","bandit","254","777449","0.0-216.0-0.0","13910690","wem/bandit_single","A1JVO7FLPATHUB","pain","6","","75","K","2","","0","1","0","","0.2830684205","false","179","","0.2871062198","main_expt","","0.04065763291","","0.2830684205","","0.4829502963","","","","","",""
"934","","bandit","255","780140","0.0-217.0-0.0","13910690","wem/bandit_single","A1JVO7FLPATHUB","pain","6","","75","K","2","","0","1","0","","0.3534450431","false","180","","0.2266659288","main_expt","","0.05743716857","","0.3534450431","","0.4858173281","","","","","",""
"371","","bandit","256","782268","0.0-218.0-0.0","13910690","wem/bandit_single","A1JVO7FLPATHUB","pain","6","","75","K","2","","0","0","1","","0.3212605574","false","181","","0.221928096","main_expt","","0.04418568229","","0.3212605574","","0.4744777914","","","","","",""
"402","","bandit","257","784428","0.0-219.0-0.0","13910690","wem/bandit_single","A1JVO7FLPATHUB","pain","6","","75","K","2","","0","0","1","","0.3315430587","false","182","","0.2300829386","main_expt","","0.08176319179","","0.3315430587","","0.4845259409","","","","","",""
"693","","bandit","258","786878","0.0-220.0-0.0","13910690","wem/bandit_single","A1JVO7FLPATHUB","pain","6","","75","K","2","","0","0","1","","0.3284942609","false","183","","0.236046558","main_expt","","0.127405614","","0.3284942609","","0.481953826","","","","","",""
"4","","bandit","259","788641","0.0-221.0-0.0","13910690","wem/bandit_single","A1JVO7FLPATHUB","pain","6","","75","K","2","","0","1","0","","0.3122619856","false","184","","0.2923178249","main_expt","","0.08615736955","","0.3122619856","","0.4855041368","","","","","",""
"120","","bandit","260","790519","0.0-222.0-0.0","13910690","wem/bandit_single","A1JVO7FLPATHUB","pain","6","","75","K","2","","0","1","0","","0.2923416166","false","185","","0.2808840613","main_expt","","0.1184297318","","0.2923416166","","0.4698046591","","","","","",""
"340","","bandit","261","792616","0.0-223.0-0.0","13910690","wem/bandit_single","A1JVO7FLPATHUB","pain","6","","75","K","2","","0","1","0","","0.2743414945","false","186","","0.2016881086","main_expt","","0.1909222977","","0.2743414945","","0.4595088788","","","","","",""
"4","","bandit","262","794379","0.0-224.0-0.0","13910690","wem/bandit_single","A1JVO7FLPATHUB","pain","6","","75","K","2","","0","1","0","","0.3313242874","false","187","","0.2403842116","main_expt","","0.156943311","","0.3313242874","","0.4646501277","","","","","",""
"88","","bandit","263","796224","0.0-225.0-0.0","13910690","wem/bandit_single","A1JVO7FLPATHUB","pain","6","","75","K","2","","0","1","0","","0.3665806697","false","188","","0.2559443775","main_expt","","0.139104156","","0.3665806697","","0.4587354039","","","","","",""
"371","","bandit","264","798354","0.0-226.0-0.0","13910690","wem/bandit_single","A1JVO7FLPATHUB","pain","6","","75","K","2","","0","0","1","","0.3982105691","false","189","","0.2450962267","main_expt","","0.1984961232","","0.3982105691","","0.4433819168","","","","","",""
"26","","bandit","265","800136","0.0-227.0-0.0","13910690","wem/bandit_single","A1JVO7FLPATHUB","pain","6","","75","K","2","","0","0","1","","0.4063069195","false","190","","0.2520413598","main_expt","","0.3152507924","","0.4063069195","","0.441597313","","","","","",""
"287","","bandit","266","802182","0.0-228.0-0.0","13910690","wem/bandit_single","A1JVO7FLPATHUB","pain","6","","75","K","2","","0","0","1","","0.4073058099","false","191","","0.3069822625","main_expt","","0.34868685","","0.4073058099","","0.4447050695","","","","","",""
"27","","bandit","267","803967","0.0-229.0-0.0","13910690","wem/bandit_single","A1JVO7FLPATHUB","pain","6","","75","K","2","","0","0","1","","0.3597632315","false","192","","0.269658105","main_expt","","0.3244392246","","0.3597632315","","0.3903647542","","","","","",""
"119","","bandit","268","805844","0.0-230.0-0.0","13910690","wem/bandit_single","A1JVO7FLPATHUB","pain","6","","75","K","2","","0","0","1","","0.3512918873","false","193","","0.2337652902","main_expt","","0.3077199203","","0.3512918873","","0.37796371","","","","","",""
"590","","bandit","269","808192","0.0-231.0-0.0","13910690","wem/bandit_single","A1JVO7FLPATHUB","pain","6","","75","K","2","","0","0","1","","0.2959519196","false","194","","0.232364398","main_expt","","0.3089314305","","0.2959519196","","0.4130200877","","","","","",""
"56","","bandit","270","810007","0.0-232.0-0.0","13910690","wem/bandit_single","A1JVO7FLPATHUB","pain","6","","75","K","2","","0","1","0","","0.335494982","false","195","","0.3001816851","main_expt","","0.2747286701","","0.335494982","","0.4247195967","","","","","",""
"620","","bandit","271","812384","0.0-233.0-0.0","13910690","wem/bandit_single","A1JVO7FLPATHUB","pain","6","","75","K","2","","0","0","1","","0.349715921","false","196","","0.3408234979","main_expt","","0.234477082","","0.349715921","","0.4243543636","","","","","",""
"57","","bandit","272","814200","0.0-234.0-0.0","13910690","wem/bandit_single","A1JVO7FLPATHUB","pain","6","","76","L","3","","0","0","1","","0.3856928417","false","197","","0.3048500693","main_expt","","0.2134381397","","0.301359959","","0.3856928417","","","","","",""
"254","","bandit","273","816212","0.0-235.0-0.0","13910690","wem/bandit_single","A1JVO7FLPATHUB","pain","6","","74","J","1","","0","0","1","","0.1732682886","false","198","","0.320222978","main_expt","","0.1732682886","","0.2948231879","","0.3619593125","","","","","",""
"164","","bandit","274","818134","0.0-236.0-0.0","13910690","wem/bandit_single","A1JVO7FLPATHUB","pain","6","","72","H","0","img/none_selected.jpg","0","0","1","","0.3267381451","false","199","","0.3267381451","main_expt","","0.1702760897","","0.2739130918","","0.367752629","","","","","",""
"29","","bandit","275","819920","0.0-237.0-0.0","13910690","wem/bandit_single","A1JVO7FLPATHUB","pain","6","","72","H","0","img/none_selected.jpg","0","0","1","","0.3471124056","false","200","","0.3471124056","main_expt","","0.1149890083","","0.2519174554","","0.3243939248","","","","","",""
"338","","bandit","276","822019","0.0-238.0-0.0","13910690","wem/bandit_single","A1JVO7FLPATHUB","pain","6","","74","J","1","","0","0","1","","0.1378425817","false","201","","0.377370495","main_expt","","0.1378425817","","0.2607800984","","0.309205964","","","","","",""
"184","","bandit","277","823960","0.0-239.0-0.0","13910690","wem/bandit_single","A1JVO7FLPATHUB","pain","6","","76","L","3","","0","0","1","","0.2762714965","false","202","","0.4118986778","main_expt","","0.1351165101","","0.2144757733","","0.2762714965","","","","","",""
"57","","bandit","278","825776","0.0-240.0-0.0","13910690","wem/bandit_single","A1JVO7FLPATHUB","pain","6","","75","K","2","","0","0","1","","0.3006883459","false","203","","0.4232074982","main_expt","","0.105254576","","0.3006883459","","0.296808735","","","","","",""
"25","","bandit","279","827559","0.0-241.0-0.0","13910690","wem/bandit_single","A1JVO7FLPATHUB","pain","6","","75","K","2","","0","0","1","","0.3059688055","false","204","","0.422672589","main_expt","","0.09939331469","","0.3059688055","","0.3198559136","","","","","",""
"27","","bandit","280","829343","0.0-242.0-0.0","13910690","wem/bandit_single","A1JVO7FLPATHUB","pain","6","","75","K","2","","0","0","1","","0.2810212056","false","205","","0.4290364806","main_expt","","0.1099723927","","0.2810212056","","0.3814451683","","","","","",""
"402","","bandit","281","831502","0.0-243.0-0.0","13910690","wem/bandit_single","A1JVO7FLPATHUB","pain","6","","72","H","0","img/none_selected.jpg","0","0","1","","0.4412489094","false","206","","0.4412489094","main_expt","","0.1203356594","","0.2427537705","","0.3836436308","","","","","",""
"278","","bandit","282","833538","0.0-244.0-0.0","13910690","wem/bandit_single","A1JVO7FLPATHUB","pain","6","","74","J","1","","0","0","1","","0.1887874267","false","207","","0.461161346","main_expt","","0.1887874267","","0.2312113295","","0.3943212714","","","","","",""
"246","","bandit","283","835543","0.0-245.0-0.0","13910690","wem/bandit_single","A1JVO7FLPATHUB","pain","6","","76","L","3","","0","0","1","","0.4100076043","false","208","","0.4749000037","main_expt","","0.1570662604","","0.2502246517","","0.4100076043","","","","","",""
"339","","bandit","284","837641","0.0-246.0-0.0","13910690","wem/bandit_single","A1JVO7FLPATHUB","pain","6","","76","L","3","","0","1","0","","0.4207901851","false","209","","0.4677638209","main_expt","","0.2050570797","","0.2378747501","","0.4207901851","","","","","",""
"25","","bandit","285","839424","0.0-247.0-0.0","13910690","wem/bandit_single","A1JVO7FLPATHUB","pain","6","","76","L","3","","0","1","0","","0.4261573075","false","210","","0.4507398287","main_expt","","0.1803355731","","0.2323826376","","0.4261573075","","","","","",""
"25","","bandit","286","841209","0.0-248.0-0.0","13910690","wem/bandit_single","A1JVO7FLPATHUB","pain","6","","76","L","3","","0","0","1","","0.3677002177","false","211","","0.4275102647","main_expt","","0.2066302241","","0.2346446126","","0.3677002177","","","","","",""
"24","","bandit","287","842992","0.0-249.0-0.0","13910690","wem/bandit_single","A1JVO7FLPATHUB","pain","6","","76","L","3","","0","1","0","","0.4030871251","false","212","","0.4147803006","main_expt","","0.2190460355","","0.2017096022","","0.4030871251","","","","","",""
"56","","bandit","288","844805","0.0-250.0-0.0","13910690","wem/bandit_single","A1JVO7FLPATHUB","pain","6","","76","L","3","","0","1","0","","0.3616850983","false","213","","0.4119553225","main_expt","","0.2433731683","","0.2149770465","","0.3616850983","","","","","",""
"27","","bandit","289","846589","0.0-251.0-0.0","13910690","wem/bandit_single","A1JVO7FLPATHUB","pain","6","","76","L","3","","0","0","1","","0.3380837625","false","214","","0.4097086646","main_expt","","0.2355486522","","0.2323699387","","0.3380837625","","","","","",""
"186","","bandit","290","848535","0.0-252.0-0.0","13910690","wem/bandit_single","A1JVO7FLPATHUB","pain","6","","76","L","3","","0","0","1","","0.3788103814","false","215","","0.4553079268","main_expt","","0.2493822419","","0.1880023584","","0.3788103814","","","","","",""
"56","","bandit","291","850348","0.0-253.0-0.0","13910690","wem/bandit_single","A1JVO7FLPATHUB","pain","6","","76","L","3","","0","1","0","","0.3844600678","false","216","","0.4360341733","main_expt","","0.2455091026","","0.2305078945","","0.3844600678","","","","","",""
"57","","bandit","292","852165","0.0-254.0-0.0","13910690","wem/bandit_single","A1JVO7FLPATHUB","pain","6","","76","L","3","","0","0","1","","0.3747540642","false","217","","0.4337093526","main_expt","","0.193913996","","0.2042922501","","0.3747540642","","","","","",""
"412","","bandit","293","854335","0.0-255.0-0.0","13910690","wem/bandit_single","A1JVO7FLPATHUB","pain","6","","76","L","3","","0","0","1","","0.373903774","false","218","","0.4646024675","main_expt","","0.2375794361","","0.1827914188","","0.373903774","","","","","",""
"182","","bandit","294","856276","0.0-256.0-0.0","13910690","wem/bandit_single","A1JVO7FLPATHUB","pain","6","","76","L","3","","0","0","1","","0.3735380413","false","219","","0.4630893692","main_expt","","0.2477723709","","0.2630445196","","0.3735380413","","","","","",""
"1276","","bandit","295","859311","0.0-257.0-0.0","13910690","wem/bandit_single","A1JVO7FLPATHUB","pain","6","","76","L","3","","0","1","0","","0.383917491","false","220","","0.4683356487","main_expt","","0.2543503475","","0.311946342","","0.383917491","","","","","",""
"5","","bandit","296","861074","0.0-258.0-0.0","13910690","wem/bandit_single","A1JVO7FLPATHUB","pain","6","","76","L","3","","0","1","0","","0.3479973737","false","221","","0.4682635517","main_expt","","0.2776519347","","0.2972788283","","0.3479973737","","","","","",""
"57","","bandit","297","862890","0.0-259.0-0.0","13910690","wem/bandit_single","A1JVO7FLPATHUB","pain","6","","76","L","3","","0","1","0","","0.3845595158","false","222","","0.4771668828","main_expt","","0.2291835432","","0.3550400804","","0.3845595158","","","","","",""
"25","","bandit","298","864673","0.0-260.0-0.0","13910690","wem/bandit_single","A1JVO7FLPATHUB","pain","6","","76","L","3","","0","0","1","","0.368723436","false","223","","0.4773959318","main_expt","","0.2266132179","","0.3246239653","","0.368723436","","","","","",""
"370","","bandit","299","866802","0.0-261.0-0.0","13910690","wem/bandit_single","A1JVO7FLPATHUB","pain","6","","76","L","3","","0","1","0","","0.3566991655","false","224","","0.4567335023","main_expt","","0.2124948974","","0.351266899","","0.3566991655","","","","","",""
"88","","bandit","300","868649","0.0-262.0-0.0","13910690","wem/bandit_single","A1JVO7FLPATHUB","pain","6","","76","L","3","","0","0","1","","0.3557331736","false","225","","0.4545703871","main_expt","","0.2168010387","","0.3617362435","","0.3557331736","","","","","",""
"151","","bandit","301","870557","0.0-263.0-0.0","13910690","wem/bandit_single","A1JVO7FLPATHUB","pain","6","","76","L","3","","0","0","1","","0.3620904828","false","226","","0.4563055184","main_expt","","0.2286352314","","0.3625162538","","0.3620904828","","","","","",""
"88","","bandit","302","872404","0.0-264.0-0.0","13910690","wem/bandit_single","A1JVO7FLPATHUB","pain","6","","76","L","3","","0","1","0","","0.3794330306","false","227","","0.4414344485","main_expt","","0.2349833204","","0.3638477037","","0.3794330306","","","","","",""
"213","","bandit","303","874375","0.0-265.0-0.0","13910690","wem/bandit_single","A1JVO7FLPATHUB","pain","6","","76","L","3","","0","0","1","","0.3480060926","false","228","","0.4509897562","main_expt","","0.2376541641","","0.321865515","","0.3480060926","","","","","",""
"870","","bandit","304","877004","0.0-266.0-0.0","13910690","wem/bandit_single","A1JVO7FLPATHUB","pain","6","","76","L","3","","0","0","1","","0.3197951212","false","229","","0.4355264455","main_expt","","0.2141250471","","0.2574970425","","0.3197951212","","","","","",""
"27","","bandit","305","878788","0.0-267.0-0.0","13910690","wem/bandit_single","A1JVO7FLPATHUB","pain","6","","76","L","3","","0","0","1","","0.2360623461","false","230","","0.4393215817","main_expt","","0.1986478114","","0.3167366343","","0.2360623461","","","","","",""
"714","","bandit","306","881262","0.0-268.0-0.0","13910690","wem/bandit_single","A1JVO7FLPATHUB","pain","6","","76","L","3","","0","0","1","","0.228441671","false","231","","0.426442838","main_expt","","0.1632677176","","0.359889087","","0.228441671","","","","","",""
"55","","bandit","307","883075","0.0-269.0-0.0","13910690","wem/bandit_single","A1JVO7FLPATHUB","pain","6","","76","L","3","","0","0","1","","0.2233622879","false","232","","0.4455015341","main_expt","","0.1437929512","","0.3765691143","","0.2233622879","","","","","",""
"215","","bandit","308","885048","0.0-270.0-0.0","13910690","wem/bandit_single","A1JVO7FLPATHUB","pain","6","","72","H","0","img/none_selected.jpg","0","1","0","","0.4370113712","false","233","","0.4370113712","main_expt","","0.2490618922","","0.351320345","","0.1782647691","","","","","",""
"119","","bandit","309","886927","0.0-271.0-0.0","13910690","wem/bandit_single","A1JVO7FLPATHUB","pain","6","","72","H","0","img/none_selected.jpg","0","1","0","","0.4228056097","false","234","","0.4228056097","main_expt","","0.2811602772","","0.2997083133","","0.1971530904","","","","","",""
"24","","bandit","310","888710","0.0-272.0-0.0","13910690","wem/bandit_single","A1JVO7FLPATHUB","pain","6","","72","H","0","img/none_selected.jpg","0","1","0","","0.4176536857","false","235","","0.4176536857","main_expt","","0.332316849","","0.3526624454","","0.2109348075","","","","","",""
"149","","bandit","311","890618","0.0-273.0-0.0","13910690","wem/bandit_single","A1JVO7FLPATHUB","pain","6","","72","H","0","img/none_selected.jpg","0","0","1","","0.419442654","false","236","","0.419442654","main_expt","","0.3059905229","","0.3050627859","","0.1891579582","","","","","",""
"119","","bandit","312","892497","0.0-274.0-0.0","13910690","wem/bandit_single","A1JVO7FLPATHUB","pain","6","","72","H","0","img/none_selected.jpg","0","0","1","","0.4082659589","false","237","","0.4082659589","main_expt","","0.3058344165","","0.312969263","","0.1278978542","","","","","",""
"150","","bandit","313","894405","0.0-275.0-0.0","13910690","wem/bandit_single","A1JVO7FLPATHUB","pain","6","","72","H","0","img/none_selected.jpg","0","0","1","","0.4108407801","false","238","","0.4108407801","main_expt","","0.2931512536","","0.380225341","","0.1509653188","","","","","",""
"777","","bandit","314","896940","0.0-276.0-0.0","13910690","wem/bandit_single","A1JVO7FLPATHUB","pain","6","","72","H","0","img/none_selected.jpg","0","0","1","","0.4378360478","false","239","","0.4378360478","main_expt","","0.2922133777","","0.3657076542","","0.1919733462","","","","","",""
"746","","bandit","315","899444","0.0-277.0-0.0","13910690","wem/bandit_single","A1JVO7FLPATHUB","pain","6","","72","H","0","img/none_selected.jpg","0","1","0","","0.4467030129","false","240","","0.4467030129","main_expt","","0.3452033359","","0.3815359164","","0.1751407906","","","","","",""
"338","","bandit","316","901541","0.0-278.0-0.0","13910690","wem/bandit_single","A1JVO7FLPATHUB","pain","6","","72","H","0","img/none_selected.jpg","0","1","0","","0.4705393647","false","241","","0.4705393647","main_expt","","0.3682897549","","0.3251101936","","0.1759125222","","","","","",""
"57","","bandit","317","903357","0.0-279.0-0.0","13910690","wem/bandit_single","A1JVO7FLPATHUB","pain","6","","72","H","0","img/none_selected.jpg","0","0","1","","0.4610792938","false","242","","0.4610792938","main_expt","","0.3628947189","","0.3212185421","","0.2137068054","","","","","",""
"119","","bandit","318","905236","0.0-280.0-0.0","13910690","wem/bandit_single","A1JVO7FLPATHUB","pain","6","","72","H","0","img/none_selected.jpg","0","0","1","","0.4437729889","false","243","","0.4437729889","main_expt","","0.3766569032","","0.3270030252","","0.2179170348","","","","","",""
"1026","","bandit","319","908020","0.0-281.0-0.0","13910690","wem/bandit_single","A1JVO7FLPATHUB","pain","6","","72","H","0","img/none_selected.jpg","0","1","0","","0.4199869792","false","244","","0.4199869792","main_expt","","0.377991886","","0.309973419","","0.2426329099","","","","","",""
"212","","bandit","320","909992","0.0-282.0-0.0","13910690","wem/bandit_single","A1JVO7FLPATHUB","pain","6","","72","H","0","img/none_selected.jpg","0","0","1","","0.4183767379","false","245","","0.4183767379","main_expt","","0.304751896","","0.3342881273","","0.2351694379","","","","","",""
"306","","bandit","321","912057","0.0-283.0-0.0","13910690","wem/bandit_single","A1JVO7FLPATHUB","pain","6","","72","H","0","img/none_selected.jpg","0","1","0","","0.4292136751","false","246","","0.4292136751","main_expt","","0.3348187262","","0.3149240913","","0.2111663312","","","","","",""
"370","","bandit","322","914186","0.0-284.0-0.0","13910690","wem/bandit_single","A1JVO7FLPATHUB","pain","6","","72","H","0","img/none_selected.jpg","0","0","1","","0.4577956797","false","247","","0.4577956797","main_expt","","0.3307987246","","0.296458043","","0.1899020887","","","","","",""
"337","","bandit","323","916282","0.0-285.0-0.0","13910690","wem/bandit_single","A1JVO7FLPATHUB","pain","6","","72","H","0","img/none_selected.jpg","0","0","1","","0.4586239927","false","248","","0.4586239927","main_expt","","0.3774544282","","0.3038576119","","0.2151484255","","","","","",""
"1246","","bandit","324","919287","0.0-286.0-0.0","13910690","wem/bandit_single","A1JVO7FLPATHUB","pain","6","","72","H","0","img/none_selected.jpg","0","0","1","","0.4709187109","false","249","","0.4709187109","main_expt","","0.3553688181","","0.3383832125","","0.2454548658","","","","","",""
"182","","bandit","325","921227","0.0-287.0-0.0","13910690","wem/bandit_single","A1JVO7FLPATHUB","pain","6","","72","H","0","img/none_selected.jpg","0","0","1","","0.4742496359","false","250","","0.4742496359","main_expt","","0.3209961504","","0.3505221498","","0.1973527755","","","","","",""
"306","","bandit","326","923292","0.0-288.0-0.0","13910690","wem/bandit_single","A1JVO7FLPATHUB","pain","6","","72","H","0","img/none_selected.jpg","0","0","1","","0.4684276702","false","251","","0.4684276702","main_expt","","0.2938420796","","0.3439557404","","0.2459600056","","","","","",""
"934","","bandit","327","925983","0.0-289.0-0.0","13910690","wem/bandit_single","A1JVO7FLPATHUB","pain","6","","74","J","1","","0","1","0","","0.2377141092","false","252","","0.465775704","main_expt","","0.2377141092","","0.3394881367","","0.2361341643","","","","","",""
"88","","bandit","328","927830","0.0-290.0-0.0","13910690","wem/bandit_single","A1JVO7FLPATHUB","pain","6","","74","J","1","","0","0","1","","0.28098189","false","253","","0.4739398589","main_expt","","0.28098189","","0.3195186677","","0.2263014677","","","","","",""
"245","","bandit","329","929834","0.0-291.0-0.0","13910690","wem/bandit_single","A1JVO7FLPATHUB","pain","6","","74","J","1","","0","1","0","","0.36168886","false","254","","0.4709597483","main_expt","","0.36168886","","0.3607388593","","0.2384195691","","","","","",""
"154","","bandit","330","931748","0.0-292.0-0.0","13910690","wem/bandit_single","A1JVO7FLPATHUB","pain","6","","74","J","1","","0","0","1","","0.3196270919","false","255","","0.468651231","main_expt","","0.3196270919","","0.3801942793","","0.2186709452","","","","","",""
"213","","bandit","331","933719","0.0-293.0-0.0","13910690","wem/bandit_single","A1JVO7FLPATHUB","pain","6","","74","J","1","","0","0","1","","0.3201998045","false","256","","0.4837462493","main_expt","","0.3201998045","","0.2987962353","","0.1625458568","","","","","",""
"590","","bandit","332","936067","0.0-294.0-0.0","13910690","wem/bandit_single","A1JVO7FLPATHUB","pain","6","","74","J","1","","0","0","1","","0.3576002339","false","257","","0.4842399178","main_expt","","0.3576002339","","0.272571782","","0.159361747","","","","","",""
"87","","bandit","333","937914","0.0-295.0-0.0","13910690","wem/bandit_single","A1JVO7FLPATHUB","pain","6","","74","J","1","","0","1","0","","0.3715220428","false","258","","0.4878873921","main_expt","","0.3715220428","","0.2593204486","","0.1556255119","","","","","",""
"463","","bandit","334","940136","0.0-296.0-0.0","13910690","wem/bandit_single","A1JVO7FLPATHUB","pain","6","","74","J","1","","0","1","0","","0.3730860303","false","259","","0.4869160663","main_expt","","0.3730860303","","0.2951424317","","0.1256368346","","","","","",""
"2","","bandit","335","941897","0.0-297.0-0.0","13910690","wem/bandit_single","A1JVO7FLPATHUB","pain","6","","74","J","1","","0","0","1","","0.3724964978","false","260","","0.4912834456","main_expt","","0.3724964978","","0.2369093976","","0.1449854444","","","","","",""
"25","","bandit","336","943680","0.0-298.0-0.0","13910690","wem/bandit_single","A1JVO7FLPATHUB","pain","6","","74","J","1","","0","0","1","","0.3574286068","false","261","","0.4907072989","main_expt","","0.3574286068","","0.2234433316","","0.1647157085","","","","","",""
"64","","bandit","337","945504","0.0-299.0-0.0","13910690","wem/bandit_single","A1JVO7FLPATHUB","pain","6","","75","K","2","","0","0","1","","0.215626833","false","262","","0.4904114062","main_expt","","0.4204463107","","0.215626833","","0.1586541082","","","","","",""
"55","","bandit","338","947319","0.0-300.0-0.0","13910690","wem/bandit_single","A1JVO7FLPATHUB","pain","6","","75","K","2","","0","0","1","","0.2227197798","false","263","","0.4900075499","main_expt","","0.4244263348","","0.2227197798","","0.1683870388","","","","","",""
"163","","bandit","339","949239","0.0-301.0-0.0","13910690","wem/bandit_single","A1JVO7FLPATHUB","pain","6","","76","L","3","","0","0","1","","0.2205087037","false","264","","0.4922230388","main_expt","","0.4217668892","","0.2113558788","","0.2205087037","","","","","",""
"120","","bandit","340","951119","0.0-302.0-0.0","13910690","wem/bandit_single","A1JVO7FLPATHUB","pain","6","","76","L","3","","0","0","1","","0.1554736059","false","265","","0.4892111554","main_expt","","0.3908218086","","0.1814287308","","0.1554736059","","","","","",""
"402","","bandit","341","953277","0.0-303.0-0.0","13910690","wem/bandit_single","A1JVO7FLPATHUB","pain","6","","76","L","3","","0","1","0","","0.1556775797","false","266","","0.4894097466","main_expt","","0.350583855","","0.2579261203","","0.1556775797","","","","","",""
"120","","bandit","342","955158","0.0-304.0-0.0","13910690","wem/bandit_single","A1JVO7FLPATHUB","pain","6","","76","L","3","","0","0","1","","0.1732223335","false","267","","0.4898547377","main_expt","","0.2971845499","","0.3033521226","","0.1732223335","","","","","",""
"27","","bandit","343","956944","0.0-305.0-0.0","13910690","wem/bandit_single","A1JVO7FLPATHUB","pain","6","","76","L","3","","0","1","0","","0.1670192172","false","268","","0.4960714099","main_expt","","0.3271935382","","0.2697057224","","0.1670192172","","","","","",""
"369","","bandit","344","959072","0.0-306.0-0.0","13910690","wem/bandit_single","A1JVO7FLPATHUB","pain","6","","76","L","3","","0","0","1","","0.1666577124","false","269","","0.4951393121","main_expt","","0.2912245063","","0.3075876552","","0.1666577124","","","","","",""
"338","","bandit","345","961170","0.0-307.0-0.0","13910690","wem/bandit_single","A1JVO7FLPATHUB","pain","6","","76","L","3","","0","1","0","","0.1133531577","false","270","","0.4903783272","main_expt","","0.3007980493","","0.3437361696","","0.1133531577","","","","","",""
"211","","bandit","346","963141","0.0-308.0-0.0","13910690","wem/bandit_single","A1JVO7FLPATHUB","pain","6","","76","L","3","","0","1","0","","0.1453503833","false","271","","0.4932948231","main_expt","","0.3025875308","","0.2596534978","","0.1453503833","","","","","",""
"88","","bandit","347","964987","0.0-309.0-0.0","13910690","wem/bandit_single","A1JVO7FLPATHUB","pain","6","","76","L","3","","0","0","1","","0.1542373291","false","272","","0.4950636705","main_expt","","0.2608882705","","0.2680739133","","0.1542373291","","","","","",""
"349","","bandit","348","967096","0.0-310.0-0.0","13910690","wem/bandit_single","A1JVO7FLPATHUB","pain","6","","76","L","3","","0","0","1","","0.1312836042","false","273","","0.4866982898","main_expt","","0.2985246063","","0.2287209558","","0.1312836042","","","","","",""
"308","","bandit","349","969162","0.0-311.0-0.0","13910690","wem/bandit_single","A1JVO7FLPATHUB","pain","6","","76","L","3","","0","0","1","","0.1616535947","false","274","","0.4654226264","main_expt","","0.296104213","","0.2659047846","","0.1616535947","","","","","",""
"839","","bandit","350","971761","0.0-312.0-0.0","13910690","wem/bandit_single","A1JVO7FLPATHUB","pain","6","","76","L","3","","0","0","1","","0.163822666","false","275","","0.4633702838","main_expt","","0.2897414639","","0.2303642271","","0.163822666","","","","","",""
"130","","bandit","351","973649","0.0-313.0-0.0","13910690","wem/bandit_single","A1JVO7FLPATHUB","pain","6","","76","L","3","","0","0","1","","0.1500588852","false","276","","0.4741710053","main_expt","","0.296822441","","0.2631654739","","0.1500588852","","","","","",""
"39","","bandit","352","975448","0.0-314.0-0.0","13910690","wem/bandit_single","A1JVO7FLPATHUB","pain","6","","72","H","0","img/none_selected.jpg","0","1","0","","0.4821206929","false","277","","0.4821206929","main_expt","","0.2769528726","","0.2660527836","","0.1975700973","","","","","",""
"26","","bandit","353","977231","0.0-315.0-0.0","13910690","wem/bandit_single","A1JVO7FLPATHUB","pain","6","","72","H","0","img/none_selected.jpg","0","1","0","","0.4704549119","false","278","","0.4704549119","main_expt","","0.3356585436","","0.2869547209","","0.1355298524","","","","","",""
"99","","bandit","354","979090","0.0-316.0-0.0","13910690","wem/bandit_single","A1JVO7FLPATHUB","pain","6","","72","H","0","img/none_selected.jpg","0","0","1","","0.4749598821","false","279","","0.4749598821","main_expt","","0.3222384225","","0.3594721793","","0.1437345226","","","","","",""
"87","","bandit","355","980937","0.0-317.0-0.0","13910690","wem/bandit_single","A1JVO7FLPATHUB","pain","6","","72","H","0","img/none_selected.jpg","0","1","0","","0.4385317488","false","280","","0.4385317488","main_expt","","0.27346357","","0.3903699723","","0.126787642","","","","","",""
"181","","bandit","356","982877","0.0-318.0-0.0","13910690","wem/bandit_single","A1JVO7FLPATHUB","pain","6","","72","H","0","img/none_selected.jpg","0","0","1","","0.4397970497","false","281","","0.4397970497","main_expt","","0.3633072925","","0.4583904318","","0.1765789866","","","","","",""
"25","","bandit","357","984661","0.0-319.0-0.0","13910690","wem/bandit_single","A1JVO7FLPATHUB","pain","6","","72","H","0","img/none_selected.jpg","0","0","1","","0.4485424667","false","282","","0.4485424667","main_expt","","0.3269934488","","0.4689346609","","0.1659157347","","","","","",""
"56","","bandit","358","986475","0.0-320.0-0.0","13910690","wem/bandit_single","A1JVO7FLPATHUB","pain","6","","72","H","0","img/none_selected.jpg","0","1","0","","0.4460930912","false","283","","0.4460930912","main_expt","","0.324321327","","0.460541741","","0.1876778028","","","","","",""
"400","","bandit","359","988636","0.0-321.0-0.0","13910690","wem/bandit_single","A1JVO7FLPATHUB","pain","6","","72","H","0","img/none_selected.jpg","0","0","1","","0.46041158","false","284","","0.46041158","main_expt","","0.2677217275","","0.4485703909","","0.2072959333","","","","","",""
"86","","bandit","360","990481","0.0-322.0-0.0","13910690","wem/bandit_single","A1JVO7FLPATHUB","pain","6","","72","H","0","img/none_selected.jpg","0","0","1","","0.4722631388","false","285","","0.4722631388","main_expt","","0.2832280908","","0.4493749552","","0.2171876524","","","","","",""
"340","","bandit","361","992580","0.0-323.0-0.0","13910690","wem/bandit_single","A1JVO7FLPATHUB","pain","6","","74","J","1","","0","0","1","","0.3338799161","false","286","","0.4710864859","main_expt","","0.3338799161","","0.4223312446","","0.224404947","","","","","",""
"337","","bandit","362","994676","0.0-324.0-0.0","13910690","wem/bandit_single","A1JVO7FLPATHUB","pain","6","","74","J","1","","0","0","1","","0.3484096991","false","287","","0.4400158941","main_expt","","0.3484096991","","0.457140216","","0.2249093708","","","","","",""
"88","","bandit","363","996523","0.0-325.0-0.0","13910690","wem/bandit_single","A1JVO7FLPATHUB","pain","6","","75","K","2","","0","0","1","","0.4411377771","false","288","","0.4036546776","main_expt","","0.3215301514","","0.4411377771","","0.2219747159","","","","","",""
"24","","bandit","364","998306","0.0-326.0-0.0","13910690","wem/bandit_single","A1JVO7FLPATHUB","pain","6","","75","K","2","","0","0","1","","0.4501271696","false","289","","0.4324218596","main_expt","","0.2965974011","","0.4501271696","","0.2183007497","","","","","",""
"56","","bandit","365","1000121","0.0-327.0-0.0","13910690","wem/bandit_single","A1JVO7FLPATHUB","pain","6","","76","L","3","","0","1","0","","0.2481136515","false","290","","0.4536473803","main_expt","","0.2926361454","","0.4436507911","","0.2481136515","","","","","",""
"119","","bandit","366","1002000","0.0-328.0-0.0","13910690","wem/bandit_single","A1JVO7FLPATHUB","pain","6","","76","L","3","","0","1","0","","0.2972088317","false","291","","0.4634661847","main_expt","","0.243163711","","0.4381939672","","0.2972088317","","","","","",""
"307","","bandit","367","1004064","0.0-329.0-0.0","13910690","wem/bandit_single","A1JVO7FLPATHUB","pain","6","","72","H","0","img/none_selected.jpg","0","1","0","","0.4609966616","false","292","","0.4609966616","main_expt","","0.2064952975","","0.4101305143","","0.2998647236","","","","","",""
"119","","bandit","368","1005944","0.0-330.0-0.0","13910690","wem/bandit_single","A1JVO7FLPATHUB","pain","6","","72","H","0","img/none_selected.jpg","0","0","1","","0.4648618971","false","293","","0.4648618971","main_expt","","0.2099334792","","0.4297915702","","0.2861810992","","","","","",""
"211","","bandit","369","1007915","0.0-331.0-0.0","13910690","wem/bandit_single","A1JVO7FLPATHUB","pain","6","","72","H","0","img/none_selected.jpg","0","0","1","","0.4582487824","false","294","","0.4582487824","main_expt","","0.2507358833","","0.4537219743","","0.345484004","","","","","",""
"495","","bandit","370","1010170","0.0-332.0-0.0","13910690","wem/bandit_single","A1JVO7FLPATHUB","pain","6","","72","H","0","img/none_selected.jpg","0","1","0","","0.4482247061","false","295","","0.4482247061","main_expt","","0.2494268831","","0.4694953972","","0.3251772281","","","","","",""
"211","","bandit","371","1012140","0.0-333.0-0.0","13910690","wem/bandit_single","A1JVO7FLPATHUB","pain","6","","72","H","0","img/none_selected.jpg","0","0","1","","0.42326912","false","296","","0.42326912","main_expt","","0.2867080039","","0.4880383038","","0.2953905587","","","","","",""
"180","","bandit","372","1014081","0.0-334.0-0.0","13910690","wem/bandit_single","A1JVO7FLPATHUB","pain","6","","72","H","0","img/none_selected.jpg","0","0","1","","0.4151021773","false","297","","0.4151021773","main_expt","","0.2983387387","","0.4916251568","","0.2717848064","","","","","",""
