"rt","responses","trial_type","trial_index","time_elapsed","internal_node_id","subjID","study","MID","cond","drift","key_press","respCharCode","respKey","respChoiceNum","respChoice","gems","bombs","no_reward","GemPrChosen","BombPrChosen","practice","trial_counter","WinPr_0","LosePr_0","trial_label","WinPr_1","LosePr_1","WinPr_2","LosePr_2","WinPr_3","LosePr_3","Q0","Q1","Q2","gender","age","ethnicity"
"43445","{""Q0"":""ATBIPUOC3EKS6""}","survey-text","0","43451","0.0-0.0","14314790","wem/bandit_single","ATBIPUCO3EKS6","gain","7","","","","","","","","","","","","","","","","","","","","","","","","","","",""
"1919","","text","1","46373","0.0-1.0","14314790","wem/bandit_single","ATBIPUCO3EKS6","gain","7","32","","","","","","","","","","","","","","","","","","","","","","","","","",""
"4362","","text","2","50737","0.0-2.0","14314790","wem/bandit_single","ATBIPUCO3EKS6","gain","7","32","","","","","","","","","","","","","","","","","","","","","","","","","",""
"18787","","text","3","69525","0.0-3.0","14314790","wem/bandit_single","ATBIPUCO3EKS6","gain","7","32","","","","","","","","","","","","","","","","","","","","","","","","","",""
"10202","","text","4","79729","0.0-4.0","14314790","wem/bandit_single","ATBIPUCO3EKS6","gain","7","32","","","","","","","","","","","","","","","","","","","","","","","","","",""
"8559","","text","5","88290","0.0-5.0","14314790","wem/bandit_single","ATBIPUCO3EKS6","gain","7","32","","","","","","","","","","","","","","","","","","","","","","","","","",""
"5332","","text","6","93623","0.0-6.0","14314790","wem/bandit_single","ATBIPUCO3EKS6","gain","7","32","","","","","","","","","","","","","","","","","","","","","","","","","",""
"3327","","text","7","96952","0.0-7.0","14314790","wem/bandit_single","ATBIPUCO3EKS6","gain","7","32","","","","","","","","","","","","","","","","","","","","","","","","","",""
"4758","","text","8","101712","0.0-8.0","14314790","wem/bandit_single","ATBIPUCO3EKS6","gain","7","32","","","","","","","","","","","","","","","","","","","","","","","","","",""
"3114","","text","9","104828","0.0-9.0","14314790","wem/bandit_single","ATBIPUCO3EKS6","gain","7","32","","","","","","","","","","","","","","","","","","","","","","","","","",""
"5465","","text","10","110295","0.0-10.0","14314790","wem/bandit_single","ATBIPUCO3EKS6","gain","7","32","","","","","","","","","","","","","","","","","","","","","","","","","",""
"3654","","text","11","113951","0.0-11.0","14314790","wem/bandit_single","ATBIPUCO3EKS6","gain","7","32","","","","","","","","","","","","","","","","","","","","","","","","","",""
"1842","","bandit","12","117301","0.0-12.0-0.0","14314790","wem/bandit_single","ATBIPUCO3EKS6","gain","7","","74","J","0","img/none_selected_demo.jpg","0","0","1","0","0","true","0","0","0","","","","","","","","","","","","",""
"1199","","bandit","13","120258","0.0-13.0-0.0","14314790","wem/bandit_single","ATBIPUCO3EKS6","gain","7","","75","K","0","img/none_selected_demo.jpg","0","0","1","0","0","true","0","0","0","","","","","","","","","","","","",""
"1968","","text","14","122479","0.0-14.0","14314790","wem/bandit_single","ATBIPUCO3EKS6","gain","7","32","","","","","","","","","","","","","","","","","","","","","","","","","",""
"1573","","text","15","124053","0.0-15.0","14314790","wem/bandit_single","ATBIPUCO3EKS6","gain","7","32","","","","","","","","","","","","","","","","","","","","","","","","","",""
"1901","","text","16","125956","0.0-16.0","14314790","wem/bandit_single","ATBIPUCO3EKS6","gain","7","32","","","","","","","","","","","","","","","","","","","","","","","","","",""
"2203","","text","17","128160","0.0-17.0","14314790","wem/bandit_single","ATBIPUCO3EKS6","gain","7","32","","","","","","","","","","","","","","","","","","","","","","","","","",""
"1629","","bandit","18","131294","0.0-18.0-0.0","14314790","wem/bandit_single","ATBIPUCO3EKS6","gain","7","","74","J","0","img/none_selected_demo.jpg","1","0","0","0.8","0","true","0","0.8","0","80_20_practice","0.2","0","","","","","","","","","",""
"1045","","bandit","19","134095","0.0-18.0-1.0","14314790","wem/bandit_single","ATBIPUCO3EKS6","gain","7","","75","K","1","","0","0","1","0.2","0","true","0","0.8","0","80_20_practice","0.2","0","","","","","","","","","",""
"1304","","bandit","20","137154","0.0-18.0-2.0","14314790","wem/bandit_single","ATBIPUCO3EKS6","gain","7","","75","K","1","","0","0","1","0.2","0","true","0","0.8","0","80_20_practice","0.2","0","","","","","","","","","",""
"225","","bandit","21","139137","0.0-18.0-3.0","14314790","wem/bandit_single","ATBIPUCO3EKS6","gain","7","","74","J","0","img/none_selected_demo.jpg","1","0","0","0.8","0","true","0","0.8","0","80_20_practice","0.2","0","","","","","","","","","",""
"2685","","bandit","22","143579","0.0-18.0-4.0","14314790","wem/bandit_single","ATBIPUCO3EKS6","gain","7","","74","J","0","img/none_selected_demo.jpg","1","0","0","0.8","0","true","0","0.8","0","80_20_practice","0.2","0","","","","","","","","","",""
"66","","bandit","23","145402","0.0-18.0-5.0","14314790","wem/bandit_single","ATBIPUCO3EKS6","gain","7","","74","J","0","img/none_selected_demo.jpg","1","0","0","0.8","0","true","0","0.8","0","80_20_practice","0.2","0","","","","","","","","","",""
"1629","","bandit","24","148787","0.0-18.0-6.0","14314790","wem/bandit_single","ATBIPUCO3EKS6","gain","7","","75","K","1","","0","0","1","0.2","0","true","0","0.8","0","80_20_practice","0.2","0","","","","","","","","","",""
"214","","bandit","25","150758","0.0-18.0-7.0","14314790","wem/bandit_single","ATBIPUCO3EKS6","gain","7","","74","J","0","img/none_selected_demo.jpg","1","0","0","0.8","0","true","0","0.8","0","80_20_practice","0.2","0","","","","","","","","","",""
"43","","bandit","26","152556","0.0-18.0-8.0","14314790","wem/bandit_single","ATBIPUCO3EKS6","gain","7","","75","K","1","","0","0","1","0.2","0","true","0","0.8","0","80_20_practice","0.2","0","","","","","","","","","",""
"842","","bandit","27","155154","0.0-18.0-9.0","14314790","wem/bandit_single","ATBIPUCO3EKS6","gain","7","","75","K","1","","0","0","1","0.2","0","true","0","0.8","0","80_20_practice","0.2","0","","","","","","","","","",""
"180","","bandit","28","157089","0.0-18.0-10.0","14314790","wem/bandit_single","ATBIPUCO3EKS6","gain","7","","74","J","0","img/none_selected_demo.jpg","1","0","0","0.8","0","true","0","0.8","0","80_20_practice","0.2","0","","","","","","","","","",""
"102","","bandit","29","158947","0.0-18.0-11.0","14314790","wem/bandit_single","ATBIPUCO3EKS6","gain","7","","74","J","0","img/none_selected_demo.jpg","1","0","0","0.8","0","true","0","0.8","0","80_20_practice","0.2","0","","","","","","","","","",""
"257","","bandit","30","160961","0.0-18.0-12.0","14314790","wem/bandit_single","ATBIPUCO3EKS6","gain","7","","74","J","0","img/none_selected_demo.jpg","1","0","0","0.8","0","true","0","0.8","0","80_20_practice","0.2","0","","","","","","","","","",""
"144","","bandit","31","162861","0.0-18.0-13.0","14314790","wem/bandit_single","ATBIPUCO3EKS6","gain","7","","74","J","0","img/none_selected_demo.jpg","1","0","0","0.8","0","true","0","0.8","0","80_20_practice","0.2","0","","","","","","","","","",""
"68","","bandit","32","164683","0.0-18.0-14.0","14314790","wem/bandit_single","ATBIPUCO3EKS6","gain","7","","74","J","0","img/none_selected_demo.jpg","1","0","0","0.8","0","true","0","0.8","0","80_20_practice","0.2","0","","","","","","","","","",""
"90","","bandit","33","166530","0.0-18.0-15.0","14314790","wem/bandit_single","ATBIPUCO3EKS6","gain","7","","74","J","0","img/none_selected_demo.jpg","1","0","0","0.8","0","true","0","0.8","0","80_20_practice","0.2","0","","","","","","","","","",""
"64","","bandit","34","168353","0.0-18.0-16.0","14314790","wem/bandit_single","ATBIPUCO3EKS6","gain","7","","74","J","0","img/none_selected_demo.jpg","0","0","1","0.8","0","true","0","0.8","0","80_20_practice","0.2","0","","","","","","","","","",""
"267","","bandit","35","170376","0.0-18.0-17.0","14314790","wem/bandit_single","ATBIPUCO3EKS6","gain","7","","74","J","0","img/none_selected_demo.jpg","1","0","0","0.8","0","true","0","0.8","0","80_20_practice","0.2","0","","","","","","","","","",""
"337","","bandit","36","172470","0.0-18.0-18.0","14314790","wem/bandit_single","ATBIPUCO3EKS6","gain","7","","75","K","1","","0","0","1","0.2","0","true","0","0.8","0","80_20_practice","0.2","0","","","","","","","","","",""
"9","","bandit","37","174235","0.0-18.0-19.0","14314790","wem/bandit_single","ATBIPUCO3EKS6","gain","7","","74","J","0","img/none_selected_demo.jpg","1","0","0","0.8","0","true","0","0.8","0","80_20_practice","0.2","0","","","","","","","","","",""
"3814","","text","38","178301","0.0-19.0","14314790","wem/bandit_single","ATBIPUCO3EKS6","gain","7","32","","","","","","","","","","","","","","","","","","","","","","","","","",""
"1843","","bandit","39","181649","0.0-20.0-0.0","14314790","wem/bandit_single","ATBIPUCO3EKS6","gain","7","","74","J","0","img/none_selected_demo.jpg","0","0","1","0","0","true","0","0","0","","0","0","","","","","","","","","",""
"214","","text","40","182116","0.0-21.0","14314790","wem/bandit_single","ATBIPUCO3EKS6","gain","7","75","","","","","","","","","","","","","","","","","","","","","","","","","",""
"3069","","text","41","185186","0.0-22.0","14314790","wem/bandit_single","ATBIPUCO3EKS6","gain","7","32","","","","","","","","","","","","","","","","","","","","","","","","","",""
"2800","","text","42","187988","0.0-23.0","14314790","wem/bandit_single","ATBIPUCO3EKS6","gain","7","32","","","","","","","","","","","","","","","","","","","","","","","","","",""
"2564","","text","43","190553","0.0-24.0","14314790","wem/bandit_single","ATBIPUCO3EKS6","gain","7","32","","","","","","","","","","","","","","","","","","","","","","","","","",""
"7603","","text","44","198158","0.0-25.0","14314790","wem/bandit_single","ATBIPUCO3EKS6","gain","7","32","","","","","","","","","","","","","","","","","","","","","","","","","",""
"2799","","text","45","200959","0.0-26.0","14314790","wem/bandit_single","ATBIPUCO3EKS6","gain","7","32","","","","","","","","","","","","","","","","","","","","","","","","","",""
"3182","","text","46","204143","0.0-27.0","14314790","wem/bandit_single","ATBIPUCO3EKS6","gain","7","32","","","","","","","","","","","","","","","","","","","","","","","","","",""
"3329","","text","47","207473","0.0-28.0","14314790","wem/bandit_single","ATBIPUCO3EKS6","gain","7","32","","","","","","","","","","","","","","","","","","","","","","","","","",""
"3329","","text","48","210803","0.0-29.0","14314790","wem/bandit_single","ATBIPUCO3EKS6","gain","7","32","","","","","","","","","","","","","","","","","","","","","","","","","",""
"1202","","text","49","212007","0.0-30.0","14314790","wem/bandit_single","ATBIPUCO3EKS6","gain","7","32","","","","","","","","","","","","","","","","","","","","","","","","","",""
"6568","","text","50","218576","0.0-31.0","14314790","wem/bandit_single","ATBIPUCO3EKS6","gain","7","32","","","","","","","","","","","","","","","","","","","","","","","","","",""
"920","","bandit","51","221001","0.0-32.0-0.0","14314790","wem/bandit_single","ATBIPUCO3EKS6","gain","7","","72","H","0","img/none_selected.jpg","1","0","0","0.8","0","true","0","0.8","0","full_practice","0.2","0","0.6","0","0.2","0","","","","","",""
"259","","bandit","52","223017","0.0-32.0-1.0","14314790","wem/bandit_single","ATBIPUCO3EKS6","gain","7","","72","H","0","img/none_selected.jpg","1","0","0","0.8","0","true","0","0.8","0","full_practice","0.2","0","0.6","0","0.2","0","","","","","",""
"221","","bandit","53","224996","0.0-32.0-2.0","14314790","wem/bandit_single","ATBIPUCO3EKS6","gain","7","","72","H","0","img/none_selected.jpg","1","0","0","0.8","0","true","0","0.8","0","full_practice","0.2","0","0.6","0","0.2","0","","","","","",""
"42","","bandit","54","226795","0.0-32.0-3.0","14314790","wem/bandit_single","ATBIPUCO3EKS6","gain","7","","72","H","0","img/none_selected.jpg","1","0","0","0.8","0","true","0","0.8","0","full_practice","0.2","0","0.6","0","0.2","0","","","","","",""
"55","","bandit","55","228606","0.0-32.0-4.0","14314790","wem/bandit_single","ATBIPUCO3EKS6","gain","7","","72","H","0","img/none_selected.jpg","1","0","0","0.8","0","true","0","0.8","0","full_practice","0.2","0","0.6","0","0.2","0","","","","","",""
"1775","","bandit","56","232140","0.0-32.0-5.0","14314790","wem/bandit_single","ATBIPUCO3EKS6","gain","7","","75","K","2","","1","0","0","0.6","0","true","0","0.8","0","full_practice","0.2","0","0.6","0","0.2","0","","","","","",""
"167","","bandit","57","234063","0.0-32.0-6.0","14314790","wem/bandit_single","ATBIPUCO3EKS6","gain","7","","75","K","2","","1","0","0","0.6","0","true","0","0.8","0","full_practice","0.2","0","0.6","0","0.2","0","","","","","",""
"325","","bandit","58","236145","0.0-32.0-7.0","14314790","wem/bandit_single","ATBIPUCO3EKS6","gain","7","","72","H","0","img/none_selected.jpg","1","0","0","0.8","0","true","0","0.8","0","full_practice","0.2","0","0.6","0","0.2","0","","","","","",""
"167","","bandit","59","238068","0.0-32.0-8.0","14314790","wem/bandit_single","ATBIPUCO3EKS6","gain","7","","72","H","0","img/none_selected.jpg","0","0","1","0.8","0","true","0","0.8","0","full_practice","0.2","0","0.6","0","0.2","0","","","","","",""
"122","","bandit","60","239947","0.0-32.0-9.0","14314790","wem/bandit_single","ATBIPUCO3EKS6","gain","7","","74","J","1","","0","0","1","0.2","0","true","0","0.8","0","full_practice","0.2","0","0.6","0","0.2","0","","","","","",""
"178","","bandit","61","241881","0.0-32.0-10.0","14314790","wem/bandit_single","ATBIPUCO3EKS6","gain","7","","75","K","2","","0","0","1","0.6","0","true","0","0.8","0","full_practice","0.2","0","0.6","0","0.2","0","","","","","",""
"787","","bandit","62","244424","0.0-32.0-11.0","14314790","wem/bandit_single","ATBIPUCO3EKS6","gain","7","","76","L","3","","0","0","1","0.2","0","true","0","0.8","0","full_practice","0.2","0","0.6","0","0.2","0","","","","","",""
"44","","bandit","63","246225","0.0-32.0-12.0","14314790","wem/bandit_single","ATBIPUCO3EKS6","gain","7","","75","K","2","","1","0","0","0.6","0","true","0","0.8","0","full_practice","0.2","0","0.6","0","0.2","0","","","","","",""
"31","","bandit","64","248012","0.0-32.0-13.0","14314790","wem/bandit_single","ATBIPUCO3EKS6","gain","7","","75","K","2","","0","0","1","0.6","0","true","0","0.8","0","full_practice","0.2","0","0.6","0","0.2","0","","","","","",""
"201","","bandit","65","249971","0.0-32.0-14.0","14314790","wem/bandit_single","ATBIPUCO3EKS6","gain","7","","72","H","0","img/none_selected.jpg","1","0","0","0.8","0","true","0","0.8","0","full_practice","0.2","0","0.6","0","0.2","0","","","","","",""
"99","","bandit","66","251826","0.0-32.0-15.0","14314790","wem/bandit_single","ATBIPUCO3EKS6","gain","7","","72","H","0","img/none_selected.jpg","0","0","1","0.8","0","true","0","0.8","0","full_practice","0.2","0","0.6","0","0.2","0","","","","","",""
"100","","bandit","67","253684","0.0-32.0-16.0","14314790","wem/bandit_single","ATBIPUCO3EKS6","gain","7","","74","J","1","","1","0","0","0.2","0","true","0","0.8","0","full_practice","0.2","0","0.6","0","0.2","0","","","","","",""
"1438","","bandit","68","256878","0.0-32.0-17.0","14314790","wem/bandit_single","ATBIPUCO3EKS6","gain","7","","74","J","1","","1","0","0","0.2","0","true","0","0.8","0","full_practice","0.2","0","0.6","0","0.2","0","","","","","",""
"841","","bandit","69","259477","0.0-32.0-18.0","14314790","wem/bandit_single","ATBIPUCO3EKS6","gain","7","","74","J","1","","1","0","0","0.2","0","true","0","0.8","0","full_practice","0.2","0","0.6","0","0.2","0","","","","","",""
"75","","bandit","70","261311","0.0-32.0-19.0","14314790","wem/bandit_single","ATBIPUCO3EKS6","gain","7","","74","J","1","","0","0","1","0.2","0","true","0","0.8","0","full_practice","0.2","0","0.6","0","0.2","0","","","","","",""
"1481","","text","71","263048","0.0-33.0","14314790","wem/bandit_single","ATBIPUCO3EKS6","gain","7","32","","","","","","","","","","","","","","","","","","","","","","","","","",""
"7300","","text","72","271351","0.0-34.0","14314790","wem/bandit_single","ATBIPUCO3EKS6","gain","7","32","","","","","","","","","","","","","","","","","","","","","","","","","",""
"1673","","text","73","273027","0.0-35.0","14314790","wem/bandit_single","ATBIPUCO3EKS6","gain","7","32","","","","","","","","","","","","","","","","","","","","","","","","","",""
"4993","","text","74","278022","0.0-36.0","14314790","wem/bandit_single","ATBIPUCO3EKS6","gain","7","32","","","","","","","","","","","","","","","","","","","","","","","","","",""
"2327","","text","75","280351","0.0-37.0","14314790","wem/bandit_single","ATBIPUCO3EKS6","gain","7","32","","","","","","","","","","","","","","","","","","","","","","","","","",""
"1393","","bandit","76","283249","0.0-38.0-0.0","14314790","wem/bandit_single","ATBIPUCO3EKS6","gain","7","","72","H","0","img/none_selected.jpg","0","0","1","0.05137684772","","false","1","0.05137684772","","main_expt","0.4656663819","","0.182860278","","0.2046929885","","","","","","",""
"2281","","bandit","77","287287","0.0-39.0-0.0","14314790","wem/bandit_single","ATBIPUCO3EKS6","gain","7","","74","J","1","","1","0","0","0.4696156166","","false","2","0.07150319997","","main_expt","0.4696156166","","0.1824128093","","0.1903203277","","","","","","",""
"78","","bandit","78","289121","0.0-40.0-0.0","14314790","wem/bandit_single","ATBIPUCO3EKS6","gain","7","","74","J","1","","1","0","0","0.477042595","","false","3","0.080703679","","main_expt","0.477042595","","0.1671989933","","0.1806567389","","","","","","",""
"20","","bandit","79","290898","0.0-41.0-0.0","14314790","wem/bandit_single","ATBIPUCO3EKS6","gain","7","","74","J","1","","0","0","1","0.4833388502","","false","4","0.09206073837","","main_expt","0.4833388502","","0.1769774761","","0.1746643784","","","","","","",""
"258","","bandit","80","292912","0.0-42.0-0.0","14314790","wem/bandit_single","ATBIPUCO3EKS6","gain","7","","75","K","2","","0","0","1","0.1847579949","","false","5","0.09846378213","","main_expt","0.4679643189","","0.1847579949","","0.1575849224","","","","","","",""
"55","","bandit","81","294724","0.0-43.0-0.0","14314790","wem/bandit_single","ATBIPUCO3EKS6","gain","7","","76","L","3","","1","0","0","0.1848921601","","false","6","0.07982937149","","main_expt","0.4728114282","","0.2263389119","","0.1848921601","","","","","","",""
"42","","bandit","82","296523","0.0-44.0-0.0","14314790","wem/bandit_single","ATBIPUCO3EKS6","gain","7","","76","L","3","","0","0","1","0.2090417599","","false","7","0.08361087011","","main_expt","0.4763129956","","0.233500047","","0.2090417599","","","","","","",""
"179","","bandit","83","298458","0.0-45.0-0.0","14314790","wem/bandit_single","ATBIPUCO3EKS6","gain","7","","76","L","3","","0","0","1","0.2340345007","","false","8","0.1210475052","","main_expt","0.4605171502","","0.2213385325","","0.2340345007","","","","","","",""
"1023","","bandit","84","301238","0.0-46.0-0.0","14314790","wem/bandit_single","ATBIPUCO3EKS6","gain","7","","72","H","0","img/none_selected.jpg","0","0","1","0.1023248189","","false","9","0.1023248189","","main_expt","0.457599345","","0.216727727","","0.2388832632","","","","","","",""
"42","","bandit","85","303037","0.0-47.0-0.0","14314790","wem/bandit_single","ATBIPUCO3EKS6","gain","7","","75","K","2","","0","0","1","0.1757193701","","false","10","0.1311876697","","main_expt","0.4514273669","","0.1757193701","","0.2336568073","","","","","","",""
"55","","bandit","86","304848","0.0-48.0-0.0","14314790","wem/bandit_single","ATBIPUCO3EKS6","gain","7","","74","J","1","","0","0","1","0.461109344","","false","11","0.1171839072","","main_expt","0.461109344","","0.221687112","","0.2682397485","","","","","","",""
"54","","bandit","87","306660","0.0-49.0-0.0","14314790","wem/bandit_single","ATBIPUCO3EKS6","gain","7","","76","L","3","","0","0","1","0.2855743842","","false","12","0.09103905321","","main_expt","0.4750360261","","0.1693148256","","0.2855743842","","","","","","",""
"54","","bandit","88","308471","0.0-50.0-0.0","14314790","wem/bandit_single","ATBIPUCO3EKS6","gain","7","","76","L","3","","0","0","1","0.2877368863","","false","13","0.08195125901","","main_expt","0.4882900813","","0.1861997022","","0.2877368863","","","","","","",""
"65","","bandit","89","310294","0.0-51.0-0.0","14314790","wem/bandit_single","ATBIPUCO3EKS6","gain","7","","75","K","2","","1","0","0","0.2056371894","","false","14","0.1022478824","","main_expt","0.4836145896","","0.2056371894","","0.2904717711","","","","","","",""
"1178","","bandit","90","313229","0.0-52.0-0.0","14314790","wem/bandit_single","ATBIPUCO3EKS6","gain","7","","76","L","3","","0","0","1","0.3145527135","","false","15","0.1295923723","","main_expt","0.4841526839","","0.207651467","","0.3145527135","","","","","","",""
"832","","bandit","91","315816","0.0-53.0-0.0","14314790","wem/bandit_single","ATBIPUCO3EKS6","gain","7","","75","K","2","","0","0","1","0.264879833","","false","16","0.1259026636","","main_expt","0.4733209008","","0.264879833","","0.2919685568","","","","","","",""
"100","","bandit","92","317674","0.0-54.0-0.0","14314790","wem/bandit_single","ATBIPUCO3EKS6","gain","7","","74","J","1","","0","0","1","0.4548629562","","false","17","0.08714849596","","main_expt","0.4548629562","","0.301226273","","0.2437915417","","","","","","",""
"143","","bandit","93","319575","0.0-55.0-0.0","14314790","wem/bandit_single","ATBIPUCO3EKS6","gain","7","","72","H","0","img/none_selected.jpg","0","0","1","0.06082296625","","false","18","0.06082296625","","main_expt","0.4423108412","","0.3355017989","","0.2139729843","","","","","","",""
"437","","bandit","94","321769","0.0-56.0-0.0","14314790","wem/bandit_single","ATBIPUCO3EKS6","gain","7","","75","K","2","","0","0","1","0.4066928382","","false","19","0.04376078701","","main_expt","0.4510346454","","0.4066928382","","0.2117718275","","","","","","",""
"244","","bandit","95","323771","0.0-57.0-0.0","14314790","wem/bandit_single","ATBIPUCO3EKS6","gain","7","","75","K","2","","0","0","1","0.4152799178","","false","20","0.0431273538","","main_expt","0.4522943673","","0.4152799178","","0.2128214431","","","","","","",""
"133","","bandit","96","325662","0.0-58.0-0.0","14314790","wem/bandit_single","ATBIPUCO3EKS6","gain","7","","74","J","1","","0","0","1","0.4213917452","","false","21","0.05700218709","","main_expt","0.4213917452","","0.4005545413","","0.2557511999","","","","","","",""
"109","","bandit","97","327528","0.0-59.0-0.0","14314790","wem/bandit_single","ATBIPUCO3EKS6","gain","7","","76","L","3","","0","0","1","0.2240556206","","false","22","0.03008320558","","main_expt","0.4055738921","","0.4065945052","","0.2240556206","","","","","","",""
"426","","bandit","98","329711","0.0-60.0-0.0","14314790","wem/bandit_single","ATBIPUCO3EKS6","gain","7","","76","L","3","","0","0","1","0.1913455436","","false","23","0.04675245401","","main_expt","0.4102744642","","0.4396923884","","0.1913455436","","","","","","",""
"19","","bandit","99","331489","0.0-61.0-0.0","14314790","wem/bandit_single","ATBIPUCO3EKS6","gain","7","","72","H","0","img/none_selected.jpg","0","0","1","0.02664245213","","false","24","0.02664245213","","main_expt","0.4215519413","","0.4414607804","","0.1767964116","","","","","","",""
"131","","bandit","100","333379","0.0-62.0-0.0","14314790","wem/bandit_single","ATBIPUCO3EKS6","gain","7","","75","K","2","","0","0","1","0.430597795","","false","25","0.02443183667","","main_expt","0.4076768117","","0.430597795","","0.1667721477","","","","","","",""
"427","","bandit","101","335562","0.0-63.0-0.0","14314790","wem/bandit_single","ATBIPUCO3EKS6","gain","7","","74","J","1","","0","0","1","0.3563873355","","false","26","0.02765515704","","main_expt","0.3563873355","","0.4049624372","","0.132468293","","","","","","",""
"1730","","bandit","102","339048","0.0-64.0-0.0","14314790","wem/bandit_single","ATBIPUCO3EKS6","gain","7","","75","K","2","","1","0","0","0.3959859591","","false","27","0.05751586542","","main_expt","0.3305608977","","0.3959859591","","0.1283549716","","","","","","",""
"99","","bandit","103","340904","0.0-65.0-0.0","14314790","wem/bandit_single","ATBIPUCO3EKS6","gain","7","","75","K","2","","1","0","0","0.4316273603","","false","28","0.1046410472","","main_expt","0.323916825","","0.4316273603","","0.1218888314","","","","","","",""
"145","","bandit","104","342807","0.0-66.0-0.0","14314790","wem/bandit_single","ATBIPUCO3EKS6","gain","7","","75","K","2","","1","0","0","0.4618757987","","false","29","0.1174110135","","main_expt","0.3256975875","","0.4618757987","","0.08739650486","","","","","","",""
"65","","bandit","105","344629","0.0-67.0-0.0","14314790","wem/bandit_single","ATBIPUCO3EKS6","gain","7","","75","K","2","","1","0","0","0.4764599947","","false","30","0.09344635718","","main_expt","0.3590663193","","0.4764599947","","0.1113113005","","","","","","",""
"53","","bandit","106","346440","0.0-68.0-0.0","14314790","wem/bandit_single","ATBIPUCO3EKS6","gain","7","","75","K","2","","0","0","1","0.4870567238","","false","31","0.07228097062","","main_expt","0.2794303661","","0.4870567238","","0.1234593762","","","","","","",""
"111","","bandit","107","348306","0.0-69.0-0.0","14314790","wem/bandit_single","ATBIPUCO3EKS6","gain","7","","76","L","3","","0","0","1","0.1204693509","","false","32","0.06660380695","","main_expt","0.2725021833","","0.4744541924","","0.1204693509","","","","","","",""
"44","","bandit","108","350108","0.0-70.0-0.0","14314790","wem/bandit_single","ATBIPUCO3EKS6","gain","7","","74","J","1","","1","0","0","0.2662358977","","false","33","0.06161000393","","main_expt","0.2662358977","","0.4595636441","","0.1525092538","","","","","","",""
"42","","bandit","109","351908","0.0-71.0-0.0","14314790","wem/bandit_single","ATBIPUCO3EKS6","gain","7","","74","J","1","","1","0","0","0.3062719381","","false","34","0.08245015188","","main_expt","0.3062719381","","0.4700794195","","0.0933794629","","","","","","",""
"42","","bandit","110","353708","0.0-72.0-0.0","14314790","wem/bandit_single","ATBIPUCO3EKS6","gain","7","","74","J","1","","1","0","0","0.3199342551","","false","35","0.08195488018","","main_expt","0.3199342551","","0.46481425","","0.06693018499","","","","","","",""
"549","","bandit","111","356013","0.0-73.0-0.0","14314790","wem/bandit_single","ATBIPUCO3EKS6","gain","7","","74","J","1","","0","0","1","0.3039619122","","false","36","0.1004102013","","main_expt","0.3039619122","","0.4518384169","","0.09916465935","","","","","","",""
"302","","bandit","112","358073","0.0-74.0-0.0","14314790","wem/bandit_single","ATBIPUCO3EKS6","gain","7","","75","K","2","","0","0","1","0.439581627","","false","37","0.1390326598","","main_expt","0.2927636057","","0.439581627","","0.08872434017","","","","","","",""
"43","","bandit","113","359873","0.0-75.0-0.0","14314790","wem/bandit_single","ATBIPUCO3EKS6","gain","7","","72","H","0","img/none_selected.jpg","1","0","0","0.143322519","","false","38","0.143322519","","main_expt","0.3513205482","","0.3994664239","","0.08103487055","","","","","","",""
"43","","bandit","114","361671","0.0-76.0-0.0","14314790","wem/bandit_single","ATBIPUCO3EKS6","gain","7","","72","H","0","img/none_selected.jpg","0","0","1","0.1439849427","","false","39","0.1439849427","","main_expt","0.3199725693","","0.399239641","","0.09262773223","","","","","","",""
"314","","bandit","115","363743","0.0-77.0-0.0","14314790","wem/bandit_single","ATBIPUCO3EKS6","gain","7","","76","L","3","","0","0","1","0.08276392867","","false","40","0.1813186375","","main_expt","0.2899826696","","0.3842971785","","0.08276392867","","","","","","",""
"98","","bandit","116","365599","0.0-78.0-0.0","14314790","wem/bandit_single","ATBIPUCO3EKS6","gain","7","","75","K","2","","0","0","1","0.3584077127","","false","41","0.182623784","","main_expt","0.2470457707","","0.3584077127","","0.07889170896","","","","","","",""
"55","","bandit","117","367410","0.0-79.0-0.0","14314790","wem/bandit_single","ATBIPUCO3EKS6","gain","7","","75","K","2","","0","0","1","0.2940512223","","false","42","0.1310997782","","main_expt","0.2860815649","","0.2940512223","","0.1007082374","","","","","","",""
"425","","bandit","118","369593","0.0-80.0-0.0","14314790","wem/bandit_single","ATBIPUCO3EKS6","gain","7","","75","K","2","","1","0","0","0.3274682868","","false","43","0.1211351308","","main_expt","0.3649324249","","0.3274682868","","0.04983151166","","","","","","",""
"65","","bandit","119","371415","0.0-81.0-0.0","14314790","wem/bandit_single","ATBIPUCO3EKS6","gain","7","","75","K","2","","0","0","1","0.3105097628","","false","44","0.1032393721","","main_expt","0.3722884938","","0.3105097628","","0.06772206808","","","","","","",""
"268","","bandit","120","373441","0.0-82.0-0.0","14314790","wem/bandit_single","ATBIPUCO3EKS6","gain","7","","74","J","1","","0","0","1","0.3589666793","","false","45","0.145243047","","main_expt","0.3589666793","","0.3253779088","","0.07082322934","","","","","","",""
"64","","bandit","121","375263","0.0-83.0-0.0","14314790","wem/bandit_single","ATBIPUCO3EKS6","gain","7","","74","J","1","","1","0","0","0.309469461","","false","46","0.1871821161","","main_expt","0.309469461","","0.2907447256","","0.08302100682","","","","","","",""
"86","","bandit","122","377107","0.0-84.0-0.0","14314790","wem/bandit_single","ATBIPUCO3EKS6","gain","7","","74","J","1","","1","0","0","0.3486132663","","false","47","0.1827431821","","main_expt","0.3486132663","","0.2922490699","","0.04947507936","","","","","","",""
"63","","bandit","123","378931","0.0-85.0-0.0","14314790","wem/bandit_single","ATBIPUCO3EKS6","gain","7","","74","J","1","","0","0","1","0.3613151755","","false","48","0.1863443356","","main_expt","0.3613151755","","0.3012354267","","0.05970491685","","","","","","",""
"582","","bandit","124","381271","0.0-86.0-0.0","14314790","wem/bandit_single","ATBIPUCO3EKS6","gain","7","","72","H","0","img/none_selected.jpg","0","0","1","0.2089920758","","false","49","0.2089920758","","main_expt","0.3810076255","","0.3199255499","","0.05846806591","","","","","","",""
"132","","bandit","125","383160","0.0-87.0-0.0","14314790","wem/bandit_single","ATBIPUCO3EKS6","gain","7","","76","L","3","","0","0","1","0.08078022322","","false","50","0.2204805957","","main_expt","0.3528158806","","0.3246792682","","0.08078022322","","","","","","",""
"76","","bandit","126","384994","0.0-88.0-0.0","14314790","wem/bandit_single","ATBIPUCO3EKS6","gain","7","","76","L","3","","0","0","1","0.08366705542","","false","51","0.2796788854","","main_expt","0.4127521961","","0.3158487008","","0.08366705542","","","","","","",""
"65","","bandit","127","386815","0.0-89.0-0.0","14314790","wem/bandit_single","ATBIPUCO3EKS6","gain","7","","76","L","3","","0","0","1","0.1365111474","","false","52","0.2870992152","","main_expt","0.4034362436","","0.2764666405","","0.1365111474","","","","","","",""
"78","","bandit","128","388649","0.0-90.0-0.0","14314790","wem/bandit_single","ATBIPUCO3EKS6","gain","7","","76","L","3","","0","0","1","0.1238361543","","false","53","0.3176469779","","main_expt","0.4268522392","","0.2740398937","","0.1238361543","","","","","","",""
"154","","bandit","129","390562","0.0-91.0-0.0","14314790","wem/bandit_single","ATBIPUCO3EKS6","gain","7","","75","K","2","","1","0","0","0.2499565254","","false","54","0.3407727651","","main_expt","0.4471231168","","0.2499565254","","0.1150058699","","","","","","",""
"43","","bandit","130","392363","0.0-92.0-0.0","14314790","wem/bandit_single","ATBIPUCO3EKS6","gain","7","","75","K","2","","0","0","1","0.221305586","","false","55","0.380871147","","main_expt","0.4397300441","","0.221305586","","0.1498695165","","","","","","",""
"874","","bandit","131","394996","0.0-93.0-0.0","14314790","wem/bandit_single","ATBIPUCO3EKS6","gain","7","","75","K","2","","0","0","1","0.2513729962","","false","56","0.3614982187","","main_expt","0.4266514607","","0.2513729962","","0.1559096332","","","","","","",""
"782","","bandit","132","397538","0.0-94.0-0.0","14314790","wem/bandit_single","ATBIPUCO3EKS6","gain","7","","75","K","2","","0","0","1","0.254621842","","false","57","0.3219973572","","main_expt","0.4351066669","","0.254621842","","0.139260175","","","","","","",""
"279","","bandit","133","399574","0.0-95.0-0.0","14314790","wem/bandit_single","ATBIPUCO3EKS6","gain","7","","72","H","0","img/none_selected.jpg","0","0","1","0.3136466855","","false","58","0.3136466855","","main_expt","0.4114765848","","0.2911199408","","0.1101041774","","","","","","",""
"1539","","bandit","134","402871","0.0-96.0-0.0","14314790","wem/bandit_single","ATBIPUCO3EKS6","gain","7","","72","H","0","img/none_selected.jpg","0","0","1","0.3553654786","","false","59","0.3553654786","","main_expt","0.4331866813","","0.3260103257","","0.1619704935","","","","","","",""
"166","","bandit","135","404794","0.0-97.0-0.0","14314790","wem/bandit_single","ATBIPUCO3EKS6","gain","7","","75","K","2","","1","0","0","0.3801831719","","false","60","0.302494743","","main_expt","0.4452666195","","0.3801831719","","0.1023472493","","","","","","",""
"133","","bandit","136","406684","0.0-98.0-0.0","14314790","wem/bandit_single","ATBIPUCO3EKS6","gain","7","","75","K","2","","0","0","1","0.4097171909","","false","61","0.3194951829","","main_expt","0.4533212266","","0.4097171909","","0.1659923055","","","","","","",""
"99","","bandit","137","408541","0.0-99.0-0.0","14314790","wem/bandit_single","ATBIPUCO3EKS6","gain","7","","76","L","3","","0","0","1","0.1773336283","","false","62","0.3491175101","","main_expt","0.4546633602","","0.4297251169","","0.1773336283","","","","","","",""
"142","","bandit","138","410442","0.0-100.0-0.0","14314790","wem/bandit_single","ATBIPUCO3EKS6","gain","7","","76","L","3","","0","0","1","0.1838898345","","false","63","0.3618657485","","main_expt","0.431915851","","0.4523537282","","0.1838898345","","","","","","",""
"763","","bandit","139","412962","0.0-101.0-0.0","14314790","wem/bandit_single","ATBIPUCO3EKS6","gain","7","","74","J","1","","0","0","1","0.4397857724","","false","64","0.3331995431","","main_expt","0.4397857724","","0.4577822331","","0.1535376321","","","","","","",""
"278","","bandit","140","414997","0.0-102.0-0.0","14314790","wem/bandit_single","ATBIPUCO3EKS6","gain","7","","72","H","0","img/none_selected.jpg","0","0","1","0.3222916502","","false","65","0.3222916502","","main_expt","0.3803141428","","0.4366397349","","0.1696059705","","","","","","",""
"54","","bandit","141","416809","0.0-103.0-0.0","14314790","wem/bandit_single","ATBIPUCO3EKS6","gain","7","","75","K","2","","0","0","1","0.4223045317","","false","66","0.2935747005","","main_expt","0.4318665216","","0.4223045317","","0.1747776373","","","","","","",""
"76","","bandit","142","418644","0.0-104.0-0.0","14314790","wem/bandit_single","ATBIPUCO3EKS6","gain","7","","75","K","2","","0","0","1","0.453094409","","false","67","0.272098099","","main_expt","0.3783394243","","0.453094409","","0.1880318686","","","","","","",""
"142","","bandit","143","420543","0.0-105.0-0.0","14314790","wem/bandit_single","ATBIPUCO3EKS6","gain","7","","72","H","0","img/none_selected.jpg","0","0","1","0.2839543474","","false","68","0.2839543474","","main_expt","0.3424409758","","0.4441165928","","0.1703396733","","","","","","",""
"178","","bandit","144","422478","0.0-106.0-0.0","14314790","wem/bandit_single","ATBIPUCO3EKS6","gain","7","","72","H","0","img/none_selected.jpg","0","0","1","0.3106529802","","false","69","0.3106529802","","main_expt","0.3825588005","","0.437102529","","0.2041307244","","","","","","",""
"156","","bandit","145","424392","0.0-107.0-0.0","14314790","wem/bandit_single","ATBIPUCO3EKS6","gain","7","","72","H","0","img/none_selected.jpg","0","0","1","0.2152651325","","false","70","0.2152651325","","main_expt","0.4019939479","","0.463010405","","0.2380468473","","","","","","",""
"209","","bandit","146","426360","0.0-108.0-0.0","14314790","wem/bandit_single","ATBIPUCO3EKS6","gain","7","","76","L","3","","1","0","0","0.2540220497","","false","71","0.2150247356","","main_expt","0.3995375499","","0.4511055106","","0.2540220497","","","","","","",""
"234","","bandit","147","428351","0.0-109.0-0.0","14314790","wem/bandit_single","ATBIPUCO3EKS6","gain","7","","76","L","3","","0","0","1","0.2877519017","","false","72","0.2196699897","","main_expt","0.3655493795","","0.456238914","","0.2877519017","","","","","","",""
"245","","bandit","148","430353","0.0-110.0-0.0","14314790","wem/bandit_single","ATBIPUCO3EKS6","gain","7","","75","K","2","","1","0","0","0.4499554287","","false","73","0.2086164273","","main_expt","0.3443296275","","0.4499554287","","0.3090267326","","","","","","",""
"77","","bandit","149","432188","0.0-111.0-0.0","14314790","wem/bandit_single","ATBIPUCO3EKS6","gain","7","","75","K","2","","0","0","1","0.4439780401","","false","74","0.2226006448","","main_expt","0.3647916216","","0.4439780401","","0.3400901674","","","","","","",""
"178","","bandit","150","434122","0.0-112.0-0.0","14314790","wem/bandit_single","ATBIPUCO3EKS6","gain","7","","74","J","1","","1","0","0","0.3531956798","","false","75","0.2015377479","","main_expt","0.3531956798","","0.4332341766","","0.3519214117","","","","","","",""
"909","","bandit","151","436790","0.0-113.0-0.0","14314790","wem/bandit_single","ATBIPUCO3EKS6","gain","7","","74","J","1","","0","0","1","0.3375826797","","false","76","0.2614433548","","main_expt","0.3375826797","","0.4241516559","","0.3621584499","","","","","","",""
"154","","bandit","152","438701","0.0-114.0-0.0","14314790","wem/bandit_single","ATBIPUCO3EKS6","gain","7","","76","L","3","","0","0","1","0.3919288513","","false","77","0.3216300101","","main_expt","0.3389323042","","0.404580079","","0.3919288513","","","","","","",""
"402","","bandit","153","440862","0.0-115.0-0.0","14314790","wem/bandit_single","ATBIPUCO3EKS6","gain","7","","72","H","0","img/none_selected.jpg","0","0","1","0.3253900192","","false","78","0.3253900192","","main_expt","0.3633343286","","0.4291019186","","0.3733142104","","","","","","",""
"97","","bandit","154","442717","0.0-116.0-0.0","14314790","wem/bandit_single","ATBIPUCO3EKS6","gain","7","","76","L","3","","1","0","0","0.3594898906","","false","79","0.3253799771","","main_expt","0.35510173","","0.4431072694","","0.3594898906","","","","","","",""
"269","","bandit","155","444744","0.0-117.0-0.0","14314790","wem/bandit_single","ATBIPUCO3EKS6","gain","7","","76","L","3","","0","0","1","0.3740263767","","false","80","0.321449248","","main_expt","0.3313699227","","0.4443251544","","0.3740263767","","","","","","",""
"188","","bandit","156","446690","0.0-118.0-0.0","14314790","wem/bandit_single","ATBIPUCO3EKS6","gain","7","","74","J","1","","0","0","1","0.3545786091","","false","81","0.3644617874","","main_expt","0.3545786091","","0.4222806544","","0.4031190442","","","","","","",""
"133","","bandit","157","448580","0.0-119.0-0.0","14314790","wem/bandit_single","ATBIPUCO3EKS6","gain","7","","75","K","2","","0","0","1","0.4348184101","","false","82","0.3646727683","","main_expt","0.36958943","","0.4348184101","","0.397551472","","","","","","",""
"435","","bandit","158","450773","0.0-120.0-0.0","14314790","wem/bandit_single","ATBIPUCO3EKS6","gain","7","","72","H","0","img/none_selected.jpg","0","0","1","0.3823543101","","false","83","0.3823543101","","main_expt","0.3818301908","","0.4237956171","","0.4251589807","","","","","","",""
"110","","bandit","159","452641","0.0-121.0-0.0","14314790","wem/bandit_single","ATBIPUCO3EKS6","gain","7","","72","H","0","img/none_selected.jpg","1","0","0","0.3927357351","","false","84","0.3927357351","","main_expt","0.3841316884","","0.4255820551","","0.406460911","","","","","","",""
"210","","bandit","160","454608","0.0-122.0-0.0","14314790","wem/bandit_single","ATBIPUCO3EKS6","gain","7","","72","H","0","img/none_selected.jpg","1","0","0","0.3242792488","","false","85","0.3242792488","","main_expt","0.3769873451","","0.4407045426","","0.4190094225","","","","","","",""
"234","","bandit","161","456599","0.0-123.0-0.0","14314790","wem/bandit_single","ATBIPUCO3EKS6","gain","7","","72","H","0","img/none_selected.jpg","0","0","1","0.3257651096","","false","86","0.3257651096","","main_expt","0.3624331431","","0.4276882268","","0.4006115864","","","","","","",""
"291","","bandit","162","458648","0.0-124.0-0.0","14314790","wem/bandit_single","ATBIPUCO3EKS6","gain","7","","76","L","3","","0","0","1","0.3761684651","","false","87","0.3768973447","","main_expt","0.356636023","","0.4430021271","","0.3761684651","","","","","","",""
"582","","bandit","163","460988","0.0-125.0-0.0","14314790","wem/bandit_single","ATBIPUCO3EKS6","gain","7","","74","J","1","","1","0","0","0.392705536","","false","88","0.3333804566","","main_expt","0.392705536","","0.4259892117","","0.3935355307","","","","","","",""
"256","","bandit","164","463002","0.0-126.0-0.0","14314790","wem/bandit_single","ATBIPUCO3EKS6","gain","7","","74","J","1","","0","0","1","0.39579544","","false","89","0.3326985542","","main_expt","0.39579544","","0.4451393147","","0.3870426381","","","","","","",""
"390","","bandit","165","465150","0.0-127.0-0.0","14314790","wem/bandit_single","ATBIPUCO3EKS6","gain","7","","75","K","2","","1","0","0","0.4450202473","","false","90","0.3392082427","","main_expt","0.3832348421","","0.4450202473","","0.3838573884","","","","","","",""
"54","","bandit","166","466963","0.0-128.0-0.0","14314790","wem/bandit_single","ATBIPUCO3EKS6","gain","7","","75","K","2","","0","0","1","0.428726471","","false","91","0.2686139101","","main_expt","0.4009824957","","0.428726471","","0.376063899","","","","","","",""
"65","","bandit","167","468785","0.0-129.0-0.0","14314790","wem/bandit_single","ATBIPUCO3EKS6","gain","7","","76","L","3","","1","0","0","0.3877690924","","false","92","0.247120026","","main_expt","0.360902971","","0.4207086611","","0.3877690924","","","","","","",""
"255","","bandit","168","470798","0.0-130.0-0.0","14314790","wem/bandit_single","ATBIPUCO3EKS6","gain","7","","76","L","3","","1","0","0","0.3832772702","","false","93","0.1945967668","","main_expt","0.4098322422","","0.4271109851","","0.3832772702","","","","","","",""
"76","","bandit","169","472632","0.0-131.0-0.0","14314790","wem/bandit_single","ATBIPUCO3EKS6","gain","7","","76","L","3","","1","0","0","0.3569295009","","false","94","0.2059940606","","main_expt","0.365685068","","0.3988025755","","0.3569295009","","","","","","",""
"64","","bandit","170","474455","0.0-132.0-0.0","14314790","wem/bandit_single","ATBIPUCO3EKS6","gain","7","","76","L","3","","0","0","1","0.3462427099","","false","95","0.2276463074","","main_expt","0.3246475432","","0.3413505888","","0.3462427099","","","","","","",""
"243","","bandit","171","476456","0.0-133.0-0.0","14314790","wem/bandit_single","ATBIPUCO3EKS6","gain","7","","72","H","0","img/none_selected.jpg","0","0","1","0.3088064785","","false","96","0.3088064785","","main_expt","0.3155220288","","0.2791034264","","0.2902370181","","","","","","",""
"98","","bandit","172","478312","0.0-134.0-0.0","14314790","wem/bandit_single","ATBIPUCO3EKS6","gain","7","","72","H","0","img/none_selected.jpg","0","0","1","0.3167474357","","false","97","0.3167474357","","main_expt","0.2920368253","","0.2300358144","","0.2679909325","","","","","","",""
"135","","bandit","173","480204","0.0-135.0-0.0","14314790","wem/bandit_single","ATBIPUCO3EKS6","gain","7","","76","L","3","","1","0","0","0.1827708427","","false","98","0.3311058144","","main_expt","0.3060047135","","0.245913642","","0.1827708427","","","","","","",""
"2349","","bandit","174","484310","0.0-136.0-0.0","14314790","wem/bandit_single","ATBIPUCO3EKS6","gain","7","","75","K","2","","0","0","1","0.1977736678","","false","99","0.2831383079","","main_expt","0.2834300817","","0.1977736678","","0.1847148603","","","","","","",""
"74","","bandit","175","486142","0.0-137.0-0.0","14314790","wem/bandit_single","ATBIPUCO3EKS6","gain","7","","75","K","2","","0","0","1","0.2300987319","","false","100","0.2697282324","","main_expt","0.3094748938","","0.2300987319","","0.230590463","","","","","","",""
"201","","bandit","176","488100","0.0-138.0-0.0","14314790","wem/bandit_single","ATBIPUCO3EKS6","gain","7","","75","K","2","","0","0","1","0.2375929523","","false","101","0.2908511313","","main_expt","0.2776834174","","0.2375929523","","0.2036778932","","","","","","",""
"413","","bandit","177","490272","0.0-139.0-0.0","14314790","wem/bandit_single","ATBIPUCO3EKS6","gain","7","","75","K","2","","0","0","1","0.2034833152","","false","102","0.3371086545","","main_expt","0.2649828438","","0.2034833152","","0.2146692458","","","","","","",""
"299","","bandit","178","492330","0.0-140.0-0.0","14314790","wem/bandit_single","ATBIPUCO3EKS6","gain","7","","76","L","3","","1","0","0","0.2194044235","","false","103","0.2925399581","","main_expt","0.1977849252","","0.2510503681","","0.2194044235","","","","","","",""
"9","","bandit","179","494096","0.0-141.0-0.0","14314790","wem/bandit_single","ATBIPUCO3EKS6","gain","7","","76","L","3","","0","0","1","0.2869514305","","false","104","0.229866195","","main_expt","0.164180841","","0.2563420723","","0.2869514305","","","","","","",""
"63","","bandit","180","495920","0.0-142.0-0.0","14314790","wem/bandit_single","ATBIPUCO3EKS6","gain","7","","76","L","3","","0","0","1","0.2577924419","","false","105","0.2786648232","","main_expt","0.1410880488","","0.2025228913","","0.2577924419","","","","","","",""
"52","","bandit","181","497731","0.0-143.0-0.0","14314790","wem/bandit_single","ATBIPUCO3EKS6","gain","7","","75","K","2","","0","0","1","0.2288818116","","false","106","0.2907959635","","main_expt","0.2151151798","","0.2288818116","","0.2984789445","","","","","","",""
"987","","bandit","182","500477","0.0-144.0-0.0","14314790","wem/bandit_single","ATBIPUCO3EKS6","gain","7","","74","J","1","","0","0","1","0.2068678097","","false","107","0.2934471614","","main_expt","0.2068678097","","0.2725684277","","0.2483059356","","","","","","",""
"130","","bandit","183","502365","0.0-145.0-0.0","14314790","wem/bandit_single","ATBIPUCO3EKS6","gain","7","","72","H","0","img/none_selected.jpg","0","0","1","0.2761460559","","false","108","0.2761460559","","main_expt","0.1775779384","","0.2725367566","","0.2177203031","","","","","","",""
"54","","bandit","184","504176","0.0-146.0-0.0","14314790","wem/bandit_single","ATBIPUCO3EKS6","gain","7","","74","J","1","","0","0","1","0.1633907035","","false","109","0.3154055318","","main_expt","0.1633907035","","0.2645412755","","0.2155336726","","","","","","",""
"43","","bandit","185","505976","0.0-147.0-0.0","14314790","wem/bandit_single","ATBIPUCO3EKS6","gain","7","","75","K","2","","0","0","1","0.2537238549","","false","110","0.3375256398","","main_expt","0.1918139944","","0.2537238549","","0.2012134729","","","","","","",""
"415","","bandit","186","508148","0.0-148.0-0.0","14314790","wem/bandit_single","ATBIPUCO3EKS6","gain","7","","76","L","3","","1","0","0","0.1362677005","","false","111","0.3575411602","","main_expt","0.1512725872","","0.2404930496","","0.1362677005","","","","","","",""
"53","","bandit","187","509959","0.0-149.0-0.0","14314790","wem/bandit_single","ATBIPUCO3EKS6","gain","7","","76","L","3","","0","0","1","0.1146466799","","false","112","0.3357984678","","main_expt","0.1579322392","","0.2031918028","","0.1146466799","","","","","","",""
"637","","bandit","188","512356","0.0-150.0-0.0","14314790","wem/bandit_single","ATBIPUCO3EKS6","gain","7","","75","K","2","","0","0","1","0.2649243105","","false","113","0.2950954247","","main_expt","0.1638150459","","0.2649243105","","0.1503083978","","","","","","",""
"243","","bandit","189","514358","0.0-151.0-0.0","14314790","wem/bandit_single","ATBIPUCO3EKS6","gain","7","","74","J","1","","0","0","1","0.1913716077","","false","114","0.3242299597","","main_expt","0.1913716077","","0.2669290767","","0.1750780752","","","","","","",""
"1223","","bandit","190","517339","0.0-152.0-0.0","14314790","wem/bandit_single","ATBIPUCO3EKS6","gain","7","","72","H","0","img/none_selected.jpg","1","0","0","0.3224166769","","false","115","0.3224166769","","main_expt","0.1762938339","","0.2538219684","","0.1486636943","","","","","","",""
"648","","bandit","191","519747","0.0-153.0-0.0","14314790","wem/bandit_single","ATBIPUCO3EKS6","gain","7","","72","H","0","img/none_selected.jpg","0","0","1","0.3512221687","","false","116","0.3512221687","","main_expt","0.1696576366","","0.2987800907","","0.149377163","","","","","","",""
"335","","bandit","192","521839","0.0-154.0-0.0","14314790","wem/bandit_single","ATBIPUCO3EKS6","gain","7","","72","H","0","img/none_selected.jpg","0","0","1","0.3854596622","","false","117","0.3854596622","","main_expt","0.1743908607","","0.2863147972","","0.1255156769","","","","","","",""
"143","","bandit","193","523742","0.0-155.0-0.0","14314790","wem/bandit_single","ATBIPUCO3EKS6","gain","7","","72","H","0","img/none_selected.jpg","0","0","1","0.3311459155","","false","118","0.3311459155","","main_expt","0.2187419408","","0.2863485017","","0.09405737873","","","","","","",""
"153","","bandit","194","525654","0.0-156.0-0.0","14314790","wem/bandit_single","ATBIPUCO3EKS6","gain","7","","72","H","0","img/none_selected.jpg","1","0","0","0.3243143835","","false","119","0.3243143835","","main_expt","0.2602037773","","0.2704451175","","0.0580133569","","","","","","",""
"132","","bandit","195","527542","0.0-157.0-0.0","14314790","wem/bandit_single","ATBIPUCO3EKS6","gain","7","","72","H","0","img/none_selected.jpg","1","0","0","0.3830596167","","false","120","0.3830596167","","main_expt","0.2665240463","","0.2545920365","","0.04965982272","","","","","","",""
"155","","bandit","196","529456","0.0-158.0-0.0","14314790","wem/bandit_single","ATBIPUCO3EKS6","gain","7","","72","H","0","img/none_selected.jpg","1","0","0","0.4451194006","","false","121","0.4451194006","","main_expt","0.2300357123","","0.323502768","","0.05452098248","","","","","","",""
"143","","bandit","197","531358","0.0-159.0-0.0","14314790","wem/bandit_single","ATBIPUCO3EKS6","gain","7","","72","H","0","img/none_selected.jpg","0","0","1","0.4636898934","","false","122","0.4636898934","","main_expt","0.2071140152","","0.3380353075","","0.0475995955","","","","","","",""
"266","","bandit","198","533381","0.0-160.0-0.0","14314790","wem/bandit_single","ATBIPUCO3EKS6","gain","7","","72","H","0","img/none_selected.jpg","0","0","1","0.4384370655","","false","123","0.4384370655","","main_expt","0.2590656513","","0.341491638","","0.04799769062","","","","","","",""
"289","","bandit","199","535430","0.0-161.0-0.0","14314790","wem/bandit_single","ATBIPUCO3EKS6","gain","7","","75","K","2","","0","0","1","0.3269941981","","false","124","0.456933673","","main_expt","0.2492473134","","0.3269941981","","0.06454195205","","","","","","",""
"300","","bandit","200","537489","0.0-162.0-0.0","14314790","wem/bandit_single","ATBIPUCO3EKS6","gain","7","","76","L","3","","1","0","0","0.0570469748","","false","125","0.4834692703","","main_expt","0.2569957816","","0.3263020805","","0.0570469748","","","","","","",""
"187","","bandit","201","539434","0.0-163.0-0.0","14314790","wem/bandit_single","ATBIPUCO3EKS6","gain","7","","76","L","3","","0","0","1","0.06214194377","","false","126","0.4895912119","","main_expt","0.2715808503","","0.3377655475","","0.06214194377","","","","","","",""
"470","","bandit","202","541662","0.0-164.0-0.0","14314790","wem/bandit_single","ATBIPUCO3EKS6","gain","7","","74","J","1","","0","0","1","0.3260406689","","false","127","0.4791977258","","main_expt","0.3260406689","","0.3489319456","","0.06219251386","","","","","","",""
"493","","bandit","203","543914","0.0-165.0-0.0","14314790","wem/bandit_single","ATBIPUCO3EKS6","gain","7","","75","K","2","","0","0","1","0.3450526125","","false","128","0.4772399827","","main_expt","0.3487232841","","0.3450526125","","0.06192095676","","","","","","",""
"141","","bandit","204","545813","0.0-166.0-0.0","14314790","wem/bandit_single","ATBIPUCO3EKS6","gain","7","","72","H","0","img/none_selected.jpg","0","0","1","0.4688955373","","false","129","0.4688955373","","main_expt","0.3601162145","","0.3297424559","","0.03846933599","","","","","","",""
"998","","bandit","205","548568","0.0-167.0-0.0","14314790","wem/bandit_single","ATBIPUCO3EKS6","gain","7","","72","H","0","img/none_selected.jpg","0","0","1","0.4651179545","","false","130","0.4651179545","","main_expt","0.4185413006","","0.3731420779","","0.02330960587","","","","","","",""
"280","","bandit","206","550605","0.0-168.0-0.0","14314790","wem/bandit_single","ATBIPUCO3EKS6","gain","7","","72","H","0","img/none_selected.jpg","1","0","0","0.4794739162","","false","131","0.4794739162","","main_expt","0.4537663544","","0.325638262","","0.03495479357","","","","","","",""
"9","","bandit","207","552372","0.0-169.0-0.0","14314790","wem/bandit_single","ATBIPUCO3EKS6","gain","7","","72","H","0","img/none_selected.jpg","1","0","0","0.4679846252","","false","132","0.4679846252","","main_expt","0.4489861829","","0.3132782049","","0.02752519027","","","","","","",""
"64","","bandit","208","554196","0.0-170.0-0.0","14314790","wem/bandit_single","ATBIPUCO3EKS6","gain","7","","72","H","0","img/none_selected.jpg","1","0","0","0.4636487781","","false","133","0.4636487781","","main_expt","0.4465240103","","0.3552481716","","0.03239645132","","","","","","",""
"186","","bandit","209","556139","0.0-171.0-0.0","14314790","wem/bandit_single","ATBIPUCO3EKS6","gain","7","","72","H","0","img/none_selected.jpg","1","0","0","0.4578614037","","false","134","0.4578614037","","main_expt","0.4286255731","","0.3478795997","","0.02361228775","","","","","","",""
"54","","bandit","210","557953","0.0-172.0-0.0","14314790","wem/bandit_single","ATBIPUCO3EKS6","gain","7","","72","H","0","img/none_selected.jpg","1","0","0","0.4339873336","","false","135","0.4339873336","","main_expt","0.3969320342","","0.3394088604","","0.01378345967","","","","","","",""
"19","","bandit","211","559729","0.0-173.0-0.0","14314790","wem/bandit_single","ATBIPUCO3EKS6","gain","7","","72","H","0","img/none_selected.jpg","0","0","1","0.4091277288","","false","136","0.4091277288","","main_expt","0.3975573163","","0.3739095734","","0.01349892684","","","","","","",""
"120","","bandit","212","561607","0.0-174.0-0.0","14314790","wem/bandit_single","ATBIPUCO3EKS6","gain","7","","75","K","2","","0","0","1","0.3319731639","","false","137","0.4024864596","","main_expt","0.4226438881","","0.3319731639","","0.01373747566","","","","","","",""
"1033","","bandit","213","564399","0.0-175.0-0.0","14314790","wem/bandit_single","ATBIPUCO3EKS6","gain","7","","74","J","1","","0","0","1","0.383622376","","false","138","0.3793932322","","main_expt","0.383622376","","0.3427854578","","0.009346923256","","","","","","",""
"480","","bandit","214","566637","0.0-176.0-0.0","14314790","wem/bandit_single","ATBIPUCO3EKS6","gain","7","","72","H","0","img/none_selected.jpg","1","0","0","0.3940691536","","false","139","0.3940691536","","main_expt","0.3892077266","","0.2804250852","","0.005947695369","","","","","","",""
"64","","bandit","215","568459","0.0-177.0-0.0","14314790","wem/bandit_single","ATBIPUCO3EKS6","gain","7","","72","H","0","img/none_selected.jpg","0","0","1","0.3878174143","","false","140","0.3878174143","","main_expt","0.3721285976","","0.294489168","","0.003062149202","","","","","","",""
"92","","bandit","216","570311","0.0-178.0-0.0","14314790","wem/bandit_single","ATBIPUCO3EKS6","gain","7","","76","L","3","","0","0","1","0.003723800288","","false","141","0.3671315422","","main_expt","0.403063379","","0.2849233321","","0.003723800288","","","","","","",""
"227","","bandit","217","572296","0.0-179.0-0.0","14314790","wem/bandit_single","ATBIPUCO3EKS6","gain","7","","76","L","3","","0","0","1","0.003048460602","","false","142","0.338830911","","main_expt","0.3916907223","","0.2605380125","","0.003048460602","","","","","","",""
"108","","bandit","218","574164","0.0-180.0-0.0","14314790","wem/bandit_single","ATBIPUCO3EKS6","gain","7","","75","K","2","","1","0","0","0.3030740536","","false","143","0.2709557481","","main_expt","0.4212357341","","0.3030740536","","0.002664125267","","","","","","",""
"77","","bandit","219","575998","0.0-181.0-0.0","14314790","wem/bandit_single","ATBIPUCO3EKS6","gain","7","","75","K","2","","0","0","1","0.29766321","","false","144","0.249986241","","main_expt","0.3944164323","","0.29766321","","0.0015633636","","","","","","",""
"78","","bandit","220","577835","0.0-182.0-0.0","14314790","wem/bandit_single","ATBIPUCO3EKS6","gain","7","","75","K","2","","0","0","1","0.2862291296","","false","145","0.2694710106","","main_expt","0.4129391908","","0.2862291296","","0.002084593646","","","","","","",""
"869","","bandit","221","580464","0.0-183.0-0.0","14314790","wem/bandit_single","ATBIPUCO3EKS6","gain","7","","75","K","2","","0","0","1","0.3151642481","","false","146","0.3099728414","","main_expt","0.4027876266","","0.3151642481","","0.0008356934022","","","","","","",""
"309","","bandit","222","582533","0.0-184.0-0.0","14314790","wem/bandit_single","ATBIPUCO3EKS6","gain","7","","74","J","1","","0","0","1","0.3906291495","","false","147","0.3010760093","","main_expt","0.3906291495","","0.3261334855","","0.00187417998","","","","","","",""
"75","","bandit","223","584366","0.0-185.0-0.0","14314790","wem/bandit_single","ATBIPUCO3EKS6","gain","7","","74","J","1","","1","0","0","0.3718958907","","false","148","0.2861733563","","main_expt","0.3718958907","","0.3605999671","","0.001549413081","","","","","","",""
"133","","bandit","224","586259","0.0-186.0-0.0","14314790","wem/bandit_single","ATBIPUCO3EKS6","gain","7","","74","J","1","","0","0","1","0.3513552953","","false","149","0.2613296644","","main_expt","0.3513552953","","0.3848975894","","0.002318569837","","","","","","",""
"500","","bandit","225","588519","0.0-187.0-0.0","14314790","wem/bandit_single","ATBIPUCO3EKS6","gain","7","","74","J","1","","0","0","1","0.3796712552","","false","150","0.2955554784","","main_expt","0.3796712552","","0.3680345664","","0.002401941109","","","","","","",""
"119","","bandit","226","590397","0.0-188.0-0.0","14314790","wem/bandit_single","ATBIPUCO3EKS6","gain","7","","74","J","1","","0","0","1","0.4275550045","","false","151","0.2928365899","","main_expt","0.4275550045","","0.3517559312","","0.002416650241","","","","","","",""
"53","","bandit","227","592209","0.0-189.0-0.0","14314790","wem/bandit_single","ATBIPUCO3EKS6","gain","7","","76","L","3","","0","0","1","0.002533271813","","false","152","0.3000067833","","main_expt","0.4266807854","","0.3963282571","","0.002533271813","","","","","","",""
"322","","bandit","228","594291","0.0-190.0-0.0","14314790","wem/bandit_single","ATBIPUCO3EKS6","gain","7","","76","L","3","","0","0","1","0.00322942279","","false","153","0.2757802357","","main_expt","0.4633151701","","0.432842039","","0.00322942279","","","","","","",""
"872","","bandit","229","596922","0.0-191.0-0.0","14314790","wem/bandit_single","ATBIPUCO3EKS6","gain","7","","72","H","0","img/none_selected.jpg","0","0","1","0.3252288772","","false","154","0.3252288772","","main_expt","0.4723469507","","0.4134551824","","0.003404333974","","","","","","",""
"86","","bandit","230","598767","0.0-192.0-0.0","14314790","wem/bandit_single","ATBIPUCO3EKS6","gain","7","","72","H","0","img/none_selected.jpg","0","0","1","0.2746928085","","false","155","0.2746928085","","main_expt","0.4829251431","","0.426737857","","0.008925030754","","","","","","",""
"75","","bandit","231","600601","0.0-193.0-0.0","14314790","wem/bandit_single","ATBIPUCO3EKS6","gain","7","","72","H","0","img/none_selected.jpg","0","0","1","0.2881451241","","false","156","0.2881451241","","main_expt","0.4753947098","","0.4289541051","","0.005317619152","","","","","","",""
"367","","bandit","232","602726","0.0-194.0-0.0","14314790","wem/bandit_single","ATBIPUCO3EKS6","gain","7","","74","J","1","","0","0","1","0.4686295074","","false","157","0.2861132768","","main_expt","0.4686295074","","0.4593738684","","0.002657446392","","","","","","",""
"212","","bandit","233","604696","0.0-195.0-0.0","14314790","wem/bandit_single","ATBIPUCO3EKS6","gain","7","","75","K","2","","1","0","0","0.4716769587","","false","158","0.2382703247","","main_expt","0.4746137902","","0.4716769587","","0.005349678466","","","","","","",""
"20","","bandit","234","606475","0.0-196.0-0.0","14314790","wem/bandit_single","ATBIPUCO3EKS6","gain","7","","75","K","2","","0","0","1","0.4566829936","","false","159","0.2650616746","","main_expt","0.4626257703","","0.4566829936","","0.00353293949","","","","","","",""
"28","","bandit","235","608262","0.0-197.0-0.0","14314790","wem/bandit_single","ATBIPUCO3EKS6","gain","7","","76","L","3","","0","0","1","0.004525880368","","false","160","0.2841227011","","main_expt","0.4690497323","","0.4684401337","","0.004525880368","","","","","","",""
"119","","bandit","236","610142","0.0-198.0-0.0","14314790","wem/bandit_single","ATBIPUCO3EKS6","gain","7","","76","L","3","","0","0","1","0.00364468733","","false","161","0.3103310899","","main_expt","0.4605728382","","0.4327192474","","0.00364468733","","","","","","",""
"1559","","bandit","237","613459","0.0-199.0-0.0","14314790","wem/bandit_single","ATBIPUCO3EKS6","gain","7","","76","L","3","","0","0","1","0.004567203872","","false","162","0.2990864795","","main_expt","0.4663204896","","0.4158578039","","0.004567203872","","","","","","",""
"299","","bandit","238","615517","0.0-200.0-0.0","14314790","wem/bandit_single","ATBIPUCO3EKS6","gain","7","","75","K","2","","0","0","1","0.4206849782","","false","163","0.2650304997","","main_expt","0.4626626357","","0.4206849782","","0.003538815","","","","","","",""
"235","","bandit","239","617512","0.0-201.0-0.0","14314790","wem/bandit_single","ATBIPUCO3EKS6","gain","7","","75","K","2","","0","0","1","0.4276923589","","false","164","0.2877519924","","main_expt","0.4672680551","","0.4276923589","","0.002896615325","","","","","","",""
"501","","bandit","240","619770","0.0-202.0-0.0","14314790","wem/bandit_single","ATBIPUCO3EKS6","gain","7","","75","K","2","","1","0","0","0.4204466813","","false","165","0.2818109827","","main_expt","0.455015491","","0.4204466813","","0.004500484281","","","","","","",""
"1167","","bandit","241","622696","0.0-203.0-0.0","14314790","wem/bandit_single","ATBIPUCO3EKS6","gain","7","","74","J","1","","1","0","0","0.4201800218","","false","166","0.324785045","","main_expt","0.4201800218","","0.4229734844","","0.01017739848","","","","","","",""
"4586","","bandit","242","629042","0.0-204.0-0.0","14314790","wem/bandit_single","ATBIPUCO3EKS6","gain","7","","75","K","2","","1","0","0","0.4474449943","","false","167","0.3339304688","","main_expt","0.4430085171","","0.4474449943","","0.0129517719","","","","","","",""
"197","","bandit","243","630999","0.0-205.0-0.0","14314790","wem/bandit_single","ATBIPUCO3EKS6","gain","7","","72","H","0","img/none_selected.jpg","0","0","1","0.3351003476","","false","168","0.3351003476","","main_expt","0.4526671473","","0.4458086367","","0.009045291763","","","","","","",""
"197","","bandit","244","632956","0.0-206.0-0.0","14314790","wem/bandit_single","ATBIPUCO3EKS6","gain","7","","75","K","2","","0","0","1","0.4619433307","","false","169","0.3556935824","","main_expt","0.4477525289","","0.4619433307","","0.01553154223","","","","","","",""
"344","","bandit","245","635060","0.0-207.0-0.0","14314790","wem/bandit_single","ATBIPUCO3EKS6","gain","7","","74","J","1","","0","0","1","0.41154262","","false","170","0.3690608098","","main_expt","0.41154262","","0.4703570947","","0.01787531072","","","","","","",""
"3653","","bandit","246","640472","0.0-208.0-0.0","14314790","wem/bandit_single","ATBIPUCO3EKS6","gain","7","","76","L","3","","0","0","1","0.01316551092","","false","171","0.3631266209","","main_expt","0.37868858","","0.474742395","","0.01316551092","","","","","","",""
"51","","bandit","247","642283","0.0-209.0-0.0","14314790","wem/bandit_single","ATBIPUCO3EKS6","gain","7","","75","K","2","","1","0","0","0.4773845315","","false","172","0.3392191481","","main_expt","0.3971498268","","0.4773845315","","0.0172037691","","","","","","",""
"703","","bandit","248","644746","0.0-210.0-0.0","14314790","wem/bandit_single","ATBIPUCO3EKS6","gain","7","","75","K","2","","1","0","0","0.4680058345","","false","173","0.2931772585","","main_expt","0.4319579383","","0.4680058345","","0.01427011775","","","","","","",""
"141","","bandit","249","646648","0.0-211.0-0.0","14314790","wem/bandit_single","ATBIPUCO3EKS6","gain","7","","74","J","1","","0","0","1","0.4174714043","","false","174","0.2750831853","","main_expt","0.4174714043","","0.4561145842","","0.01057019218","","","","","","",""
"231","","bandit","250","648637","0.0-212.0-0.0","14314790","wem/bandit_single","ATBIPUCO3EKS6","gain","7","","72","H","0","img/none_selected.jpg","0","0","1","0.2997345097","","false","175","0.2997345097","","main_expt","0.3846013355","","0.472279608","","0.007255369755","","","","","","",""
"167","","bandit","251","650564","0.0-213.0-0.0","14314790","wem/bandit_single","ATBIPUCO3EKS6","gain","7","","76","L","3","","0","0","1","0.01305273867","","false","176","0.3402413884","","main_expt","0.4019342833","","0.4602447812","","0.01305273867","","","","","","",""
"51","","bandit","252","652375","0.0-214.0-0.0","14314790","wem/bandit_single","ATBIPUCO3EKS6","gain","7","","75","K","2","","0","0","1","0.4343313091","","false","177","0.3099882557","","main_expt","0.4211485366","","0.4343313091","","0.0133150908","","","","","","",""
"535","","bandit","253","654669","0.0-215.0-0.0","14314790","wem/bandit_single","ATBIPUCO3EKS6","gain","7","","75","K","2","","0","0","1","0.4048428007","","false","178","0.2761175095","","main_expt","0.4133977621","","0.4048428007","","0.01259822705","","","","","","",""
"1335","","bandit","254","657762","0.0-216.0-0.0","14314790","wem/bandit_single","ATBIPUCO3EKS6","gain","7","","75","K","2","","1","0","0","0.3826353834","","false","179","0.3053987856","","main_expt","0.4395013083","","0.3826353834","","0.008971211221","","","","","","",""
"470","","bandit","255","659991","0.0-217.0-0.0","14314790","wem/bandit_single","ATBIPUCO3EKS6","gain","7","","75","K","2","","0","0","1","0.3352628501","","false","180","0.291880519","","main_expt","0.4385200931","","0.3352628501","","0.01053614943","","","","","","",""
"1750","","bandit","256","663500","0.0-218.0-0.0","14314790","wem/bandit_single","ATBIPUCO3EKS6","gain","7","","76","L","3","","0","0","1","0.01184041186","","false","181","0.298429346","","main_expt","0.4225113135","","0.2990499081","","0.01184041186","","","","","","",""
"1234","","bandit","257","666492","0.0-219.0-0.0","14314790","wem/bandit_single","ATBIPUCO3EKS6","gain","7","","74","J","1","","1","0","0","0.3723799893","","false","182","0.3343264324","","main_expt","0.3723799893","","0.3698835663","","0.03042574256","","","","","","",""
"199","","bandit","258","668451","0.0-220.0-0.0","14314790","wem/bandit_single","ATBIPUCO3EKS6","gain","7","","74","J","1","","1","0","0","0.3790924375","","false","183","0.2890729732","","main_expt","0.3790924375","","0.3849917371","","0.03286829004","","","","","","",""
"1245","","bandit","259","671455","0.0-221.0-0.0","14314790","wem/bandit_single","ATBIPUCO3EKS6","gain","7","","75","K","2","","0","0","1","0.3560661239","","false","184","0.1975841231","","main_expt","0.4122006093","","0.3560661239","","0.05565884368","","","","","","",""
"512","","bandit","260","673725","0.0-222.0-0.0","14314790","wem/bandit_single","ATBIPUCO3EKS6","gain","7","","72","H","0","img/none_selected.jpg","1","0","0","0.213981158","","false","185","0.213981158","","main_expt","0.3681720139","","0.3637043243","","0.05703602855","","","","","","",""
"15973","","bandit","261","691457","0.0-223.0-0.0","14314790","wem/bandit_single","ATBIPUCO3EKS6","gain","7","","72","H","0","img/none_selected.jpg","1","0","0","0.1690135127","","false","186","0.1690135127","","main_expt","0.3735732413","","0.370254809","","0.08167625523","","","","","","",""
"928","","bandit","262","694146","0.0-224.0-0.0","14314790","wem/bandit_single","ATBIPUCO3EKS6","gain","7","","72","H","0","img/none_selected.jpg","0","0","1","0.2606776113","","false","187","0.2606776113","","main_expt","0.3763431734","","0.3451477914","","0.08146612985","","","","","","",""
"14037","","bandit","263","709941","0.0-225.0-0.0","14314790","wem/bandit_single","ATBIPUCO3EKS6","gain","7","","74","J","1","","0","0","1","0.3515668436","","false","188","0.2431197375","","main_expt","0.3515668436","","0.3939300048","","0.09365986726","","","","","","",""
"333","","bandit","264","712031","0.0-226.0-0.0","14314790","wem/bandit_single","ATBIPUCO3EKS6","gain","7","","75","K","2","","0","0","1","0.4136030152","","false","189","0.2308206277","","main_expt","0.3343836861","","0.4136030152","","0.09268069957","","","","","","",""
"2180","","bandit","265","715971","0.0-227.0-0.0","14314790","wem/bandit_single","ATBIPUCO3EKS6","gain","7","","75","K","2","","0","0","1","0.4261376259","","false","190","0.2025271702","","main_expt","0.2525345787","","0.4261376259","","0.08594859785","","","","","","",""
"1963","","bandit","266","719694","0.0-228.0-0.0","14314790","wem/bandit_single","ATBIPUCO3EKS6","gain","7","","74","J","1","","1","0","0","0.2685183708","","false","191","0.2751540988","","main_expt","0.2685183708","","0.3908696756","","0.08932588753","","","","","","",""
"313","","bandit","267","721765","0.0-229.0-0.0","14314790","wem/bandit_single","ATBIPUCO3EKS6","gain","7","","74","J","1","","1","0","0","0.2572514827","","false","192","0.2569606715","","main_expt","0.2572514827","","0.4106222578","","0.1064261942","","","","","","",""
"850","","bandit","268","724374","0.0-230.0-0.0","14314790","wem/bandit_single","ATBIPUCO3EKS6","gain","7","","74","J","1","","0","0","1","0.1969756064","","false","193","0.2874900681","","main_expt","0.1969756064","","0.4282135821","","0.1536879749","","","","","","",""
"390","","bandit","269","726523","0.0-231.0-0.0","14314790","wem/bandit_single","ATBIPUCO3EKS6","gain","7","","74","J","1","","0","0","1","0.2134952627","","false","194","0.1735349233","","main_expt","0.2134952627","","0.4423695223","","0.1389913839","","","","","","",""
"625","","bandit","270","728908","0.0-232.0-0.0","14314790","wem/bandit_single","ATBIPUCO3EKS6","gain","7","","74","J","1","","0","0","1","0.1620875807","","false","195","0.1922880567","","main_expt","0.1620875807","","0.4594299266","","0.1439418744","","","","","","",""
"1257","","bandit","271","731924","0.0-233.0-0.0","14314790","wem/bandit_single","ATBIPUCO3EKS6","gain","7","","72","H","0","img/none_selected.jpg","0","0","1","0.180833075","","false","196","0.180833075","","main_expt","0.166822232","","0.4446405127","","0.131143091","","","","","","",""
"2944","","bandit","272","736626","0.0-234.0-0.0","14314790","wem/bandit_single","ATBIPUCO3EKS6","gain","7","","74","J","1","","0","0","1","0.1951417713","","false","197","0.2213655201","","main_expt","0.1951417713","","0.4559667881","","0.1358316141","","","","","","",""
"593","","bandit","273","738977","0.0-235.0-0.0","14314790","wem/bandit_single","ATBIPUCO3EKS6","gain","7","","74","J","1","","0","0","1","0.1946571809","","false","198","0.1886922679","","main_expt","0.1946571809","","0.4760465659","","0.1271866158","","","","","","",""
"323","","bandit","274","741059","0.0-236.0-0.0","14314790","wem/bandit_single","ATBIPUCO3EKS6","gain","7","","75","K","2","","0","0","1","0.4682530898","","false","199","0.1960792333","","main_expt","0.125569753","","0.4682530898","","0.1427164763","","","","","","",""
"1099","","bandit","275","743916","0.0-237.0-0.0","14314790","wem/bandit_single","ATBIPUCO3EKS6","gain","7","","72","H","0","img/none_selected.jpg","0","0","1","0.2093645874","","false","200","0.2093645874","","main_expt","0.110010897","","0.4722721777","","0.1465126473","","","","","","",""
"3742","","bandit","276","749418","0.0-238.0-0.0","14314790","wem/bandit_single","ATBIPUCO3EKS6","gain","7","","75","K","2","","1","0","0","0.4739800601","","false","201","0.1673165995","","main_expt","0.1280762957","","0.4739800601","","0.1271257608","","","","","","",""
"344","","bandit","277","751520","0.0-239.0-0.0","14314790","wem/bandit_single","ATBIPUCO3EKS6","gain","7","","75","K","2","","1","0","0","0.479726886","","false","202","0.2086438453","","main_expt","0.1402913484","","0.479726886","","0.08657179739","","","","","","",""
"582","","bandit","278","753860","0.0-240.0-0.0","14314790","wem/bandit_single","ATBIPUCO3EKS6","gain","7","","75","K","2","","0","0","1","0.4642372742","","false","203","0.1973992815","","main_expt","0.2217412738","","0.4642372742","","0.09313456927","","","","","","",""
"1708","","bandit","279","757325","0.0-241.0-0.0","14314790","wem/bandit_single","ATBIPUCO3EKS6","gain","7","","74","J","1","","0","0","1","0.2231628045","","false","204","0.2256674954","","main_expt","0.2231628045","","0.4560882558","","0.1497906572","","","","","","",""
"2258","","bandit","280","761342","0.0-242.0-0.0","14314790","wem/bandit_single","ATBIPUCO3EKS6","gain","7","","74","J","1","","0","0","1","0.2170181201","","false","205","0.2163874892","","main_expt","0.2170181201","","0.4525737262","","0.1829644856","","","","","","",""
"582","","bandit","281","763682","0.0-243.0-0.0","14314790","wem/bandit_single","ATBIPUCO3EKS6","gain","7","","75","K","2","","1","0","0","0.4550624295","","false","206","0.2197086186","","main_expt","0.2796725078","","0.4550624295","","0.1612057882","","","","","","",""
"2200","","bandit","282","767643","0.0-244.0-0.0","14314790","wem/bandit_single","ATBIPUCO3EKS6","gain","7","","74","J","1","","0","0","1","0.2817680811","","false","207","0.2065154411","","main_expt","0.2817680811","","0.4723612306","","0.1697938272","","","","","","",""
"198","","bandit","283","769599","0.0-245.0-0.0","14314790","wem/bandit_single","ATBIPUCO3EKS6","gain","7","","76","L","3","","0","0","1","0.1559958766","","false","208","0.1685179651","","main_expt","0.2823403198","","0.4766034411","","0.1559958766","","","","","","",""
"345","","bandit","284","771703","0.0-246.0-0.0","14314790","wem/bandit_single","ATBIPUCO3EKS6","gain","7","","72","H","0","img/none_selected.jpg","1","0","0","0.138461816","","false","209","0.138461816","","main_expt","0.3618902866","","0.483515399","","0.1446830505","","","","","","",""
"1301","","bandit","285","774763","0.0-247.0-0.0","14314790","wem/bandit_single","ATBIPUCO3EKS6","gain","7","","74","J","1","","0","0","1","0.373554641","","false","210","0.1494322788","","main_expt","0.373554641","","0.4880418707","","0.1231196185","","","","","","",""
"2662","","bandit","286","779185","0.0-248.0-0.0","14314790","wem/bandit_single","ATBIPUCO3EKS6","gain","7","","75","K","2","","1","0","0","0.4802592994","","false","211","0.1799359977","","main_expt","0.4160488284","","0.4802592994","","0.1456244431","","","","","","",""
"997","","bandit","287","781942","0.0-249.0-0.0","14314790","wem/bandit_single","ATBIPUCO3EKS6","gain","7","","74","J","1","","0","0","1","0.381710399","","false","212","0.1810857181","","main_expt","0.381710399","","0.4738887763","","0.1656867557","","","","","","",""
"1209","","bandit","288","784910","0.0-250.0-0.0","14314790","wem/bandit_single","ATBIPUCO3EKS6","gain","7","","72","H","0","img/none_selected.jpg","1","0","0","0.1615137558","","false","213","0.1615137558","","main_expt","0.3769148707","","0.4808850683","","0.224977978","","","","","","",""
"357","","bandit","289","787027","0.0-251.0-0.0","14314790","wem/bandit_single","ATBIPUCO3EKS6","gain","7","","76","L","3","","0","0","1","0.307554285","","false","214","0.1650702933","","main_expt","0.3476207329","","0.4825694391","","0.307554285","","","","","","",""
"264","","bandit","290","789050","0.0-252.0-0.0","14314790","wem/bandit_single","ATBIPUCO3EKS6","gain","7","","76","L","3","","1","0","0","0.3638187162","","false","215","0.1804791034","","main_expt","0.3089741626","","0.4847107186","","0.3638187162","","","","","","",""
"414","","bandit","291","791222","0.0-253.0-0.0","14314790","wem/bandit_single","ATBIPUCO3EKS6","gain","7","","76","L","3","","0","0","1","0.3543809852","","false","216","0.1573161505","","main_expt","0.3674618518","","0.4809007894","","0.3543809852","","","","","","",""
"399","","bandit","292","793383","0.0-254.0-0.0","14314790","wem/bandit_single","ATBIPUCO3EKS6","gain","7","","76","L","3","","1","0","0","0.3301156576","","false","217","0.1434716653","","main_expt","0.3283657719","","0.4741770765","","0.3301156576","","","","","","",""
"1018","","bandit","293","796162","0.0-255.0-0.0","14314790","wem/bandit_single","ATBIPUCO3EKS6","gain","7","","75","K","2","","1","0","0","0.4819245576","","false","218","0.1911838451","","main_expt","0.3302734852","","0.4819245576","","0.3132999057","","","","","","",""
"1378","","bandit","294","799300","0.0-256.0-0.0","14314790","wem/bandit_single","ATBIPUCO3EKS6","gain","7","","75","K","2","","1","0","0","0.4793241995","","false","219","0.1441129831","","main_expt","0.3554571327","","0.4793241995","","0.2205266592","","","","","","",""
"738","","bandit","295","801798","0.0-257.0-0.0","14314790","wem/bandit_single","ATBIPUCO3EKS6","gain","7","","75","K","2","","0","0","1","0.4713672071","","false","220","0.1920309772","","main_expt","0.319330444","","0.4713672071","","0.2167078271","","","","","","",""
"343","","bandit","296","803902","0.0-258.0-0.0","14314790","wem/bandit_single","ATBIPUCO3EKS6","gain","7","","74","J","1","","0","0","1","0.3105046037","","false","221","0.1770810464","","main_expt","0.3105046037","","0.4728071858","","0.2038989409","","","","","","",""
"1356","","bandit","297","807016","0.0-259.0-0.0","14314790","wem/bandit_single","ATBIPUCO3EKS6","gain","7","","74","J","1","","1","0","0","0.2971369975","","false","222","0.1726735039","","main_expt","0.2971369975","","0.4742115633","","0.18760722","","","","","","",""
"908","","bandit","298","809683","0.0-260.0-0.0","14314790","wem/bandit_single","ATBIPUCO3EKS6","gain","7","","74","J","1","","0","0","1","0.2924153056","","false","223","0.1935596247","","main_expt","0.2924153056","","0.4606319974","","0.1794058889","","","","","","",""
"1359","","bandit","299","812801","0.0-261.0-0.0","14314790","wem/bandit_single","ATBIPUCO3EKS6","gain","7","","74","J","1","","0","0","1","0.3251713444","","false","224","0.184290804","","main_expt","0.3251713444","","0.4796626282","","0.1973287288","","","","","","",""
"287","","bandit","300","814847","0.0-262.0-0.0","14314790","wem/bandit_single","ATBIPUCO3EKS6","gain","7","","72","H","0","img/none_selected.jpg","0","0","1","0.1182631535","","false","225","0.1182631535","","main_expt","0.3191667618","","0.4770938662","","0.1657141015","","","","","","",""
"773","","bandit","301","817377","0.0-263.0-0.0","14314790","wem/bandit_single","ATBIPUCO3EKS6","gain","7","","72","H","0","img/none_selected.jpg","0","0","1","0.1243406576","","false","226","0.1243406576","","main_expt","0.3163975521","","0.4753940461","","0.1333985498","","","","","","",""
"401","","bandit","302","819538","0.0-264.0-0.0","14314790","wem/bandit_single","ATBIPUCO3EKS6","gain","7","","75","K","2","","0","0","1","0.4692559414","","false","227","0.1887705619","","main_expt","0.3153023093","","0.4692559414","","0.1426718429","","","","","","",""
"1267","","bandit","303","822564","0.0-265.0-0.0","14314790","wem/bandit_single","ATBIPUCO3EKS6","gain","7","","75","K","2","","1","0","0","0.4549715312","","false","228","0.1594511678","","main_expt","0.252814401","","0.4549715312","","0.1510234048","","","","","","",""
"302","","bandit","304","824625","0.0-266.0-0.0","14314790","wem/bandit_single","ATBIPUCO3EKS6","gain","7","","75","K","2","","0","0","1","0.4818432606","","false","229","0.1582092687","","main_expt","0.2830586582","","0.4818432606","","0.1786638104","","","","","","",""
"445","","bandit","305","826827","0.0-267.0-0.0","14314790","wem/bandit_single","ATBIPUCO3EKS6","gain","7","","76","L","3","","0","0","1","0.1564383184","","false","230","0.149178519","","main_expt","0.2124451555","","0.4542350274","","0.1564383184","","","","","","",""
"819","","bandit","306","829405","0.0-268.0-0.0","14314790","wem/bandit_single","ATBIPUCO3EKS6","gain","7","","74","J","1","","0","0","1","0.1175217461","","false","231","0.2063022429","","main_expt","0.1175217461","","0.4646494747","","0.1398607303","","","","","","",""
"895","","bandit","307","832060","0.0-269.0-0.0","14314790","wem/bandit_single","ATBIPUCO3EKS6","gain","7","","75","K","2","","0","0","1","0.4617677548","","false","232","0.2424934828","","main_expt","0.144677577","","0.4617677548","","0.1323980205","","","","","","",""
"378","","bandit","308","834197","0.0-270.0-0.0","14314790","wem/bandit_single","ATBIPUCO3EKS6","gain","7","","75","K","2","","1","0","0","0.4535872836","","false","233","0.2404462099","","main_expt","0.1555092754","","0.4535872836","","0.1510374747","","","","","","",""
"1786","","bandit","309","837743","0.0-271.0-0.0","14314790","wem/bandit_single","ATBIPUCO3EKS6","gain","7","","76","L","3","","1","0","0","0.133247495","","false","234","0.1830028502","","main_expt","0.1250762939","","0.4297764401","","0.133247495","","","","","","",""
"399","","bandit","310","839903","0.0-272.0-0.0","14314790","wem/bandit_single","ATBIPUCO3EKS6","gain","7","","75","K","2","","0","0","1","0.4335441617","","false","235","0.2197419317","","main_expt","0.1094925358","","0.4335441617","","0.1666928205","","","","","","",""
"343","","bandit","311","842006","0.0-273.0-0.0","14314790","wem/bandit_single","ATBIPUCO3EKS6","gain","7","","74","J","1","","0","0","1","0.09099935704","","false","236","0.2537285896","","main_expt","0.09099935704","","0.4390497594","","0.1772374327","","","","","","",""
"760","","bandit","312","844526","0.0-274.0-0.0","14314790","wem/bandit_single","ATBIPUCO3EKS6","gain","7","","72","H","0","img/none_selected.jpg","0","0","1","0.2967198922","","false","237","0.2967198922","","main_expt","0.07445530481","","0.4557250369","","0.2093850131","","","","","","",""
"884","","bandit","313","847170","0.0-275.0-0.0","14314790","wem/bandit_single","ATBIPUCO3EKS6","gain","7","","72","H","0","img/none_selected.jpg","0","0","1","0.2716881628","","false","238","0.2716881628","","main_expt","0.1160826651","","0.4712934341","","0.2323540058","","","","","","",""
"952","","bandit","314","849881","0.0-276.0-0.0","14314790","wem/bandit_single","ATBIPUCO3EKS6","gain","7","","72","H","0","img/none_selected.jpg","1","0","0","0.2840113657","","false","239","0.2840113657","","main_expt","0.1935594103","","0.4744109467","","0.2527052166","","","","","","",""
"423","","bandit","315","852063","0.0-277.0-0.0","14314790","wem/bandit_single","ATBIPUCO3EKS6","gain","7","","72","H","0","img/none_selected.jpg","1","0","0","0.3274134878","","false","240","0.3274134878","","main_expt","0.2305108235","","0.4856904038","","0.2429338356","","","","","","",""
"726","","bandit","316","854549","0.0-278.0-0.0","14314790","wem/bandit_single","ATBIPUCO3EKS6","gain","7","","72","H","0","img/none_selected.jpg","0","0","1","0.3106351565","","false","241","0.3106351565","","main_expt","0.23744922","","0.474377245","","0.2422046893","","","","","","",""
"468","","bandit","317","856776","0.0-279.0-0.0","14314790","wem/bandit_single","ATBIPUCO3EKS6","gain","7","","72","H","0","img/none_selected.jpg","0","0","1","0.276301991","","false","242","0.276301991","","main_expt","0.2644088126","","0.4699498903","","0.1974588069","","","","","","",""
"2010","","bandit","318","860547","0.0-280.0-0.0","14314790","wem/bandit_single","ATBIPUCO3EKS6","gain","7","","75","K","2","","0","0","1","0.4696131401","","false","243","0.2682550828","","main_expt","0.3029471314","","0.4696131401","","0.1697106736","","","","","","",""
"579","","bandit","319","862886","0.0-281.0-0.0","14314790","wem/bandit_single","ATBIPUCO3EKS6","gain","7","","76","L","3","","0","0","1","0.1495066821","","false","244","0.2717267912","","main_expt","0.2869027424","","0.4519085084","","0.1495066821","","","","","","",""
"422","","bandit","320","865066","0.0-282.0-0.0","14314790","wem/bandit_single","ATBIPUCO3EKS6","gain","7","","76","L","3","","0","0","1","0.1664551864","","false","245","0.2480355477","","main_expt","0.2928347339","","0.4620487724","","0.1664551864","","","","","","",""
"278","","bandit","321","867104","0.0-283.0-0.0","14314790","wem/bandit_single","ATBIPUCO3EKS6","gain","7","","72","H","0","img/none_selected.jpg","0","0","1","0.2978011657","","false","246","0.2978011657","","main_expt","0.2537870262","","0.4553277256","","0.1660340973","","","","","","",""
"513","","bandit","322","869377","0.0-284.0-0.0","14314790","wem/bandit_single","ATBIPUCO3EKS6","gain","7","","72","H","0","img/none_selected.jpg","1","0","0","0.3183795364","","false","247","0.3183795364","","main_expt","0.220788829","","0.4470790686","","0.2232834288","","","","","","",""
"906","","bandit","323","872043","0.0-285.0-0.0","14314790","wem/bandit_single","ATBIPUCO3EKS6","gain","7","","72","H","0","img/none_selected.jpg","0","0","1","0.3496285813","","false","248","0.3496285813","","main_expt","0.2260039815","","0.4370243233","","0.2337066106","","","","","","",""
"1963","","bandit","324","875768","0.0-286.0-0.0","14314790","wem/bandit_single","ATBIPUCO3EKS6","gain","7","","72","H","0","img/none_selected.jpg","1","0","0","0.3450691196","","false","249","0.3450691196","","main_expt","0.2536259712","","0.4344986606","","0.2555848542","","","","","","",""
"375","","bandit","325","877904","0.0-287.0-0.0","14314790","wem/bandit_single","ATBIPUCO3EKS6","gain","7","","72","H","0","img/none_selected.jpg","1","0","0","0.3451339369","","false","250","0.3451339369","","main_expt","0.2748463286","","0.4418367533","","0.2423579198","","","","","","",""
"590","","bandit","326","880256","0.0-288.0-0.0","14314790","wem/bandit_single","ATBIPUCO3EKS6","gain","7","","75","K","2","","0","0","1","0.4227475224","","false","251","0.3928119302","","main_expt","0.2623633266","","0.4227475224","","0.2275025436","","","","","","",""
"219","","bandit","327","882237","0.0-289.0-0.0","14314790","wem/bandit_single","ATBIPUCO3EKS6","gain","7","","75","K","2","","0","0","1","0.423648384","","false","252","0.3926241496","","main_expt","0.3173920108","","0.423648384","","0.2868871138","","","","","","",""
"466","","bandit","328","884463","0.0-290.0-0.0","14314790","wem/bandit_single","ATBIPUCO3EKS6","gain","7","","74","J","1","","0","0","1","0.3172059241","","false","253","0.4074069762","","main_expt","0.3172059241","","0.4321428437","","0.2719675916","","","","","","",""
"702","","bandit","329","886927","0.0-291.0-0.0","14314790","wem/bandit_single","ATBIPUCO3EKS6","gain","7","","74","J","1","","1","0","0","0.3200237469","","false","254","0.3831412703","","main_expt","0.3200237469","","0.4621147124","","0.3118638267","","","","","","",""
"297","","bandit","330","888985","0.0-292.0-0.0","14314790","wem/bandit_single","ATBIPUCO3EKS6","gain","7","","74","J","1","","0","0","1","0.3358809316","","false","255","0.3639457665","","main_expt","0.3358809316","","0.4586218194","","0.2103897122","","","","","","",""
"996","","bandit","331","891742","0.0-293.0-0.0","14314790","wem/bandit_single","ATBIPUCO3EKS6","gain","7","","74","J","1","","0","0","1","0.3288682213","","false","256","0.3353936822","","main_expt","0.3288682213","","0.4661438042","","0.2053105091","","","","","","",""
"107","","bandit","332","893609","0.0-294.0-0.0","14314790","wem/bandit_single","ATBIPUCO3EKS6","gain","7","","74","J","1","","1","0","0","0.3298558235","","false","257","0.3457786028","","main_expt","0.3298558235","","0.4746145216","","0.2101260802","","","","","","",""
"1626","","bandit","333","896995","0.0-295.0-0.0","14314790","wem/bandit_single","ATBIPUCO3EKS6","gain","7","","72","H","0","img/none_selected.jpg","0","0","1","0.3336199161","","false","258","0.3336199161","","main_expt","0.3544886593","","0.479590246","","0.251470712","","","","","","",""
"276","","bandit","334","899031","0.0-296.0-0.0","14314790","wem/bandit_single","ATBIPUCO3EKS6","gain","7","","72","H","0","img/none_selected.jpg","1","0","0","0.3182937175","","false","259","0.3182937175","","main_expt","0.3380036538","","0.4543592645","","0.2320991284","","","","","","",""
"2526","","bandit","335","903318","0.0-297.0-0.0","14314790","wem/bandit_single","ATBIPUCO3EKS6","gain","7","","76","L","3","","0","0","1","0.2850429488","","false","260","0.3004718715","","main_expt","0.2797544445","","0.4591910344","","0.2850429488","","","","","","",""
"377","","bandit","336","905455","0.0-298.0-0.0","14314790","wem/bandit_single","ATBIPUCO3EKS6","gain","7","","76","L","3","","1","0","0","0.3396488321","","false","261","0.2969538951","","main_expt","0.2594239605","","0.4416244086","","0.3396488321","","","","","","",""
"1232","","bandit","337","908448","0.0-299.0-0.0","14314790","wem/bandit_single","ATBIPUCO3EKS6","gain","7","","75","K","2","","0","0","1","0.410126596","","false","262","0.336502974","","main_expt","0.2804023839","","0.410126596","","0.243241633","","","","","","",""
"399","","bandit","338","910608","0.0-300.0-0.0","14314790","wem/bandit_single","ATBIPUCO3EKS6","gain","7","","74","J","1","","0","0","1","0.2526654216","","false","263","0.3417757729","","main_expt","0.2526654216","","0.3852167719","","0.221101122","","","","","","",""
"614","","bandit","339","912981","0.0-301.0-0.0","14314790","wem/bandit_single","ATBIPUCO3EKS6","gain","7","","74","J","1","","0","0","1","0.2262009497","","false","264","0.3288238543","","main_expt","0.2262009497","","0.4048243192","","0.2475963948","","","","","","",""
"188","","bandit","340","914929","0.0-302.0-0.0","14314790","wem/bandit_single","ATBIPUCO3EKS6","gain","7","","72","H","0","img/none_selected.jpg","1","0","0","0.2661945806","","false","265","0.2661945806","","main_expt","0.2111455706","","0.3671025299","","0.2472156829","","","","","","",""
"375","","bandit","341","917065","0.0-303.0-0.0","14314790","wem/bandit_single","ATBIPUCO3EKS6","gain","7","","72","H","0","img/none_selected.jpg","1","0","0","0.2831053071","","false","266","0.2831053071","","main_expt","0.1816972253","","0.366792141","","0.2257792125","","","","","","",""
"288","","bandit","342","919114","0.0-304.0-0.0","14314790","wem/bandit_single","ATBIPUCO3EKS6","gain","7","","72","H","0","img/none_selected.jpg","0","0","1","0.2814616526","","false","267","0.2814616526","","main_expt","0.08996407949","","0.3187551676","","0.2434052149","","","","","","",""
"354","","bandit","343","921227","0.0-305.0-0.0","14314790","wem/bandit_single","ATBIPUCO3EKS6","gain","7","","72","H","0","img/none_selected.jpg","1","0","0","0.2698532634","","false","268","0.2698532634","","main_expt","0.08316088703","","0.2992927481","","0.2472891614","","","","","","",""
"141","","bandit","344","923130","0.0-306.0-0.0","14314790","wem/bandit_single","ATBIPUCO3EKS6","gain","7","","72","H","0","img/none_selected.jpg","0","0","1","0.332936287","","false","269","0.332936287","","main_expt","0.132755096","","0.3158706852","","0.2592343403","","","","","","",""
"603","","bandit","345","925493","0.0-307.0-0.0","14314790","wem/bandit_single","ATBIPUCO3EKS6","gain","7","","72","H","0","img/none_selected.jpg","1","0","0","0.3520051328","","false","270","0.3520051328","","main_expt","0.1295257529","","0.3399881701","","0.2626766442","","","","","","",""
"646","","bandit","346","927899","0.0-308.0-0.0","14314790","wem/bandit_single","ATBIPUCO3EKS6","gain","7","","72","H","0","img/none_selected.jpg","0","0","1","0.319936882","","false","271","0.319936882","","main_expt","0.1243547369","","0.3425846673","","0.2889536683","","","","","","",""
"647","","bandit","347","930306","0.0-309.0-0.0","14314790","wem/bandit_single","ATBIPUCO3EKS6","gain","7","","76","L","3","","1","0","0","0.3519527746","","false","272","0.3526338178","","main_expt","0.1129401117","","0.3661992365","","0.3519527746","","","","","","",""
"569","","bandit","348","932636","0.0-310.0-0.0","14314790","wem/bandit_single","ATBIPUCO3EKS6","gain","7","","76","L","3","","1","0","0","0.3142239271","","false","273","0.3661190652","","main_expt","0.07602588951","","0.3548292996","","0.3142239271","","","","","","",""
"241","","bandit","349","934639","0.0-311.0-0.0","14314790","wem/bandit_single","ATBIPUCO3EKS6","gain","7","","75","K","2","","1","0","0","0.3015993901","","false","274","0.3531355024","","main_expt","0.08326080211","","0.3015993901","","0.2858465014","","","","","","",""
"1129","","bandit","350","937529","0.0-312.0-0.0","14314790","wem/bandit_single","ATBIPUCO3EKS6","gain","7","","76","L","3","","0","0","1","0.2833142968","","false","275","0.3710682781","","main_expt","0.1117875064","","0.3074537736","","0.2833142968","","","","","","",""
"670","","bandit","351","939959","0.0-313.0-0.0","14314790","wem/bandit_single","ATBIPUCO3EKS6","gain","7","","76","L","3","","1","0","0","0.303505508","","false","276","0.3039620657","","main_expt","0.1087564456","","0.2995557441","","0.303505508","","","","","","",""
"377","","bandit","352","942097","0.0-314.0-0.0","14314790","wem/bandit_single","ATBIPUCO3EKS6","gain","7","","76","L","3","","1","0","0","0.2503405658","","false","277","0.3661174243","","main_expt","0.1402577261","","0.3372524479","","0.2503405658","","","","","","",""
"926","","bandit","353","944786","0.0-315.0-0.0","14314790","wem/bandit_single","ATBIPUCO3EKS6","gain","7","","76","L","3","","1","0","0","0.2575241406","","false","278","0.3603903852","","main_expt","0.1639331241","","0.3941332117","","0.2575241406","","","","","","",""
"1773","","bandit","354","948319","0.0-316.0-0.0","14314790","wem/bandit_single","ATBIPUCO3EKS6","gain","7","","76","L","3","","0","0","1","0.2537993043","","false","279","0.3865241344","","main_expt","0.08855821706","","0.369807449","","0.2537993043","","","","","","",""
"239","","bandit","355","950320","0.0-317.0-0.0","14314790","wem/bandit_single","ATBIPUCO3EKS6","gain","7","","76","L","3","","0","0","1","0.1734094061","","false","280","0.3941828848","","main_expt","0.1116659285","","0.3726167961","","0.1734094061","","","","","","",""
"366","","bandit","356","952448","0.0-318.0-0.0","14314790","wem/bandit_single","ATBIPUCO3EKS6","gain","7","","76","L","3","","0","0","1","0.1846732939","","false","281","0.4060440919","","main_expt","0.1032088387","","0.3849966858","","0.1846732939","","","","","","",""
"972","","bandit","357","955181","0.0-319.0-0.0","14314790","wem/bandit_single","ATBIPUCO3EKS6","gain","7","","74","J","1","","0","0","1","0.1449157137","","false","282","0.3855255831","","main_expt","0.1449157137","","0.4081920515","","0.1808782366","","","","","","",""
"1467","","bandit","358","958410","0.0-320.0-0.0","14314790","wem/bandit_single","ATBIPUCO3EKS6","gain","7","","74","J","1","","0","0","1","0.1649674285","","false","283","0.3694157076","","main_expt","0.1649674285","","0.3930572229","","0.1375342675","","","","","","",""
"578","","bandit","359","960749","0.0-321.0-0.0","14314790","wem/bandit_single","ATBIPUCO3EKS6","gain","7","","74","J","1","","1","0","0","0.1373277791","","false","284","0.4137550783","","main_expt","0.1373277791","","0.379410926","","0.1029306966","","","","","","",""
"793","","bandit","360","963303","0.0-322.0-0.0","14314790","wem/bandit_single","ATBIPUCO3EKS6","gain","7","","74","J","1","","0","0","1","0.1616488504","","false","285","0.4268254387","","main_expt","0.1616488504","","0.3947179778","","0.08821361919","","","","","","",""
"871","","bandit","361","965935","0.0-323.0-0.0","14314790","wem/bandit_single","ATBIPUCO3EKS6","gain","7","","72","H","0","img/none_selected.jpg","0","0","1","0.4115685589","","false","286","0.4115685589","","main_expt","0.1306737704","","0.4036344472","","0.08321279743","","","","","","",""
"422","","bandit","362","968117","0.0-324.0-0.0","14314790","wem/bandit_single","ATBIPUCO3EKS6","gain","7","","72","H","0","img/none_selected.jpg","1","0","0","0.3828423493","","false","287","0.3828423493","","main_expt","0.2059275786","","0.4025981517","","0.0595967864","","","","","","",""
"1233","","bandit","363","971111","0.0-325.0-0.0","14314790","wem/bandit_single","ATBIPUCO3EKS6","gain","7","","72","H","0","img/none_selected.jpg","0","0","1","0.4121581376","","false","288","0.4121581376","","main_expt","0.1892738114","","0.4183513528","","0.06539189492","","","","","","",""
"151","","bandit","364","973023","0.0-326.0-0.0","14314790","wem/bandit_single","ATBIPUCO3EKS6","gain","7","","72","H","0","img/none_selected.jpg","1","0","0","0.4227758831","","false","289","0.4227758831","","main_expt","0.1656659279","","0.4516793017","","0.06484578344","","","","","","",""
"816","","bandit","365","975600","0.0-327.0-0.0","14314790","wem/bandit_single","ATBIPUCO3EKS6","gain","7","","72","H","0","img/none_selected.jpg","0","0","1","0.4149367164","","false","290","0.4149367164","","main_expt","0.1814252587","","0.4112115972","","0.06626982825","","","","","","",""
"567","","bandit","366","977928","0.0-328.0-0.0","14314790","wem/bandit_single","ATBIPUCO3EKS6","gain","7","","72","H","0","img/none_selected.jpg","0","0","1","0.399757838","","false","291","0.399757838","","main_expt","0.2385479929","","0.4372982331","","0.1096348163","","","","","","",""
"275","","bandit","367","979965","0.0-329.0-0.0","14314790","wem/bandit_single","ATBIPUCO3EKS6","gain","7","","72","H","0","img/none_selected.jpg","1","0","0","0.3846886596","","false","292","0.3846886596","","main_expt","0.2322046479","","0.4238416902","","0.1604398542","","","","","","",""
"117","","bandit","368","981845","0.0-330.0-0.0","14314790","wem/bandit_single","ATBIPUCO3EKS6","gain","7","","72","H","0","img/none_selected.jpg","1","0","0","0.3364000065","","false","293","0.3364000065","","main_expt","0.223393304","","0.4034354509","","0.1714651471","","","","","","",""
"1083","","bandit","369","984689","0.0-331.0-0.0","14314790","wem/bandit_single","ATBIPUCO3EKS6","gain","7","","72","H","0","img/none_selected.jpg","0","0","1","0.3545739736","","false","294","0.3545739736","","main_expt","0.2290093083","","0.4093667064","","0.1378543876","","","","","","",""
"242","","bandit","370","986692","0.0-332.0-0.0","14314790","wem/bandit_single","ATBIPUCO3EKS6","gain","7","","72","H","0","img/none_selected.jpg","0","0","1","0.2891777922","","false","295","0.2891777922","","main_expt","0.2875464899","","0.4294791191","","0.1243446737","","","","","","",""
"254","","bandit","371","988707","0.0-333.0-0.0","14314790","wem/bandit_single","ATBIPUCO3EKS6","gain","7","","75","K","2","","0","0","1","0.4289259587","","false","296","0.2084544567","","main_expt","0.2880416719","","0.4289259587","","0.1831574145","","","","","","",""
"319","","bandit","372","990788","0.0-334.0-0.0","14314790","wem/bandit_single","ATBIPUCO3EKS6","gain","7","","75","K","2","","0","0","1","0.4073385017","","false","297","0.2481546198","","main_expt","0.2144640116","","0.4073385017","","0.1645554297","","","","","","",""
"106","","bandit","373","992656","0.0-335.0-0.0","14314790","wem/bandit_single","ATBIPUCO3EKS6","gain","7","","75","K","2","","1","0","0","0.3914212946","","false","298","0.2961938921","","main_expt","0.2150894671","","0.3914212946","","0.1424629524","","","","","","",""
