"rt","responses","trial_type","trial_index","time_elapsed","internal_node_id","subjID","study","MID","cond","drift","key_press","respCharCode","respKey","respChoiceNum","respChoice","gems","bombs","no_reward","GemPrChosen","BombPrChosen","practice","trial_counter","WinPr_0","LosePr_0","trial_label","WinPr_1","LosePr_1","WinPr_2","LosePr_2","WinPr_3","LosePr_3","Q0","Q1","Q2","gender","age","ethnicity"
"11402","{""Q0"":""A3HW4QDJB63OQ2""}","survey-text","0","11408","0.0-0.0","15372419","wem/bandit_single","A3HW4QDJB63OQ2","pain","2","","","","","","","","","","","","","","","","","","","","","","","","","","",""
"6922","","text","1","19334","0.0-1.0","15372419","wem/bandit_single","A3HW4QDJB63OQ2","pain","2","32","","","","","","","","","","","","","","","","","","","","","","","","","",""
"4451","","text","2","23786","0.0-2.0","15372419","wem/bandit_single","A3HW4QDJB63OQ2","pain","2","32","","","","","","","","","","","","","","","","","","","","","","","","","",""
"11281","","text","3","35069","0.0-3.0","15372419","wem/bandit_single","A3HW4QDJB63OQ2","pain","2","32","","","","","","","","","","","","","","","","","","","","","","","","","",""
"12581","","text","4","47652","0.0-4.0","15372419","wem/bandit_single","A3HW4QDJB63OQ2","pain","2","32","","","","","","","","","","","","","","","","","","","","","","","","","",""
"7717","","text","5","55371","0.0-5.0","15372419","wem/bandit_single","A3HW4QDJB63OQ2","pain","2","32","","","","","","","","","","","","","","","","","","","","","","","","","",""
"7923","","text","6","63296","0.0-6.0","15372419","wem/bandit_single","A3HW4QDJB63OQ2","pain","2","32","","","","","","","","","","","","","","","","","","","","","","","","","",""
"3649","","text","7","66947","0.0-7.0","15372419","wem/bandit_single","A3HW4QDJB63OQ2","pain","2","32","","","","","","","","","","","","","","","","","","","","","","","","","",""
"2975","","text","8","69923","0.0-8.0","15372419","wem/bandit_single","A3HW4QDJB63OQ2","pain","2","32","","","","","","","","","","","","","","","","","","","","","","","","","",""
"2854","","text","9","72778","0.0-9.0","15372419","wem/bandit_single","A3HW4QDJB63OQ2","pain","2","32","","","","","","","","","","","","","","","","","","","","","","","","","",""
"1697","","text","10","74476","0.0-10.0","15372419","wem/bandit_single","A3HW4QDJB63OQ2","pain","2","32","","","","","","","","","","","","","","","","","","","","","","","","","",""
"2228","","text","11","76706","0.0-11.0","15372419","wem/bandit_single","A3HW4QDJB63OQ2","pain","2","32","","","","","","","","","","","","","","","","","","","","","","","","","",""
"1315","","bandit","12","79528","0.0-12.0-0.0","15372419","wem/bandit_single","A3HW4QDJB63OQ2","pain","2","","74","J","0","img/none_selected_demo.jpg","0","0","1","0","0","true","0","0","0","","","","","","","","","","","","",""
"198","","bandit","13","81479","0.0-13.0-0.0","15372419","wem/bandit_single","A3HW4QDJB63OQ2","pain","2","","75","K","0","img/none_selected_demo.jpg","0","0","1","0","0","true","0","0","0","","","","","","","","","","","","",""
"2529","","text","14","84259","0.0-14.0","15372419","wem/bandit_single","A3HW4QDJB63OQ2","pain","2","32","","","","","","","","","","","","","","","","","","","","","","","","","",""
"4048","","text","15","88309","0.0-15.0","15372419","wem/bandit_single","A3HW4QDJB63OQ2","pain","2","32","","","","","","","","","","","","","","","","","","","","","","","","","",""
"2453","","text","16","90763","0.0-16.0","15372419","wem/bandit_single","A3HW4QDJB63OQ2","pain","2","32","","","","","","","","","","","","","","","","","","","","","","","","","",""
"2398","","text","17","93162","0.0-17.0","15372419","wem/bandit_single","A3HW4QDJB63OQ2","pain","2","32","","","","","","","","","","","","","","","","","","","","","","","","","",""
"1357","","bandit","18","96022","0.0-18.0-0.0","15372419","wem/bandit_single","A3HW4QDJB63OQ2","pain","2","","74","J","0","img/none_selected_demo.jpg","0","0","1","0","0.8","true","0","0","0.8","80_20_practice","0","0.2","","","","","","","","","",""
"351","","bandit","19","98126","0.0-18.0-1.0","15372419","wem/bandit_single","A3HW4QDJB63OQ2","pain","2","","75","K","1","","0","0","1","0","0.2","true","0","0","0.8","80_20_practice","0","0.2","","","","","","","","","",""
"2272","","bandit","20","102153","0.0-18.0-2.0","15372419","wem/bandit_single","A3HW4QDJB63OQ2","pain","2","","75","K","1","","0","0","1","0","0.2","true","0","0","0.8","80_20_practice","0","0.2","","","","","","","","","",""
"429","","bandit","21","104336","0.0-18.0-3.0","15372419","wem/bandit_single","A3HW4QDJB63OQ2","pain","2","","74","J","0","img/none_selected_demo.jpg","0","0","1","0","0.8","true","0","0","0.8","80_20_practice","0","0.2","","","","","","","","","",""
"414","","bandit","22","106520","0.0-18.0-4.0","15372419","wem/bandit_single","A3HW4QDJB63OQ2","pain","2","","74","J","0","img/none_selected_demo.jpg","0","1","0","0","0.8","true","0","0","0.8","80_20_practice","0","0.2","","","","","","","","","",""
"2253","","bandit","23","110563","0.0-18.0-5.0","15372419","wem/bandit_single","A3HW4QDJB63OQ2","pain","2","","74","J","0","img/none_selected_demo.jpg","0","1","0","0","0.8","true","0","0","0.8","80_20_practice","0","0.2","","","","","","","","","",""
"76","","bandit","24","112393","0.0-18.0-6.0","15372419","wem/bandit_single","A3HW4QDJB63OQ2","pain","2","","74","J","0","img/none_selected_demo.jpg","0","1","0","0","0.8","true","0","0","0.8","80_20_practice","0","0.2","","","","","","","","","",""
"108","","bandit","25","114254","0.0-18.0-7.0","15372419","wem/bandit_single","A3HW4QDJB63OQ2","pain","2","","74","J","0","img/none_selected_demo.jpg","0","1","0","0","0.8","true","0","0","0.8","80_20_practice","0","0.2","","","","","","","","","",""
"3743","","bandit","26","119749","0.0-18.0-8.0","15372419","wem/bandit_single","A3HW4QDJB63OQ2","pain","2","","74","J","0","img/none_selected_demo.jpg","0","1","0","0","0.8","true","0","0","0.8","80_20_practice","0","0.2","","","","","","","","","",""
"794","","bandit","27","122296","0.0-18.0-9.0","15372419","wem/bandit_single","A3HW4QDJB63OQ2","pain","2","","74","J","0","img/none_selected_demo.jpg","0","0","1","0","0.8","true","0","0","0.8","80_20_practice","0","0.2","","","","","","","","","",""
"24","","bandit","28","124073","0.0-18.0-10.0","15372419","wem/bandit_single","A3HW4QDJB63OQ2","pain","2","","74","J","0","img/none_selected_demo.jpg","0","1","0","0","0.8","true","0","0","0.8","80_20_practice","0","0.2","","","","","","","","","",""
"1333","","bandit","29","127159","0.0-18.0-11.0","15372419","wem/bandit_single","A3HW4QDJB63OQ2","pain","2","","74","J","0","img/none_selected_demo.jpg","0","1","0","0","0.8","true","0","0","0.8","80_20_practice","0","0.2","","","","","","","","","",""
"338","","bandit","30","129279","0.0-18.0-12.0","15372419","wem/bandit_single","A3HW4QDJB63OQ2","pain","2","","74","J","0","img/none_selected_demo.jpg","0","1","0","0","0.8","true","0","0","0.8","80_20_practice","0","0.2","","","","","","","","","",""
"125","","bandit","31","131213","0.0-18.0-13.0","15372419","wem/bandit_single","A3HW4QDJB63OQ2","pain","2","","75","K","1","","0","1","0","0","0.2","true","0","0","0.8","80_20_practice","0","0.2","","","","","","","","","",""
"59","","bandit","32","133024","0.0-18.0-14.0","15372419","wem/bandit_single","A3HW4QDJB63OQ2","pain","2","","75","K","1","","0","0","1","0","0.2","true","0","0","0.8","80_20_practice","0","0.2","","","","","","","","","",""
"1877","","bandit","33","136654","0.0-18.0-15.0","15372419","wem/bandit_single","A3HW4QDJB63OQ2","pain","2","","75","K","1","","0","0","1","0","0.2","true","0","0","0.8","80_20_practice","0","0.2","","","","","","","","","",""
"917","","bandit","34","139337","0.0-18.0-16.0","15372419","wem/bandit_single","A3HW4QDJB63OQ2","pain","2","","75","K","1","","0","0","1","0","0.2","true","0","0","0.8","80_20_practice","0","0.2","","","","","","","","","",""
"572","","bandit","35","141663","0.0-18.0-17.0","15372419","wem/bandit_single","A3HW4QDJB63OQ2","pain","2","","74","J","0","img/none_selected_demo.jpg","0","1","0","0","0.8","true","0","0","0.8","80_20_practice","0","0.2","","","","","","","","","",""
"32","","bandit","36","143446","0.0-18.0-18.0","15372419","wem/bandit_single","A3HW4QDJB63OQ2","pain","2","","74","J","0","img/none_selected_demo.jpg","0","1","0","0","0.8","true","0","0","0.8","80_20_practice","0","0.2","","","","","","","","","",""
"42","","bandit","37","145300","0.0-18.0-19.0","15372419","wem/bandit_single","A3HW4QDJB63OQ2","pain","2","","74","J","0","img/none_selected_demo.jpg","0","1","0","0","0.8","true","0","0","0.8","80_20_practice","0","0.2","","","","","","","","","",""
"2442","","text","38","147994","0.0-19.0","15372419","wem/bandit_single","A3HW4QDJB63OQ2","pain","2","32","","","","","","","","","","","","","","","","","","","","","","","","","",""
"1100","","bandit","39","150653","0.0-20.0-0.0","15372419","wem/bandit_single","A3HW4QDJB63OQ2","pain","2","","74","J","0","img/none_selected_demo.jpg","0","0","1","0","0","true","0","0","0","","0","0","","","","","","","","","",""
"10555","","text","40","161469","0.0-21.0","15372419","wem/bandit_single","A3HW4QDJB63OQ2","pain","2","32","","","","","","","","","","","","","","","","","","","","","","","","","",""
"3453","","text","41","164924","0.0-22.0","15372419","wem/bandit_single","A3HW4QDJB63OQ2","pain","2","32","","","","","","","","","","","","","","","","","","","","","","","","","",""
"2107","","text","42","167034","0.0-23.0","15372419","wem/bandit_single","A3HW4QDJB63OQ2","pain","2","32","","","","","","","","","","","","","","","","","","","","","","","","","",""
"3038","","text","43","170074","0.0-24.0","15372419","wem/bandit_single","A3HW4QDJB63OQ2","pain","2","32","","","","","","","","","","","","","","","","","","","","","","","","","",""
"4641","","text","44","174717","0.0-25.0","15372419","wem/bandit_single","A3HW4QDJB63OQ2","pain","2","32","","","","","","","","","","","","","","","","","","","","","","","","","",""
"2388","","text","45","177106","0.0-26.0","15372419","wem/bandit_single","A3HW4QDJB63OQ2","pain","2","32","","","","","","","","","","","","","","","","","","","","","","","","","",""
"4358","","text","46","181467","0.0-27.0","15372419","wem/bandit_single","A3HW4QDJB63OQ2","pain","2","32","","","","","","","","","","","","","","","","","","","","","","","","","",""
"2302","","text","47","183770","0.0-28.0","15372419","wem/bandit_single","A3HW4QDJB63OQ2","pain","2","32","","","","","","","","","","","","","","","","","","","","","","","","","",""
"11987","","text","48","195760","0.0-29.0","15372419","wem/bandit_single","A3HW4QDJB63OQ2","pain","2","32","","","","","","","","","","","","","","","","","","","","","","","","","",""
"2160","","text","49","197922","0.0-30.0","15372419","wem/bandit_single","A3HW4QDJB63OQ2","pain","2","32","","","","","","","","","","","","","","","","","","","","","","","","","",""
"2127","","text","50","200050","0.0-31.0","15372419","wem/bandit_single","A3HW4QDJB63OQ2","pain","2","32","","","","","","","","","","","","","","","","","","","","","","","","","",""
"612","","bandit","51","202168","0.0-32.0-0.0","15372419","wem/bandit_single","A3HW4QDJB63OQ2","pain","2","","72","H","0","img/none_selected.jpg","0","1","0","0","0.8","true","0","0","0.8","full_practice","0","0.2","0","0.6","0","0.2","","","","","",""
"69","","bandit","52","203990","0.0-32.0-1.0","15372419","wem/bandit_single","A3HW4QDJB63OQ2","pain","2","","72","H","0","img/none_selected.jpg","0","0","1","0","0.8","true","0","0","0.8","full_practice","0","0.2","0","0.6","0","0.2","","","","","",""
"6","","bandit","53","205750","0.0-32.0-2.0","15372419","wem/bandit_single","A3HW4QDJB63OQ2","pain","2","","72","H","0","img/none_selected.jpg","0","1","0","0","0.8","true","0","0","0.8","full_practice","0","0.2","0","0.6","0","0.2","","","","","",""
"831","","bandit","54","208385","0.0-32.0-3.0","15372419","wem/bandit_single","A3HW4QDJB63OQ2","pain","2","","72","H","0","img/none_selected.jpg","0","1","0","0","0.8","true","0","0","0.8","full_practice","0","0.2","0","0.6","0","0.2","","","","","",""
"53","","bandit","55","210191","0.0-32.0-4.0","15372419","wem/bandit_single","A3HW4QDJB63OQ2","pain","2","","72","H","0","img/none_selected.jpg","0","1","0","0","0.8","true","0","0","0.8","full_practice","0","0.2","0","0.6","0","0.2","","","","","",""
"790","","bandit","56","212736","0.0-32.0-5.0","15372419","wem/bandit_single","A3HW4QDJB63OQ2","pain","2","","72","H","0","img/none_selected.jpg","0","1","0","0","0.8","true","0","0","0.8","full_practice","0","0.2","0","0.6","0","0.2","","","","","",""
"510","","bandit","57","214998","0.0-32.0-6.0","15372419","wem/bandit_single","A3HW4QDJB63OQ2","pain","2","","72","H","0","img/none_selected.jpg","0","0","1","0","0.8","true","0","0","0.8","full_practice","0","0.2","0","0.6","0","0.2","","","","","",""
"56","","bandit","58","216815","0.0-32.0-7.0","15372419","wem/bandit_single","A3HW4QDJB63OQ2","pain","2","","72","H","0","img/none_selected.jpg","0","1","0","0","0.8","true","0","0","0.8","full_practice","0","0.2","0","0.6","0","0.2","","","","","",""
"227","","bandit","59","218817","0.0-32.0-8.0","15372419","wem/bandit_single","A3HW4QDJB63OQ2","pain","2","","72","H","0","img/none_selected.jpg","0","1","0","0","0.8","true","0","0","0.8","full_practice","0","0.2","0","0.6","0","0.2","","","","","",""
"27","","bandit","60","220598","0.0-32.0-9.0","15372419","wem/bandit_single","A3HW4QDJB63OQ2","pain","2","","72","H","0","img/none_selected.jpg","0","1","0","0","0.8","true","0","0","0.8","full_practice","0","0.2","0","0.6","0","0.2","","","","","",""
"14","","bandit","61","222370","0.0-32.0-10.0","15372419","wem/bandit_single","A3HW4QDJB63OQ2","pain","2","","72","H","0","img/none_selected.jpg","0","1","0","0","0.8","true","0","0","0.8","full_practice","0","0.2","0","0.6","0","0.2","","","","","",""
"291","","bandit","62","224413","0.0-32.0-11.0","15372419","wem/bandit_single","A3HW4QDJB63OQ2","pain","2","","72","H","0","img/none_selected.jpg","0","0","1","0","0.8","true","0","0","0.8","full_practice","0","0.2","0","0.6","0","0.2","","","","","",""
"360","","bandit","63","226526","0.0-32.0-12.0","15372419","wem/bandit_single","A3HW4QDJB63OQ2","pain","2","","72","H","0","img/none_selected.jpg","0","1","0","0","0.8","true","0","0","0.8","full_practice","0","0.2","0","0.6","0","0.2","","","","","",""
"272","","bandit","64","228556","0.0-32.0-13.0","15372419","wem/bandit_single","A3HW4QDJB63OQ2","pain","2","","72","H","0","img/none_selected.jpg","0","1","0","0","0.8","true","0","0","0.8","full_practice","0","0.2","0","0.6","0","0.2","","","","","",""
"36","","bandit","65","230345","0.0-32.0-14.0","15372419","wem/bandit_single","A3HW4QDJB63OQ2","pain","2","","72","H","0","img/none_selected.jpg","0","1","0","0","0.8","true","0","0","0.8","full_practice","0","0.2","0","0.6","0","0.2","","","","","",""
"72","","bandit","66","232170","0.0-32.0-15.0","15372419","wem/bandit_single","A3HW4QDJB63OQ2","pain","2","","72","H","0","img/none_selected.jpg","0","0","1","0","0.8","true","0","0","0.8","full_practice","0","0.2","0","0.6","0","0.2","","","","","",""
"91","","bandit","67","234014","0.0-32.0-16.0","15372419","wem/bandit_single","A3HW4QDJB63OQ2","pain","2","","72","H","0","img/none_selected.jpg","0","1","0","0","0.8","true","0","0","0.8","full_practice","0","0.2","0","0.6","0","0.2","","","","","",""
"55","","bandit","68","235822","0.0-32.0-17.0","15372419","wem/bandit_single","A3HW4QDJB63OQ2","pain","2","","72","H","0","img/none_selected.jpg","0","1","0","0","0.8","true","0","0","0.8","full_practice","0","0.2","0","0.6","0","0.2","","","","","",""
"78","","bandit","69","237654","0.0-32.0-18.0","15372419","wem/bandit_single","A3HW4QDJB63OQ2","pain","2","","72","H","0","img/none_selected.jpg","0","1","0","0","0.8","true","0","0","0.8","full_practice","0","0.2","0","0.6","0","0.2","","","","","",""
"70","","bandit","70","239481","0.0-32.0-19.0","15372419","wem/bandit_single","A3HW4QDJB63OQ2","pain","2","","72","H","0","img/none_selected.jpg","0","1","0","0","0.8","true","0","0","0.8","full_practice","0","0.2","0","0.6","0","0.2","","","","","",""
"3106","","text","71","242843","0.0-33.0","15372419","wem/bandit_single","A3HW4QDJB63OQ2","pain","2","32","","","","","","","","","","","","","","","","","","","","","","","","","",""
"11367","","text","72","255212","0.0-34.0","15372419","wem/bandit_single","A3HW4QDJB63OQ2","pain","2","32","","","","","","","","","","","","","","","","","","","","","","","","","",""
"3274","","text","73","258490","0.0-35.0","15372419","wem/bandit_single","A3HW4QDJB63OQ2","pain","2","32","","","","","","","","","","","","","","","","","","","","","","","","","",""
"3622","","text","74","262115","0.0-36.0","15372419","wem/bandit_single","A3HW4QDJB63OQ2","pain","2","32","","","","","","","","","","","","","","","","","","","","","","","","","",""
"3061","","text","75","265179","0.0-37.0","15372419","wem/bandit_single","A3HW4QDJB63OQ2","pain","2","32","","","","","","","","","","","","","","","","","","","","","","","","","",""
"710","","bandit","76","267394","0.0-38.0-0.0","15372419","wem/bandit_single","A3HW4QDJB63OQ2","pain","2","","72","H","0","img/none_selected.jpg","0","0","1","","0.1473353724","false","1","","0.1473353724","main_expt","","0.1047922924","","0.03692567881","","0.1196507759","","","","","",""
"92","","bandit","77","269238","0.0-39.0-0.0","15372419","wem/bandit_single","A3HW4QDJB63OQ2","pain","2","","72","H","0","img/none_selected.jpg","0","1","0","","0.1471364572","false","2","","0.1471364572","main_expt","","0.09232691068","","0.0535834513","","0.1434551849","","","","","",""
"31","","bandit","78","271063","0.0-40.0-0.0","15372419","wem/bandit_single","A3HW4QDJB63OQ2","pain","2","","72","H","0","img/none_selected.jpg","0","0","1","","0.1792173289","false","3","","0.1792173289","main_expt","","0.07878604621","","0.06455495551","","0.1966750378","","","","","",""
"309","","bandit","79","273126","0.0-41.0-0.0","15372419","wem/bandit_single","A3HW4QDJB63OQ2","pain","2","","72","H","0","img/none_selected.jpg","0","1","0","","0.2089457512","false","4","","0.2089457512","main_expt","","0.06180226224","","0.1075220519","","0.1731728381","","","","","",""
"143","","bandit","80","275023","0.0-42.0-0.0","15372419","wem/bandit_single","A3HW4QDJB63OQ2","pain","2","","72","H","0","img/none_selected.jpg","0","0","1","","0.2627176439","false","5","","0.2627176439","main_expt","","0.05657605877","","0.1459974634","","0.151671232","","","","","",""
"61","","bandit","81","276838","0.0-43.0-0.0","15372419","wem/bandit_single","A3HW4QDJB63OQ2","pain","2","","72","H","0","img/none_selected.jpg","0","1","0","","0.2052823447","false","6","","0.2052823447","main_expt","","0.03926223851","","0.1119865757","","0.2201434377","","","","","",""
"169","","bandit","82","278778","0.0-44.0-0.0","15372419","wem/bandit_single","A3HW4QDJB63OQ2","pain","2","","72","H","0","img/none_selected.jpg","0","1","0","","0.2424381104","false","7","","0.2424381104","main_expt","","0.02952185798","","0.1135710889","","0.1924323999","","","","","",""
"176","","bandit","83","280711","0.0-45.0-0.0","15372419","wem/bandit_single","A3HW4QDJB63OQ2","pain","2","","72","H","0","img/none_selected.jpg","0","0","1","","0.2324683495","false","8","","0.2324683495","main_expt","","0.01847757052","","0.148696524","","0.187431757","","","","","",""
"30","","bandit","84","282553","0.0-46.0-0.0","15372419","wem/bandit_single","A3HW4QDJB63OQ2","pain","2","","72","H","0","img/none_selected.jpg","0","0","1","","0.2440295668","false","9","","0.2440295668","main_expt","","0.02695314055","","0.1181121295","","0.197470847","","","","","",""
"52","","bandit","85","284358","0.0-47.0-0.0","15372419","wem/bandit_single","A3HW4QDJB63OQ2","pain","2","","72","H","0","img/none_selected.jpg","0","0","1","","0.2465422232","false","10","","0.2465422232","main_expt","","0.02234311218","","0.1082266346","","0.2298270047","","","","","",""
"464","","bandit","86","286575","0.0-48.0-0.0","15372419","wem/bandit_single","A3HW4QDJB63OQ2","pain","2","","74","J","1","","0","0","1","","0.04960883058","false","11","","0.1529972956","main_expt","","0.04960883058","","0.1102162287","","0.2124937163","","","","","",""
"45","","bandit","87","288374","0.0-49.0-0.0","15372419","wem/bandit_single","A3HW4QDJB63OQ2","pain","2","","74","J","1","","0","0","1","","0.06086541187","false","12","","0.1827224572","main_expt","","0.06086541187","","0.1420736562","","0.2043121782","","","","","",""
"32","","bandit","88","290160","0.0-50.0-0.0","15372419","wem/bandit_single","A3HW4QDJB63OQ2","pain","2","","74","J","1","","0","0","1","","0.06603274732","false","13","","0.1973099221","main_expt","","0.06603274732","","0.1582971975","","0.2122729008","","","","","",""
"374","","bandit","89","292351","0.0-51.0-0.0","15372419","wem/bandit_single","A3HW4QDJB63OQ2","pain","2","","75","K","2","","0","0","1","","0.1278364912","false","14","","0.2002936143","main_expt","","0.06952645267","","0.1278364912","","0.1748916548","","","","","",""
"44","","bandit","90","294220","0.0-52.0-0.0","15372419","wem/bandit_single","A3HW4QDJB63OQ2","pain","2","","75","K","2","","0","0","1","","0.1389591295","false","15","","0.2100222876","main_expt","","0.06705093019","","0.1389591295","","0.1598041939","","","","","",""
"9","","bandit","91","295983","0.0-53.0-0.0","15372419","wem/bandit_single","A3HW4QDJB63OQ2","pain","2","","75","K","2","","0","0","1","","0.1087507618","false","16","","0.192095419","main_expt","","0.08739136862","","0.1087507618","","0.1496559895","","","","","",""
"21","","bandit","92","297763","0.0-54.0-0.0","15372419","wem/bandit_single","A3HW4QDJB63OQ2","pain","2","","76","L","3","","0","0","1","","0.1855105105","false","17","","0.2057363858","main_expt","","0.0633177824","","0.1591778588","","0.1855105105","","","","","",""
"49","","bandit","93","299583","0.0-55.0-0.0","15372419","wem/bandit_single","A3HW4QDJB63OQ2","pain","2","","76","L","3","","0","0","1","","0.180786103","false","18","","0.2142317849","main_expt","","0.05969087175","","0.1612769879","","0.180786103","","","","","",""
"55","","bandit","94","301393","0.0-56.0-0.0","15372419","wem/bandit_single","A3HW4QDJB63OQ2","pain","2","","76","L","3","","0","0","1","","0.1867551017","false","19","","0.2416868574","main_expt","","0.08316546351","","0.1706614454","","0.1867551017","","","","","",""
"28","","bandit","95","303174","0.0-57.0-0.0","15372419","wem/bandit_single","A3HW4QDJB63OQ2","pain","2","","72","H","0","img/none_selected.jpg","0","0","1","","0.2556662882","false","20","","0.2556662882","main_expt","","0.08506169859","","0.2173206475","","0.2414580321","","","","","",""
"55","","bandit","96","304983","0.0-58.0-0.0","15372419","wem/bandit_single","A3HW4QDJB63OQ2","pain","2","","72","H","0","img/none_selected.jpg","0","0","1","","0.2484624222","false","21","","0.2484624222","main_expt","","0.08337624199","","0.2297715145","","0.2552731096","","","","","",""
"45","","bandit","97","306826","0.0-59.0-0.0","15372419","wem/bandit_single","A3HW4QDJB63OQ2","pain","2","","72","H","0","img/none_selected.jpg","0","0","1","","0.3180013331","false","22","","0.3180013331","main_expt","","0.09400888178","","0.2893552095","","0.2706059063","","","","","",""
"75","","bandit","98","308654","0.0-60.0-0.0","15372419","wem/bandit_single","A3HW4QDJB63OQ2","pain","2","","72","H","0","img/none_selected.jpg","0","0","1","","0.3018869565","false","23","","0.3018869565","main_expt","","0.08373077729","","0.1756353462","","0.2240124609","","","","","",""
"36","","bandit","99","310447","0.0-61.0-0.0","15372419","wem/bandit_single","A3HW4QDJB63OQ2","pain","2","","74","J","1","","0","0","1","","0.07394888686","false","24","","0.3479913718","main_expt","","0.07394888686","","0.144307289","","0.2337623096","","","","","",""
"167","","bandit","100","312368","0.0-62.0-0.0","15372419","wem/bandit_single","A3HW4QDJB63OQ2","pain","2","","74","J","1","","0","0","1","","0.1177231478","false","25","","0.3851600672","main_expt","","0.1177231478","","0.1103761204","","0.1992837424","","","","","",""
"59","","bandit","101","314183","0.0-63.0-0.0","15372419","wem/bandit_single","A3HW4QDJB63OQ2","pain","2","","74","J","1","","0","1","0","","0.1137187285","false","26","","0.3771699284","main_expt","","0.1137187285","","0.09313295331","","0.2273902023","","","","","",""
"31","","bandit","102","315983","0.0-64.0-0.0","15372419","wem/bandit_single","A3HW4QDJB63OQ2","pain","2","","74","J","1","","0","0","1","","0.1380279251","false","27","","0.3284072512","main_expt","","0.1380279251","","0.07841862492","","0.2020281611","","","","","",""
"29","","bandit","103","317766","0.0-65.0-0.0","15372419","wem/bandit_single","A3HW4QDJB63OQ2","pain","2","","74","J","1","","0","0","1","","0.1926536066","false","28","","0.3708797381","main_expt","","0.1926536066","","0.0635621653","","0.2121805601","","","","","",""
"389","","bandit","104","319911","0.0-66.0-0.0","15372419","wem/bandit_single","A3HW4QDJB63OQ2","pain","2","","74","J","1","","0","0","1","","0.1919064193","false","29","","0.3630760189","main_expt","","0.1919064193","","0.04349452081","","0.1986823058","","","","","",""
"413","","bandit","105","322084","0.0-67.0-0.0","15372419","wem/bandit_single","A3HW4QDJB63OQ2","pain","2","","75","K","2","","0","0","1","","0.06175929786","false","30","","0.3414786107","main_expt","","0.1767437005","","0.06175929786","","0.2674628916","","","","","",""
"98","","bandit","106","323936","0.0-68.0-0.0","15372419","wem/bandit_single","A3HW4QDJB63OQ2","pain","2","","75","K","2","","0","1","0","","0.06380111671","false","31","","0.3536929226","main_expt","","0.2417082081","","0.06380111671","","0.2862820789","","","","","",""
"8","","bandit","107","325697","0.0-69.0-0.0","15372419","wem/bandit_single","A3HW4QDJB63OQ2","pain","2","","75","K","2","","0","0","1","","0.08507033619","false","32","","0.3238646006","main_expt","","0.2312742115","","0.08507033619","","0.2895619367","","","","","",""
"49","","bandit","108","327503","0.0-70.0-0.0","15372419","wem/bandit_single","A3HW4QDJB63OQ2","pain","2","","75","K","2","","0","0","1","","0.1242974044","false","33","","0.3018803865","main_expt","","0.2247834387","","0.1242974044","","0.312502841","","","","","",""
"53","","bandit","109","329309","0.0-71.0-0.0","15372419","wem/bandit_single","A3HW4QDJB63OQ2","pain","2","","75","K","2","","0","0","1","","0.158311101","false","34","","0.2551449341","main_expt","","0.1192543008","","0.158311101","","0.2830864838","","","","","",""
"112","","bandit","110","331175","0.0-72.0-0.0","15372419","wem/bandit_single","A3HW4QDJB63OQ2","pain","2","","75","K","2","","0","0","1","","0.1293969191","false","35","","0.3200580053","main_expt","","0.1336327135","","0.1293969191","","0.2489219385","","","","","",""
"30","","bandit","111","332959","0.0-73.0-0.0","15372419","wem/bandit_single","A3HW4QDJB63OQ2","pain","2","","75","K","2","","0","0","1","","0.1800853883","false","36","","0.3241899647","main_expt","","0.09851205292","","0.1800853883","","0.2090346537","","","","","",""
"7","","bandit","112","334749","0.0-74.0-0.0","15372419","wem/bandit_single","A3HW4QDJB63OQ2","pain","2","","76","L","3","","0","0","1","","0.210385238","false","37","","0.3029113802","main_expt","","0.05943694951","","0.1025448258","","0.210385238","","","","","",""
"1","","bandit","113","336555","0.0-75.0-0.0","15372419","wem/bandit_single","A3HW4QDJB63OQ2","pain","2","","76","L","3","","0","0","1","","0.162227856","false","38","","0.2958592888","main_expt","","0.06217728149","","0.1604021245","","0.162227856","","","","","",""
"105","","bandit","114","338415","0.0-76.0-0.0","15372419","wem/bandit_single","A3HW4QDJB63OQ2","pain","2","","76","L","3","","0","0","1","","0.1444893634","false","39","","0.2941945884","main_expt","","0.08902833973","","0.1336531769","","0.1444893634","","","","","",""
"29","","bandit","115","340199","0.0-77.0-0.0","15372419","wem/bandit_single","A3HW4QDJB63OQ2","pain","2","","76","L","3","","0","0","1","","0.1340169349","false","40","","0.2784490849","main_expt","","0.1098655825","","0.1356889635","","0.1340169349","","","","","",""
"141","","bandit","116","342094","0.0-78.0-0.0","15372419","wem/bandit_single","A3HW4QDJB63OQ2","pain","2","","72","H","0","img/none_selected.jpg","0","1","0","","0.2943099773","false","41","","0.2943099773","main_expt","","0.125718056","","0.1434276379","","0.1019114547","","","","","",""
"430","","bandit","117","344278","0.0-79.0-0.0","15372419","wem/bandit_single","A3HW4QDJB63OQ2","pain","2","","72","H","0","img/none_selected.jpg","0","1","0","","0.2502187242","false","42","","0.2502187242","main_expt","","0.07668278466","","0.1432973755","","0.07379386716","","","","","",""
"79","","bandit","118","346132","0.0-80.0-0.0","15372419","wem/bandit_single","A3HW4QDJB63OQ2","pain","2","","72","H","0","img/none_selected.jpg","0","1","0","","0.2691097515","false","43","","0.2691097515","main_expt","","0.08403116819","","0.1605884153","","0.08186566242","","","","","",""
"26","","bandit","119","347918","0.0-81.0-0.0","15372419","wem/bandit_single","A3HW4QDJB63OQ2","pain","2","","72","H","0","img/none_selected.jpg","0","0","1","","0.2601206974","false","44","","0.2601206974","main_expt","","0.08258467284","","0.1396132557","","0.08692603594","","","","","",""
"134","","bandit","120","349806","0.0-82.0-0.0","15372419","wem/bandit_single","A3HW4QDJB63OQ2","pain","2","","72","H","0","img/none_selected.jpg","0","0","1","","0.3222012474","false","45","","0.3222012474","main_expt","","0.07253936928","","0.2250933593","","0.1212470101","","","","","",""
"159","","bandit","121","351767","0.0-83.0-0.0","15372419","wem/bandit_single","A3HW4QDJB63OQ2","pain","2","","72","H","0","img/none_selected.jpg","0","0","1","","0.3060845752","false","46","","0.3060845752","main_expt","","0.05374479905","","0.1826421925","","0.134661007","","","","","",""
"93","","bandit","122","353614","0.0-84.0-0.0","15372419","wem/bandit_single","A3HW4QDJB63OQ2","pain","2","","72","H","0","img/none_selected.jpg","0","0","1","","0.290950603","false","47","","0.290950603","main_expt","","0.06764850751","","0.1706758886","","0.1377890551","","","","","",""
"118","","bandit","123","355521","0.0-85.0-0.0","15372419","wem/bandit_single","A3HW4QDJB63OQ2","pain","2","","72","H","0","img/none_selected.jpg","0","0","1","","0.329307254","false","48","","0.329307254","main_expt","","0.05656727153","","0.1686178854","","0.1325860966","","","","","",""
"51","","bandit","124","357328","0.0-86.0-0.0","15372419","wem/bandit_single","A3HW4QDJB63OQ2","pain","2","","72","H","0","img/none_selected.jpg","0","0","1","","0.405044281","false","49","","0.405044281","main_expt","","0.08131597157","","0.1822379713","","0.1231750139","","","","","",""
"27","","bandit","125","359111","0.0-87.0-0.0","15372419","wem/bandit_single","A3HW4QDJB63OQ2","pain","2","","75","K","2","","0","0","1","","0.2513484478","false","50","","0.4121919591","main_expt","","0.08274267654","","0.2513484478","","0.1565964086","","","","","",""
"17","","bandit","126","360903","0.0-88.0-0.0","15372419","wem/bandit_single","A3HW4QDJB63OQ2","pain","2","","75","K","2","","0","0","1","","0.2812942615","false","51","","0.4271607293","main_expt","","0.1154896937","","0.2812942615","","0.1464659706","","","","","",""
"235","","bandit","127","362894","0.0-89.0-0.0","15372419","wem/bandit_single","A3HW4QDJB63OQ2","pain","2","","75","K","2","","0","0","1","","0.2224049931","false","52","","0.4249516559","main_expt","","0.07649260985","","0.2224049931","","0.1196909414","","","","","",""
"45","","bandit","128","364695","0.0-90.0-0.0","15372419","wem/bandit_single","A3HW4QDJB63OQ2","pain","2","","75","K","2","","0","0","1","","0.2135714686","false","53","","0.414238899","main_expt","","0.06211708307","","0.2135714686","","0.1578713891","","","","","",""
"430","","bandit","129","366894","0.0-91.0-0.0","15372419","wem/bandit_single","A3HW4QDJB63OQ2","pain","2","","74","J","1","","0","0","1","","0.05122165179","false","54","","0.4404827494","main_expt","","0.05122165179","","0.2471494284","","0.1420893662","","","","","",""
"19","","bandit","130","368671","0.0-92.0-0.0","15372419","wem/bandit_single","A3HW4QDJB63OQ2","pain","2","","74","J","1","","0","0","1","","0.05779626682","false","55","","0.4258944343","main_expt","","0.05779626682","","0.26732004","","0.1255118638","","","","","",""
"94","","bandit","131","370520","0.0-93.0-0.0","15372419","wem/bandit_single","A3HW4QDJB63OQ2","pain","2","","74","J","1","","0","0","1","","0.06578325953","false","56","","0.4058732664","main_expt","","0.06578325953","","0.258853447","","0.1040792381","","","","","",""
"332","","bandit","132","372608","0.0-94.0-0.0","15372419","wem/bandit_single","A3HW4QDJB63OQ2","pain","2","","72","H","0","img/none_selected.jpg","0","0","1","","0.4269212616","false","57","","0.4269212616","main_expt","","0.07487929626","","0.247757255","","0.1058118143","","","","","",""
"75","","bandit","133","374439","0.0-95.0-0.0","15372419","wem/bandit_single","A3HW4QDJB63OQ2","pain","2","","72","H","0","img/none_selected.jpg","0","1","0","","0.4120073189","false","58","","0.4120073189","main_expt","","0.05601765109","","0.2380046022","","0.08107820888","","","","","",""
"68","","bandit","134","376264","0.0-96.0-0.0","15372419","wem/bandit_single","A3HW4QDJB63OQ2","pain","2","","72","H","0","img/none_selected.jpg","0","0","1","","0.367464959","false","59","","0.367464959","main_expt","","0.07158824907","","0.273239949","","0.115954585","","","","","",""
"364","","bandit","135","378383","0.0-97.0-0.0","15372419","wem/bandit_single","A3HW4QDJB63OQ2","pain","2","","72","H","0","img/none_selected.jpg","0","0","1","","0.3113576115","false","60","","0.3113576115","main_expt","","0.1021813758","","0.314936794","","0.190529156","","","","","",""
"205","","bandit","136","380343","0.0-98.0-0.0","15372419","wem/bandit_single","A3HW4QDJB63OQ2","pain","2","","72","H","0","img/none_selected.jpg","0","0","1","","0.3217665369","false","61","","0.3217665369","main_expt","","0.1422244628","","0.3361315769","","0.2024767933","","","","","",""
"132","","bandit","137","382231","0.0-99.0-0.0","15372419","wem/bandit_single","A3HW4QDJB63OQ2","pain","2","","72","H","0","img/none_selected.jpg","0","0","1","","0.3396020841","false","62","","0.3396020841","main_expt","","0.1543762338","","0.3012470308","","0.1478811465","","","","","",""
"77","","bandit","138","384063","0.0-100.0-0.0","15372419","wem/bandit_single","A3HW4QDJB63OQ2","pain","2","","72","H","0","img/none_selected.jpg","0","0","1","","0.3326008901","false","63","","0.3326008901","main_expt","","0.1957871903","","0.3035933772","","0.1472080331","","","","","",""
"54","","bandit","139","385871","0.0-101.0-0.0","15372419","wem/bandit_single","A3HW4QDJB63OQ2","pain","2","","76","L","3","","0","0","1","","0.1523556625","false","64","","0.2759567044","main_expt","","0.1998827037","","0.3061864711","","0.1523556625","","","","","",""
"6","","bandit","140","387631","0.0-102.0-0.0","15372419","wem/bandit_single","A3HW4QDJB63OQ2","pain","2","","76","L","3","","0","0","1","","0.1640586258","false","65","","0.330340259","main_expt","","0.2229124218","","0.2795045379","","0.1640586258","","","","","",""
"70","","bandit","141","389455","0.0-103.0-0.0","15372419","wem/bandit_single","A3HW4QDJB63OQ2","pain","2","","76","L","3","","0","0","1","","0.1559289375","false","66","","0.394496842","main_expt","","0.2821528041","","0.2624990872","","0.1559289375","","","","","",""
"30","","bandit","142","391266","0.0-104.0-0.0","15372419","wem/bandit_single","A3HW4QDJB63OQ2","pain","2","","75","K","2","","0","1","0","","0.2316809648","false","67","","0.3780229448","main_expt","","0.2228434199","","0.2316809648","","0.09042099393","","","","","",""
"24","","bandit","143","393047","0.0-105.0-0.0","15372419","wem/bandit_single","A3HW4QDJB63OQ2","pain","2","","75","K","2","","0","0","1","","0.2266776066","false","68","","0.313258317","main_expt","","0.2039549584","","0.2266776066","","0.08874767337","","","","","",""
"316","","bandit","144","395119","0.0-106.0-0.0","15372419","wem/bandit_single","A3HW4QDJB63OQ2","pain","2","","75","K","2","","0","0","1","","0.1734363374","false","69","","0.3466590849","main_expt","","0.1998164138","","0.1734363374","","0.09103688118","","","","","",""
"53","","bandit","145","396927","0.0-107.0-0.0","15372419","wem/bandit_single","A3HW4QDJB63OQ2","pain","2","","75","K","2","","0","0","1","","0.1469163378","false","70","","0.3389702644","main_expt","","0.1936545157","","0.1469163378","","0.139461016","","","","","",""
"133","","bandit","146","398815","0.0-108.0-0.0","15372419","wem/bandit_single","A3HW4QDJB63OQ2","pain","2","","75","K","2","","0","0","1","","0.1903103683","false","71","","0.3037518088","main_expt","","0.1875420319","","0.1903103683","","0.1269809057","","","","","",""
"13","","bandit","147","400638","0.0-109.0-0.0","15372419","wem/bandit_single","A3HW4QDJB63OQ2","pain","2","","75","K","2","","0","1","0","","0.2364630875","false","72","","0.3007282465","main_expt","","0.2275961541","","0.2364630875","","0.1541032278","","","","","",""
"357","","bandit","148","402752","0.0-110.0-0.0","15372419","wem/bandit_single","A3HW4QDJB63OQ2","pain","2","","75","K","2","","0","0","1","","0.2715971604","false","73","","0.2796446257","main_expt","","0.2485431464","","0.2715971604","","0.1618198783","","","","","",""
"244","","bandit","149","404765","0.0-111.0-0.0","15372419","wem/bandit_single","A3HW4QDJB63OQ2","pain","2","","75","K","2","","0","0","1","","0.2716254876","false","74","","0.2729876577","main_expt","","0.2394527842","","0.2716254876","","0.1428156761","","","","","",""
"237","","bandit","150","406759","0.0-112.0-0.0","15372419","wem/bandit_single","A3HW4QDJB63OQ2","pain","2","","75","K","2","","0","0","1","","0.2998540279","false","75","","0.2067723694","main_expt","","0.2074684787","","0.2998540279","","0.1312504708","","","","","",""
"54","","bandit","151","408567","0.0-113.0-0.0","15372419","wem/bandit_single","A3HW4QDJB63OQ2","pain","2","","75","K","2","","0","1","0","","0.3195890579","false","76","","0.2130899639","main_expt","","0.178133335","","0.3195890579","","0.1002429729","","","","","",""
"93","","bandit","152","410435","0.0-114.0-0.0","15372419","wem/bandit_single","A3HW4QDJB63OQ2","pain","2","","75","K","2","","0","1","0","","0.2856322382","false","77","","0.2109525889","main_expt","","0.1788248706","","0.2856322382","","0.07543037954","","","","","",""
"193","","bandit","153","412383","0.0-115.0-0.0","15372419","wem/bandit_single","A3HW4QDJB63OQ2","pain","2","","75","K","2","","0","0","1","","0.2919105172","false","78","","0.1884332626","main_expt","","0.1530293784","","0.2919105172","","0.1153668935","","","","","",""
"8","","bandit","154","414213","0.0-116.0-0.0","15372419","wem/bandit_single","A3HW4QDJB63OQ2","pain","2","","75","K","2","","0","1","0","","0.2567181874","false","79","","0.1883433777","main_expt","","0.1593806387","","0.2567181874","","0.07716777456","","","","","",""
"7","","bandit","155","415975","0.0-117.0-0.0","15372419","wem/bandit_single","A3HW4QDJB63OQ2","pain","2","","75","K","2","","0","0","1","","0.3200023444","false","80","","0.1998795799","main_expt","","0.1428411119","","0.3200023444","","0.08058819474","","","","","",""
"326","","bandit","156","418064","0.0-118.0-0.0","15372419","wem/bandit_single","A3HW4QDJB63OQ2","pain","2","","75","K","2","","0","0","1","","0.3117755618","false","81","","0.1651756375","main_expt","","0.1982686668","","0.3117755618","","0.09856946308","","","","","",""
"261","","bandit","157","420079","0.0-119.0-0.0","15372419","wem/bandit_single","A3HW4QDJB63OQ2","pain","2","","75","K","2","","0","0","1","","0.3379160562","false","82","","0.2235829688","main_expt","","0.2291501313","","0.3379160562","","0.1000946235","","","","","",""
"86","","bandit","158","421950","0.0-120.0-0.0","15372419","wem/bandit_single","A3HW4QDJB63OQ2","pain","2","","75","K","2","","0","0","1","","0.3620865136","false","83","","0.2456561592","main_expt","","0.2259362275","","0.3620865136","","0.06687408093","","","","","",""
"65","","bandit","159","423774","0.0-121.0-0.0","15372419","wem/bandit_single","A3HW4QDJB63OQ2","pain","2","","72","H","0","img/none_selected.jpg","0","0","1","","0.2790354554","false","84","","0.2790354554","main_expt","","0.1733031115","","0.3904685548","","0.06463964557","","","","","",""
"134","","bandit","160","425759","0.0-122.0-0.0","15372419","wem/bandit_single","A3HW4QDJB63OQ2","pain","2","","72","H","0","img/none_selected.jpg","0","0","1","","0.2389339959","false","85","","0.2389339959","main_expt","","0.1577379057","","0.4201611698","","0.09044174456","","","","","",""
"93","","bandit","161","427606","0.0-123.0-0.0","15372419","wem/bandit_single","A3HW4QDJB63OQ2","pain","2","","72","H","0","img/none_selected.jpg","0","1","0","","0.2905830411","false","86","","0.2905830411","main_expt","","0.1646880331","","0.4544588035","","0.07242924321","","","","","",""
"53","","bandit","162","429414","0.0-124.0-0.0","15372419","wem/bandit_single","A3HW4QDJB63OQ2","pain","2","","72","H","0","img/none_selected.jpg","0","0","1","","0.3336128518","false","87","","0.3336128518","main_expt","","0.157008097","","0.4444110865","","0.06356931104","","","","","",""
"53","","bandit","163","431222","0.0-125.0-0.0","15372419","wem/bandit_single","A3HW4QDJB63OQ2","pain","2","","72","H","0","img/none_selected.jpg","0","1","0","","0.3720796031","false","88","","0.3720796031","main_expt","","0.14663069","","0.4276611285","","0.08819972964","","","","","",""
"69","","bandit","164","433046","0.0-126.0-0.0","15372419","wem/bandit_single","A3HW4QDJB63OQ2","pain","2","","72","H","0","img/none_selected.jpg","0","1","0","","0.3383028484","false","89","","0.3383028484","main_expt","","0.1510377787","","0.395063318","","0.09388884115","","","","","",""
"132","","bandit","165","434991","0.0-127.0-0.0","15372419","wem/bandit_single","A3HW4QDJB63OQ2","pain","2","","72","H","0","img/none_selected.jpg","0","0","1","","0.3550100304","false","90","","0.3550100304","main_expt","","0.1600185234","","0.3790569413","","0.1265583984","","","","","",""
"101","","bandit","166","436852","0.0-128.0-0.0","15372419","wem/bandit_single","A3HW4QDJB63OQ2","pain","2","","72","H","0","img/none_selected.jpg","0","0","1","","0.4198742783","false","91","","0.4198742783","main_expt","","0.1618321768","","0.3763017738","","0.09433033469","","","","","",""
"23","","bandit","167","438632","0.0-129.0-0.0","15372419","wem/bandit_single","A3HW4QDJB63OQ2","pain","2","","72","H","0","img/none_selected.jpg","0","1","0","","0.4522920775","false","92","","0.4522920775","main_expt","","0.1408839615","","0.3829045729","","0.05111462501","","","","","",""
"203","","bandit","168","440680","0.0-130.0-0.0","15372419","wem/bandit_single","A3HW4QDJB63OQ2","pain","2","","72","H","0","img/none_selected.jpg","0","0","1","","0.4572096334","false","93","","0.4572096334","main_expt","","0.1675332925","","0.4155552038","","0.05378689714","","","","","",""
"59","","bandit","169","442495","0.0-131.0-0.0","15372419","wem/bandit_single","A3HW4QDJB63OQ2","pain","2","","72","H","0","img/none_selected.jpg","0","0","1","","0.457248447","false","94","","0.457248447","main_expt","","0.2154783406","","0.3964247486","","0.04385487208","","","","","",""
"36","","bandit","170","444287","0.0-132.0-0.0","15372419","wem/bandit_single","A3HW4QDJB63OQ2","pain","2","","72","H","0","img/none_selected.jpg","0","1","0","","0.4284600246","false","95","","0.4284600246","main_expt","","0.2434825378","","0.4028729744","","0.02374316345","","","","","",""
"533","","bandit","171","446574","0.0-133.0-0.0","15372419","wem/bandit_single","A3HW4QDJB63OQ2","pain","2","","72","H","0","img/none_selected.jpg","0","0","1","","0.4213934208","false","96","","0.4213934208","main_expt","","0.300751002","","0.3937220057","","0.01119532444","","","","","",""
"87","","bandit","172","448437","0.0-134.0-0.0","15372419","wem/bandit_single","A3HW4QDJB63OQ2","pain","2","","72","H","0","img/none_selected.jpg","0","1","0","","0.4093218277","false","97","","0.4093218277","main_expt","","0.2390268827","","0.3951408858","","0.01205949719","","","","","",""
"494","","bandit","173","450699","0.0-135.0-0.0","15372419","wem/bandit_single","A3HW4QDJB63OQ2","pain","2","","72","H","0","img/none_selected.jpg","0","1","0","","0.4011771953","false","98","","0.4011771953","main_expt","","0.1872158766","","0.3872505806","","0.02530753644","","","","","",""
"102","","bandit","174","452558","0.0-136.0-0.0","15372419","wem/bandit_single","A3HW4QDJB63OQ2","pain","2","","72","H","0","img/none_selected.jpg","0","0","1","","0.4319140629","false","99","","0.4319140629","main_expt","","0.2281726053","","0.3237376228","","0.02318317113","","","","","",""
"237","","bandit","175","454551","0.0-137.0-0.0","15372419","wem/bandit_single","A3HW4QDJB63OQ2","pain","2","","72","H","0","img/none_selected.jpg","0","0","1","","0.4388591553","false","100","","0.4388591553","main_expt","","0.2322026393","","0.3840854176","","0.01577819671","","","","","",""
"75","","bandit","176","456451","0.0-138.0-0.0","15372419","wem/bandit_single","A3HW4QDJB63OQ2","pain","2","","72","H","0","img/none_selected.jpg","0","1","0","","0.4405661836","false","101","","0.4405661836","main_expt","","0.2675158553","","0.4043087267","","0.03767304301","","","","","",""
"6","","bandit","177","458214","0.0-139.0-0.0","15372419","wem/bandit_single","A3HW4QDJB63OQ2","pain","2","","72","H","0","img/none_selected.jpg","0","0","1","","0.4155134761","false","102","","0.4155134761","main_expt","","0.2334450153","","0.423372456","","0.03003558128","","","","","",""
"15","","bandit","178","459984","0.0-140.0-0.0","15372419","wem/bandit_single","A3HW4QDJB63OQ2","pain","2","","72","H","0","img/none_selected.jpg","0","1","0","","0.4079284656","false","103","","0.4079284656","main_expt","","0.2546104349","","0.4305794097","","0.04748945294","","","","","",""
"51","","bandit","179","461790","0.0-141.0-0.0","15372419","wem/bandit_single","A3HW4QDJB63OQ2","pain","2","","72","H","0","img/none_selected.jpg","0","1","0","","0.3827156199","false","104","","0.3827156199","main_expt","","0.2657782481","","0.4515631957","","0.06674284653","","","","","",""
"684","","bandit","180","464229","0.0-142.0-0.0","15372419","wem/bandit_single","A3HW4QDJB63OQ2","pain","2","","72","H","0","img/none_selected.jpg","0","0","1","","0.3892206975","false","105","","0.3892206975","main_expt","","0.2397797145","","0.454723383","","0.0806059128","","","","","",""
"150","","bandit","181","466135","0.0-143.0-0.0","15372419","wem/bandit_single","A3HW4QDJB63OQ2","pain","2","","72","H","0","img/none_selected.jpg","0","0","1","","0.3499671591","false","106","","0.3499671591","main_expt","","0.1744994936","","0.4487898282","","0.1147522423","","","","","",""
"81","","bandit","182","467971","0.0-144.0-0.0","15372419","wem/bandit_single","A3HW4QDJB63OQ2","pain","2","","72","H","0","img/none_selected.jpg","0","0","1","","0.3378870415","false","107","","0.3378870415","main_expt","","0.2004436591","","0.4300484018","","0.1225979079","","","","","",""
"426","","bandit","183","470152","0.0-145.0-0.0","15372419","wem/bandit_single","A3HW4QDJB63OQ2","pain","2","","72","H","0","img/none_selected.jpg","0","0","1","","0.3206855754","false","108","","0.3206855754","main_expt","","0.1781349215","","0.4056187414","","0.1808232933","","","","","",""
"51","","bandit","184","471958","0.0-146.0-0.0","15372419","wem/bandit_single","A3HW4QDJB63OQ2","pain","2","","72","H","0","img/none_selected.jpg","0","0","1","","0.3412252333","false","109","","0.3412252333","main_expt","","0.1603989886","","0.4145536126","","0.2004688742","","","","","",""
"5","","bandit","185","473718","0.0-147.0-0.0","15372419","wem/bandit_single","A3HW4QDJB63OQ2","pain","2","","75","K","2","","0","1","0","","0.3897928763","false","110","","0.3650365033","main_expt","","0.1300992081","","0.3897928763","","0.2261403934","","","","","",""
"60","","bandit","186","475540","0.0-148.0-0.0","15372419","wem/bandit_single","A3HW4QDJB63OQ2","pain","2","","75","K","2","","0","0","1","","0.4150540561","false","111","","0.341048274","main_expt","","0.1740321776","","0.4150540561","","0.1612973213","","","","","",""
"302","","bandit","187","477630","0.0-149.0-0.0","15372419","wem/bandit_single","A3HW4QDJB63OQ2","pain","2","","75","K","2","","0","0","1","","0.4394636757","false","112","","0.3254027875","main_expt","","0.2444477537","","0.4394636757","","0.1655724556","","","","","",""
"93","","bandit","188","479478","0.0-150.0-0.0","15372419","wem/bandit_single","A3HW4QDJB63OQ2","pain","2","","75","K","2","","0","1","0","","0.4301961846","false","113","","0.308059901","main_expt","","0.2195244909","","0.4301961846","","0.1319876284","","","","","",""
"345","","bandit","189","481630","0.0-151.0-0.0","15372419","wem/bandit_single","A3HW4QDJB63OQ2","pain","2","","75","K","2","","0","0","1","","0.4497687286","false","114","","0.3238695313","main_expt","","0.2719971232","","0.4497687286","","0.1147934267","","","","","",""
"61","","bandit","190","483521","0.0-152.0-0.0","15372419","wem/bandit_single","A3HW4QDJB63OQ2","pain","2","","75","K","2","","0","0","1","","0.4448888627","false","115","","0.3315084933","main_expt","","0.2447677414","","0.4448888627","","0.1301750396","","","","","",""
"335","","bandit","191","485616","0.0-153.0-0.0","15372419","wem/bandit_single","A3HW4QDJB63OQ2","pain","2","","75","K","2","","0","0","1","","0.3905844751","false","116","","0.3234657333","main_expt","","0.2296513069","","0.3905844751","","0.130185029","","","","","",""
"149","","bandit","192","487523","0.0-154.0-0.0","15372419","wem/bandit_single","A3HW4QDJB63OQ2","pain","2","","75","K","2","","0","1","0","","0.424359093","false","117","","0.300593156","main_expt","","0.2151266314","","0.424359093","","0.1548944576","","","","","",""
"18","","bandit","193","489296","0.0-155.0-0.0","15372419","wem/bandit_single","A3HW4QDJB63OQ2","pain","2","","75","K","2","","0","1","0","","0.4121010571","false","118","","0.3585138177","main_expt","","0.1311834018","","0.4121010571","","0.172903741","","","","","",""
"375","","bandit","194","491426","0.0-156.0-0.0","15372419","wem/bandit_single","A3HW4QDJB63OQ2","pain","2","","75","K","2","","0","0","1","","0.4117558181","false","119","","0.3062020697","main_expt","","0.1190099868","","0.4117558181","","0.1707570171","","","","","",""
"338","","bandit","195","493519","0.0-157.0-0.0","15372419","wem/bandit_single","A3HW4QDJB63OQ2","pain","2","","75","K","2","","0","0","1","","0.4275669698","false","120","","0.3312553157","main_expt","","0.1117686876","","0.4275669698","","0.1870802187","","","","","",""
"156","","bandit","196","495431","0.0-158.0-0.0","15372419","wem/bandit_single","A3HW4QDJB63OQ2","pain","2","","75","K","2","","0","0","1","","0.4428986123","false","121","","0.3892509988","main_expt","","0.1415869423","","0.4428986123","","0.1870161021","","","","","",""
"92","","bandit","197","497279","0.0-159.0-0.0","15372419","wem/bandit_single","A3HW4QDJB63OQ2","pain","2","","75","K","2","","0","1","0","","0.4376246318","false","122","","0.4330036483","main_expt","","0.1398412585","","0.4376246318","","0.1926804843","","","","","",""
"68","","bandit","198","499103","0.0-160.0-0.0","15372419","wem/bandit_single","A3HW4QDJB63OQ2","pain","2","","75","K","2","","0","0","1","","0.4153394585","false","123","","0.4555957022","main_expt","","0.1163210087","","0.4153394585","","0.2057615037","","","","","",""
"140","","bandit","199","501072","0.0-161.0-0.0","15372419","wem/bandit_single","A3HW4QDJB63OQ2","pain","2","","75","K","2","","0","0","1","","0.4203389285","false","124","","0.4565029776","main_expt","","0.07344578178","","0.4203389285","","0.2639565913","","","","","",""
"104","","bandit","200","502936","0.0-162.0-0.0","15372419","wem/bandit_single","A3HW4QDJB63OQ2","pain","2","","75","K","2","","0","1","0","","0.3710029205","false","125","","0.4511527373","main_expt","","0.08752025541","","0.3710029205","","0.3672341475","","","","","",""
"58","","bandit","201","504751","0.0-163.0-0.0","15372419","wem/bandit_single","A3HW4QDJB63OQ2","pain","2","","75","K","2","","0","0","1","","0.3465273485","false","126","","0.4426171603","main_expt","","0.1064058914","","0.3465273485","","0.3606148775","","","","","",""
"245","","bandit","202","506753","0.0-164.0-0.0","15372419","wem/bandit_single","A3HW4QDJB63OQ2","pain","2","","75","K","2","","0","0","1","","0.4106613481","false","127","","0.4259104728","main_expt","","0.1103525866","","0.4106613481","","0.4079700646","","","","","",""
"75","","bandit","203","508592","0.0-165.0-0.0","15372419","wem/bandit_single","A3HW4QDJB63OQ2","pain","2","","75","K","2","","0","0","1","","0.4377707947","false","128","","0.4543754413","main_expt","","0.1060480298","","0.4377707947","","0.4204919645","","","","","",""
"44","","bandit","204","510391","0.0-166.0-0.0","15372419","wem/bandit_single","A3HW4QDJB63OQ2","pain","2","","75","K","2","","0","1","0","","0.4481781661","false","129","","0.4587533269","main_expt","","0.1332603285","","0.4481781661","","0.4040923387","","","","","",""
"85","","bandit","205","512231","0.0-167.0-0.0","15372419","wem/bandit_single","A3HW4QDJB63OQ2","pain","2","","75","K","2","","0","1","0","","0.4301237728","false","130","","0.4618517855","main_expt","","0.09182468565","","0.4301237728","","0.3906791758","","","","","",""
"85","","bandit","206","514160","0.0-168.0-0.0","15372419","wem/bandit_single","A3HW4QDJB63OQ2","pain","2","","75","K","2","","0","0","1","","0.4457858875","false","131","","0.4622878414","main_expt","","0.09388333002","","0.4457858875","","0.380553204","","","","","",""
"87","","bandit","207","516031","0.0-169.0-0.0","15372419","wem/bandit_single","A3HW4QDJB63OQ2","pain","2","","75","K","2","","0","1","0","","0.4732894157","false","132","","0.4624711794","main_expt","","0.07277513685","","0.4732894157","","0.4000467043","","","","","",""
"308","","bandit","208","518095","0.0-170.0-0.0","15372419","wem/bandit_single","A3HW4QDJB63OQ2","pain","2","","75","K","2","","0","0","1","","0.4607838047","false","133","","0.4794526202","main_expt","","0.1108266248","","0.4607838047","","0.3929100345","","","","","",""
"108","","bandit","209","519959","0.0-171.0-0.0","15372419","wem/bandit_single","A3HW4QDJB63OQ2","pain","2","","75","K","2","","0","0","1","","0.4663808264","false","134","","0.481632873","main_expt","","0.1466671782","","0.4663808264","","0.4009617203","","","","","",""
"20","","bandit","210","521783","0.0-172.0-0.0","15372419","wem/bandit_single","A3HW4QDJB63OQ2","pain","2","","75","K","2","","0","1","0","","0.4625615306","false","135","","0.4667599148","main_expt","","0.1625995743","","0.4625615306","","0.3859426802","","","","","",""
"439","","bandit","211","523984","0.0-173.0-0.0","15372419","wem/bandit_single","A3HW4QDJB63OQ2","pain","2","","75","K","2","","0","0","1","","0.4629143089","false","136","","0.4468402508","main_expt","","0.1555673637","","0.4629143089","","0.4089350186","","","","","",""
"340","","bandit","212","526079","0.0-174.0-0.0","15372419","wem/bandit_single","A3HW4QDJB63OQ2","pain","2","","75","K","2","","0","0","1","","0.4644074349","false","137","","0.4331537256","main_expt","","0.1395554881","","0.4644074349","","0.4009707033","","","","","",""
"101","","bandit","213","527936","0.0-175.0-0.0","15372419","wem/bandit_single","A3HW4QDJB63OQ2","pain","2","","75","K","2","","0","0","1","","0.4741213624","false","138","","0.4578477473","main_expt","","0.1387442451","","0.4741213624","","0.4116224971","","","","","",""
"89","","bandit","214","529780","0.0-176.0-0.0","15372419","wem/bandit_single","A3HW4QDJB63OQ2","pain","2","","75","K","2","","0","0","1","","0.4736492243","false","139","","0.464919911","main_expt","","0.1693780048","","0.4736492243","","0.4129411324","","","","","",""
"103","","bandit","215","531639","0.0-177.0-0.0","15372419","wem/bandit_single","A3HW4QDJB63OQ2","pain","2","","75","K","2","","0","1","0","","0.4752570035","false","140","","0.4614371154","main_expt","","0.1753437518","","0.4752570035","","0.4494235083","","","","","",""
"29","","bandit","216","533425","0.0-178.0-0.0","15372419","wem/bandit_single","A3HW4QDJB63OQ2","pain","2","","75","K","2","","0","1","0","","0.4857055712","false","141","","0.4747872093","main_expt","","0.2288512635","","0.4857055712","","0.4453484197","","","","","",""
"41","","bandit","217","535223","0.0-179.0-0.0","15372419","wem/bandit_single","A3HW4QDJB63OQ2","pain","2","","75","K","2","","0","1","0","","0.4792724089","false","142","","0.4513335087","main_expt","","0.2579513082","","0.4792724089","","0.4604546146","","","","","",""
"102","","bandit","218","537124","0.0-180.0-0.0","15372419","wem/bandit_single","A3HW4QDJB63OQ2","pain","2","","75","K","2","","0","0","1","","0.48057755","false","143","","0.4198830698","main_expt","","0.21432658","","0.48057755","","0.4826245684","","","","","",""
"206","","bandit","219","539087","0.0-181.0-0.0","15372419","wem/bandit_single","A3HW4QDJB63OQ2","pain","2","","75","K","2","","0","1","0","","0.4777600445","false","144","","0.3673231636","main_expt","","0.1938021535","","0.4777600445","","0.4890981767","","","","","",""
"28","","bandit","220","540908","0.0-182.0-0.0","15372419","wem/bandit_single","A3HW4QDJB63OQ2","pain","2","","75","K","2","","0","0","1","","0.4735071841","false","145","","0.3772368795","main_expt","","0.206497324","","0.4735071841","","0.4680822138","","","","","",""
"133","","bandit","221","542800","0.0-183.0-0.0","15372419","wem/bandit_single","A3HW4QDJB63OQ2","pain","2","","75","K","2","","0","1","0","","0.4598241197","false","146","","0.3767069828","main_expt","","0.1857351915","","0.4598241197","","0.4660155258","","","","","",""
"27","","bandit","222","544583","0.0-184.0-0.0","15372419","wem/bandit_single","A3HW4QDJB63OQ2","pain","2","","75","K","2","","0","1","0","","0.4279993213","false","147","","0.4039806626","main_expt","","0.1046475439","","0.4279993213","","0.4723880167","","","","","",""
"404","","bandit","223","546743","0.0-185.0-0.0","15372419","wem/bandit_single","A3HW4QDJB63OQ2","pain","2","","75","K","2","","0","0","1","","0.4422782314","false","148","","0.4178396587","main_expt","","0.1098111678","","0.4422782314","","0.4692947112","","","","","",""
"22","","bandit","224","548520","0.0-186.0-0.0","15372419","wem/bandit_single","A3HW4QDJB63OQ2","pain","2","","75","K","2","","0","0","1","","0.4514785706","false","149","","0.3932004216","main_expt","","0.1221971929","","0.4514785706","","0.4702562614","","","","","",""
"18","","bandit","225","550295","0.0-187.0-0.0","15372419","wem/bandit_single","A3HW4QDJB63OQ2","pain","2","","75","K","2","","0","1","0","","0.4189864991","false","150","","0.4103897693","main_expt","","0.1354034315","","0.4189864991","","0.4714094479","","","","","",""
"58","","bandit","226","552110","0.0-188.0-0.0","15372419","wem/bandit_single","A3HW4QDJB63OQ2","pain","2","","75","K","2","","0","0","1","","0.4389233528","false","151","","0.4122179041","main_expt","","0.1041822367","","0.4389233528","","0.4761401221","","","","","",""
"12","","bandit","227","553878","0.0-189.0-0.0","15372419","wem/bandit_single","A3HW4QDJB63OQ2","pain","2","","75","K","2","","0","1","0","","0.4244236929","false","152","","0.3952463752","main_expt","","0.09038071171","","0.4244236929","","0.4697737123","","","","","",""
"11","","bandit","228","555646","0.0-190.0-0.0","15372419","wem/bandit_single","A3HW4QDJB63OQ2","pain","2","","75","K","2","","0","0","1","","0.4476471014","false","153","","0.3877384472","main_expt","","0.08460578514","","0.4476471014","","0.446753433","","","","","",""
"219","","bandit","229","557626","0.0-191.0-0.0","15372419","wem/bandit_single","A3HW4QDJB63OQ2","pain","2","","75","K","2","","0","1","0","","0.4505336387","false","154","","0.3551427127","main_expt","","0.06957086972","","0.4505336387","","0.4588815304","","","","","",""
"9","","bandit","230","559393","0.0-192.0-0.0","15372419","wem/bandit_single","A3HW4QDJB63OQ2","pain","2","","75","K","2","","0","1","0","","0.466992112","false","155","","0.3027898514","main_expt","","0.07570805595","","0.466992112","","0.4483664475","","","","","",""
"9","","bandit","231","561159","0.0-193.0-0.0","15372419","wem/bandit_single","A3HW4QDJB63OQ2","pain","2","","75","K","2","","0","0","1","","0.4383448919","false","156","","0.3245978035","main_expt","","0.1010055374","","0.4383448919","","0.4383670719","","","","","",""
"675","","bandit","232","563649","0.0-194.0-0.0","15372419","wem/bandit_single","A3HW4QDJB63OQ2","pain","2","","75","K","2","","0","0","1","","0.4181306447","false","157","","0.3293821827","main_expt","","0.09959580587","","0.4181306447","","0.42990192","","","","","",""
"89","","bandit","233","565494","0.0-195.0-0.0","15372419","wem/bandit_single","A3HW4QDJB63OQ2","pain","2","","75","K","2","","0","1","0","","0.4322591637","false","158","","0.3053991167","main_expt","","0.09130540219","","0.4322591637","","0.4112902825","","","","","",""
"68","","bandit","234","567318","0.0-196.0-0.0","15372419","wem/bandit_single","A3HW4QDJB63OQ2","pain","2","","75","K","2","","0","0","1","","0.4129829621","false","159","","0.3475565739","main_expt","","0.07080299429","","0.4129829621","","0.4085113589","","","","","",""
"85","","bandit","235","569159","0.0-197.0-0.0","15372419","wem/bandit_single","A3HW4QDJB63OQ2","pain","2","","75","K","2","","0","1","0","","0.4094933958","false","160","","0.327393219","main_expt","","0.05017383151","","0.4094933958","","0.4079314082","","","","","",""
"362","","bandit","236","571278","0.0-198.0-0.0","15372419","wem/bandit_single","A3HW4QDJB63OQ2","pain","2","","75","K","2","","0","0","1","","0.404058003","false","161","","0.303429729","main_expt","","0.03820476969","","0.404058003","","0.3631501835","","","","","",""
"25","","bandit","237","573062","0.0-199.0-0.0","15372419","wem/bandit_single","A3HW4QDJB63OQ2","pain","2","","75","K","2","","0","0","1","","0.3846726044","false","162","","0.3079210788","main_expt","","0.02512507724","","0.3846726044","","0.3470346279","","","","","",""
"84","","bandit","238","574956","0.0-200.0-0.0","15372419","wem/bandit_single","A3HW4QDJB63OQ2","pain","2","","75","K","2","","0","0","1","","0.4016559577","false","163","","0.3004483846","main_expt","","0.03932379445","","0.4016559577","","0.372656257","","","","","",""
"107","","bandit","239","576824","0.0-201.0-0.0","15372419","wem/bandit_single","A3HW4QDJB63OQ2","pain","2","","75","K","2","","0","0","1","","0.3566256613","false","164","","0.2886014424","main_expt","","0.01829840099","","0.3566256613","","0.3802753243","","","","","",""
"82","","bandit","240","578704","0.0-202.0-0.0","15372419","wem/bandit_single","A3HW4QDJB63OQ2","pain","2","","72","H","0","img/none_selected.jpg","0","0","1","","0.2088325088","false","165","","0.2088325088","main_expt","","0.02415252971","","0.3509524146","","0.3881672334","","","","","",""
"86","","bandit","241","580574","0.0-203.0-0.0","15372419","wem/bandit_single","A3HW4QDJB63OQ2","pain","2","","72","H","0","img/none_selected.jpg","0","0","1","","0.2160195985","false","166","","0.2160195985","main_expt","","0.02185778449","","0.2773632025","","0.359536632","","","","","",""
"150","","bandit","242","582528","0.0-204.0-0.0","15372419","wem/bandit_single","A3HW4QDJB63OQ2","pain","2","","72","H","0","img/none_selected.jpg","0","0","1","","0.1836534764","false","167","","0.1836534764","main_expt","","0.02761124673","","0.3022689801","","0.3693034809","","","","","",""
"90","","bandit","243","584407","0.0-205.0-0.0","15372419","wem/bandit_single","A3HW4QDJB63OQ2","pain","2","","72","H","0","img/none_selected.jpg","0","0","1","","0.1701024481","false","168","","0.1701024481","main_expt","","0.02160611799","","0.2937690027","","0.3449050916","","","","","",""
"51","","bandit","244","586214","0.0-206.0-0.0","15372419","wem/bandit_single","A3HW4QDJB63OQ2","pain","2","","74","J","1","","0","0","1","","0.02113437328","false","169","","0.1896079261","main_expt","","0.02113437328","","0.2488586406","","0.3515710367","","","","","",""
"51","","bandit","245","588022","0.0-207.0-0.0","15372419","wem/bandit_single","A3HW4QDJB63OQ2","pain","2","","74","J","1","","0","0","1","","0.01292956957","false","170","","0.2377789273","main_expt","","0.01292956957","","0.2112819205","","0.3233833909","","","","","",""
"139","","bandit","246","589918","0.0-208.0-0.0","15372419","wem/bandit_single","A3HW4QDJB63OQ2","pain","2","","74","J","1","","0","0","1","","0.01989811998","false","171","","0.2640247014","main_expt","","0.01989811998","","0.2217900108","","0.2468086364","","","","","",""
"78","","bandit","247","591803","0.0-209.0-0.0","15372419","wem/bandit_single","A3HW4QDJB63OQ2","pain","2","","74","J","1","","0","0","1","","0.0296351857","false","172","","0.2055846389","main_expt","","0.0296351857","","0.2387596097","","0.3408906282","","","","","",""
"325","","bandit","248","593894","0.0-210.0-0.0","15372419","wem/bandit_single","A3HW4QDJB63OQ2","pain","2","","76","L","3","","0","0","1","","0.3252944763","false","173","","0.2438181894","main_expt","","0.03540771295","","0.2602125502","","0.3252944763","","","","","",""
"132","","bandit","249","595783","0.0-211.0-0.0","15372419","wem/bandit_single","A3HW4QDJB63OQ2","pain","2","","76","L","3","","0","0","1","","0.3200904142","false","174","","0.2733147352","main_expt","","0.03725130304","","0.2202846771","","0.3200904142","","","","","",""
"139","","bandit","250","597679","0.0-212.0-0.0","15372419","wem/bandit_single","A3HW4QDJB63OQ2","pain","2","","76","L","3","","0","0","1","","0.3622659173","false","175","","0.2767671147","main_expt","","0.03242602151","","0.233285157","","0.3622659173","","","","","",""
"283","","bandit","251","599718","0.0-213.0-0.0","15372419","wem/bandit_single","A3HW4QDJB63OQ2","pain","2","","76","L","3","","0","0","1","","0.2937007374","false","176","","0.2195478827","main_expt","","0.04697917163","","0.2264555061","","0.2937007374","","","","","",""
"4","","bandit","252","601478","0.0-214.0-0.0","15372419","wem/bandit_single","A3HW4QDJB63OQ2","pain","2","","75","K","2","","0","0","1","","0.241841845","false","177","","0.1515864758","main_expt","","0.04124559051","","0.241841845","","0.2513366018","","","","","",""
"305","","bandit","253","603542","0.0-215.0-0.0","15372419","wem/bandit_single","A3HW4QDJB63OQ2","pain","2","","75","K","2","","0","0","1","","0.2423953475","false","178","","0.1618037694","main_expt","","0.06205026603","","0.2423953475","","0.3159509921","","","","","",""
"203","","bandit","254","605503","0.0-216.0-0.0","15372419","wem/bandit_single","A3HW4QDJB63OQ2","pain","2","","75","K","2","","0","0","1","","0.2523089652","false","179","","0.1653326191","main_expt","","0.08412795639","","0.2523089652","","0.2899582247","","","","","",""
"241","","bandit","255","607503","0.0-217.0-0.0","15372419","wem/bandit_single","A3HW4QDJB63OQ2","pain","2","","75","K","2","","0","1","0","","0.2223981335","false","180","","0.1751853148","main_expt","","0.1304099397","","0.2223981335","","0.3371390753","","","","","",""
"75","","bandit","256","609336","0.0-218.0-0.0","15372419","wem/bandit_single","A3HW4QDJB63OQ2","pain","2","","75","K","2","","0","0","1","","0.2319473409","false","181","","0.211978586","main_expt","","0.1801801058","","0.2319473409","","0.3365963609","","","","","",""
"250","","bandit","257","611342","0.0-219.0-0.0","15372419","wem/bandit_single","A3HW4QDJB63OQ2","pain","2","","75","K","2","","0","0","1","","0.2338578761","false","182","","0.2323199139","main_expt","","0.1951504204","","0.2338578761","","0.2643366398","","","","","",""
"212","","bandit","258","613310","0.0-220.0-0.0","15372419","wem/bandit_single","A3HW4QDJB63OQ2","pain","2","","75","K","2","","0","0","1","","0.265472663","false","183","","0.2252803731","main_expt","","0.2330781564","","0.265472663","","0.2464000872","","","","","",""
"181","","bandit","259","615248","0.0-221.0-0.0","15372419","wem/bandit_single","A3HW4QDJB63OQ2","pain","2","","75","K","2","","0","0","1","","0.2826161147","false","184","","0.1614269484","main_expt","","0.2711395555","","0.2826161147","","0.3039071009","","","","","",""
"65","","bandit","260","617138","0.0-222.0-0.0","15372419","wem/bandit_single","A3HW4QDJB63OQ2","pain","2","","72","H","0","img/none_selected.jpg","0","0","1","","0.1636939604","false","185","","0.1636939604","main_expt","","0.2182249031","","0.2542525597","","0.3100879913","","","","","",""
"110","","bandit","261","619006","0.0-223.0-0.0","15372419","wem/bandit_single","A3HW4QDJB63OQ2","pain","2","","72","H","0","img/none_selected.jpg","0","0","1","","0.1744134641","false","186","","0.1744134641","main_expt","","0.2609412602","","0.260460085","","0.28505789","","","","","",""
"179","","bandit","262","620943","0.0-224.0-0.0","15372419","wem/bandit_single","A3HW4QDJB63OQ2","pain","2","","72","H","0","img/none_selected.jpg","0","0","1","","0.1955069844","false","187","","0.1955069844","main_expt","","0.2242136054","","0.2119714508","","0.2698122055","","","","","",""
"315","","bandit","263","623014","0.0-225.0-0.0","15372419","wem/bandit_single","A3HW4QDJB63OQ2","pain","2","","72","H","0","img/none_selected.jpg","0","1","0","","0.2289740151","false","188","","0.2289740151","main_expt","","0.2404864381","","0.1887053186","","0.2270240414","","","","","",""
"33","","bandit","264","624804","0.0-226.0-0.0","15372419","wem/bandit_single","A3HW4QDJB63OQ2","pain","2","","72","H","0","img/none_selected.jpg","0","0","1","","0.2495887903","false","189","","0.2495887903","main_expt","","0.2177927796","","0.1944753942","","0.2182158859","","","","","",""
"181","","bandit","265","626742","0.0-227.0-0.0","15372419","wem/bandit_single","A3HW4QDJB63OQ2","pain","2","","72","H","0","img/none_selected.jpg","0","1","0","","0.2815424982","false","190","","0.2815424982","main_expt","","0.2445379922","","0.2163673671","","0.2445882628","","","","","",""
"28","","bandit","266","628527","0.0-228.0-0.0","15372419","wem/bandit_single","A3HW4QDJB63OQ2","pain","2","","72","H","0","img/none_selected.jpg","0","0","1","","0.2401402076","false","191","","0.2401402076","main_expt","","0.2910265903","","0.2584180811","","0.2733302752","","","","","",""
"194","","bandit","267","630538","0.0-229.0-0.0","15372419","wem/bandit_single","A3HW4QDJB63OQ2","pain","2","","72","H","0","img/none_selected.jpg","0","0","1","","0.2510809658","false","192","","0.2510809658","main_expt","","0.3095983682","","0.2555063139","","0.2776932955","","","","","",""
"63","","bandit","268","632359","0.0-230.0-0.0","15372419","wem/bandit_single","A3HW4QDJB63OQ2","pain","2","","72","H","0","img/none_selected.jpg","0","0","1","","0.2875405407","false","193","","0.2875405407","main_expt","","0.3217156539","","0.2694863875","","0.3335190616","","","","","",""
"363","","bandit","269","634479","0.0-231.0-0.0","15372419","wem/bandit_single","A3HW4QDJB63OQ2","pain","2","","72","H","0","img/none_selected.jpg","0","0","1","","0.2183543786","false","194","","0.2183543786","main_expt","","0.278878796","","0.2894821148","","0.3308991278","","","","","",""
"82","","bandit","270","636318","0.0-232.0-0.0","15372419","wem/bandit_single","A3HW4QDJB63OQ2","pain","2","","72","H","0","img/none_selected.jpg","0","1","0","","0.2626349305","false","195","","0.2626349305","main_expt","","0.2738334973","","0.3028339589","","0.3676749275","","","","","",""
"53","","bandit","271","638178","0.0-233.0-0.0","15372419","wem/bandit_single","A3HW4QDJB63OQ2","pain","2","","72","H","0","img/none_selected.jpg","0","0","1","","0.2046446137","false","196","","0.2046446137","main_expt","","0.2494818112","","0.3051171059","","0.3523241719","","","","","",""
"15","","bandit","272","639950","0.0-234.0-0.0","15372419","wem/bandit_single","A3HW4QDJB63OQ2","pain","2","","72","H","0","img/none_selected.jpg","0","0","1","","0.2122082762","false","197","","0.2122082762","main_expt","","0.2620473779","","0.2901305303","","0.3874168703","","","","","",""
"290","","bandit","273","642002","0.0-235.0-0.0","15372419","wem/bandit_single","A3HW4QDJB63OQ2","pain","2","","72","H","0","img/none_selected.jpg","0","0","1","","0.1962120249","false","198","","0.1962120249","main_expt","","0.3153682745","","0.2403600488","","0.4072223947","","","","","",""
"78","","bandit","274","643837","0.0-236.0-0.0","15372419","wem/bandit_single","A3HW4QDJB63OQ2","pain","2","","72","H","0","img/none_selected.jpg","0","0","1","","0.1840541487","false","199","","0.1840541487","main_expt","","0.2424407548","","0.2034733728","","0.4284861426","","","","","",""
"68","","bandit","275","645719","0.0-237.0-0.0","15372419","wem/bandit_single","A3HW4QDJB63OQ2","pain","2","","72","H","0","img/none_selected.jpg","0","0","1","","0.1575563837","false","200","","0.1575563837","main_expt","","0.2692586032","","0.2193557146","","0.4181746593","","","","","",""
"149","","bandit","276","647632","0.0-238.0-0.0","15372419","wem/bandit_single","A3HW4QDJB63OQ2","pain","2","","72","H","0","img/none_selected.jpg","0","0","1","","0.138860739","false","201","","0.138860739","main_expt","","0.2605377594","","0.2412650678","","0.4134190678","","","","","",""
"155","","bandit","277","649545","0.0-239.0-0.0","15372419","wem/bandit_single","A3HW4QDJB63OQ2","pain","2","","74","J","1","","0","1","0","","0.2372211354","false","202","","0.1216759056","main_expt","","0.2372211354","","0.2106041824","","0.4255663607","","","","","",""
"89","","bandit","278","651395","0.0-240.0-0.0","15372419","wem/bandit_single","A3HW4QDJB63OQ2","pain","2","","74","J","1","","0","0","1","","0.20896917","false","203","","0.1085797693","main_expt","","0.20896917","","0.2182463191","","0.4267176133","","","","","",""
"53","","bandit","279","653206","0.0-241.0-0.0","15372419","wem/bandit_single","A3HW4QDJB63OQ2","pain","2","","74","J","1","","0","1","0","","0.2277156902","false","204","","0.08750272662","main_expt","","0.2277156902","","0.2060997213","","0.460819217","","","","","",""
"34","","bandit","280","654999","0.0-242.0-0.0","15372419","wem/bandit_single","A3HW4QDJB63OQ2","pain","2","","74","J","1","","0","0","1","","0.2096017385","false","205","","0.1119911725","main_expt","","0.2096017385","","0.2179237498","","0.4797370756","","","","","",""
"65","","bandit","281","656823","0.0-243.0-0.0","15372419","wem/bandit_single","A3HW4QDJB63OQ2","pain","2","","74","J","1","","0","0","1","","0.2293009918","false","206","","0.105166696","main_expt","","0.2293009918","","0.194566176","","0.4850202511","","","","","",""
"43","","bandit","282","658622","0.0-244.0-0.0","15372419","wem/bandit_single","A3HW4QDJB63OQ2","pain","2","","74","J","1","","0","1","0","","0.2613461541","false","207","","0.07428909222","main_expt","","0.2613461541","","0.2540459421","","0.4588339162","","","","","",""
"21","","bandit","283","660400","0.0-245.0-0.0","15372419","wem/bandit_single","A3HW4QDJB63OQ2","pain","2","","74","J","1","","0","1","0","","0.2921374763","false","208","","0.08415887516","main_expt","","0.2921374763","","0.2165425212","","0.4704498371","","","","","",""
"401","","bandit","284","662558","0.0-246.0-0.0","15372419","wem/bandit_single","A3HW4QDJB63OQ2","pain","2","","74","J","1","","0","1","0","","0.2679345114","false","209","","0.05558253146","main_expt","","0.2679345114","","0.1808740619","","0.4498430745","","","","","",""
"75","","bandit","285","664390","0.0-247.0-0.0","15372419","wem/bandit_single","A3HW4QDJB63OQ2","pain","2","","74","J","1","","0","0","1","","0.2356021564","false","210","","0.04914985493","main_expt","","0.2356021564","","0.2298827717","","0.4463117693","","","","","",""
"100","","bandit","286","666247","0.0-248.0-0.0","15372419","wem/bandit_single","A3HW4QDJB63OQ2","pain","2","","74","J","1","","0","0","1","","0.2152320876","false","211","","0.03798033643","main_expt","","0.2152320876","","0.2533880575","","0.422163821","","","","","",""
"129","","bandit","287","668136","0.0-249.0-0.0","15372419","wem/bandit_single","A3HW4QDJB63OQ2","pain","2","","74","J","1","","0","0","1","","0.2216595069","false","212","","0.03974322714","main_expt","","0.2216595069","","0.2771241442","","0.3852039581","","","","","",""
"106","","bandit","288","669998","0.0-250.0-0.0","15372419","wem/bandit_single","A3HW4QDJB63OQ2","pain","2","","74","J","1","","0","1","0","","0.2150176613","false","213","","0.02384455773","main_expt","","0.2150176613","","0.3010302337","","0.3822954745","","","","","",""
"6","","bandit","289","671775","0.0-251.0-0.0","15372419","wem/bandit_single","A3HW4QDJB63OQ2","pain","2","","74","J","1","","0","1","0","","0.1772129937","false","214","","0.03216660231","main_expt","","0.1772129937","","0.3409008015","","0.3608549874","","","","","",""
"225","","bandit","290","673807","0.0-252.0-0.0","15372419","wem/bandit_single","A3HW4QDJB63OQ2","pain","2","","74","J","1","","0","0","1","","0.1584975441","false","215","","0.03095464101","main_expt","","0.1584975441","","0.3227810677","","0.3621739951","","","","","",""
"87","","bandit","291","675655","0.0-253.0-0.0","15372419","wem/bandit_single","A3HW4QDJB63OQ2","pain","2","","74","J","1","","0","0","1","","0.1256434713","false","216","","0.04011500866","main_expt","","0.1256434713","","0.3636386285","","0.3733564142","","","","","",""
"297","","bandit","292","677710","0.0-254.0-0.0","15372419","wem/bandit_single","A3HW4QDJB63OQ2","pain","2","","74","J","1","","0","0","1","","0.1601534085","false","217","","0.02351309264","main_expt","","0.1601534085","","0.3649758886","","0.3856473275","","","","","",""
"107","","bandit","293","679608","0.0-255.0-0.0","15372419","wem/bandit_single","A3HW4QDJB63OQ2","pain","2","","74","J","1","","0","1","0","","0.1514518834","false","218","","0.01650540734","main_expt","","0.1514518834","","0.3641131336","","0.3645608201","","","","","",""
"304","","bandit","294","681671","0.0-256.0-0.0","15372419","wem/bandit_single","A3HW4QDJB63OQ2","pain","2","","74","J","1","","0","1","0","","0.2415223947","false","219","","0.03577324375","main_expt","","0.2415223947","","0.341156599","","0.3851453746","","","","","",""
"251","","bandit","295","683678","0.0-257.0-0.0","15372419","wem/bandit_single","A3HW4QDJB63OQ2","pain","2","","74","J","1","","0","0","1","","0.2248182851","false","220","","0.03655385126","main_expt","","0.2248182851","","0.266049218","","0.4075423229","","","","","",""
"35","","bandit","296","685470","0.0-258.0-0.0","15372419","wem/bandit_single","A3HW4QDJB63OQ2","pain","2","","74","J","1","","0","0","1","","0.2588925836","false","221","","0.03282050992","main_expt","","0.2588925836","","0.2359154628","","0.4083347012","","","","","",""
"323","","bandit","297","687551","0.0-259.0-0.0","15372419","wem/bandit_single","A3HW4QDJB63OQ2","pain","2","","74","J","1","","0","1","0","","0.2025188389","false","222","","0.02558717114","main_expt","","0.2025188389","","0.2640726019","","0.4083223781","","","","","",""
"86","","bandit","298","689396","0.0-260.0-0.0","15372419","wem/bandit_single","A3HW4QDJB63OQ2","pain","2","","74","J","1","","0","0","1","","0.1609755914","false","223","","0.04788205671","main_expt","","0.1609755914","","0.1860418506","","0.4240474742","","","","","",""
"198","","bandit","299","691350","0.0-261.0-0.0","15372419","wem/bandit_single","A3HW4QDJB63OQ2","pain","2","","74","J","1","","0","1","0","","0.2316748255","false","224","","0.05498715651","main_expt","","0.2316748255","","0.151875944","","0.4346876605","","","","","",""
"69","","bandit","300","693178","0.0-262.0-0.0","15372419","wem/bandit_single","A3HW4QDJB63OQ2","pain","2","","74","J","1","","0","0","1","","0.1605893144","false","225","","0.056476577","main_expt","","0.1605893144","","0.1209973656","","0.4541072866","","","","","",""
"14","","bandit","301","694951","0.0-263.0-0.0","15372419","wem/bandit_single","A3HW4QDJB63OQ2","pain","2","","74","J","1","","0","1","0","","0.1389366963","false","226","","0.06361054401","main_expt","","0.1389366963","","0.1503457952","","0.4239515892","","","","","",""
"313","","bandit","302","697023","0.0-264.0-0.0","15372419","wem/bandit_single","A3HW4QDJB63OQ2","pain","2","","74","J","1","","0","0","1","","0.09987042713","false","227","","0.03819722012","main_expt","","0.09987042713","","0.1784166707","","0.4122914309","","","","","",""
"386","","bandit","303","699167","0.0-265.0-0.0","15372419","wem/bandit_single","A3HW4QDJB63OQ2","pain","2","","74","J","1","","0","0","1","","0.1511988136","false","228","","0.03706892342","main_expt","","0.1511988136","","0.1729157366","","0.4022765074","","","","","",""
"130","","bandit","304","701055","0.0-266.0-0.0","15372419","wem/bandit_single","A3HW4QDJB63OQ2","pain","2","","74","J","1","","0","1","0","","0.1165125066","false","229","","0.05619366589","main_expt","","0.1165125066","","0.2035050609","","0.3991813765","","","","","",""
"619","","bandit","305","703431","0.0-267.0-0.0","15372419","wem/bandit_single","A3HW4QDJB63OQ2","pain","2","","74","J","1","","0","0","1","","0.09058018373","false","230","","0.02398835026","main_expt","","0.09058018373","","0.1677195288","","0.3771825363","","","","","",""
"362","","bandit","306","705553","0.0-268.0-0.0","15372419","wem/bandit_single","A3HW4QDJB63OQ2","pain","2","","74","J","1","","0","0","1","","0.1254599363","false","231","","0.01087418165","main_expt","","0.1254599363","","0.1568417205","","0.4081115595","","","","","",""
"256","","bandit","307","707567","0.0-269.0-0.0","15372419","wem/bandit_single","A3HW4QDJB63OQ2","pain","2","","74","J","1","","0","0","1","","0.09699218641","false","232","","0.005667282796","main_expt","","0.09699218641","","0.1733774055","","0.4227202023","","","","","",""
"105","","bandit","308","709470","0.0-270.0-0.0","15372419","wem/bandit_single","A3HW4QDJB63OQ2","pain","2","","74","J","1","","0","0","1","","0.07122003092","false","233","","0.00711790457","main_expt","","0.07122003092","","0.2318808439","","0.4267606383","","","","","",""
"114","","bandit","309","711351","0.0-271.0-0.0","15372419","wem/bandit_single","A3HW4QDJB63OQ2","pain","2","","74","J","1","","0","0","1","","0.07078025717","false","234","","0.01087448681","main_expt","","0.07078025717","","0.2728484722","","0.4076790224","","","","","",""
"154","","bandit","310","713262","0.0-272.0-0.0","15372419","wem/bandit_single","A3HW4QDJB63OQ2","pain","2","","76","L","3","","0","0","1","","0.3750136452","false","235","","0.008183852991","main_expt","","0.04546889639","","0.230842538","","0.3750136452","","","","","",""
"196","","bandit","311","715216","0.0-273.0-0.0","15372419","wem/bandit_single","A3HW4QDJB63OQ2","pain","2","","76","L","3","","0","0","1","","0.3579900966","false","236","","0.00957014591","main_expt","","0.07949547843","","0.2565969246","","0.3579900966","","","","","",""
"209","","bandit","312","717232","0.0-274.0-0.0","15372419","wem/bandit_single","A3HW4QDJB63OQ2","pain","2","","76","L","3","","0","0","1","","0.3685919787","false","237","","0.02345003211","main_expt","","0.06498208703","","0.2661079812","","0.3685919787","","","","","",""
"209","","bandit","313","719199","0.0-275.0-0.0","15372419","wem/bandit_single","A3HW4QDJB63OQ2","pain","2","","76","L","3","","0","0","1","","0.3220789964","false","238","","0.02056264696","main_expt","","0.07283675032","","0.3192940022","","0.3220789964","","","","","",""
"42","","bandit","314","720998","0.0-276.0-0.0","15372419","wem/bandit_single","A3HW4QDJB63OQ2","pain","2","","75","K","2","","0","0","1","","0.3150738333","false","239","","0.02436326326","main_expt","","0.08723568047","","0.3150738333","","0.3059519391","","","","","",""
"43","","bandit","315","722798","0.0-277.0-0.0","15372419","wem/bandit_single","A3HW4QDJB63OQ2","pain","2","","75","K","2","","0","1","0","","0.3008600842","false","240","","0.0242835944","main_expt","","0.06404566497","","0.3008600842","","0.3168560559","","","","","",""
"115","","bandit","316","724670","0.0-278.0-0.0","15372419","wem/bandit_single","A3HW4QDJB63OQ2","pain","2","","75","K","2","","0","1","0","","0.2677087501","false","241","","0.02652021178","main_expt","","0.05187051438","","0.2677087501","","0.269391424","","","","","",""
"137","","bandit","317","726566","0.0-279.0-0.0","15372419","wem/bandit_single","A3HW4QDJB63OQ2","pain","2","","75","K","2","","0","1","0","","0.2645585527","false","242","","0.0264543433","main_expt","","0.04056120823","","0.2645585527","","0.2061132751","","","","","",""
"140","","bandit","318","728465","0.0-280.0-0.0","15372419","wem/bandit_single","A3HW4QDJB63OQ2","pain","2","","75","K","2","","0","0","1","","0.2793098336","false","243","","0.02176476481","main_expt","","0.02806248696","","0.2793098336","","0.1996760118","","","","","",""
"143","","bandit","319","730366","0.0-281.0-0.0","15372419","wem/bandit_single","A3HW4QDJB63OQ2","pain","2","","75","K","2","","0","1","0","","0.285685864","false","244","","0.01301534777","main_expt","","0.04063524207","","0.285685864","","0.1719334629","","","","","",""
"147","","bandit","320","732272","0.0-282.0-0.0","15372419","wem/bandit_single","A3HW4QDJB63OQ2","pain","2","","75","K","2","","0","0","1","","0.2792363563","false","245","","0.02332936253","main_expt","","0.03258124644","","0.2792363563","","0.2264626889","","","","","",""
"275","","bandit","321","734303","0.0-283.0-0.0","15372419","wem/bandit_single","A3HW4QDJB63OQ2","pain","2","","75","K","2","","0","0","1","","0.2721020884","false","246","","0.02379131239","main_expt","","0.034431304","","0.2721020884","","0.2097999869","","","","","",""
"194","","bandit","322","736256","0.0-284.0-0.0","15372419","wem/bandit_single","A3HW4QDJB63OQ2","pain","2","","75","K","2","","0","0","1","","0.2784836582","false","247","","0.02988301985","main_expt","","0.0335896152","","0.2784836582","","0.2190078117","","","","","",""
"151","","bandit","323","738167","0.0-285.0-0.0","15372419","wem/bandit_single","A3HW4QDJB63OQ2","pain","2","","75","K","2","","0","0","1","","0.2155360038","false","248","","0.04121629219","main_expt","","0.0373608022","","0.2155360038","","0.214739415","","","","","",""
"196","","bandit","324","740120","0.0-286.0-0.0","15372419","wem/bandit_single","A3HW4QDJB63OQ2","pain","2","","75","K","2","","0","0","1","","0.2182269439","false","249","","0.03081548873","main_expt","","0.04629433077","","0.2182269439","","0.2361668487","","","","","",""
"265","","bandit","325","742180","0.0-287.0-0.0","15372419","wem/bandit_single","A3HW4QDJB63OQ2","pain","2","","75","K","2","","0","0","1","","0.2794373206","false","250","","0.02831669856","main_expt","","0.04794370872","","0.2794373206","","0.2730147117","","","","","",""
"341","","bandit","326","744303","0.0-288.0-0.0","15372419","wem/bandit_single","A3HW4QDJB63OQ2","pain","2","","74","J","1","","0","0","1","","0.06568157066","false","251","","0.02600870455","main_expt","","0.06568157066","","0.2925698281","","0.2591269664","","","","","",""
"209","","bandit","327","746270","0.0-289.0-0.0","15372419","wem/bandit_single","A3HW4QDJB63OQ2","pain","2","","74","J","1","","0","0","1","","0.07567030371","false","252","","0.02705961599","main_expt","","0.07567030371","","0.2727886948","","0.3091321407","","","","","",""
"95","","bandit","328","748127","0.0-290.0-0.0","15372419","wem/bandit_single","A3HW4QDJB63OQ2","pain","2","","74","J","1","","0","0","1","","0.06628052114","false","253","","0.01805963102","main_expt","","0.06628052114","","0.2470803404","","0.2284010385","","","","","",""
"316","","bandit","329","750201","0.0-291.0-0.0","15372419","wem/bandit_single","A3HW4QDJB63OQ2","pain","2","","74","J","1","","0","0","1","","0.08321976201","false","254","","0.01631706542","main_expt","","0.08321976201","","0.3366881304","","0.2452739286","","","","","",""
"260","","bandit","330","752222","0.0-292.0-0.0","15372419","wem/bandit_single","A3HW4QDJB63OQ2","pain","2","","72","H","0","img/none_selected.jpg","0","0","1","","0.01966147099","false","255","","0.01966147099","main_expt","","0.1379446817","","0.3781216995","","0.2769296881","","","","","",""
"410","","bandit","331","754390","0.0-293.0-0.0","15372419","wem/bandit_single","A3HW4QDJB63OQ2","pain","2","","72","H","0","img/none_selected.jpg","0","0","1","","0.02801527349","false","256","","0.02801527349","main_expt","","0.1104053019","","0.3565974786","","0.222598086","","","","","",""
"49","","bandit","332","756199","0.0-294.0-0.0","15372419","wem/bandit_single","A3HW4QDJB63OQ2","pain","2","","72","H","0","img/none_selected.jpg","0","0","1","","0.02393064904","false","257","","0.02393064904","main_expt","","0.110095483","","0.3668333327","","0.2497605863","","","","","",""
"122","","bandit","333","758078","0.0-295.0-0.0","15372419","wem/bandit_single","A3HW4QDJB63OQ2","pain","2","","72","H","0","img/none_selected.jpg","0","0","1","","0.01715644076","false","258","","0.01715644076","main_expt","","0.09250214804","","0.3978392262","","0.248028097","","","","","",""
"291","","bandit","334","760126","0.0-296.0-0.0","15372419","wem/bandit_single","A3HW4QDJB63OQ2","pain","2","","75","K","2","","0","0","1","","0.3892622443","false","259","","0.01812234738","main_expt","","0.1288972452","","0.3892622443","","0.210079309","","","","","",""
"115","","bandit","335","762000","0.0-297.0-0.0","15372419","wem/bandit_single","A3HW4QDJB63OQ2","pain","2","","75","K","2","","0","0","1","","0.3787635018","false","260","","0.01699252537","main_expt","","0.127844668","","0.3787635018","","0.1785868889","","","","","",""
"103","","bandit","336","763863","0.0-298.0-0.0","15372419","wem/bandit_single","A3HW4QDJB63OQ2","pain","2","","75","K","2","","0","1","0","","0.4151771386","false","261","","0.02027773674","main_expt","","0.1408125104","","0.4151771386","","0.1855690742","","","","","",""
"82","","bandit","337","765704","0.0-299.0-0.0","15372419","wem/bandit_single","A3HW4QDJB63OQ2","pain","2","","75","K","2","","0","1","0","","0.4184001904","false","262","","0.008159173947","main_expt","","0.1423762304","","0.4184001904","","0.2454672077","","","","","",""
"17","","bandit","338","767479","0.0-300.0-0.0","15372419","wem/bandit_single","A3HW4QDJB63OQ2","pain","2","","75","K","2","","0","0","1","","0.4397427278","false","263","","0.00730364875","main_expt","","0.1237094287","","0.4397427278","","0.2423041147","","","","","",""
"234","","bandit","339","769471","0.0-301.0-0.0","15372419","wem/bandit_single","A3HW4QDJB63OQ2","pain","2","","75","K","2","","0","0","1","","0.4308816061","false","264","","0.008891010149","main_expt","","0.1110826985","","0.4308816061","","0.2771483686","","","","","",""
"82","","bandit","340","771311","0.0-302.0-0.0","15372419","wem/bandit_single","A3HW4QDJB63OQ2","pain","2","","75","K","2","","0","1","0","","0.4310956018","false","265","","0.009434589262","main_expt","","0.09816719149","","0.4310956018","","0.2066329382","","","","","",""
"345","","bandit","341","773447","0.0-303.0-0.0","15372419","wem/bandit_single","A3HW4QDJB63OQ2","pain","2","","75","K","2","","0","0","1","","0.4462346174","false","266","","0.009503255165","main_expt","","0.1313615454","","0.4462346174","","0.1954640054","","","","","",""
"316","","bandit","342","775527","0.0-304.0-0.0","15372419","wem/bandit_single","A3HW4QDJB63OQ2","pain","2","","75","K","2","","0","1","0","","0.4649068607","false","267","","0.01294763698","main_expt","","0.1039649444","","0.4649068607","","0.132533774","","","","","",""
"162","","bandit","343","777451","0.0-305.0-0.0","15372419","wem/bandit_single","A3HW4QDJB63OQ2","pain","2","","75","K","2","","0","1","0","","0.4499385749","false","268","","0.01002763249","main_expt","","0.0758663636","","0.4499385749","","0.1212355483","","","","","",""
"445","","bandit","344","779691","0.0-306.0-0.0","15372419","wem/bandit_single","A3HW4QDJB63OQ2","pain","2","","75","K","2","","0","1","0","","0.4702815535","false","269","","0.009339874814","main_expt","","0.08641939852","","0.4702815535","","0.1363236216","","","","","",""
"52","","bandit","345","781510","0.0-307.0-0.0","15372419","wem/bandit_single","A3HW4QDJB63OQ2","pain","2","","75","K","2","","0","1","0","","0.4738293899","false","270","","0.0101894737","main_expt","","0.08694739741","","0.4738293899","","0.1061923246","","","","","",""
"312","","bandit","346","783583","0.0-308.0-0.0","15372419","wem/bandit_single","A3HW4QDJB63OQ2","pain","2","","75","K","2","","0","0","1","","0.4552130477","false","271","","0.0101062795","main_expt","","0.07507278363","","0.4552130477","","0.09682021381","","","","","",""
"83","","bandit","347","785423","0.0-309.0-0.0","15372419","wem/bandit_single","A3HW4QDJB63OQ2","pain","2","","75","K","2","","0","0","1","","0.4571227508","false","272","","0.009276773287","main_expt","","0.09002305832","","0.4571227508","","0.0728164368","","","","","",""
"73","","bandit","348","787283","0.0-310.0-0.0","15372419","wem/bandit_single","A3HW4QDJB63OQ2","pain","2","","75","K","2","","0","0","1","","0.4262778794","false","273","","0.0113492324","main_expt","","0.07941117108","","0.4262778794","","0.1026255411","","","","","",""
"400","","bandit","349","789440","0.0-311.0-0.0","15372419","wem/bandit_single","A3HW4QDJB63OQ2","pain","2","","75","K","2","","0","1","0","","0.4017895895","false","274","","0.005483919941","main_expt","","0.09301171309","","0.4017895895","","0.08683802548","","","","","",""
"470","","bandit","350","791670","0.0-312.0-0.0","15372419","wem/bandit_single","A3HW4QDJB63OQ2","pain","2","","75","K","2","","0","1","0","","0.4017548056","false","275","","0.00462874381","main_expt","","0.1012072593","","0.4017548056","","0.08250982893","","","","","",""
"36","","bandit","351","793464","0.0-313.0-0.0","15372419","wem/bandit_single","A3HW4QDJB63OQ2","pain","2","","75","K","2","","0","0","1","","0.4072561249","false","276","","0.009610611089","main_expt","","0.1230964009","","0.4072561249","","0.06031930624","","","","","",""
"297","","bandit","352","795519","0.0-314.0-0.0","15372419","wem/bandit_single","A3HW4QDJB63OQ2","pain","2","","75","K","2","","0","0","1","","0.3248287115","false","277","","0.01319252808","main_expt","","0.1320105939","","0.3248287115","","0.07169075363","","","","","",""
"266","","bandit","353","797543","0.0-315.0-0.0","15372419","wem/bandit_single","A3HW4QDJB63OQ2","pain","2","","75","K","2","","0","0","1","","0.2954662343","false","278","","0.008560453299","main_expt","","0.100271112","","0.2954662343","","0.119525529","","","","","",""
"265","","bandit","354","799566","0.0-316.0-0.0","15372419","wem/bandit_single","A3HW4QDJB63OQ2","pain","2","","74","J","1","","0","0","1","","0.0752783975","false","279","","0.02270234009","main_expt","","0.0752783975","","0.3430788315","","0.05136608794","","","","","",""
"40","","bandit","355","801366","0.0-317.0-0.0","15372419","wem/bandit_single","A3HW4QDJB63OQ2","pain","2","","74","J","1","","0","0","1","","0.04609407158","false","280","","0.01842994591","main_expt","","0.04609407158","","0.298888987","","0.06692305053","","","","","",""
"122","","bandit","356","803247","0.0-318.0-0.0","15372419","wem/bandit_single","A3HW4QDJB63OQ2","pain","2","","74","J","1","","0","0","1","","0.05874754036","false","281","","0.01750385803","main_expt","","0.05874754036","","0.317374049","","0.08594942048","","","","","",""
"97","","bandit","357","805102","0.0-319.0-0.0","15372419","wem/bandit_single","A3HW4QDJB63OQ2","pain","2","","74","J","1","","0","0","1","","0.05911354127","false","282","","0.01075771148","main_expt","","0.05911354127","","0.2905756231","","0.08562343316","","","","","",""
"172","","bandit","358","807033","0.0-320.0-0.0","15372419","wem/bandit_single","A3HW4QDJB63OQ2","pain","2","","75","K","2","","0","0","1","","0.335540713","false","283","","0.009487342711","main_expt","","0.0444902615","","0.335540713","","0.06507866554","","","","","",""
"117","","bandit","359","808911","0.0-321.0-0.0","15372419","wem/bandit_single","A3HW4QDJB63OQ2","pain","2","","75","K","2","","0","1","0","","0.3569674754","false","284","","0.01035814212","main_expt","","0.03666520406","","0.3569674754","","0.05738126215","","","","","",""
"25","","bandit","360","810694","0.0-322.0-0.0","15372419","wem/bandit_single","A3HW4QDJB63OQ2","pain","2","","75","K","2","","0","0","1","","0.4068019922","false","285","","0.01056818013","main_expt","","0.02451873239","","0.4068019922","","0.06337296056","","","","","",""
"2","","bandit","361","812454","0.0-323.0-0.0","15372419","wem/bandit_single","A3HW4QDJB63OQ2","pain","2","","75","K","2","","0","1","0","","0.432978486","false","286","","0.007821227136","main_expt","","0.02877547985","","0.432978486","","0.04649068967","","","","","",""
"35","","bandit","362","814248","0.0-324.0-0.0","15372419","wem/bandit_single","A3HW4QDJB63OQ2","pain","2","","75","K","2","","0","1","0","","0.4213006965","false","287","","0.01039042452","main_expt","","0.03331393821","","0.4213006965","","0.04946639224","","","","","",""
"287","","bandit","363","816295","0.0-325.0-0.0","15372419","wem/bandit_single","A3HW4QDJB63OQ2","pain","2","","75","K","2","","0","0","1","","0.4094413186","false","288","","0.02141961277","main_expt","","0.02363643209","","0.4094413186","","0.03962947871","","","","","",""
"176","","bandit","364","818230","0.0-326.0-0.0","15372419","wem/bandit_single","A3HW4QDJB63OQ2","pain","2","","75","K","2","","0","0","1","","0.3731302572","false","289","","0.02062414181","main_expt","","0.0366455232","","0.3731302572","","0.05295486238","","","","","",""
"2","","bandit","365","819991","0.0-327.0-0.0","15372419","wem/bandit_single","A3HW4QDJB63OQ2","pain","2","","75","K","2","","0","0","1","","0.4076032329","false","290","","0.01411690602","main_expt","","0.04887184979","","0.4076032329","","0.06311332932","","","","","",""
"49","","bandit","366","821801","0.0-328.0-0.0","15372419","wem/bandit_single","A3HW4QDJB63OQ2","pain","2","","75","K","2","","0","0","1","","0.4134699565","false","291","","0.03188260643","main_expt","","0.03783642248","","0.4134699565","","0.07741633782","","","","","",""
"55","","bandit","367","823614","0.0-329.0-0.0","15372419","wem/bandit_single","A3HW4QDJB63OQ2","pain","2","","75","K","2","","0","0","1","","0.3827884258","false","292","","0.03429620073","main_expt","","0.07820299584","","0.3827884258","","0.09064252153","","","","","",""
"131","","bandit","368","825520","0.0-330.0-0.0","15372419","wem/bandit_single","A3HW4QDJB63OQ2","pain","2","","72","H","0","img/none_selected.jpg","0","0","1","","0.030392347","false","293","","0.030392347","main_expt","","0.07060894185","","0.4162015812","","0.07659126906","","","","","",""
"291","","bandit","369","827575","0.0-331.0-0.0","15372419","wem/bandit_single","A3HW4QDJB63OQ2","pain","2","","72","H","0","img/none_selected.jpg","0","1","0","","0.04782046051","false","294","","0.04782046051","main_expt","","0.1051632986","","0.447674372","","0.08042624432","","","","","",""
"1","","bandit","370","829335","0.0-332.0-0.0","15372419","wem/bandit_single","A3HW4QDJB63OQ2","pain","2","","72","H","0","img/none_selected.jpg","0","0","1","","0.06309063339","false","295","","0.06309063339","main_expt","","0.06624019153","","0.4402126752","","0.1216640212","","","","","",""
"104","","bandit","371","831198","0.0-333.0-0.0","15372419","wem/bandit_single","A3HW4QDJB63OQ2","pain","2","","72","H","0","img/none_selected.jpg","0","0","1","","0.09511663338","false","296","","0.09511663338","main_expt","","0.07088700909","","0.4378891161","","0.1058257345","","","","","",""
