"rt","responses","trial_type","trial_index","time_elapsed","internal_node_id","subjID","study","MID","cond","drift","key_press","respCharCode","respKey","respChoiceNum","respChoice","gems","bombs","no_reward","GemPrChosen","BombPrChosen","practice","trial_counter","WinPr_0","LosePr_0","trial_label","WinPr_1","LosePr_1","WinPr_2","LosePr_2","WinPr_3","LosePr_3","Q0","Q1","Q2","gender","age","ethnicity"
"22105","{""Q0"":""A1UY2W2FL9CWN""}","survey-text","0","22119","0.0-0.0","17533608","wem/bandit_single","A1UY2W2FL9CWN","gain","3","","","","","","","","","","","","","","","","","","","","","","","","","","",""
"1343","","text","1","24470","0.0-1.0","17533608","wem/bandit_single","A1UY2W2FL9CWN","gain","3","32","","","","","","","","","","","","","","","","","","","","","","","","","",""
"6475","","text","2","30950","0.0-2.0","17533608","wem/bandit_single","A1UY2W2FL9CWN","gain","3","32","","","","","","","","","","","","","","","","","","","","","","","","","",""
"59310","","text","3","90263","0.0-3.0","17533608","wem/bandit_single","A1UY2W2FL9CWN","gain","3","32","","","","","","","","","","","","","","","","","","","","","","","","","",""
"28823","","text","4","119088","0.0-4.0","17533608","wem/bandit_single","A1UY2W2FL9CWN","gain","3","32","","","","","","","","","","","","","","","","","","","","","","","","","",""
"5222","","text","5","124313","0.0-5.0","17533608","wem/bandit_single","A1UY2W2FL9CWN","gain","3","32","","","","","","","","","","","","","","","","","","","","","","","","","",""
"5047","","text","6","129362","0.0-6.0","17533608","wem/bandit_single","A1UY2W2FL9CWN","gain","3","32","","","","","","","","","","","","","","","","","","","","","","","","","",""
"3263","","text","7","132627","0.0-7.0","17533608","wem/bandit_single","A1UY2W2FL9CWN","gain","3","32","","","","","","","","","","","","","","","","","","","","","","","","","",""
"2809","","text","8","135439","0.0-8.0","17533608","wem/bandit_single","A1UY2W2FL9CWN","gain","3","32","","","","","","","","","","","","","","","","","","","","","","","","","",""
"3525","","text","9","138966","0.0-9.0","17533608","wem/bandit_single","A1UY2W2FL9CWN","gain","3","32","","","","","","","","","","","","","","","","","","","","","","","","","",""
"2413","","text","10","141381","0.0-10.0","17533608","wem/bandit_single","A1UY2W2FL9CWN","gain","3","32","","","","","","","","","","","","","","","","","","","","","","","","","",""
"2841","","text","11","144224","0.0-11.0","17533608","wem/bandit_single","A1UY2W2FL9CWN","gain","3","32","","","","","","","","","","","","","","","","","","","","","","","","","",""
"1561","","bandit","12","147298","0.0-12.0-0.0","17533608","wem/bandit_single","A1UY2W2FL9CWN","gain","3","","74","J","0","img/none_selected_demo.jpg","0","0","1","0","0","true","0","0","0","","","","","","","","","","","","",""
"1180","","bandit","13","150238","0.0-13.0-0.0","17533608","wem/bandit_single","A1UY2W2FL9CWN","gain","3","","75","K","0","img/none_selected_demo.jpg","0","0","1","0","0","true","0","0","0","","","","","","","","","","","","",""
"3161","","text","14","153654","0.0-14.0","17533608","wem/bandit_single","A1UY2W2FL9CWN","gain","3","32","","","","","","","","","","","","","","","","","","","","","","","","","",""
"944","","text","15","154600","0.0-15.0","17533608","wem/bandit_single","A1UY2W2FL9CWN","gain","3","32","","","","","","","","","","","","","","","","","","","","","","","","","",""
"2431","","text","16","157033","0.0-16.0","17533608","wem/bandit_single","A1UY2W2FL9CWN","gain","3","32","","","","","","","","","","","","","","","","","","","","","","","","","",""
"2237","","text","17","159272","0.0-17.0","17533608","wem/bandit_single","A1UY2W2FL9CWN","gain","3","32","","","","","","","","","","","","","","","","","","","","","","","","","",""
"1088","","bandit","18","161868","0.0-18.0-0.0","17533608","wem/bandit_single","A1UY2W2FL9CWN","gain","3","","74","J","0","img/none_selected_demo.jpg","1","0","0","0.8","0","true","0","0.8","0","80_20_practice","0.2","0","","","","","","","","","",""
"189","","bandit","19","163817","0.0-18.0-1.0","17533608","wem/bandit_single","A1UY2W2FL9CWN","gain","3","","74","J","0","img/none_selected_demo.jpg","1","0","0","0.8","0","true","0","0.8","0","80_20_practice","0.2","0","","","","","","","","","",""
"80","","bandit","20","165659","0.0-18.0-2.0","17533608","wem/bandit_single","A1UY2W2FL9CWN","gain","3","","74","J","0","img/none_selected_demo.jpg","1","0","0","0.8","0","true","0","0.8","0","80_20_practice","0.2","0","","","","","","","","","",""
"913","","bandit","21","168332","0.0-18.0-3.0","17533608","wem/bandit_single","A1UY2W2FL9CWN","gain","3","","74","J","0","img/none_selected_demo.jpg","1","0","0","0.8","0","true","0","0.8","0","80_20_practice","0.2","0","","","","","","","","","",""
"432","","bandit","22","170526","0.0-18.0-4.0","17533608","wem/bandit_single","A1UY2W2FL9CWN","gain","3","","74","J","0","img/none_selected_demo.jpg","1","0","0","0.8","0","true","0","0.8","0","80_20_practice","0.2","0","","","","","","","","","",""
"204","","bandit","23","172492","0.0-18.0-5.0","17533608","wem/bandit_single","A1UY2W2FL9CWN","gain","3","","75","K","1","","0","0","1","0.2","0","true","0","0.8","0","80_20_practice","0.2","0","","","","","","","","","",""
"9","","bandit","24","174262","0.0-18.0-6.0","17533608","wem/bandit_single","A1UY2W2FL9CWN","gain","3","","74","J","0","img/none_selected_demo.jpg","0","0","1","0.8","0","true","0","0.8","0","80_20_practice","0.2","0","","","","","","","","","",""
"61","","bandit","25","176085","0.0-18.0-7.0","17533608","wem/bandit_single","A1UY2W2FL9CWN","gain","3","","74","J","0","img/none_selected_demo.jpg","0","0","1","0.8","0","true","0","0.8","0","80_20_practice","0.2","0","","","","","","","","","",""
"43","","bandit","26","177888","0.0-18.0-8.0","17533608","wem/bandit_single","A1UY2W2FL9CWN","gain","3","","74","J","0","img/none_selected_demo.jpg","1","0","0","0.8","0","true","0","0.8","0","80_20_practice","0.2","0","","","","","","","","","",""
"712","","bandit","27","180358","0.0-18.0-9.0","17533608","wem/bandit_single","A1UY2W2FL9CWN","gain","3","","74","J","0","img/none_selected_demo.jpg","1","0","0","0.8","0","true","0","0.8","0","80_20_practice","0.2","0","","","","","","","","","",""
"394","","bandit","28","182510","0.0-18.0-10.0","17533608","wem/bandit_single","A1UY2W2FL9CWN","gain","3","","74","J","0","img/none_selected_demo.jpg","1","0","0","0.8","0","true","0","0.8","0","80_20_practice","0.2","0","","","","","","","","","",""
"227","","bandit","29","184497","0.0-18.0-11.0","17533608","wem/bandit_single","A1UY2W2FL9CWN","gain","3","","74","J","0","img/none_selected_demo.jpg","0","0","1","0.8","0","true","0","0.8","0","80_20_practice","0.2","0","","","","","","","","","",""
"132","","bandit","30","186388","0.0-18.0-12.0","17533608","wem/bandit_single","A1UY2W2FL9CWN","gain","3","","74","J","0","img/none_selected_demo.jpg","0","0","1","0.8","0","true","0","0.8","0","80_20_practice","0.2","0","","","","","","","","","",""
"625","","bandit","31","188773","0.0-18.0-13.0","17533608","wem/bandit_single","A1UY2W2FL9CWN","gain","3","","75","K","1","","0","0","1","0.2","0","true","0","0.8","0","80_20_practice","0.2","0","","","","","","","","","",""
"653","","bandit","32","191188","0.0-18.0-14.0","17533608","wem/bandit_single","A1UY2W2FL9CWN","gain","3","","75","K","1","","0","0","1","0.2","0","true","0","0.8","0","80_20_practice","0.2","0","","","","","","","","","",""
"26","","bandit","33","192974","0.0-18.0-15.0","17533608","wem/bandit_single","A1UY2W2FL9CWN","gain","3","","75","K","1","","0","0","1","0.2","0","true","0","0.8","0","80_20_practice","0.2","0","","","","","","","","","",""
"64","","bandit","34","194798","0.0-18.0-16.0","17533608","wem/bandit_single","A1UY2W2FL9CWN","gain","3","","75","K","1","","0","0","1","0.2","0","true","0","0.8","0","80_20_practice","0.2","0","","","","","","","","","",""
"31","","bandit","35","196590","0.0-18.0-17.0","17533608","wem/bandit_single","A1UY2W2FL9CWN","gain","3","","75","K","1","","0","0","1","0.2","0","true","0","0.8","0","80_20_practice","0.2","0","","","","","","","","","",""
"246","","bandit","36","198598","0.0-18.0-18.0","17533608","wem/bandit_single","A1UY2W2FL9CWN","gain","3","","74","J","0","img/none_selected_demo.jpg","1","0","0","0.8","0","true","0","0.8","0","80_20_practice","0.2","0","","","","","","","","","",""
"112","","bandit","37","200471","0.0-18.0-19.0","17533608","wem/bandit_single","A1UY2W2FL9CWN","gain","3","","74","J","0","img/none_selected_demo.jpg","0","0","1","0.8","0","true","0","0.8","0","80_20_practice","0.2","0","","","","","","","","","",""
"2538","","text","38","203264","0.0-19.0","17533608","wem/bandit_single","A1UY2W2FL9CWN","gain","3","32","","","","","","","","","","","","","","","","","","","","","","","","","",""
"865","","bandit","39","205640","0.0-20.0-0.0","17533608","wem/bandit_single","A1UY2W2FL9CWN","gain","3","","74","J","0","img/none_selected_demo.jpg","0","0","1","0","0","true","0","0","0","","0","0","","","","","","","","","",""
"4676","","text","40","210572","0.0-21.0","17533608","wem/bandit_single","A1UY2W2FL9CWN","gain","3","32","","","","","","","","","","","","","","","","","","","","","","","","","",""
"2667","","text","41","213242","0.0-22.0","17533608","wem/bandit_single","A1UY2W2FL9CWN","gain","3","32","","","","","","","","","","","","","","","","","","","","","","","","","",""
"6544","","text","42","219789","0.0-23.0","17533608","wem/bandit_single","A1UY2W2FL9CWN","gain","3","32","","","","","","","","","","","","","","","","","","","","","","","","","",""
"3045","","text","43","222836","0.0-24.0","17533608","wem/bandit_single","A1UY2W2FL9CWN","gain","3","32","","","","","","","","","","","","","","","","","","","","","","","","","",""
"5364","","text","44","228202","0.0-25.0","17533608","wem/bandit_single","A1UY2W2FL9CWN","gain","3","32","","","","","","","","","","","","","","","","","","","","","","","","","",""
"3423","","text","45","231628","0.0-26.0","17533608","wem/bandit_single","A1UY2W2FL9CWN","gain","3","32","","","","","","","","","","","","","","","","","","","","","","","","","",""
"3685","","text","46","235316","0.0-27.0","17533608","wem/bandit_single","A1UY2W2FL9CWN","gain","3","32","","","","","","","","","","","","","","","","","","","","","","","","","",""
"3349","","text","47","238666","0.0-28.0","17533608","wem/bandit_single","A1UY2W2FL9CWN","gain","3","32","","","","","","","","","","","","","","","","","","","","","","","","","",""
"3956","","text","48","242625","0.0-29.0","17533608","wem/bandit_single","A1UY2W2FL9CWN","gain","3","32","","","","","","","","","","","","","","","","","","","","","","","","","",""
"1502","","text","49","244130","0.0-30.0","17533608","wem/bandit_single","A1UY2W2FL9CWN","gain","3","32","","","","","","","","","","","","","","","","","","","","","","","","","",""
"3084","","text","50","247217","0.0-31.0","17533608","wem/bandit_single","A1UY2W2FL9CWN","gain","3","32","","","","","","","","","","","","","","","","","","","","","","","","","",""
"741","","bandit","51","249466","0.0-32.0-0.0","17533608","wem/bandit_single","A1UY2W2FL9CWN","gain","3","","72","H","0","img/none_selected.jpg","1","0","0","0.8","0","true","0","0.8","0","full_practice","0.2","0","0.6","0","0.2","0","","","","","",""
"1094","","bandit","52","252322","0.0-32.0-1.0","17533608","wem/bandit_single","A1UY2W2FL9CWN","gain","3","","72","H","0","img/none_selected.jpg","1","0","0","0.8","0","true","0","0.8","0","full_practice","0.2","0","0.6","0","0.2","0","","","","","",""
"1912","","bandit","53","255995","0.0-32.0-2.0","17533608","wem/bandit_single","A1UY2W2FL9CWN","gain","3","","72","H","0","img/none_selected.jpg","1","0","0","0.8","0","true","0","0.8","0","full_practice","0.2","0","0.6","0","0.2","0","","","","","",""
"3078","","bandit","54","260835","0.0-32.0-3.0","17533608","wem/bandit_single","A1UY2W2FL9CWN","gain","3","","72","H","0","img/none_selected.jpg","1","0","0","0.8","0","true","0","0.8","0","full_practice","0.2","0","0.6","0","0.2","0","","","","","",""
"654","","bandit","55","263249","0.0-32.0-4.0","17533608","wem/bandit_single","A1UY2W2FL9CWN","gain","3","","72","H","0","img/none_selected.jpg","1","0","0","0.8","0","true","0","0.8","0","full_practice","0.2","0","0.6","0","0.2","0","","","","","",""
"101","","bandit","56","265111","0.0-32.0-5.0","17533608","wem/bandit_single","A1UY2W2FL9CWN","gain","3","","72","H","0","img/none_selected.jpg","1","0","0","0.8","0","true","0","0.8","0","full_practice","0.2","0","0.6","0","0.2","0","","","","","",""
"28","","bandit","57","266899","0.0-32.0-6.0","17533608","wem/bandit_single","A1UY2W2FL9CWN","gain","3","","72","H","0","img/none_selected.jpg","1","0","0","0.8","0","true","0","0.8","0","full_practice","0.2","0","0.6","0","0.2","0","","","","","",""
"787","","bandit","58","269445","0.0-32.0-7.0","17533608","wem/bandit_single","A1UY2W2FL9CWN","gain","3","","72","H","0","img/none_selected.jpg","1","0","0","0.8","0","true","0","0.8","0","full_practice","0.2","0","0.6","0","0.2","0","","","","","",""
"165","","bandit","59","271370","0.0-32.0-8.0","17533608","wem/bandit_single","A1UY2W2FL9CWN","gain","3","","72","H","0","img/none_selected.jpg","1","0","0","0.8","0","true","0","0.8","0","full_practice","0.2","0","0.6","0","0.2","0","","","","","",""
"381","","bandit","60","273511","0.0-32.0-9.0","17533608","wem/bandit_single","A1UY2W2FL9CWN","gain","3","","72","H","0","img/none_selected.jpg","1","0","0","0.8","0","true","0","0.8","0","full_practice","0.2","0","0.6","0","0.2","0","","","","","",""
"245","","bandit","61","275518","0.0-32.0-10.0","17533608","wem/bandit_single","A1UY2W2FL9CWN","gain","3","","72","H","0","img/none_selected.jpg","1","0","0","0.8","0","true","0","0.8","0","full_practice","0.2","0","0.6","0","0.2","0","","","","","",""
"89","","bandit","62","277370","0.0-32.0-11.0","17533608","wem/bandit_single","A1UY2W2FL9CWN","gain","3","","72","H","0","img/none_selected.jpg","1","0","0","0.8","0","true","0","0.8","0","full_practice","0.2","0","0.6","0","0.2","0","","","","","",""
"135","","bandit","63","279266","0.0-32.0-12.0","17533608","wem/bandit_single","A1UY2W2FL9CWN","gain","3","","72","H","0","img/none_selected.jpg","0","0","1","0.8","0","true","0","0.8","0","full_practice","0.2","0","0.6","0","0.2","0","","","","","",""
"80","","bandit","64","281106","0.0-32.0-13.0","17533608","wem/bandit_single","A1UY2W2FL9CWN","gain","3","","72","H","0","img/none_selected.jpg","1","0","0","0.8","0","true","0","0.8","0","full_practice","0.2","0","0.6","0","0.2","0","","","","","",""
"132","","bandit","65","282998","0.0-32.0-14.0","17533608","wem/bandit_single","A1UY2W2FL9CWN","gain","3","","72","H","0","img/none_selected.jpg","1","0","0","0.8","0","true","0","0.8","0","full_practice","0.2","0","0.6","0","0.2","0","","","","","",""
"506","","bandit","66","285265","0.0-32.0-15.0","17533608","wem/bandit_single","A1UY2W2FL9CWN","gain","3","","72","H","0","img/none_selected.jpg","0","0","1","0.8","0","true","0","0.8","0","full_practice","0.2","0","0.6","0","0.2","0","","","","","",""
"170","","bandit","67","287197","0.0-32.0-16.0","17533608","wem/bandit_single","A1UY2W2FL9CWN","gain","3","","72","H","0","img/none_selected.jpg","1","0","0","0.8","0","true","0","0.8","0","full_practice","0.2","0","0.6","0","0.2","0","","","","","",""
"721","","bandit","68","289678","0.0-32.0-17.0","17533608","wem/bandit_single","A1UY2W2FL9CWN","gain","3","","72","H","0","img/none_selected.jpg","1","0","0","0.8","0","true","0","0.8","0","full_practice","0.2","0","0.6","0","0.2","0","","","","","",""
"171","","bandit","69","291610","0.0-32.0-18.0","17533608","wem/bandit_single","A1UY2W2FL9CWN","gain","3","","72","H","0","img/none_selected.jpg","1","0","0","0.8","0","true","0","0.8","0","full_practice","0.2","0","0.6","0","0.2","0","","","","","",""
"354","","bandit","70","293726","0.0-32.0-19.0","17533608","wem/bandit_single","A1UY2W2FL9CWN","gain","3","","72","H","0","img/none_selected.jpg","0","0","1","0.8","0","true","0","0.8","0","full_practice","0.2","0","0.6","0","0.2","0","","","","","",""
"2130","","text","71","296114","0.0-33.0","17533608","wem/bandit_single","A1UY2W2FL9CWN","gain","3","32","","","","","","","","","","","","","","","","","","","","","","","","","",""
"7933","","text","72","305053","0.0-34.0","17533608","wem/bandit_single","A1UY2W2FL9CWN","gain","3","32","","","","","","","","","","","","","","","","","","","","","","","","","",""
"2403","","text","73","307459","0.0-35.0","17533608","wem/bandit_single","A1UY2W2FL9CWN","gain","3","32","","","","","","","","","","","","","","","","","","","","","","","","","",""
"2676","","text","74","310138","0.0-36.0","17533608","wem/bandit_single","A1UY2W2FL9CWN","gain","3","32","","","","","","","","","","","","","","","","","","","","","","","","","",""
"2252","","text","75","312394","0.0-37.0","17533608","wem/bandit_single","A1UY2W2FL9CWN","gain","3","32","","","","","","","","","","","","","","","","","","","","","","","","","",""
"2919","","bandit","76","316825","0.0-38.0-0.0","17533608","wem/bandit_single","A1UY2W2FL9CWN","gain","3","","74","J","1","","1","0","0","0.2211287853","","false","1","0.06813583588","","main_expt","0.2211287853","","0.2015711498","","0.3417032333","","","","","","",""
"45","","bandit","77","318631","0.0-39.0-0.0","17533608","wem/bandit_single","A1UY2W2FL9CWN","gain","3","","74","J","1","","0","0","1","0.2921894834","","false","2","0.08840771113","","main_expt","0.2921894834","","0.1868286341","","0.3935143322","","","","","","",""
"30","","bandit","78","320421","0.0-40.0-0.0","17533608","wem/bandit_single","A1UY2W2FL9CWN","gain","3","","74","J","1","","0","0","1","0.2712314767","","false","3","0.14311428","","main_expt","0.2712314767","","0.2285659085","","0.3247841161","","","","","","",""
"16","","bandit","79","322201","0.0-41.0-0.0","17533608","wem/bandit_single","A1UY2W2FL9CWN","gain","3","","74","J","1","","0","0","1","0.3501044345","","false","4","0.1389033164","","main_expt","0.3501044345","","0.2587006496","","0.3524809632","","","","","","",""
"898","","bandit","80","324861","0.0-42.0-0.0","17533608","wem/bandit_single","A1UY2W2FL9CWN","gain","3","","75","K","2","","0","0","1","0.2238216231","","false","5","0.1064755534","","main_expt","0.3826883046","","0.2238216231","","0.3243282494","","","","","","",""
"296","","bandit","81","326922","0.0-43.0-0.0","17533608","wem/bandit_single","A1UY2W2FL9CWN","gain","3","","76","L","3","","1","0","0","0.3856520047","","false","6","0.07607549968","","main_expt","0.3538977559","","0.2114086621","","0.3856520047","","","","","","",""
"843","","bandit","82","329526","0.0-44.0-0.0","17533608","wem/bandit_single","A1UY2W2FL9CWN","gain","3","","76","L","3","","0","0","1","0.3595299576","","false","7","0.0490522351","","main_expt","0.3911179113","","0.225256176","","0.3595299576","","","","","","",""
"127","","bandit","83","331415","0.0-45.0-0.0","17533608","wem/bandit_single","A1UY2W2FL9CWN","gain","3","","76","L","3","","0","0","1","0.2908809246","","false","8","0.04564729275","","main_expt","0.3378010318","","0.1920600422","","0.2908809246","","","","","","",""
"503","","bandit","84","333679","0.0-46.0-0.0","17533608","wem/bandit_single","A1UY2W2FL9CWN","gain","3","","72","H","0","img/none_selected.jpg","0","0","1","0.05361883364","","false","9","0.05361883364","","main_expt","0.3584091786","","0.222474992","","0.3401169694","","","","","","",""
"196","","bandit","85","335636","0.0-47.0-0.0","17533608","wem/bandit_single","A1UY2W2FL9CWN","gain","3","","72","H","0","img/none_selected.jpg","0","0","1","0.05689605437","","false","10","0.05689605437","","main_expt","0.3822252457","","0.1720297318","","0.370347707","","","","","","",""
"126","","bandit","86","337525","0.0-48.0-0.0","17533608","wem/bandit_single","A1UY2W2FL9CWN","gain","3","","76","L","3","","0","0","1","0.3385652673","","false","11","0.05596529361","","main_expt","0.4003480189","","0.1672236423","","0.3385652673","","","","","","",""
"86","","bandit","87","339375","0.0-49.0-0.0","17533608","wem/bandit_single","A1UY2W2FL9CWN","gain","3","","75","K","2","","1","0","0","0.1908353862","","false","12","0.07455145674","","main_expt","0.4035898181","","0.1908353862","","0.3433253296","","","","","","",""
"78","","bandit","88","341215","0.0-50.0-0.0","17533608","wem/bandit_single","A1UY2W2FL9CWN","gain","3","","75","K","2","","0","0","1","0.1373256951","","false","13","0.1061797552","","main_expt","0.3939267589","","0.1373256951","","0.3306460316","","","","","","",""
"70","","bandit","89","343047","0.0-51.0-0.0","17533608","wem/bandit_single","A1UY2W2FL9CWN","gain","3","","75","K","2","","0","0","1","0.1605467602","","false","14","0.09003395111","","main_expt","0.4058751809","","0.1605467602","","0.3423394156","","","","","","",""
"382","","bandit","90","345189","0.0-52.0-0.0","17533608","wem/bandit_single","A1UY2W2FL9CWN","gain","3","","74","J","1","","1","0","0","0.3784768297","","false","15","0.09190110762","","main_expt","0.3784768297","","0.1270826231","","0.3514631564","","","","","","",""
"148","","bandit","91","347099","0.0-53.0-0.0","17533608","wem/bandit_single","A1UY2W2FL9CWN","gain","3","","74","J","1","","0","0","1","0.3742197382","","false","16","0.1119147711","","main_expt","0.3742197382","","0.1659789958","","0.3763865137","","","","","","",""
"54","","bandit","92","348914","0.0-54.0-0.0","17533608","wem/bandit_single","A1UY2W2FL9CWN","gain","3","","74","J","1","","1","0","0","0.3738750299","","false","17","0.1268228496","","main_expt","0.3738750299","","0.1810296119","","0.3613216018","","","","","","",""
"411","","bandit","93","351088","0.0-55.0-0.0","17533608","wem/bandit_single","A1UY2W2FL9CWN","gain","3","","74","J","1","","1","0","0","0.30878177","","false","18","0.160542793","","main_expt","0.30878177","","0.2209588372","","0.3354311471","","","","","","",""
"562","","bandit","94","353413","0.0-56.0-0.0","17533608","wem/bandit_single","A1UY2W2FL9CWN","gain","3","","74","J","1","","1","0","0","0.3257740717","","false","19","0.1913020378","","main_expt","0.3257740717","","0.1577150754","","0.3151580681","","","","","","",""
"476","","bandit","95","355650","0.0-57.0-0.0","17533608","wem/bandit_single","A1UY2W2FL9CWN","gain","3","","74","J","1","","0","0","1","0.2780557495","","false","20","0.2201213849","","main_expt","0.2780557495","","0.2368366468","","0.2633525784","","","","","","",""
"112","","bandit","96","357524","0.0-58.0-0.0","17533608","wem/bandit_single","A1UY2W2FL9CWN","gain","3","","74","J","1","","1","0","0","0.2552615423","","false","21","0.1747441944","","main_expt","0.2552615423","","0.1692925459","","0.2730255539","","","","","","",""
"490","","bandit","97","359775","0.0-59.0-0.0","17533608","wem/bandit_single","A1UY2W2FL9CWN","gain","3","","74","J","1","","0","0","1","0.2862558775","","false","22","0.1407764438","","main_expt","0.2862558775","","0.144462955","","0.2366183143","","","","","","",""
"67","","bandit","98","361604","0.0-60.0-0.0","17533608","wem/bandit_single","A1UY2W2FL9CWN","gain","3","","74","J","1","","0","0","1","0.290674517","","false","23","0.1444197889","","main_expt","0.290674517","","0.1928882479","","0.2193011186","","","","","","",""
"96","","bandit","99","363462","0.0-61.0-0.0","17533608","wem/bandit_single","A1UY2W2FL9CWN","gain","3","","72","H","0","img/none_selected.jpg","0","0","1","0.1898422889","","false","24","0.1898422889","","main_expt","0.2669553567","","0.2077361259","","0.2058852999","","","","","","",""
"0","","bandit","100","365225","0.0-62.0-0.0","17533608","wem/bandit_single","A1UY2W2FL9CWN","gain","3","","72","H","0","img/none_selected.jpg","1","0","0","0.2319991336","","false","25","0.2319991336","","main_expt","0.2134469473","","0.2580980749","","0.2377147794","","","","","","",""
"106","","bandit","101","367093","0.0-63.0-0.0","17533608","wem/bandit_single","A1UY2W2FL9CWN","gain","3","","72","H","0","img/none_selected.jpg","0","0","1","0.2140617454","","false","26","0.2140617454","","main_expt","0.2027981442","","0.2593960467","","0.3017638279","","","","","","",""
"122","","bandit","102","368977","0.0-64.0-0.0","17533608","wem/bandit_single","A1UY2W2FL9CWN","gain","3","","72","H","0","img/none_selected.jpg","0","0","1","0.2186733942","","false","27","0.2186733942","","main_expt","0.1669761534","","0.2913294918","","0.2647551657","","","","","","",""
"163","","bandit","103","370900","0.0-65.0-0.0","17533608","wem/bandit_single","A1UY2W2FL9CWN","gain","3","","75","K","2","","0","0","1","0.2838721205","","false","28","0.2573772923","","main_expt","0.1301617017","","0.2838721205","","0.2864353885","","","","","","",""
"22","","bandit","104","372681","0.0-66.0-0.0","17533608","wem/bandit_single","A1UY2W2FL9CWN","gain","3","","75","K","2","","0","0","1","0.2225595658","","false","29","0.2563684882","","main_expt","0.1540227795","","0.2225595658","","0.2669447337","","","","","","",""
"748","","bandit","105","375191","0.0-67.0-0.0","17533608","wem/bandit_single","A1UY2W2FL9CWN","gain","3","","76","L","3","","0","0","1","0.242519946","","false","30","0.3180657859","","main_expt","0.1290956128","","0.2450998207","","0.242519946","","","","","","",""
"15","","bandit","106","376969","0.0-68.0-0.0","17533608","wem/bandit_single","A1UY2W2FL9CWN","gain","3","","76","L","3","","0","0","1","0.1808952067","","false","31","0.3391977199","","main_expt","0.157476084","","0.2358374841","","0.1808952067","","","","","","",""
"30","","bandit","107","378762","0.0-69.0-0.0","17533608","wem/bandit_single","A1UY2W2FL9CWN","gain","3","","76","L","3","","0","0","1","0.1490402933","","false","32","0.3655242212","","main_expt","0.1667461438","","0.2465538883","","0.1490402933","","","","","","",""
"459","","bandit","108","380982","0.0-70.0-0.0","17533608","wem/bandit_single","A1UY2W2FL9CWN","gain","3","","74","J","1","","0","0","1","0.1698659255","","false","33","0.3476833293","","main_expt","0.1698659255","","0.2479029149","","0.1607825008","","","","","","",""
"38","","bandit","109","382781","0.0-71.0-0.0","17533608","wem/bandit_single","A1UY2W2FL9CWN","gain","3","","75","K","2","","0","0","1","0.1813792252","","false","34","0.3287357547","","main_expt","0.1830702822","","0.1813792252","","0.2019438485","","","","","","",""
"242","","bandit","110","384786","0.0-72.0-0.0","17533608","wem/bandit_single","A1UY2W2FL9CWN","gain","3","","72","H","0","img/none_selected.jpg","1","0","0","0.3568635533","","false","35","0.3568635533","","main_expt","0.1648441896","","0.1507873856","","0.1187506792","","","","","","",""
"216","","bandit","111","386762","0.0-73.0-0.0","17533608","wem/bandit_single","A1UY2W2FL9CWN","gain","3","","72","H","0","img/none_selected.jpg","0","0","1","0.2559818432","","false","36","0.2559818432","","main_expt","0.1702375356","","0.185146395","","0.107122158","","","","","","",""
"405","","bandit","112","388929","0.0-74.0-0.0","17533608","wem/bandit_single","A1UY2W2FL9CWN","gain","3","","72","H","0","img/none_selected.jpg","0","0","1","0.2095103509","","false","37","0.2095103509","","main_expt","0.1248493821","","0.1995500277","","0.1462043769","","","","","","",""
"210","","bandit","113","390900","0.0-75.0-0.0","17533608","wem/bandit_single","A1UY2W2FL9CWN","gain","3","","74","J","1","","0","0","1","0.1806095344","","false","38","0.1824107212","","main_expt","0.1806095344","","0.2324476024","","0.1562864446","","","","","","",""
"179","","bandit","114","392842","0.0-76.0-0.0","17533608","wem/bandit_single","A1UY2W2FL9CWN","gain","3","","74","J","1","","0","0","1","0.1636381498","","false","39","0.180532013","","main_expt","0.1636381498","","0.2374336796","","0.1425148763","","","","","","",""
"175","","bandit","115","394780","0.0-77.0-0.0","17533608","wem/bandit_single","A1UY2W2FL9CWN","gain","3","","74","J","1","","0","0","1","0.128328165","","false","40","0.209403608","","main_expt","0.128328165","","0.1871034738","","0.1332413707","","","","","","",""
"894","","bandit","116","397436","0.0-78.0-0.0","17533608","wem/bandit_single","A1UY2W2FL9CWN","gain","3","","75","K","2","","1","0","0","0.1923798107","","false","41","0.1790729352","","main_expt","0.1128848486","","0.1923798107","","0.170838957","","","","","","",""
"169","","bandit","117","399370","0.0-79.0-0.0","17533608","wem/bandit_single","A1UY2W2FL9CWN","gain","3","","75","K","2","","1","0","0","0.2175202152","","false","42","0.1586268334","","main_expt","0.1024028154","","0.2175202152","","0.221577246","","","","","","",""
"95","","bandit","118","401226","0.0-80.0-0.0","17533608","wem/bandit_single","A1UY2W2FL9CWN","gain","3","","75","K","2","","1","0","0","0.199004634","","false","43","0.1953085145","","main_expt","0.1842117743","","0.199004634","","0.2937465132","","","","","","",""
"98","","bandit","119","403085","0.0-81.0-0.0","17533608","wem/bandit_single","A1UY2W2FL9CWN","gain","3","","75","K","2","","0","0","1","0.1979694218","","false","44","0.229373846","","main_expt","0.2398699605","","0.1979694218","","0.2473378206","","","","","","",""
"1006","","bandit","120","405855","0.0-82.0-0.0","17533608","wem/bandit_single","A1UY2W2FL9CWN","gain","3","","75","K","2","","0","0","1","0.1992427108","","false","45","0.2387173179","","main_expt","0.2666943954","","0.1992427108","","0.2911711657","","","","","","",""
"82","","bandit","121","407701","0.0-83.0-0.0","17533608","wem/bandit_single","A1UY2W2FL9CWN","gain","3","","75","K","2","","0","0","1","0.2240306516","","false","46","0.2142046797","","main_expt","0.3187479261","","0.2240306516","","0.2520057509","","","","","","",""
"29","","bandit","122","409495","0.0-84.0-0.0","17533608","wem/bandit_single","A1UY2W2FL9CWN","gain","3","","75","K","2","","0","0","1","0.2065012218","","false","47","0.2454335886","","main_expt","0.3190608455","","0.2065012218","","0.2527148282","","","","","","",""
"96","","bandit","123","411353","0.0-85.0-0.0","17533608","wem/bandit_single","A1UY2W2FL9CWN","gain","3","","75","K","2","","0","0","1","0.1926440163","","false","48","0.2810950816","","main_expt","0.3135096665","","0.1926440163","","0.273334487","","","","","","",""
"64","","bandit","124","413179","0.0-86.0-0.0","17533608","wem/bandit_single","A1UY2W2FL9CWN","gain","3","","76","L","3","","1","0","0","0.3181736471","","false","49","0.2547597437","","main_expt","0.3341811191","","0.1670810943","","0.3181736471","","","","","","",""
"164","","bandit","125","415105","0.0-87.0-0.0","17533608","wem/bandit_single","A1UY2W2FL9CWN","gain","3","","76","L","3","","1","0","0","0.3806153608","","false","50","0.224323175","","main_expt","0.3459923598","","0.1198069869","","0.3806153608","","","","","","",""
"170","","bandit","126","417038","0.0-88.0-0.0","17533608","wem/bandit_single","A1UY2W2FL9CWN","gain","3","","76","L","3","","1","0","0","0.3949296296","","false","51","0.2755477452","","main_expt","0.3331953563","","0.103394302","","0.3949296296","","","","","","",""
"64","","bandit","127","418863","0.0-89.0-0.0","17533608","wem/bandit_single","A1UY2W2FL9CWN","gain","3","","76","L","3","","1","0","0","0.3544293331","","false","52","0.3022170302","","main_expt","0.3915962888","","0.1018912343","","0.3544293331","","","","","","",""
"234","","bandit","128","420862","0.0-90.0-0.0","17533608","wem/bandit_single","A1UY2W2FL9CWN","gain","3","","76","L","3","","0","0","1","0.3007967805","","false","53","0.2886203433","","main_expt","0.3984086051","","0.07233269407","","0.3007967805","","","","","","",""
"143","","bandit","129","422768","0.0-91.0-0.0","17533608","wem/bandit_single","A1UY2W2FL9CWN","gain","3","","76","L","3","","1","0","0","0.3376398899","","false","54","0.3072524501","","main_expt","0.4181407331","","0.09210147888","","0.3376398899","","","","","","",""
"69","","bandit","130","424601","0.0-92.0-0.0","17533608","wem/bandit_single","A1UY2W2FL9CWN","gain","3","","76","L","3","","0","0","1","0.3625264345","","false","55","0.3847595325","","main_expt","0.3964386999","","0.08866102842","","0.3625264345","","","","","","",""
"137","","bandit","131","426501","0.0-93.0-0.0","17533608","wem/bandit_single","A1UY2W2FL9CWN","gain","3","","76","L","3","","1","0","0","0.313137485","","false","56","0.4008313728","","main_expt","0.4043277199","","0.1208391037","","0.313137485","","","","","","",""
"434","","bandit","132","428696","0.0-94.0-0.0","17533608","wem/bandit_single","A1UY2W2FL9CWN","gain","3","","76","L","3","","1","0","0","0.3287581384","","false","57","0.3763680666","","main_expt","0.3232173094","","0.1429525169","","0.3287581384","","","","","","",""
"367","","bandit","133","430822","0.0-95.0-0.0","17533608","wem/bandit_single","A1UY2W2FL9CWN","gain","3","","76","L","3","","0","0","1","0.2891608333","","false","58","0.3630839511","","main_expt","0.3352595409","","0.1800007821","","0.2891608333","","","","","","",""
"56","","bandit","134","432697","0.0-96.0-0.0","17533608","wem/bandit_single","A1UY2W2FL9CWN","gain","3","","76","L","3","","0","0","1","0.2228703537","","false","59","0.3166885591","","main_expt","0.3423270404","","0.1168587732","","0.2228703537","","","","","","",""
"302","","bandit","135","434892","0.0-97.0-0.0","17533608","wem/bandit_single","A1UY2W2FL9CWN","gain","3","","76","L","3","","0","0","1","0.2694349638","","false","60","0.3339947878","","main_expt","0.3326485747","","0.08966050757","","0.2694349638","","","","","","",""
"302","","bandit","136","436955","0.0-98.0-0.0","17533608","wem/bandit_single","A1UY2W2FL9CWN","gain","3","","76","L","3","","0","0","1","0.3291501217","","false","61","0.3559621948","","main_expt","0.3239501662","","0.06827284498","","0.3291501217","","","","","","",""
"2344","","bandit","137","441059","0.0-99.0-0.0","17533608","wem/bandit_single","A1UY2W2FL9CWN","gain","3","","76","L","3","","0","0","1","0.3516688484","","false","62","0.3565904981","","main_expt","0.3140158541","","0.0870528816","","0.3516688484","","","","","","",""
"264","","bandit","138","443086","0.0-100.0-0.0","17533608","wem/bandit_single","A1UY2W2FL9CWN","gain","3","","75","K","2","","0","0","1","0.07384780705","","false","63","0.3766945074","","main_expt","0.2896297009","","0.07384780705","","0.3662001291","","","","","","",""
"1302","","bandit","139","446161","0.0-101.0-0.0","17533608","wem/bandit_single","A1UY2W2FL9CWN","gain","3","","72","H","0","img/none_selected.jpg","0","0","1","0.4038560084","","false","64","0.4038560084","","main_expt","0.2848001348","","0.09386223648","","0.3986377969","","","","","","",""
"85","","bandit","140","448014","0.0-102.0-0.0","17533608","wem/bandit_single","A1UY2W2FL9CWN","gain","3","","74","J","1","","0","0","1","0.2621939157","","false","65","0.4081833366","","main_expt","0.2621939157","","0.08656227431","","0.4284050928","","","","","","",""
"1050","","bandit","141","450827","0.0-103.0-0.0","17533608","wem/bandit_single","A1UY2W2FL9CWN","gain","3","","72","H","0","img/none_selected.jpg","0","0","1","0.4111507483","","false","66","0.4111507483","","main_expt","0.2218985249","","0.1254260964","","0.4295130084","","","","","","",""
"1129","","bandit","142","453721","0.0-104.0-0.0","17533608","wem/bandit_single","A1UY2W2FL9CWN","gain","3","","76","L","3","","0","0","1","0.4192215244","","false","67","0.3731562577","","main_expt","0.2203007364","","0.0848557225","","0.4192215244","","","","","","",""
"37","","bandit","143","455520","0.0-105.0-0.0","17533608","wem/bandit_single","A1UY2W2FL9CWN","gain","3","","76","L","3","","1","0","0","0.4617344849","","false","68","0.3471707475","","main_expt","0.2163243509","","0.1277621339","","0.4617344849","","","","","","",""
"198","","bandit","144","457483","0.0-106.0-0.0","17533608","wem/bandit_single","A1UY2W2FL9CWN","gain","3","","76","L","3","","0","0","1","0.4496684627","","false","69","0.3163780081","","main_expt","0.1552451017","","0.1425885083","","0.4496684627","","","","","","",""
"466","","bandit","145","459713","0.0-107.0-0.0","17533608","wem/bandit_single","A1UY2W2FL9CWN","gain","3","","76","L","3","","0","0","1","0.4572021165","","false","70","0.2872849644","","main_expt","0.144295094","","0.1765985622","","0.4572021165","","","","","","",""
"80","","bandit","146","461554","0.0-108.0-0.0","17533608","wem/bandit_single","A1UY2W2FL9CWN","gain","3","","76","L","3","","0","0","1","0.457930868","","false","71","0.300298776","","main_expt","0.1823242822","","0.1520060204","","0.457930868","","","","","","",""
"273","","bandit","147","463592","0.0-109.0-0.0","17533608","wem/bandit_single","A1UY2W2FL9CWN","gain","3","","75","K","2","","0","0","1","0.09933583891","","false","72","0.3280152389","","main_expt","0.144478384","","0.09933583891","","0.4687468973","","","","","","",""
"27","","bandit","148","465383","0.0-110.0-0.0","17533608","wem/bandit_single","A1UY2W2FL9CWN","gain","3","","75","K","2","","1","0","0","0.1087995109","","false","73","0.2758062481","","main_expt","0.1420634247","","0.1087995109","","0.4707862587","","","","","","",""
"83","","bandit","149","467226","0.0-111.0-0.0","17533608","wem/bandit_single","A1UY2W2FL9CWN","gain","3","","75","K","2","","0","0","1","0.150223613","","false","74","0.3370537031","","main_expt","0.1358649702","","0.150223613","","0.4602293826","","","","","","",""
"57","","bandit","150","469047","0.0-112.0-0.0","17533608","wem/bandit_single","A1UY2W2FL9CWN","gain","3","","75","K","2","","0","0","1","0.1945690608","","false","75","0.3323795279","","main_expt","0.09700523291","","0.1945690608","","0.439891953","","","","","","",""
"80","","bandit","151","470887","0.0-113.0-0.0","17533608","wem/bandit_single","A1UY2W2FL9CWN","gain","3","","75","K","2","","0","0","1","0.2454913388","","false","76","0.3822428931","","main_expt","0.07829726083","","0.2454913388","","0.4424180744","","","","","","",""
"191","","bandit","152","472841","0.0-114.0-0.0","17533608","wem/bandit_single","A1UY2W2FL9CWN","gain","3","","74","J","1","","0","0","1","0.08460916486","","false","77","0.4136836411","","main_expt","0.08460916486","","0.2181262922","","0.4066280348","","","","","","",""
"210","","bandit","153","474814","0.0-115.0-0.0","17533608","wem/bandit_single","A1UY2W2FL9CWN","gain","3","","72","H","0","img/none_selected.jpg","1","0","0","0.4505469687","","false","78","0.4505469687","","main_expt","0.0875988483","","0.2500794828","","0.3969262671","","","","","","",""
"136","","bandit","154","476712","0.0-116.0-0.0","17533608","wem/bandit_single","A1UY2W2FL9CWN","gain","3","","72","H","0","img/none_selected.jpg","1","0","0","0.4251749511","","false","79","0.4251749511","","main_expt","0.06491107755","","0.2021405589","","0.4119020232","","","","","","",""
"445","","bandit","155","478919","0.0-117.0-0.0","17533608","wem/bandit_single","A1UY2W2FL9CWN","gain","3","","72","H","0","img/none_selected.jpg","0","0","1","0.3976376265","","false","80","0.3976376265","","main_expt","0.1021818806","","0.1654874554","","0.3797331509","","","","","","",""
"94","","bandit","156","480777","0.0-118.0-0.0","17533608","wem/bandit_single","A1UY2W2FL9CWN","gain","3","","74","J","1","","0","0","1","0.07175209231","","false","81","0.409462467","","main_expt","0.07175209231","","0.1281487551","","0.4024270851","","","","","","",""
"57","","bandit","157","482599","0.0-119.0-0.0","17533608","wem/bandit_single","A1UY2W2FL9CWN","gain","3","","74","J","1","","0","0","1","0.04651379375","","false","82","0.4541942335","","main_expt","0.04651379375","","0.1167166884","","0.3976574516","","","","","","",""
"15","","bandit","158","484380","0.0-120.0-0.0","17533608","wem/bandit_single","A1UY2W2FL9CWN","gain","3","","72","H","0","img/none_selected.jpg","0","0","1","0.4452160763","","false","83","0.4452160763","","main_expt","0.03148502893","","0.1426109787","","0.3749492802","","","","","","",""
"49","","bandit","159","486193","0.0-121.0-0.0","17533608","wem/bandit_single","A1UY2W2FL9CWN","gain","3","","72","H","0","img/none_selected.jpg","0","0","1","0.438985114","","false","84","0.438985114","","main_expt","0.05186863446","","0.121887906","","0.4021863709","","","","","","",""
"199","","bandit","160","488157","0.0-122.0-0.0","17533608","wem/bandit_single","A1UY2W2FL9CWN","gain","3","","72","H","0","img/none_selected.jpg","0","0","1","0.4331173667","","false","85","0.4331173667","","main_expt","0.04986731509","","0.1361926199","","0.3624574422","","","","","","",""
"132","","bandit","161","490052","0.0-123.0-0.0","17533608","wem/bandit_single","A1UY2W2FL9CWN","gain","3","","72","H","0","img/none_selected.jpg","1","0","0","0.447547065","","false","86","0.447547065","","main_expt","0.05891938772","","0.1287871674","","0.387939101","","","","","","",""
"13","","bandit","162","491829","0.0-124.0-0.0","17533608","wem/bandit_single","A1UY2W2FL9CWN","gain","3","","72","H","0","img/none_selected.jpg","0","0","1","0.4451560311","","false","87","0.4451560311","","main_expt","0.06619539979","","0.13112728","","0.3949621072","","","","","","",""
"303","","bandit","163","493896","0.0-125.0-0.0","17533608","wem/bandit_single","A1UY2W2FL9CWN","gain","3","","72","H","0","img/none_selected.jpg","1","0","0","0.4010299359","","false","88","0.4010299359","","main_expt","0.03553047297","","0.1385028762","","0.3789082299","","","","","","",""
"127","","bandit","164","495788","0.0-126.0-0.0","17533608","wem/bandit_single","A1UY2W2FL9CWN","gain","3","","72","H","0","img/none_selected.jpg","0","0","1","0.430672582","","false","89","0.430672582","","main_expt","0.03983007571","","0.1377901848","","0.3718344374","","","","","","",""
"116","","bandit","165","497667","0.0-127.0-0.0","17533608","wem/bandit_single","A1UY2W2FL9CWN","gain","3","","72","H","0","img/none_selected.jpg","1","0","0","0.4063924327","","false","90","0.4063924327","","main_expt","0.02618566652","","0.1642812903","","0.4341719303","","","","","","",""
"87","","bandit","166","499517","0.0-128.0-0.0","17533608","wem/bandit_single","A1UY2W2FL9CWN","gain","3","","72","H","0","img/none_selected.jpg","1","0","0","0.4115689239","","false","91","0.4115689239","","main_expt","0.03325063158","","0.2115922749","","0.4538289377","","","","","","",""
"126","","bandit","167","501410","0.0-129.0-0.0","17533608","wem/bandit_single","A1UY2W2FL9CWN","gain","3","","72","H","0","img/none_selected.jpg","1","0","0","0.4195244723","","false","92","0.4195244723","","main_expt","0.02042352937","","0.1819790886","","0.4508501544","","","","","","",""
"33","","bandit","168","503206","0.0-130.0-0.0","17533608","wem/bandit_single","A1UY2W2FL9CWN","gain","3","","72","H","0","img/none_selected.jpg","1","0","0","0.3976010387","","false","93","0.3976010387","","main_expt","0.01887694535","","0.2039146085","","0.4548943395","","","","","","",""
"161","","bandit","169","505132","0.0-131.0-0.0","17533608","wem/bandit_single","A1UY2W2FL9CWN","gain","3","","72","H","0","img/none_selected.jpg","1","0","0","0.3668479885","","false","94","0.3668479885","","main_expt","0.02367451168","","0.2307813202","","0.4646086811","","","","","","",""
"202","","bandit","170","507096","0.0-132.0-0.0","17533608","wem/bandit_single","A1UY2W2FL9CWN","gain","3","","72","H","0","img/none_selected.jpg","0","0","1","0.3332342888","","false","95","0.3332342888","","main_expt","0.02723032617","","0.2213313998","","0.467541367","","","","","","",""
"1413","","bandit","171","510273","0.0-133.0-0.0","17533608","wem/bandit_single","A1UY2W2FL9CWN","gain","3","","72","H","0","img/none_selected.jpg","0","0","1","0.2884910782","","false","96","0.2884910782","","main_expt","0.02648196594","","0.2568515079","","0.4642351642","","","","","","",""
"863","","bandit","172","512899","0.0-134.0-0.0","17533608","wem/bandit_single","A1UY2W2FL9CWN","gain","3","","72","H","0","img/none_selected.jpg","0","0","1","0.2656891479","","false","97","0.2656891479","","main_expt","0.01585024216","","0.2699845376","","0.4467755515","","","","","","",""
"313","","bandit","173","514974","0.0-135.0-0.0","17533608","wem/bandit_single","A1UY2W2FL9CWN","gain","3","","76","L","3","","0","0","1","0.4056350907","","false","98","0.2595300749","","main_expt","0.01169409205","","0.2797451528","","0.4056350907","","","","","","",""
"826","","bandit","174","517561","0.0-136.0-0.0","17533608","wem/bandit_single","A1UY2W2FL9CWN","gain","3","","75","K","2","","0","0","1","0.3187705275","","false","99","0.2519900202","","main_expt","0.01197913588","","0.3187705275","","0.339742379","","","","","","",""
"89","","bandit","175","519410","0.0-137.0-0.0","17533608","wem/bandit_single","A1UY2W2FL9CWN","gain","3","","75","K","2","","0","0","1","0.3570824245","","false","100","0.2523409295","","main_expt","0.01759776774","","0.3570824245","","0.3381167522","","","","","","",""
"92","","bandit","176","521265","0.0-138.0-0.0","17533608","wem/bandit_single","A1UY2W2FL9CWN","gain","3","","74","J","1","","0","0","1","0.04295615511","","false","101","0.2146893193","","main_expt","0.04295615511","","0.3489468272","","0.2803213009","","","","","","",""
"78","","bandit","177","523107","0.0-139.0-0.0","17533608","wem/bandit_single","A1UY2W2FL9CWN","gain","3","","74","J","1","","0","0","1","0.06572998715","","false","102","0.1843767259","","main_expt","0.06572998715","","0.3015799625","","0.317644571","","","","","","",""
"304","","bandit","178","525174","0.0-140.0-0.0","17533608","wem/bandit_single","A1UY2W2FL9CWN","gain","3","","74","J","1","","1","0","0","0.1043212589","","false","103","0.2108432206","","main_expt","0.1043212589","","0.2656450655","","0.3024927185","","","","","","",""
"436","","bandit","179","527374","0.0-141.0-0.0","17533608","wem/bandit_single","A1UY2W2FL9CWN","gain","3","","74","J","1","","1","0","0","0.07063930719","","false","104","0.26792014","","main_expt","0.07063930719","","0.261155182","","0.3339077782","","","","","","",""
"200","","bandit","180","529334","0.0-142.0-0.0","17533608","wem/bandit_single","A1UY2W2FL9CWN","gain","3","","74","J","1","","0","0","1","0.09992353171","","false","105","0.3302583292","","main_expt","0.09992353171","","0.2794756432","","0.2966783269","","","","","","",""
"58","","bandit","181","531155","0.0-143.0-0.0","17533608","wem/bandit_single","A1UY2W2FL9CWN","gain","3","","74","J","1","","0","0","1","0.1074399807","","false","106","0.3099187861","","main_expt","0.1074399807","","0.2719827923","","0.3722996478","","","","","","",""
"0","","bandit","182","532918","0.0-144.0-0.0","17533608","wem/bandit_single","A1UY2W2FL9CWN","gain","3","","75","K","2","","0","0","1","0.2614179637","","false","107","0.3526315454","","main_expt","0.1398361659","","0.2614179637","","0.3764369168","","","","","","",""
"223","","bandit","183","534907","0.0-145.0-0.0","17533608","wem/bandit_single","A1UY2W2FL9CWN","gain","3","","75","K","2","","0","0","1","0.3154283329","","false","108","0.3741147492","","main_expt","0.1503356919","","0.3154283329","","0.3221289315","","","","","","",""
"270","","bandit","184","536938","0.0-146.0-0.0","17533608","wem/bandit_single","A1UY2W2FL9CWN","gain","3","","72","H","0","img/none_selected.jpg","0","0","1","0.3775387023","","false","109","0.3775387023","","main_expt","0.1554773292","","0.3965133924","","0.3394272446","","","","","","",""
"271","","bandit","185","538970","0.0-147.0-0.0","17533608","wem/bandit_single","A1UY2W2FL9CWN","gain","3","","72","H","0","img/none_selected.jpg","1","0","0","0.3603169275","","false","110","0.3603169275","","main_expt","0.1862379276","","0.4096679205","","0.3108194313","","","","","","",""
"1698","","bandit","186","542430","0.0-148.0-0.0","17533608","wem/bandit_single","A1UY2W2FL9CWN","gain","3","","72","H","0","img/none_selected.jpg","1","0","0","0.3492898999","","false","111","0.3492898999","","main_expt","0.2096222548","","0.4107972434","","0.2754643313","","","","","","",""
"626","","bandit","187","544819","0.0-149.0-0.0","17533608","wem/bandit_single","A1UY2W2FL9CWN","gain","3","","72","H","0","img/none_selected.jpg","0","0","1","0.3332089306","","false","112","0.3332089306","","main_expt","0.2432579143","","0.4229867006","","0.2906444469","","","","","","",""
"497","","bandit","188","547080","0.0-150.0-0.0","17533608","wem/bandit_single","A1UY2W2FL9CWN","gain","3","","72","H","0","img/none_selected.jpg","0","0","1","0.3450976056","","false","113","0.3450976056","","main_expt","0.1721880852","","0.4045712819","","0.3006146448","","","","","","",""
"143","","bandit","189","548986","0.0-151.0-0.0","17533608","wem/bandit_single","A1UY2W2FL9CWN","gain","3","","72","H","0","img/none_selected.jpg","1","0","0","0.3725565121","","false","114","0.3725565121","","main_expt","0.2081909003","","0.3821667802","","0.2668468313","","","","","","",""
"878","","bandit","190","551628","0.0-152.0-0.0","17533608","wem/bandit_single","A1UY2W2FL9CWN","gain","3","","72","H","0","img/none_selected.jpg","1","0","0","0.3789561431","","false","115","0.3789561431","","main_expt","0.272711811","","0.3342096713","","0.3032344037","","","","","","",""
"1001","","bandit","191","554391","0.0-153.0-0.0","17533608","wem/bandit_single","A1UY2W2FL9CWN","gain","3","","72","H","0","img/none_selected.jpg","0","0","1","0.3829881954","","false","116","0.3829881954","","main_expt","0.2801201945","","0.3475890958","","0.279678247","","","","","","",""
"466","","bandit","192","556621","0.0-154.0-0.0","17533608","wem/bandit_single","A1UY2W2FL9CWN","gain","3","","74","J","1","","1","0","0","0.3615324036","","false","117","0.3872477479","","main_expt","0.3615324036","","0.3545652452","","0.2762620489","","","","","","",""
"191","","bandit","193","558575","0.0-155.0-0.0","17533608","wem/bandit_single","A1UY2W2FL9CWN","gain","3","","74","J","1","","0","0","1","0.3615177178","","false","118","0.3952603005","","main_expt","0.3615177178","","0.3542043025","","0.2880572365","","","","","","",""
"831","","bandit","194","561167","0.0-156.0-0.0","17533608","wem/bandit_single","A1UY2W2FL9CWN","gain","3","","74","J","1","","1","0","0","0.3875935955","","false","119","0.3838673248","","main_expt","0.3875935955","","0.3471352845","","0.2807620685","","","","","","",""
"2568","","bandit","195","565500","0.0-157.0-0.0","17533608","wem/bandit_single","A1UY2W2FL9CWN","gain","3","","75","K","2","","0","0","1","0.3343169965","","false","120","0.4148997213","","main_expt","0.4052723714","","0.3343169965","","0.2811576832","","","","","","",""
"316","","bandit","196","567581","0.0-158.0-0.0","17533608","wem/bandit_single","A1UY2W2FL9CWN","gain","3","","74","J","1","","1","0","0","0.44462971","","false","121","0.4184259471","","main_expt","0.44462971","","0.3595120763","","0.3016455194","","","","","","",""
"2497","","bandit","197","571844","0.0-159.0-0.0","17533608","wem/bandit_single","A1UY2W2FL9CWN","gain","3","","74","J","1","","0","0","1","0.4338931322","","false","122","0.4271141924","","main_expt","0.4338931322","","0.3296914373","","0.3161331551","","","","","","",""
"350","","bandit","198","573958","0.0-160.0-0.0","17533608","wem/bandit_single","A1UY2W2FL9CWN","gain","3","","74","J","1","","0","0","1","0.4248885798","","false","123","0.3994299035","","main_expt","0.4248885798","","0.3369167856","","0.2882518765","","","","","","",""
"342","","bandit","199","576063","0.0-161.0-0.0","17533608","wem/bandit_single","A1UY2W2FL9CWN","gain","3","","74","J","1","","0","0","1","0.3773411534","","false","124","0.4319292606","","main_expt","0.3773411534","","0.3181772373","","0.3426101702","","","","","","",""
"128","","bandit","200","577955","0.0-162.0-0.0","17533608","wem/bandit_single","A1UY2W2FL9CWN","gain","3","","75","K","2","","0","0","1","0.3285823626","","false","125","0.4228137624","","main_expt","0.3322500489","","0.3285823626","","0.3623178769","","","","","","",""
"1070","","bandit","201","580788","0.0-163.0-0.0","17533608","wem/bandit_single","A1UY2W2FL9CWN","gain","3","","75","K","2","","1","0","0","0.3203566048","","false","126","0.4445824992","","main_expt","0.3742157909","","0.3203566048","","0.3487147863","","","","","","",""
"365","","bandit","202","582917","0.0-164.0-0.0","17533608","wem/bandit_single","A1UY2W2FL9CWN","gain","3","","75","K","2","","0","0","1","0.3852478983","","false","127","0.4525048151","","main_expt","0.3851047317","","0.3852478983","","0.4137567253","","","","","","",""
"239","","bandit","203","584918","0.0-165.0-0.0","17533608","wem/bandit_single","A1UY2W2FL9CWN","gain","3","","75","K","2","","0","0","1","0.3389365807","","false","128","0.4692783601","","main_expt","0.4043255462","","0.3389365807","","0.3814482247","","","","","","",""
"59","","bandit","204","586739","0.0-166.0-0.0","17533608","wem/bandit_single","A1UY2W2FL9CWN","gain","3","","74","J","1","","0","0","1","0.4123407707","","false","129","0.4168961411","","main_expt","0.4123407707","","0.3137404055","","0.4168244781","","","","","","",""
"45","","bandit","205","588547","0.0-167.0-0.0","17533608","wem/bandit_single","A1UY2W2FL9CWN","gain","3","","76","L","3","","1","0","0","0.4365918222","","false","130","0.3790243023","","main_expt","0.4046971735","","0.3258581953","","0.4365918222","","","","","","",""
"113","","bandit","206","590428","0.0-168.0-0.0","17533608","wem/bandit_single","A1UY2W2FL9CWN","gain","3","","76","L","3","","1","0","0","0.4389841863","","false","131","0.4049885765","","main_expt","0.4461276952","","0.2883577813","","0.4389841863","","","","","","",""
"187","","bandit","207","592375","0.0-169.0-0.0","17533608","wem/bandit_single","A1UY2W2FL9CWN","gain","3","","76","L","3","","0","0","1","0.4152650591","","false","132","0.4146365962","","main_expt","0.4611465992","","0.3560589507","","0.4152650591","","","","","","",""
"242","","bandit","208","594379","0.0-170.0-0.0","17533608","wem/bandit_single","A1UY2W2FL9CWN","gain","3","","76","L","3","","0","0","1","0.4542457407","","false","133","0.3895917514","","main_expt","0.4798080461","","0.358394082","","0.4542457407","","","","","","",""
"246","","bandit","209","596388","0.0-171.0-0.0","17533608","wem/bandit_single","A1UY2W2FL9CWN","gain","3","","76","L","3","","0","0","1","0.4598844585","","false","134","0.4031985028","","main_expt","0.4536835414","","0.3605573227","","0.4598844585","","","","","","",""
"215","","bandit","210","598365","0.0-172.0-0.0","17533608","wem/bandit_single","A1UY2W2FL9CWN","gain","3","","76","L","3","","0","0","1","0.4690925783","","false","135","0.3950250086","","main_expt","0.4297718384","","0.3695471057","","0.4690925783","","","","","","",""
"69","","bandit","211","600198","0.0-173.0-0.0","17533608","wem/bandit_single","A1UY2W2FL9CWN","gain","3","","72","H","0","img/none_selected.jpg","0","0","1","0.3958408827","","false","136","0.3958408827","","main_expt","0.4047290025","","0.4060603524","","0.4382452635","","","","","","",""
"388","","bandit","212","602348","0.0-174.0-0.0","17533608","wem/bandit_single","A1UY2W2FL9CWN","gain","3","","72","H","0","img/none_selected.jpg","1","0","0","0.4025558346","","false","137","0.4025558346","","main_expt","0.4062789173","","0.3977168634","","0.4469583278","","","","","","",""
"194","","bandit","213","604306","0.0-175.0-0.0","17533608","wem/bandit_single","A1UY2W2FL9CWN","gain","3","","72","H","0","img/none_selected.jpg","1","0","0","0.3901350715","","false","138","0.3901350715","","main_expt","0.3893267926","","0.3884520433","","0.44739429","","","","","","",""
"112","","bandit","214","606183","0.0-176.0-0.0","17533608","wem/bandit_single","A1UY2W2FL9CWN","gain","3","","72","H","0","img/none_selected.jpg","0","0","1","0.4069565875","","false","139","0.4069565875","","main_expt","0.3355070849","","0.3517782966","","0.4329330235","","","","","","",""
"83","","bandit","215","608032","0.0-177.0-0.0","17533608","wem/bandit_single","A1UY2W2FL9CWN","gain","3","","72","H","0","img/none_selected.jpg","1","0","0","0.4384632306","","false","140","0.4384632306","","main_expt","0.3033729388","","0.3147433726","","0.4427321083","","","","","","",""
"78","","bandit","216","609875","0.0-178.0-0.0","17533608","wem/bandit_single","A1UY2W2FL9CWN","gain","3","","72","H","0","img/none_selected.jpg","0","0","1","0.4513823692","","false","141","0.4513823692","","main_expt","0.3495942718","","0.315874603","","0.4630674526","","","","","","",""
"1325","","bandit","217","612964","0.0-179.0-0.0","17533608","wem/bandit_single","A1UY2W2FL9CWN","gain","3","","72","H","0","img/none_selected.jpg","1","0","0","0.4477105457","","false","142","0.4477105457","","main_expt","0.373744609","","0.2660579121","","0.4678156034","","","","","","",""
"117","","bandit","218","614847","0.0-180.0-0.0","17533608","wem/bandit_single","A1UY2W2FL9CWN","gain","3","","72","H","0","img/none_selected.jpg","0","0","1","0.4399018081","","false","143","0.4399018081","","main_expt","0.3983109068","","0.2791435274","","0.4556942345","","","","","","",""
"194","","bandit","219","616809","0.0-181.0-0.0","17533608","wem/bandit_single","A1UY2W2FL9CWN","gain","3","","72","H","0","img/none_selected.jpg","0","0","1","0.3929519584","","false","144","0.3929519584","","main_expt","0.4290647624","","0.3232226047","","0.4606745253","","","","","","",""
"778","","bandit","220","619351","0.0-182.0-0.0","17533608","wem/bandit_single","A1UY2W2FL9CWN","gain","3","","74","J","1","","1","0","0","0.4360055891","","false","145","0.3638959839","","main_expt","0.4360055891","","0.2863527335","","0.4493721712","","","","","","",""
"422","","bandit","221","621537","0.0-183.0-0.0","17533608","wem/bandit_single","A1UY2W2FL9CWN","gain","3","","74","J","1","","0","0","1","0.4408793748","","false","146","0.3109408856","","main_expt","0.4408793748","","0.2399582054","","0.411205332","","","","","","",""
"390","","bandit","222","623695","0.0-184.0-0.0","17533608","wem/bandit_single","A1UY2W2FL9CWN","gain","3","","74","J","1","","0","0","1","0.4152856751","","false","147","0.303790043","","main_expt","0.4152856751","","0.2186627863","","0.4091009254","","","","","","",""
"426","","bandit","223","625885","0.0-185.0-0.0","17533608","wem/bandit_single","A1UY2W2FL9CWN","gain","3","","75","K","2","","1","0","0","0.233860686","","false","148","0.2836070719","","main_expt","0.400149315","","0.233860686","","0.3878952866","","","","","","",""
"212","","bandit","224","627860","0.0-186.0-0.0","17533608","wem/bandit_single","A1UY2W2FL9CWN","gain","3","","75","K","2","","1","0","0","0.2752018233","","false","149","0.2132997302","","main_expt","0.4081055764","","0.2752018233","","0.39239053","","","","","","",""
"720","","bandit","225","630342","0.0-187.0-0.0","17533608","wem/bandit_single","A1UY2W2FL9CWN","gain","3","","75","K","2","","0","0","1","0.2306982087","","false","150","0.1906505553","","main_expt","0.3946041437","","0.2306982087","","0.3869122725","","","","","","",""
"2250","","bandit","226","634356","0.0-188.0-0.0","17533608","wem/bandit_single","A1UY2W2FL9CWN","gain","3","","75","K","2","","0","0","1","0.272940168","","false","151","0.1887938372","","main_expt","0.3517385329","","0.272940168","","0.3562084687","","","","","","",""
"868","","bandit","227","637060","0.0-189.0-0.0","17533608","wem/bandit_single","A1UY2W2FL9CWN","gain","3","","75","K","2","","0","0","1","0.246833375","","false","152","0.1452925277","","main_expt","0.33807167","","0.246833375","","0.3975166132","","","","","","",""
"1584","","bandit","228","640408","0.0-190.0-0.0","17533608","wem/bandit_single","A1UY2W2FL9CWN","gain","3","","75","K","2","","1","0","0","0.2555278221","","false","153","0.1236287895","","main_expt","0.3507556502","","0.2555278221","","0.4221253747","","","","","","",""
"895","","bandit","229","643066","0.0-191.0-0.0","17533608","wem/bandit_single","A1UY2W2FL9CWN","gain","3","","75","K","2","","0","0","1","0.1964980564","","false","154","0.119712108","","main_expt","0.3484399371","","0.1964980564","","0.3887365422","","","","","","",""
"2728","","bandit","230","647559","0.0-192.0-0.0","17533608","wem/bandit_single","A1UY2W2FL9CWN","gain","3","","72","H","0","img/none_selected.jpg","0","0","1","0.1638630184","","false","155","0.1638630184","","main_expt","0.4023996329","","0.2158986014","","0.3935049101","","","","","","",""
"113","","bandit","231","649451","0.0-193.0-0.0","17533608","wem/bandit_single","A1UY2W2FL9CWN","gain","3","","75","K","2","","1","0","0","0.2269609611","","false","156","0.138562935","","main_expt","0.3489947109","","0.2269609611","","0.4185769797","","","","","","",""
"420","","bandit","232","651634","0.0-194.0-0.0","17533608","wem/bandit_single","A1UY2W2FL9CWN","gain","3","","75","K","2","","0","0","1","0.2997599927","","false","157","0.1424057266","","main_expt","0.3223479281","","0.2997599927","","0.412821327","","","","","","",""
"407","","bandit","233","653805","0.0-195.0-0.0","17533608","wem/bandit_single","A1UY2W2FL9CWN","gain","3","","75","K","2","","0","0","1","0.2608946303","","false","158","0.1068688432","","main_expt","0.3334556671","","0.2608946303","","0.4433072999","","","","","","",""
"51","","bandit","234","655618","0.0-196.0-0.0","17533608","wem/bandit_single","A1UY2W2FL9CWN","gain","3","","75","K","2","","1","0","0","0.2927903113","","false","159","0.08394897778","","main_expt","0.3686402331","","0.2927903113","","0.4600675837","","","","","","",""
"413","","bandit","235","657795","0.0-197.0-0.0","17533608","wem/bandit_single","A1UY2W2FL9CWN","gain","3","","75","K","2","","0","0","1","0.3165869591","","false","160","0.09909711901","","main_expt","0.3711838842","","0.3165869591","","0.449399373","","","","","","",""
"252","","bandit","236","659811","0.0-198.0-0.0","17533608","wem/bandit_single","A1UY2W2FL9CWN","gain","3","","75","K","2","","1","0","0","0.3355773311","","false","161","0.09256485174","","main_expt","0.385982022","","0.3355773311","","0.4303005813","","","","","","",""
"417","","bandit","237","661991","0.0-199.0-0.0","17533608","wem/bandit_single","A1UY2W2FL9CWN","gain","3","","75","K","2","","0","0","1","0.3801839585","","false","162","0.07550585721","","main_expt","0.3435676447","","0.3801839585","","0.4319487415","","","","","","",""
"205","","bandit","238","663960","0.0-200.0-0.0","17533608","wem/bandit_single","A1UY2W2FL9CWN","gain","3","","75","K","2","","1","0","0","0.3796909961","","false","163","0.08055395315","","main_expt","0.3840292687","","0.3796909961","","0.4459750046","","","","","","",""
"209","","bandit","239","665930","0.0-201.0-0.0","17533608","wem/bandit_single","A1UY2W2FL9CWN","gain","3","","75","K","2","","0","0","1","0.3657353238","","false","164","0.07824920034","","main_expt","0.3427058888","","0.3657353238","","0.4529977304","","","","","","",""
"629","","bandit","240","668322","0.0-202.0-0.0","17533608","wem/bandit_single","A1UY2W2FL9CWN","gain","3","","76","L","3","","1","0","0","0.4472909282","","false","165","0.08439791844","","main_expt","0.3258967388","","0.3937598932","","0.4472909282","","","","","","",""
"158","","bandit","241","670247","0.0-203.0-0.0","17533608","wem/bandit_single","A1UY2W2FL9CWN","gain","3","","76","L","3","","1","0","0","0.4399772256","","false","166","0.05039915739","","main_expt","0.2704303424","","0.3914196171","","0.4399772256","","","","","","",""
"120","","bandit","242","672134","0.0-204.0-0.0","17533608","wem/bandit_single","A1UY2W2FL9CWN","gain","3","","76","L","3","","0","0","1","0.4636729032","","false","167","0.05759530337","","main_expt","0.3205555932","","0.3919877423","","0.4636729032","","","","","","",""
"51","","bandit","243","673950","0.0-205.0-0.0","17533608","wem/bandit_single","A1UY2W2FL9CWN","gain","3","","76","L","3","","1","0","0","0.4437796743","","false","168","0.04992464654","","main_expt","0.3639109947","","0.3647459683","","0.4437796743","","","","","","",""
"319","","bandit","244","676035","0.0-206.0-0.0","17533608","wem/bandit_single","A1UY2W2FL9CWN","gain","3","","76","L","3","","1","0","0","0.456101387","","false","169","0.03416660819","","main_expt","0.3733582142","","0.4058418149","","0.456101387","","","","","","",""
"432","","bandit","245","678231","0.0-207.0-0.0","17533608","wem/bandit_single","A1UY2W2FL9CWN","gain","3","","76","L","3","","0","0","1","0.4571218852","","false","170","0.01917125828","","main_expt","0.3832331311","","0.3998590153","","0.4571218852","","","","","","",""
"95","","bandit","246","680091","0.0-208.0-0.0","17533608","wem/bandit_single","A1UY2W2FL9CWN","gain","3","","76","L","3","","0","0","1","0.445510323","","false","171","0.02244253376","","main_expt","0.3815339887","","0.3887500458","","0.445510323","","","","","","",""
"296","","bandit","247","682154","0.0-209.0-0.0","17533608","wem/bandit_single","A1UY2W2FL9CWN","gain","3","","76","L","3","","1","0","0","0.4280794999","","false","172","0.02619280326","","main_expt","0.3471775219","","0.4102182378","","0.4280794999","","","","","","",""
"369","","bandit","248","684286","0.0-210.0-0.0","17533608","wem/bandit_single","A1UY2W2FL9CWN","gain","3","","76","L","3","","1","0","0","0.4379780546","","false","173","0.0218428458","","main_expt","0.340289466","","0.3895773165","","0.4379780546","","","","","","",""
"69","","bandit","249","686120","0.0-211.0-0.0","17533608","wem/bandit_single","A1UY2W2FL9CWN","gain","3","","76","L","3","","0","0","1","0.4160926905","","false","174","0.02840617367","","main_expt","0.3280863639","","0.3826402373","","0.4160926905","","","","","","",""
"273","","bandit","250","688159","0.0-212.0-0.0","17533608","wem/bandit_single","A1UY2W2FL9CWN","gain","3","","76","L","3","","0","0","1","0.44195178","","false","175","0.0268928826","","main_expt","0.3782643392","","0.38572844","","0.44195178","","","","","","",""
"84","","bandit","251","690008","0.0-213.0-0.0","17533608","wem/bandit_single","A1UY2W2FL9CWN","gain","3","","76","L","3","","0","0","1","0.4469840309","","false","176","0.04471375276","","main_expt","0.3714875018","","0.3566605828","","0.4469840309","","","","","","",""
"185","","bandit","252","691960","0.0-214.0-0.0","17533608","wem/bandit_single","A1UY2W2FL9CWN","gain","3","","75","K","2","","0","0","1","0.3736379944","","false","177","0.04508647299","","main_expt","0.3110573775","","0.3736379944","","0.4732589693","","","","","","",""
"112","","bandit","253","693834","0.0-215.0-0.0","17533608","wem/bandit_single","A1UY2W2FL9CWN","gain","3","","75","K","2","","0","0","1","0.3835263095","","false","178","0.07342594821","","main_expt","0.3725785744","","0.3835263095","","0.4716065645","","","","","","",""
"1144","","bandit","254","696742","0.0-216.0-0.0","17533608","wem/bandit_single","A1UY2W2FL9CWN","gain","3","","72","H","0","img/none_selected.jpg","0","0","1","0.08189943715","","false","179","0.08189943715","","main_expt","0.4143512522","","0.3531759074","","0.4724187392","","","","","","",""
"206","","bandit","255","698715","0.0-217.0-0.0","17533608","wem/bandit_single","A1UY2W2FL9CWN","gain","3","","74","J","1","","0","0","1","0.4240428135","","false","180","0.07894611151","","main_expt","0.4240428135","","0.3185705061","","0.4551908631","","","","","","",""
"51","","bandit","256","700530","0.0-218.0-0.0","17533608","wem/bandit_single","A1UY2W2FL9CWN","gain","3","","74","J","1","","1","0","0","0.4394908049","","false","181","0.06982230443","","main_expt","0.4394908049","","0.2823592255","","0.456416976","","","","","","",""
"205","","bandit","257","702504","0.0-219.0-0.0","17533608","wem/bandit_single","A1UY2W2FL9CWN","gain","3","","74","J","1","","1","0","0","0.4180692962","","false","182","0.06674639092","","main_expt","0.4180692962","","0.2741397005","","0.4525945541","","","","","","",""
"617","","bandit","258","704885","0.0-220.0-0.0","17533608","wem/bandit_single","A1UY2W2FL9CWN","gain","3","","74","J","1","","0","0","1","0.4468782907","","false","183","0.04008595334","","main_expt","0.4468782907","","0.2936799338","","0.4439654651","","","","","","",""
"101","","bandit","259","706751","0.0-221.0-0.0","17533608","wem/bandit_single","A1UY2W2FL9CWN","gain","3","","74","J","1","","0","0","1","0.4489540851","","false","184","0.04652727321","","main_expt","0.4489540851","","0.3027831177","","0.4366406792","","","","","","",""
"255","","bandit","260","708767","0.0-222.0-0.0","17533608","wem/bandit_single","A1UY2W2FL9CWN","gain","3","","74","J","1","","1","0","0","0.4669005471","","false","185","0.05033673313","","main_expt","0.4669005471","","0.3180510168","","0.4282468188","","","","","","",""
"158","","bandit","261","710693","0.0-223.0-0.0","17533608","wem/bandit_single","A1UY2W2FL9CWN","gain","3","","74","J","1","","0","0","1","0.419417397","","false","186","0.03009771755","","main_expt","0.419417397","","0.3285352945","","0.4249990568","","","","","","",""
"896","","bandit","262","713356","0.0-224.0-0.0","17533608","wem/bandit_single","A1UY2W2FL9CWN","gain","3","","74","J","1","","0","0","1","0.3735271503","","false","187","0.02601150791","","main_expt","0.3735271503","","0.3278715557","","0.4159118542","","","","","","",""
"115","","bandit","263","715238","0.0-225.0-0.0","17533608","wem/bandit_single","A1UY2W2FL9CWN","gain","3","","74","J","1","","1","0","0","0.3339942922","","false","188","0.02389042297","","main_expt","0.3339942922","","0.3408065186","","0.4294829221","","","","","","",""
"66","","bandit","264","717070","0.0-226.0-0.0","17533608","wem/bandit_single","A1UY2W2FL9CWN","gain","3","","74","J","1","","0","0","1","0.3200911101","","false","189","0.02303770395","","main_expt","0.3200911101","","0.3335894225","","0.4183094629","","","","","","",""
"39","","bandit","265","718876","0.0-227.0-0.0","17533608","wem/bandit_single","A1UY2W2FL9CWN","gain","3","","74","J","1","","1","0","0","0.379511296","","false","190","0.0156858998","","main_expt","0.379511296","","0.2560009578","","0.3769048436","","","","","","",""
"324","","bandit","266","720966","0.0-228.0-0.0","17533608","wem/bandit_single","A1UY2W2FL9CWN","gain","3","","74","J","1","","0","0","1","0.3475909393","","false","191","0.02184200568","","main_expt","0.3475909393","","0.2422543603","","0.3654839124","","","","","","",""
"228","","bandit","267","722960","0.0-229.0-0.0","17533608","wem/bandit_single","A1UY2W2FL9CWN","gain","3","","74","J","1","","0","0","1","0.3248483226","","false","192","0.04159540118","","main_expt","0.3248483226","","0.2479432207","","0.4158526776","","","","","","",""
"139","","bandit","268","724866","0.0-230.0-0.0","17533608","wem/bandit_single","A1UY2W2FL9CWN","gain","3","","74","J","1","","0","0","1","0.3530355579","","false","193","0.02418359434","","main_expt","0.3530355579","","0.2198669916","","0.4294001388","","","","","","",""
"603","","bandit","269","727233","0.0-231.0-0.0","17533608","wem/bandit_single","A1UY2W2FL9CWN","gain","3","","72","H","0","img/none_selected.jpg","0","0","1","0.03036789999","","false","194","0.03036789999","","main_expt","0.3613612536","","0.1832858475","","0.421006879","","","","","","",""
"272","","bandit","270","729271","0.0-232.0-0.0","17533608","wem/bandit_single","A1UY2W2FL9CWN","gain","3","","72","H","0","img/none_selected.jpg","0","0","1","0.0328032794","","false","195","0.0328032794","","main_expt","0.3712676973","","0.1758973168","","0.3993762185","","","","","","",""
"187","","bandit","271","731225","0.0-233.0-0.0","17533608","wem/bandit_single","A1UY2W2FL9CWN","gain","3","","72","H","0","img/none_selected.jpg","0","0","1","0.03367124179","","false","196","0.03367124179","","main_expt","0.3797177139","","0.1472052011","","0.3953591144","","","","","","",""
"116","","bandit","272","733108","0.0-234.0-0.0","17533608","wem/bandit_single","A1UY2W2FL9CWN","gain","3","","75","K","2","","0","0","1","0.09357285733","","false","197","0.03515804352","","main_expt","0.3703437648","","0.09357285733","","0.4186523265","","","","","","",""
"219","","bandit","273","735094","0.0-235.0-0.0","17533608","wem/bandit_single","A1UY2W2FL9CWN","gain","3","","75","K","2","","0","0","1","0.1466532231","","false","198","0.0474911349","","main_expt","0.3269028648","","0.1466532231","","0.4334783576","","","","","","",""
"367","","bandit","274","737228","0.0-236.0-0.0","17533608","wem/bandit_single","A1UY2W2FL9CWN","gain","3","","75","K","2","","1","0","0","0.1745555733","","false","199","0.04758635843","","main_expt","0.2972028605","","0.1745555733","","0.452916177","","","","","","",""
"398","","bandit","275","739393","0.0-237.0-0.0","17533608","wem/bandit_single","A1UY2W2FL9CWN","gain","3","","75","K","2","","0","0","1","0.1496088854","","false","200","0.06637193447","","main_expt","0.2548635421","","0.1496088854","","0.4652130485","","","","","","",""
"603","","bandit","276","741762","0.0-238.0-0.0","17533608","wem/bandit_single","A1UY2W2FL9CWN","gain","3","","74","J","1","","1","0","0","0.2360204523","","false","201","0.03961336895","","main_expt","0.2360204523","","0.1144678821","","0.4544628945","","","","","","",""
"914","","bandit","277","744440","0.0-239.0-0.0","17533608","wem/bandit_single","A1UY2W2FL9CWN","gain","3","","74","J","1","","0","0","1","0.1847208139","","false","202","0.04217273593","","main_expt","0.1847208139","","0.08314182588","","0.4346785174","","","","","","",""
"998","","bandit","278","747202","0.0-240.0-0.0","17533608","wem/bandit_single","A1UY2W2FL9CWN","gain","3","","74","J","1","","0","0","1","0.1740418795","","false","203","0.03601881868","","main_expt","0.1740418795","","0.1008304514","","0.4340895374","","","","","","",""
"1527","","bandit","279","750495","0.0-241.0-0.0","17533608","wem/bandit_single","A1UY2W2FL9CWN","gain","3","","74","J","1","","0","0","1","0.1469060572","","false","204","0.04663301139","","main_expt","0.1469060572","","0.1170364225","","0.4398780919","","","","","","",""
"1393","","bandit","280","753653","0.0-242.0-0.0","17533608","wem/bandit_single","A1UY2W2FL9CWN","gain","3","","74","J","1","","0","0","1","0.1162446513","","false","205","0.04643109282","","main_expt","0.1162446513","","0.1228414706","","0.4001316318","","","","","","",""
"918","","bandit","281","756339","0.0-243.0-0.0","17533608","wem/bandit_single","A1UY2W2FL9CWN","gain","3","","74","J","1","","0","0","1","0.1289033918","","false","206","0.06886832812","","main_expt","0.1289033918","","0.1574749647","","0.4347617828","","","","","","",""
"178","","bandit","282","758280","0.0-244.0-0.0","17533608","wem/bandit_single","A1UY2W2FL9CWN","gain","3","","74","J","1","","0","0","1","0.1261822501","","false","207","0.0600143171","","main_expt","0.1261822501","","0.1922173773","","0.4383015813","","","","","","",""
"58","","bandit","283","760105","0.0-245.0-0.0","17533608","wem/bandit_single","A1UY2W2FL9CWN","gain","3","","75","K","2","","0","0","1","0.1673160211","","false","208","0.04637571639","","main_expt","0.1024795668","","0.1673160211","","0.4038237536","","","","","","",""
"60","","bandit","284","761932","0.0-246.0-0.0","17533608","wem/bandit_single","A1UY2W2FL9CWN","gain","3","","74","J","1","","0","0","1","0.1129838087","","false","209","0.04040360689","","main_expt","0.1129838087","","0.1269527993","","0.3890753365","","","","","","",""
"164","","bandit","285","763861","0.0-247.0-0.0","17533608","wem/bandit_single","A1UY2W2FL9CWN","gain","3","","75","K","2","","0","0","1","0.1114377498","","false","210","0.02069644656","","main_expt","0.1562804612","","0.1114377498","","0.3792373644","","","","","","",""
"44","","bandit","286","765671","0.0-248.0-0.0","17533608","wem/bandit_single","A1UY2W2FL9CWN","gain","3","","75","K","2","","0","0","1","0.1155820846","","false","211","0.03173395488","","main_expt","0.1363837251","","0.1155820846","","0.3780611868","","","","","","",""
"547","","bandit","287","767981","0.0-249.0-0.0","17533608","wem/bandit_single","A1UY2W2FL9CWN","gain","3","","72","H","0","img/none_selected.jpg","0","0","1","0.02469601981","","false","212","0.02469601981","","main_expt","0.09358237554","","0.1553323518","","0.3483689532","","","","","","",""
"59","","bandit","288","769806","0.0-250.0-0.0","17533608","wem/bandit_single","A1UY2W2FL9CWN","gain","3","","72","H","0","img/none_selected.jpg","0","0","1","0.04258417901","","false","213","0.04258417901","","main_expt","0.05743859841","","0.2062901667","","0.2874103991","","","","","","",""
"176","","bandit","289","771749","0.0-251.0-0.0","17533608","wem/bandit_single","A1UY2W2FL9CWN","gain","3","","72","H","0","img/none_selected.jpg","0","0","1","0.05493755721","","false","214","0.05493755721","","main_expt","0.05800100084","","0.2076956631","","0.2620706088","","","","","","",""
"38","","bandit","290","773551","0.0-252.0-0.0","17533608","wem/bandit_single","A1UY2W2FL9CWN","gain","3","","72","H","0","img/none_selected.jpg","0","0","1","0.08978059799","","false","215","0.08978059799","","main_expt","0.05413405856","","0.2609492508","","0.2855520155","","","","","","",""
"6","","bandit","291","775324","0.0-253.0-0.0","17533608","wem/bandit_single","A1UY2W2FL9CWN","gain","3","","74","J","1","","0","0","1","0.03942357166","","false","216","0.09809121306","","main_expt","0.03942357166","","0.2500101786","","0.2916786734","","","","","","",""
"59","","bandit","292","777150","0.0-254.0-0.0","17533608","wem/bandit_single","A1UY2W2FL9CWN","gain","3","","74","J","1","","0","0","1","0.03801572204","","false","217","0.1427848958","","main_expt","0.03801572204","","0.2748248586","","0.2823685681","","","","","","",""
"578","","bandit","293","779495","0.0-255.0-0.0","17533608","wem/bandit_single","A1UY2W2FL9CWN","gain","3","","74","J","1","","0","0","1","0.03890441123","","false","218","0.1570322525","","main_expt","0.03890441123","","0.311954441","","0.2423520158","","","","","","",""
"27","","bandit","294","781288","0.0-256.0-0.0","17533608","wem/bandit_single","A1UY2W2FL9CWN","gain","3","","75","K","2","","1","0","0","0.3632760336","","false","219","0.1805036953","","main_expt","0.01887456362","","0.3632760336","","0.2949403562","","","","","","",""
"749","","bandit","295","783805","0.0-257.0-0.0","17533608","wem/bandit_single","A1UY2W2FL9CWN","gain","3","","75","K","2","","1","0","0","0.3369908474","","false","220","0.1305519061","","main_expt","0.02149820142","","0.3369908474","","0.3123592507","","","","","","",""
"215","","bandit","296","785785","0.0-258.0-0.0","17533608","wem/bandit_single","A1UY2W2FL9CWN","gain","3","","75","K","2","","0","0","1","0.3047504054","","false","221","0.09039333473","","main_expt","0.03528878979","","0.3047504054","","0.3184432139","","","","","","",""
"241","","bandit","297","787795","0.0-259.0-0.0","17533608","wem/bandit_single","A1UY2W2FL9CWN","gain","3","","75","K","2","","0","0","1","0.3107799438","","false","222","0.0801847008","","main_expt","0.03906528797","","0.3107799438","","0.3596246423","","","","","","",""
"48","","bandit","298","789612","0.0-260.0-0.0","17533608","wem/bandit_single","A1UY2W2FL9CWN","gain","3","","75","K","2","","0","0","1","0.3359374044","","false","223","0.08930296305","","main_expt","0.04285152396","","0.3359374044","","0.3048299186","","","","","","",""
"1415","","bandit","299","792794","0.0-261.0-0.0","17533608","wem/bandit_single","A1UY2W2FL9CWN","gain","3","","75","K","2","","1","0","0","0.354776332","","false","224","0.0783544472","","main_expt","0.03308098724","","0.354776332","","0.3097637171","","","","","","",""
"1059","","bandit","300","795621","0.0-262.0-0.0","17533608","wem/bandit_single","A1UY2W2FL9CWN","gain","3","","75","K","2","","1","0","0","0.3747964846","","false","225","0.05733223117","","main_expt","0.03318257961","","0.3747964846","","0.3313621339","","","","","","",""
"158","","bandit","301","797543","0.0-263.0-0.0","17533608","wem/bandit_single","A1UY2W2FL9CWN","gain","3","","75","K","2","","0","0","1","0.3530330239","","false","226","0.09472546141","","main_expt","0.02568716964","","0.3530330239","","0.2611013425","","","","","","",""
"1013","","bandit","302","800325","0.0-264.0-0.0","17533608","wem/bandit_single","A1UY2W2FL9CWN","gain","3","","75","K","2","","1","0","0","0.3299445106","","false","227","0.08353253247","","main_expt","0.03534330031","","0.3299445106","","0.2761398934","","","","","","",""
"515","","bandit","303","802605","0.0-265.0-0.0","17533608","wem/bandit_single","A1UY2W2FL9CWN","gain","3","","75","K","2","","0","0","1","0.3286020352","","false","228","0.06220105415","","main_expt","0.03702628412","","0.3286020352","","0.2358148364","","","","","","",""
"244","","bandit","304","804615","0.0-266.0-0.0","17533608","wem/bandit_single","A1UY2W2FL9CWN","gain","3","","75","K","2","","1","0","0","0.3178943429","","false","229","0.06639782905","","main_expt","0.03077125553","","0.3178943429","","0.2091128555","","","","","","",""
"1635","","bandit","305","808015","0.0-267.0-0.0","17533608","wem/bandit_single","A1UY2W2FL9CWN","gain","3","","75","K","2","","1","0","0","0.3254915512","","false","230","0.07029464087","","main_expt","0.03752036101","","0.3254915512","","0.181986641","","","","","","",""
"3768","","bandit","306","813551","0.0-268.0-0.0","17533608","wem/bandit_single","A1UY2W2FL9CWN","gain","3","","75","K","2","","1","0","0","0.3298497064","","false","231","0.07612781315","","main_expt","0.02736090244","","0.3298497064","","0.1599443191","","","","","","",""
"387","","bandit","307","815705","0.0-269.0-0.0","17533608","wem/bandit_single","A1UY2W2FL9CWN","gain","3","","75","K","2","","0","0","1","0.300331178","","false","232","0.04325191911","","main_expt","0.02154887034","","0.300331178","","0.125214013","","","","","","",""
"2487","","bandit","308","819960","0.0-270.0-0.0","17533608","wem/bandit_single","A1UY2W2FL9CWN","gain","3","","75","K","2","","1","0","0","0.3357562734","","false","233","0.04039924652","","main_expt","0.0228348974","","0.3357562734","","0.134118517","","","","","","",""
"118","","bandit","309","821840","0.0-271.0-0.0","17533608","wem/bandit_single","A1UY2W2FL9CWN","gain","3","","75","K","2","","0","0","1","0.3257461803","","false","234","0.0435796211","","main_expt","0.01030782054","","0.3257461803","","0.1238594142","","","","","","",""
"231","","bandit","310","823834","0.0-272.0-0.0","17533608","wem/bandit_single","A1UY2W2FL9CWN","gain","3","","75","K","2","","1","0","0","0.3534766227","","false","235","0.02315237623","","main_expt","0.02615737471","","0.3534766227","","0.1141846942","","","","","","",""
"478","","bandit","311","826078","0.0-273.0-0.0","17533608","wem/bandit_single","A1UY2W2FL9CWN","gain","3","","75","K","2","","0","0","1","0.3733068719","","false","236","0.02010779399","","main_expt","0.0224272094","","0.3733068719","","0.1101280349","","","","","","",""
"312","","bandit","312","828156","0.0-274.0-0.0","17533608","wem/bandit_single","A1UY2W2FL9CWN","gain","3","","75","K","2","","1","0","0","0.4105295152","","false","237","0.01796146932","","main_expt","0.02679999918","","0.4105295152","","0.09079266978","","","","","","",""
"65","","bandit","313","829988","0.0-275.0-0.0","17533608","wem/bandit_single","A1UY2W2FL9CWN","gain","3","","75","K","2","","1","0","0","0.4225156592","","false","238","0.0167141813","","main_expt","0.07542988795","","0.4225156592","","0.1365862295","","","","","","",""
"612","","bandit","314","832365","0.0-276.0-0.0","17533608","wem/bandit_single","A1UY2W2FL9CWN","gain","3","","75","K","2","","0","0","1","0.4360895212","","false","239","0.03283355296","","main_expt","0.09772903","","0.4360895212","","0.1846819155","","","","","","",""
"1704","","bandit","315","835835","0.0-277.0-0.0","17533608","wem/bandit_single","A1UY2W2FL9CWN","gain","3","","75","K","2","","0","0","1","0.423514393","","false","240","0.05325110434","","main_expt","0.1044145256","","0.423514393","","0.1795044078","","","","","","",""
"218","","bandit","316","837818","0.0-278.0-0.0","17533608","wem/bandit_single","A1UY2W2FL9CWN","gain","3","","75","K","2","","0","0","1","0.3824942702","","false","241","0.04551940083","","main_expt","0.109937241","","0.3824942702","","0.1522343712","","","","","","",""
"460","","bandit","317","840043","0.0-279.0-0.0","17533608","wem/bandit_single","A1UY2W2FL9CWN","gain","3","","74","J","1","","0","0","1","0.09239004846","","false","242","0.05503183359","","main_expt","0.09239004846","","0.3758562762","","0.1433696576","","","","","","",""
"1462","","bandit","318","843271","0.0-280.0-0.0","17533608","wem/bandit_single","A1UY2W2FL9CWN","gain","3","","74","J","1","","0","0","1","0.1014218366","","false","243","0.04467871076","","main_expt","0.1014218366","","0.2984655584","","0.1427577162","","","","","","",""
"601","","bandit","319","845638","0.0-281.0-0.0","17533608","wem/bandit_single","A1UY2W2FL9CWN","gain","3","","74","J","1","","0","0","1","0.192841162","","false","244","0.06552455376","","main_expt","0.192841162","","0.2901672904","","0.1340795621","","","","","","",""
"96","","bandit","320","847498","0.0-282.0-0.0","17533608","wem/bandit_single","A1UY2W2FL9CWN","gain","3","","76","L","3","","0","0","1","0.1469719784","","false","245","0.1005127954","","main_expt","0.1953250812","","0.2495050599","","0.1469719784","","","","","","",""
"626","","bandit","321","849889","0.0-283.0-0.0","17533608","wem/bandit_single","A1UY2W2FL9CWN","gain","3","","76","L","3","","0","0","1","0.140914489","","false","246","0.11534406","","main_expt","0.1865380945","","0.2406773486","","0.140914489","","","","","","",""
"596","","bandit","322","852251","0.0-284.0-0.0","17533608","wem/bandit_single","A1UY2W2FL9CWN","gain","3","","76","L","3","","0","0","1","0.1592666071","","false","247","0.08579934652","","main_expt","0.221100819","","0.2265306157","","0.1592666071","","","","","","",""
"15697","","bandit","323","869716","0.0-285.0-0.0","17533608","wem/bandit_single","A1UY2W2FL9CWN","gain","3","","74","J","1","","0","0","1","0.2106100544","","false","248","0.08554071629","","main_expt","0.2106100544","","0.2000380921","","0.2210893918","","","","","","",""
"797","","bandit","324","872277","0.0-286.0-0.0","17533608","wem/bandit_single","A1UY2W2FL9CWN","gain","3","","75","K","2","","0","0","1","0.1920984986","","false","249","0.07137080198","","main_expt","0.2172535859","","0.1920984986","","0.2306666851","","","","","","",""
"1279","","bandit","325","875322","0.0-287.0-0.0","17533608","wem/bandit_single","A1UY2W2FL9CWN","gain","3","","76","L","3","","0","0","1","0.2422322172","","false","250","0.06874505311","","main_expt","0.1953648199","","0.1624135027","","0.2422322172","","","","","","",""
"206","","bandit","326","877294","0.0-288.0-0.0","17533608","wem/bandit_single","A1UY2W2FL9CWN","gain","3","","76","L","3","","0","0","1","0.2425189851","","false","251","0.04927492375","","main_expt","0.2129795833","","0.2057369507","","0.2425189851","","","","","","",""
"80","","bandit","327","879144","0.0-289.0-0.0","17533608","wem/bandit_single","A1UY2W2FL9CWN","gain","3","","75","K","2","","0","0","1","0.26034901","","false","252","0.0504542679","","main_expt","0.2271134102","","0.26034901","","0.1980379423","","","","","","",""
"768","","bandit","328","881676","0.0-290.0-0.0","17533608","wem/bandit_single","A1UY2W2FL9CWN","gain","3","","76","L","3","","1","0","0","0.2040952335","","false","253","0.0313618618","","main_expt","0.2152809257","","0.1886300366","","0.2040952335","","","","","","",""
"41","","bandit","329","883488","0.0-291.0-0.0","17533608","wem/bandit_single","A1UY2W2FL9CWN","gain","3","","76","L","3","","0","0","1","0.1621407843","","false","254","0.0191685034","","main_expt","0.2065685424","","0.1978078828","","0.1621407843","","","","","","",""
"46","","bandit","330","885301","0.0-292.0-0.0","17533608","wem/bandit_single","A1UY2W2FL9CWN","gain","3","","76","L","3","","0","0","1","0.1817956319","","false","255","0.01882474885","","main_expt","0.2000715388","","0.1544468143","","0.1817956319","","","","","","",""
"91","","bandit","331","887160","0.0-293.0-0.0","17533608","wem/bandit_single","A1UY2W2FL9CWN","gain","3","","76","L","3","","1","0","0","0.1796151025","","false","256","0.01765542058","","main_expt","0.1997851389","","0.1552120094","","0.1796151025","","","","","","",""
"86","","bandit","332","889014","0.0-294.0-0.0","17533608","wem/bandit_single","A1UY2W2FL9CWN","gain","3","","76","L","3","","0","0","1","0.1874922979","","false","257","0.0162265086","","main_expt","0.1965173465","","0.1337291471","","0.1874922979","","","","","","",""
"983","","bandit","333","891763","0.0-295.0-0.0","17533608","wem/bandit_single","A1UY2W2FL9CWN","gain","3","","76","L","3","","0","0","1","0.2152410464","","false","258","0.01630278654","","main_expt","0.1816932188","","0.1279332347","","0.2152410464","","","","","","",""
"54","","bandit","334","893586","0.0-296.0-0.0","17533608","wem/bandit_single","A1UY2W2FL9CWN","gain","3","","76","L","3","","0","0","1","0.2311433436","","false","259","0.0149919991","","main_expt","0.2275026539","","0.152418206","","0.2311433436","","","","","","",""
"25","","bandit","335","895380","0.0-297.0-0.0","17533608","wem/bandit_single","A1UY2W2FL9CWN","gain","3","","72","H","0","img/none_selected.jpg","0","0","1","0.02225913397","","false","260","0.02225913397","","main_expt","0.1798156178","","0.1100328583","","0.1621257941","","","","","","",""
"849","","bandit","336","897994","0.0-298.0-0.0","17533608","wem/bandit_single","A1UY2W2FL9CWN","gain","3","","72","H","0","img/none_selected.jpg","0","0","1","0.02865634389","","false","261","0.02865634389","","main_expt","0.187122726","","0.1537012171","","0.1219102136","","","","","","",""
"328","","bandit","337","900087","0.0-299.0-0.0","17533608","wem/bandit_single","A1UY2W2FL9CWN","gain","3","","74","J","1","","0","0","1","0.1507521212","","false","262","0.03173788073","","main_expt","0.1507521212","","0.1302597035","","0.1667536199","","","","","","",""
"17","","bandit","338","901872","0.0-300.0-0.0","17533608","wem/bandit_single","A1UY2W2FL9CWN","gain","3","","74","J","1","","0","0","1","0.1374951011","","false","263","0.04250990858","","main_expt","0.1374951011","","0.1297736826","","0.1361259709","","","","","","",""
"415","","bandit","339","904054","0.0-301.0-0.0","17533608","wem/bandit_single","A1UY2W2FL9CWN","gain","3","","74","J","1","","0","0","1","0.1158818852","","false","264","0.056503948","","main_expt","0.1158818852","","0.1326654045","","0.1217381733","","","","","","",""
"384","","bandit","340","906203","0.0-302.0-0.0","17533608","wem/bandit_single","A1UY2W2FL9CWN","gain","3","","75","K","2","","0","0","1","0.1586413096","","false","265","0.07592662832","","main_expt","0.1147359408","","0.1586413096","","0.1258265959","","","","","","",""
"492","","bandit","341","908463","0.0-303.0-0.0","17533608","wem/bandit_single","A1UY2W2FL9CWN","gain","3","","75","K","2","","0","0","1","0.1496521415","","false","266","0.1002340293","","main_expt","0.09491002089","","0.1496521415","","0.1445769791","","","","","","",""
"1070","","bandit","342","911302","0.0-304.0-0.0","17533608","wem/bandit_single","A1UY2W2FL9CWN","gain","3","","75","K","2","","0","0","1","0.1410052581","","false","267","0.1526998269","","main_expt","0.1181284109","","0.1410052581","","0.1014120844","","","","","","",""
"392","","bandit","343","913462","0.0-305.0-0.0","17533608","wem/bandit_single","A1UY2W2FL9CWN","gain","3","","75","K","2","","0","0","1","0.145208313","","false","268","0.1340815566","","main_expt","0.1054434992","","0.145208313","","0.06386630904","","","","","","",""
"604","","bandit","344","915833","0.0-306.0-0.0","17533608","wem/bandit_single","A1UY2W2FL9CWN","gain","3","","76","L","3","","0","0","1","0.03725778621","","false","269","0.1350059692","","main_expt","0.1307900039","","0.1387339362","","0.03725778621","","","","","","",""
"8","","bandit","345","917608","0.0-307.0-0.0","17533608","wem/bandit_single","A1UY2W2FL9CWN","gain","3","","76","L","3","","0","0","1","0.02825676517","","false","270","0.1008257698","","main_expt","0.1444746669","","0.1822325734","","0.02825676517","","","","","","",""
"116","","bandit","346","919488","0.0-308.0-0.0","17533608","wem/bandit_single","A1UY2W2FL9CWN","gain","3","","76","L","3","","0","0","1","0.02967844624","","false","271","0.1257425884","","main_expt","0.1622504114","","0.1752825828","","0.02967844624","","","","","","",""
"123","","bandit","347","921377","0.0-309.0-0.0","17533608","wem/bandit_single","A1UY2W2FL9CWN","gain","3","","72","H","0","img/none_selected.jpg","0","0","1","0.1363444874","","false","272","0.1363444874","","main_expt","0.1814673171","","0.1572277832","","0.03051557875","","","","","","",""
"358","","bandit","348","923502","0.0-310.0-0.0","17533608","wem/bandit_single","A1UY2W2FL9CWN","gain","3","","72","H","0","img/none_selected.jpg","0","0","1","0.1090842693","","false","273","0.1090842693","","main_expt","0.1930303076","","0.1609880977","","0.0408401102","","","","","","",""
"861","","bandit","349","926127","0.0-311.0-0.0","17533608","wem/bandit_single","A1UY2W2FL9CWN","gain","3","","72","H","0","img/none_selected.jpg","0","0","1","0.1397265487","","false","274","0.1397265487","","main_expt","0.1704680895","","0.2228580822","","0.03240614182","","","","","","",""
"482","","bandit","350","928376","0.0-312.0-0.0","17533608","wem/bandit_single","A1UY2W2FL9CWN","gain","3","","72","H","0","img/none_selected.jpg","0","0","1","0.210641606","","false","275","0.210641606","","main_expt","0.1785534293","","0.2126640298","","0.04120982645","","","","","","",""
"180","","bandit","351","930325","0.0-313.0-0.0","17533608","wem/bandit_single","A1UY2W2FL9CWN","gain","3","","74","J","1","","1","0","0","0.1843971019","","false","276","0.1523626192","","main_expt","0.1843971019","","0.2006548762","","0.04353307789","","","","","","",""
"96","","bandit","352","932190","0.0-314.0-0.0","17533608","wem/bandit_single","A1UY2W2FL9CWN","gain","3","","74","J","1","","0","0","1","0.2042268453","","false","277","0.16102954","","main_expt","0.2042268453","","0.1986275587","","0.0172565486","","","","","","",""
"118","","bandit","353","934075","0.0-315.0-0.0","17533608","wem/bandit_single","A1UY2W2FL9CWN","gain","3","","74","J","1","","0","0","1","0.1609113936","","false","278","0.1166001048","","main_expt","0.1609113936","","0.1321506531","","0.02582715814","","","","","","",""
"387","","bandit","354","936227","0.0-316.0-0.0","17533608","wem/bandit_single","A1UY2W2FL9CWN","gain","3","","74","J","1","","0","0","1","0.1604878733","","false","279","0.1427402012","","main_expt","0.1604878733","","0.2112193978","","0.03609925784","","","","","","",""
"573","","bandit","355","938565","0.0-317.0-0.0","17533608","wem/bandit_single","A1UY2W2FL9CWN","gain","3","","74","J","1","","0","0","1","0.1678567182","","false","280","0.1524149458","","main_expt","0.1678567182","","0.1872216356","","0.02629944548","","","","","","",""
"19","","bandit","356","940353","0.0-318.0-0.0","17533608","wem/bandit_single","A1UY2W2FL9CWN","gain","3","","75","K","2","","0","0","1","0.1635487084","","false","281","0.1638207856","","main_expt","0.1338700362","","0.1635487084","","0.01890368782","","","","","","",""
"322","","bandit","357","942441","0.0-319.0-0.0","17533608","wem/bandit_single","A1UY2W2FL9CWN","gain","3","","75","K","2","","0","0","1","0.1576359327","","false","282","0.1055747009","","main_expt","0.2010661714","","0.1576359327","","0.01508823693","","","","","","",""
"788","","bandit","358","944998","0.0-320.0-0.0","17533608","wem/bandit_single","A1UY2W2FL9CWN","gain","3","","76","L","3","","0","0","1","0.01359220223","","false","283","0.1121395768","","main_expt","0.1763159594","","0.21861051","","0.01359220223","","","","","","",""
"144","","bandit","359","946909","0.0-321.0-0.0","17533608","wem/bandit_single","A1UY2W2FL9CWN","gain","3","","76","L","3","","1","0","0","0.01691173417","","false","284","0.1110051372","","main_expt","0.2379754842","","0.180487154","","0.01691173417","","","","","","",""
"421","","bandit","360","949096","0.0-322.0-0.0","17533608","wem/bandit_single","A1UY2W2FL9CWN","gain","3","","76","L","3","","0","0","1","0.01734240677","","false","285","0.1746572204","","main_expt","0.2769670592","","0.1641106304","","0.01734240677","","","","","","",""
"400","","bandit","361","951261","0.0-323.0-0.0","17533608","wem/bandit_single","A1UY2W2FL9CWN","gain","3","","76","L","3","","0","0","1","0.01574531315","","false","286","0.2038956484","","main_expt","0.3002963297","","0.1866508097","","0.01574531315","","","","","","",""
"451","","bandit","362","953479","0.0-324.0-0.0","17533608","wem/bandit_single","A1UY2W2FL9CWN","gain","3","","76","L","3","","0","0","1","0.011703364","","false","287","0.2396876396","","main_expt","0.2804215723","","0.1339791425","","0.011703364","","","","","","",""
"1704","","bandit","363","956951","0.0-325.0-0.0","17533608","wem/bandit_single","A1UY2W2FL9CWN","gain","3","","76","L","3","","0","0","1","0.01499165326","","false","288","0.2300823482","","main_expt","0.2873948651","","0.1910191906","","0.01499165326","","","","","","",""
"302","","bandit","364","959017","0.0-326.0-0.0","17533608","wem/bandit_single","A1UY2W2FL9CWN","gain","3","","76","L","3","","0","0","1","0.01307353483","","false","289","0.2697946193","","main_expt","0.3383825142","","0.1987886011","","0.01307353483","","","","","","",""
"194","","bandit","365","960978","0.0-327.0-0.0","17533608","wem/bandit_single","A1UY2W2FL9CWN","gain","3","","75","K","2","","0","0","1","0.2163493667","","false","290","0.3030113395","","main_expt","0.3597664772","","0.2163493667","","0.005839555229","","","","","","",""
"22","","bandit","366","962768","0.0-328.0-0.0","17533608","wem/bandit_single","A1UY2W2FL9CWN","gain","3","","75","K","2","","0","0","1","0.1987756658","","false","291","0.2903670118","","main_expt","0.3684517111","","0.1987756658","","0.00760433752","","","","","","",""
"149","","bandit","367","964687","0.0-329.0-0.0","17533608","wem/bandit_single","A1UY2W2FL9CWN","gain","3","","75","K","2","","0","0","1","0.1996771378","","false","292","0.3219279298","","main_expt","0.3471931258","","0.1996771378","","0.01807310376","","","","","","",""
"221","","bandit","368","966678","0.0-330.0-0.0","17533608","wem/bandit_single","A1UY2W2FL9CWN","gain","3","","75","K","2","","1","0","0","0.2067525645","","false","293","0.2585416619","","main_expt","0.3742872252","","0.2067525645","","0.02882206876","","","","","","",""
"121","","bandit","369","968564","0.0-331.0-0.0","17533608","wem/bandit_single","A1UY2W2FL9CWN","gain","3","","75","K","2","","0","0","1","0.230585761","","false","294","0.3093607287","","main_expt","0.3937541296","","0.230585761","","0.02728804169","","","","","","",""
"979","","bandit","370","971306","0.0-332.0-0.0","17533608","wem/bandit_single","A1UY2W2FL9CWN","gain","3","","75","K","2","","0","0","1","0.1936278336","","false","295","0.315069057","","main_expt","0.3331550888","","0.1936278336","","0.01545304162","","","","","","",""
"2866","","bandit","371","975939","0.0-333.0-0.0","17533608","wem/bandit_single","A1UY2W2FL9CWN","gain","3","","75","K","2","","0","0","1","0.1733248866","","false","296","0.3556215031","","main_expt","0.3564327955","","0.1733248866","","0.01463146341","","","","","","",""
"478","","bandit","372","978185","0.0-334.0-0.0","17533608","wem/bandit_single","A1UY2W2FL9CWN","gain","3","","74","J","1","","0","0","1","0.3344242189","","false","297","0.3380436511","","main_expt","0.3344242189","","0.1762096585","","0.03487584845","","","","","","",""
"351","","bandit","373","980303","0.0-335.0-0.0","17533608","wem/bandit_single","A1UY2W2FL9CWN","gain","3","","74","J","1","","0","0","1","0.3434582948","","false","298","0.347815101","","main_expt","0.3434582948","","0.176801175","","0.04917346329","","","","","","",""
"187","","bandit","374","982259","0.0-336.0-0.0","17533608","wem/bandit_single","A1UY2W2FL9CWN","gain","3","","74","J","1","","0","0","1","0.3432424117","","false","299","0.3608262918","","main_expt","0.3432424117","","0.1784780758","","0.05764452585","","","","","","",""
