"rt","responses","trial_type","trial_index","time_elapsed","internal_node_id","subjID","study","MID","cond","drift","key_press","respCharCode","respKey","respChoiceNum","respChoice","gems","bombs","no_reward","GemPrChosen","BombPrChosen","practice","trial_counter","WinPr_0","LosePr_0","trial_label","WinPr_1","LosePr_1","WinPr_2","LosePr_2","WinPr_3","LosePr_3","Q0","Q1","Q2","gender","age","ethnicity"
"5132","{""Q0"":""A13VIJ7G997ZCY""}","survey-text","0","5138","0.0-0.0","19275182","wem/bandit_single","A13VIJ7G997ZCY","pain","8","","","","","","","","","","","","","","","","","","","","","","","","","","",""
"1831","","text","1","7973","0.0-1.0","19275182","wem/bandit_single","A13VIJ7G997ZCY","pain","8","32","","","","","","","","","","","","","","","","","","","","","","","","","",""
"4749","","text","2","12724","0.0-2.0","19275182","wem/bandit_single","A13VIJ7G997ZCY","pain","8","32","","","","","","","","","","","","","","","","","","","","","","","","","",""
"11952","","text","3","24678","0.0-3.0","19275182","wem/bandit_single","A13VIJ7G997ZCY","pain","8","32","","","","","","","","","","","","","","","","","","","","","","","","","",""
"13022","","text","4","37702","0.0-4.0","19275182","wem/bandit_single","A13VIJ7G997ZCY","pain","8","32","","","","","","","","","","","","","","","","","","","","","","","","","",""
"8460","","text","5","46164","0.0-5.0","19275182","wem/bandit_single","A13VIJ7G997ZCY","pain","8","32","","","","","","","","","","","","","","","","","","","","","","","","","",""
"3777","","text","6","49942","0.0-6.0","19275182","wem/bandit_single","A13VIJ7G997ZCY","pain","8","32","","","","","","","","","","","","","","","","","","","","","","","","","",""
"2630","","text","7","52574","0.0-7.0","19275182","wem/bandit_single","A13VIJ7G997ZCY","pain","8","32","","","","","","","","","","","","","","","","","","","","","","","","","",""
"2196","","text","8","54772","0.0-8.0","19275182","wem/bandit_single","A13VIJ7G997ZCY","pain","8","32","","","","","","","","","","","","","","","","","","","","","","","","","",""
"1535","","text","9","56308","0.0-9.0","19275182","wem/bandit_single","A13VIJ7G997ZCY","pain","8","32","","","","","","","","","","","","","","","","","","","","","","","","","",""
"1679","","text","10","57989","0.0-10.0","19275182","wem/bandit_single","A13VIJ7G997ZCY","pain","8","32","","","","","","","","","","","","","","","","","","","","","","","","","",""
"14613","","text","11","72603","0.0-11.0","19275182","wem/bandit_single","A13VIJ7G997ZCY","pain","8","32","","","","","","","","","","","","","","","","","","","","","","","","","",""
"1590","","bandit","12","75698","0.0-12.0-0.0","19275182","wem/bandit_single","A13VIJ7G997ZCY","pain","8","","74","J","0","img/none_selected_demo.jpg","0","0","1","0","0","true","0","0","0","","","","","","","","","","","","",""
"308","","bandit","13","77762","0.0-13.0-0.0","19275182","wem/bandit_single","A13VIJ7G997ZCY","pain","8","","75","K","0","img/none_selected_demo.jpg","0","0","1","0","0","true","0","0","0","","","","","","","","","","","","",""
"1332","","text","14","79347","0.0-14.0","19275182","wem/bandit_single","A13VIJ7G997ZCY","pain","8","32","","","","","","","","","","","","","","","","","","","","","","","","","",""
"887","","text","15","80235","0.0-15.0","19275182","wem/bandit_single","A13VIJ7G997ZCY","pain","8","32","","","","","","","","","","","","","","","","","","","","","","","","","",""
"1536","","text","16","81772","0.0-16.0","19275182","wem/bandit_single","A13VIJ7G997ZCY","pain","8","32","","","","","","","","","","","","","","","","","","","","","","","","","",""
"2165","","text","17","83939","0.0-17.0","19275182","wem/bandit_single","A13VIJ7G997ZCY","pain","8","32","","","","","","","","","","","","","","","","","","","","","","","","","",""
"558","","bandit","18","86001","0.0-18.0-0.0","19275182","wem/bandit_single","A13VIJ7G997ZCY","pain","8","","74","J","0","img/none_selected_demo.jpg","0","1","0","0","0.8","true","0","0","0.8","80_20_practice","0","0.2","","","","","","","","","",""
"148","","bandit","19","87905","0.0-18.0-1.0","19275182","wem/bandit_single","A13VIJ7G997ZCY","pain","8","","75","K","1","","0","0","1","0","0.2","true","0","0","0.8","80_20_practice","0","0.2","","","","","","","","","",""
"1339","","bandit","20","91001","0.0-18.0-2.0","19275182","wem/bandit_single","A13VIJ7G997ZCY","pain","8","","74","J","0","img/none_selected_demo.jpg","0","0","1","0","0.8","true","0","0","0.8","80_20_practice","0","0.2","","","","","","","","","",""
"373","","bandit","21","93130","0.0-18.0-3.0","19275182","wem/bandit_single","A13VIJ7G997ZCY","pain","8","","75","K","1","","0","0","1","0","0.2","true","0","0","0.8","80_20_practice","0","0.2","","","","","","","","","",""
"53","","bandit","22","94940","0.0-18.0-4.0","19275182","wem/bandit_single","A13VIJ7G997ZCY","pain","8","","74","J","0","img/none_selected_demo.jpg","0","1","0","0","0.8","true","0","0","0.8","80_20_practice","0","0.2","","","","","","","","","",""
"41","","bandit","23","96738","0.0-18.0-5.0","19275182","wem/bandit_single","A13VIJ7G997ZCY","pain","8","","74","J","0","img/none_selected_demo.jpg","0","1","0","0","0.8","true","0","0","0.8","80_20_practice","0","0.2","","","","","","","","","",""
"276","","bandit","24","98770","0.0-18.0-6.0","19275182","wem/bandit_single","A13VIJ7G997ZCY","pain","8","","74","J","0","img/none_selected_demo.jpg","0","1","0","0","0.8","true","0","0","0.8","80_20_practice","0","0.2","","","","","","","","","",""
"99","","bandit","25","100625","0.0-18.0-7.0","19275182","wem/bandit_single","A13VIJ7G997ZCY","pain","8","","74","J","0","img/none_selected_demo.jpg","0","1","0","0","0.8","true","0","0","0.8","80_20_practice","0","0.2","","","","","","","","","",""
"916","","bandit","26","103297","0.0-18.0-8.0","19275182","wem/bandit_single","A13VIJ7G997ZCY","pain","8","","74","J","0","img/none_selected_demo.jpg","0","1","0","0","0.8","true","0","0","0.8","80_20_practice","0","0.2","","","","","","","","","",""
"62","","bandit","27","105115","0.0-18.0-9.0","19275182","wem/bandit_single","A13VIJ7G997ZCY","pain","8","","74","J","0","img/none_selected_demo.jpg","0","0","1","0","0.8","true","0","0","0.8","80_20_practice","0","0.2","","","","","","","","","",""
"754","","bandit","28","107625","0.0-18.0-10.0","19275182","wem/bandit_single","A13VIJ7G997ZCY","pain","8","","74","J","0","img/none_selected_demo.jpg","0","1","0","0","0.8","true","0","0","0.8","80_20_practice","0","0.2","","","","","","","","","",""
"565","","bandit","29","109946","0.0-18.0-11.0","19275182","wem/bandit_single","A13VIJ7G997ZCY","pain","8","","75","K","1","","0","0","1","0","0.2","true","0","0","0.8","80_20_practice","0","0.2","","","","","","","","","",""
"411","","bandit","30","112114","0.0-18.0-12.0","19275182","wem/bandit_single","A13VIJ7G997ZCY","pain","8","","75","K","1","","0","0","1","0","0.2","true","0","0","0.8","80_20_practice","0","0.2","","","","","","","","","",""
"275","","bandit","31","114146","0.0-18.0-13.0","19275182","wem/bandit_single","A13VIJ7G997ZCY","pain","8","","75","K","1","","0","0","1","0","0.2","true","0","0","0.8","80_20_practice","0","0.2","","","","","","","","","",""
"707","","bandit","32","116610","0.0-18.0-14.0","19275182","wem/bandit_single","A13VIJ7G997ZCY","pain","8","","75","K","1","","0","1","0","0","0.2","true","0","0","0.8","80_20_practice","0","0.2","","","","","","","","","",""
"19","","bandit","33","118385","0.0-18.0-15.0","19275182","wem/bandit_single","A13VIJ7G997ZCY","pain","8","","75","K","1","","0","0","1","0","0.2","true","0","0","0.8","80_20_practice","0","0.2","","","","","","","","","",""
"620","","bandit","34","120761","0.0-18.0-16.0","19275182","wem/bandit_single","A13VIJ7G997ZCY","pain","8","","75","K","1","","0","0","1","0","0.2","true","0","0","0.8","80_20_practice","0","0.2","","","","","","","","","",""
"101","","bandit","35","122617","0.0-18.0-17.0","19275182","wem/bandit_single","A13VIJ7G997ZCY","pain","8","","74","J","0","img/none_selected_demo.jpg","0","1","0","0","0.8","true","0","0","0.8","80_20_practice","0","0.2","","","","","","","","","",""
"50","","bandit","36","124425","0.0-18.0-18.0","19275182","wem/bandit_single","A13VIJ7G997ZCY","pain","8","","74","J","0","img/none_selected_demo.jpg","0","1","0","0","0.8","true","0","0","0.8","80_20_practice","0","0.2","","","","","","","","","",""
"555","","bandit","37","126738","0.0-18.0-19.0","19275182","wem/bandit_single","A13VIJ7G997ZCY","pain","8","","74","J","0","img/none_selected_demo.jpg","0","0","1","0","0.8","true","0","0","0.8","80_20_practice","0","0.2","","","","","","","","","",""
"2890","","text","38","129883","0.0-19.0","19275182","wem/bandit_single","A13VIJ7G997ZCY","pain","8","32","","","","","","","","","","","","","","","","","","","","","","","","","",""
"1029","","bandit","39","132417","0.0-20.0-0.0","19275182","wem/bandit_single","A13VIJ7G997ZCY","pain","8","","74","J","0","img/none_selected_demo.jpg","0","0","1","0","0","true","0","0","0","","0","0","","","","","","","","","",""
"3438","","text","40","136109","0.0-21.0","19275182","wem/bandit_single","A13VIJ7G997ZCY","pain","8","32","","","","","","","","","","","","","","","","","","","","","","","","","",""
"4884","","text","41","140994","0.0-22.0","19275182","wem/bandit_single","A13VIJ7G997ZCY","pain","8","32","","","","","","","","","","","","","","","","","","","","","","","","","",""
"1419","","text","42","142416","0.0-23.0","19275182","wem/bandit_single","A13VIJ7G997ZCY","pain","8","32","","","","","","","","","","","","","","","","","","","","","","","","","",""
"2592","","text","43","145011","0.0-24.0","19275182","wem/bandit_single","A13VIJ7G997ZCY","pain","8","32","","","","","","","","","","","","","","","","","","","","","","","","","",""
"7909","","text","44","152922","0.0-25.0","19275182","wem/bandit_single","A13VIJ7G997ZCY","pain","8","32","","","","","","","","","","","","","","","","","","","","","","","","","",""
"1334","","text","45","154259","0.0-26.0","19275182","wem/bandit_single","A13VIJ7G997ZCY","pain","8","32","","","","","","","","","","","","","","","","","","","","","","","","","",""
"3191","","text","46","157451","0.0-27.0","19275182","wem/bandit_single","A13VIJ7G997ZCY","pain","8","32","","","","","","","","","","","","","","","","","","","","","","","","","",""
"1574","","text","47","159027","0.0-28.0","19275182","wem/bandit_single","A13VIJ7G997ZCY","pain","8","32","","","","","","","","","","","","","","","","","","","","","","","","","",""
"1708","","text","48","160738","0.0-29.0","19275182","wem/bandit_single","A13VIJ7G997ZCY","pain","8","32","","","","","","","","","","","","","","","","","","","","","","","","","",""
"2282","","text","49","163022","0.0-30.0","19275182","wem/bandit_single","A13VIJ7G997ZCY","pain","8","32","","","","","","","","","","","","","","","","","","","","","","","","","",""
"1703","","text","50","164727","0.0-31.0","19275182","wem/bandit_single","A13VIJ7G997ZCY","pain","8","32","","","","","","","","","","","","","","","","","","","","","","","","","",""
"1305","","bandit","51","167538","0.0-32.0-0.0","19275182","wem/bandit_single","A13VIJ7G997ZCY","pain","8","","72","H","0","img/none_selected.jpg","0","1","0","0","0.8","true","0","0","0.8","full_practice","0","0.2","0","0.6","0","0.2","","","","","",""
"36","","bandit","52","169329","0.0-32.0-1.0","19275182","wem/bandit_single","A13VIJ7G997ZCY","pain","8","","74","J","1","","0","1","0","0","0.2","true","0","0","0.8","full_practice","0","0.2","0","0.6","0","0.2","","","","","",""
"0","","bandit","53","171115","0.0-32.0-2.0","19275182","wem/bandit_single","A13VIJ7G997ZCY","pain","8","","75","K","2","","0","1","0","0","0.6","true","0","0","0.8","full_practice","0","0.2","0","0.6","0","0.2","","","","","",""
"489","","bandit","54","173363","0.0-32.0-3.0","19275182","wem/bandit_single","A13VIJ7G997ZCY","pain","8","","76","L","3","","0","0","1","0","0.2","true","0","0","0.8","full_practice","0","0.2","0","0.6","0","0.2","","","","","",""
"338","","bandit","55","175457","0.0-32.0-4.0","19275182","wem/bandit_single","A13VIJ7G997ZCY","pain","8","","72","H","0","img/none_selected.jpg","0","1","0","0","0.8","true","0","0","0.8","full_practice","0","0.2","0","0.6","0","0.2","","","","","",""
"14","","bandit","56","177244","0.0-32.0-5.0","19275182","wem/bandit_single","A13VIJ7G997ZCY","pain","8","","74","J","1","","0","1","0","0","0.2","true","0","0","0.8","full_practice","0","0.2","0","0.6","0","0.2","","","","","",""
"7","","bandit","57","179012","0.0-32.0-6.0","19275182","wem/bandit_single","A13VIJ7G997ZCY","pain","8","","75","K","2","","0","1","0","0","0.6","true","0","0","0.8","full_practice","0","0.2","0","0.6","0","0.2","","","","","",""
"27","","bandit","58","180795","0.0-32.0-7.0","19275182","wem/bandit_single","A13VIJ7G997ZCY","pain","8","","72","H","0","img/none_selected.jpg","0","1","0","0","0.8","true","0","0","0.8","full_practice","0","0.2","0","0.6","0","0.2","","","","","",""
"104","","bandit","59","182665","0.0-32.0-8.0","19275182","wem/bandit_single","A13VIJ7G997ZCY","pain","8","","74","J","1","","0","0","1","0","0.2","true","0","0","0.8","full_practice","0","0.2","0","0.6","0","0.2","","","","","",""
"176","","bandit","60","184597","0.0-32.0-9.0","19275182","wem/bandit_single","A13VIJ7G997ZCY","pain","8","","72","H","0","img/none_selected.jpg","0","1","0","0","0.8","true","0","0","0.8","full_practice","0","0.2","0","0.6","0","0.2","","","","","",""
"13","","bandit","61","186368","0.0-32.0-10.0","19275182","wem/bandit_single","A13VIJ7G997ZCY","pain","8","","72","H","0","img/none_selected.jpg","0","1","0","0","0.8","true","0","0","0.8","full_practice","0","0.2","0","0.6","0","0.2","","","","","",""
"22","","bandit","62","188145","0.0-32.0-11.0","19275182","wem/bandit_single","A13VIJ7G997ZCY","pain","8","","72","H","0","img/none_selected.jpg","0","1","0","0","0.8","true","0","0","0.8","full_practice","0","0.2","0","0.6","0","0.2","","","","","",""
"37","","bandit","63","189938","0.0-32.0-12.0","19275182","wem/bandit_single","A13VIJ7G997ZCY","pain","8","","72","H","0","img/none_selected.jpg","0","1","0","0","0.8","true","0","0","0.8","full_practice","0","0.2","0","0.6","0","0.2","","","","","",""
"236","","bandit","64","191930","0.0-32.0-13.0","19275182","wem/bandit_single","A13VIJ7G997ZCY","pain","8","","72","H","0","img/none_selected.jpg","0","1","0","0","0.8","true","0","0","0.8","full_practice","0","0.2","0","0.6","0","0.2","","","","","",""
"35","","bandit","65","193732","0.0-32.0-14.0","19275182","wem/bandit_single","A13VIJ7G997ZCY","pain","8","","72","H","0","img/none_selected.jpg","0","0","1","0","0.8","true","0","0","0.8","full_practice","0","0.2","0","0.6","0","0.2","","","","","",""
"47","","bandit","66","195538","0.0-32.0-15.0","19275182","wem/bandit_single","A13VIJ7G997ZCY","pain","8","","75","K","2","","0","1","0","0","0.6","true","0","0","0.8","full_practice","0","0.2","0","0.6","0","0.2","","","","","",""
"618","","bandit","67","197915","0.0-32.0-16.0","19275182","wem/bandit_single","A13VIJ7G997ZCY","pain","8","","75","K","2","","0","1","0","0","0.6","true","0","0","0.8","full_practice","0","0.2","0","0.6","0","0.2","","","","","",""
"10","","bandit","68","199685","0.0-32.0-17.0","19275182","wem/bandit_single","A13VIJ7G997ZCY","pain","8","","75","K","2","","0","0","1","0","0.6","true","0","0","0.8","full_practice","0","0.2","0","0.6","0","0.2","","","","","",""
"135","","bandit","69","201580","0.0-32.0-18.0","19275182","wem/bandit_single","A13VIJ7G997ZCY","pain","8","","75","K","2","","0","0","1","0","0.6","true","0","0","0.8","full_practice","0","0.2","0","0.6","0","0.2","","","","","",""
"8","","bandit","70","203348","0.0-32.0-19.0","19275182","wem/bandit_single","A13VIJ7G997ZCY","pain","8","","72","H","0","img/none_selected.jpg","0","0","1","0","0.8","true","0","0","0.8","full_practice","0","0.2","0","0.6","0","0.2","","","","","",""
"1317","","text","71","204924","0.0-33.0","19275182","wem/bandit_single","A13VIJ7G997ZCY","pain","8","32","","","","","","","","","","","","","","","","","","","","","","","","","",""
"6422","","text","72","212349","0.0-34.0","19275182","wem/bandit_single","A13VIJ7G997ZCY","pain","8","32","","","","","","","","","","","","","","","","","","","","","","","","","",""
"4404","","text","73","216756","0.0-35.0","19275182","wem/bandit_single","A13VIJ7G997ZCY","pain","8","32","","","","","","","","","","","","","","","","","","","","","","","","","",""
"4557","","text","74","221316","0.0-36.0","19275182","wem/bandit_single","A13VIJ7G997ZCY","pain","8","32","","","","","","","","","","","","","","","","","","","","","","","","","",""
"3864","","text","75","225182","0.0-37.0","19275182","wem/bandit_single","A13VIJ7G997ZCY","pain","8","32","","","","","","","","","","","","","","","","","","","","","","","","","",""
"674","","bandit","76","227362","0.0-38.0-0.0","19275182","wem/bandit_single","A13VIJ7G997ZCY","pain","8","","72","H","0","img/none_selected.jpg","0","0","1","","0.2726752288","false","1","","0.2726752288","main_expt","","0.461186604","","0.4519399214","","0.2895646149","","","","","",""
"58","","bandit","77","229179","0.0-39.0-0.0","19275182","wem/bandit_single","A13VIJ7G997ZCY","pain","8","","74","J","1","","0","0","1","","0.4745384616","false","2","","0.2373300031","main_expt","","0.4745384616","","0.4414774062","","0.3162770887","","","","","",""
"594","","bandit","78","231537","0.0-40.0-0.0","19275182","wem/bandit_single","A13VIJ7G997ZCY","pain","8","","75","K","2","","0","0","1","","0.4248782664","false","3","","0.2268539811","main_expt","","0.476270309","","0.4248782664","","0.3445892231","","","","","",""
"268","","bandit","79","233563","0.0-41.0-0.0","19275182","wem/bandit_single","A13VIJ7G997ZCY","pain","8","","76","L","3","","0","1","0","","0.318720175","false","4","","0.2312911009","main_expt","","0.4750198572","","0.3797460064","","0.318720175","","","","","",""
"24","","bandit","80","235346","0.0-42.0-0.0","19275182","wem/bandit_single","A13VIJ7G997ZCY","pain","8","","76","L","3","","0","1","0","","0.2768356494","false","5","","0.1875260819","main_expt","","0.4711191004","","0.3747955817","","0.2768356494","","","","","",""
"729","","bandit","81","237834","0.0-43.0-0.0","19275182","wem/bandit_single","A13VIJ7G997ZCY","pain","8","","76","L","3","","0","1","0","","0.2660169375","false","6","","0.190272436","main_expt","","0.4561500297","","0.3434652127","","0.2660169375","","","","","",""
"362","","bandit","82","239953","0.0-44.0-0.0","19275182","wem/bandit_single","A13VIJ7G997ZCY","pain","8","","76","L","3","","0","1","0","","0.3364590491","false","7","","0.1912500229","main_expt","","0.4549462182","","0.3450192323","","0.3364590491","","","","","",""
"123","","bandit","83","241833","0.0-45.0-0.0","19275182","wem/bandit_single","A13VIJ7G997ZCY","pain","8","","76","L","3","","0","1","0","","0.2814314702","false","8","","0.2317086102","main_expt","","0.4738433377","","0.3319287687","","0.2814314702","","","","","",""
"60","","bandit","84","243649","0.0-46.0-0.0","19275182","wem/bandit_single","A13VIJ7G997ZCY","pain","8","","76","L","3","","0","0","1","","0.172204453","false","9","","0.2732709622","main_expt","","0.4719526371","","0.3592879842","","0.172204453","","","","","",""
"92","","bandit","85","245497","0.0-47.0-0.0","19275182","wem/bandit_single","A13VIJ7G997ZCY","pain","8","","76","L","3","","0","0","1","","0.1714760066","false","10","","0.2369361721","main_expt","","0.4102917743","","0.4119036765","","0.1714760066","","","","","",""
"66","","bandit","86","247323","0.0-48.0-0.0","19275182","wem/bandit_single","A13VIJ7G997ZCY","pain","8","","75","K","2","","0","0","1","","0.440335537","false","11","","0.2428480584","main_expt","","0.4247485268","","0.440335537","","0.1477319919","","","","","",""
"624","","bandit","87","249717","0.0-49.0-0.0","19275182","wem/bandit_single","A13VIJ7G997ZCY","pain","8","","74","J","1","","0","0","1","","0.3805001106","false","12","","0.3127978045","main_expt","","0.3805001106","","0.4198069009","","0.1195530135","","","","","",""
"136","","bandit","88","251611","0.0-50.0-0.0","19275182","wem/bandit_single","A13VIJ7G997ZCY","pain","8","","72","H","0","img/none_selected.jpg","0","1","0","","0.3411181312","false","13","","0.3411181312","main_expt","","0.3922463094","","0.4095272681","","0.1097065617","","","","","",""
"34","","bandit","89","253402","0.0-51.0-0.0","19275182","wem/bandit_single","A13VIJ7G997ZCY","pain","8","","72","H","0","img/none_selected.jpg","0","1","0","","0.3547490374","false","14","","0.3547490374","main_expt","","0.3385893542","","0.4393311008","","0.1146709003","","","","","",""
"7","","bandit","90","255167","0.0-52.0-0.0","19275182","wem/bandit_single","A13VIJ7G997ZCY","pain","8","","72","H","0","img/none_selected.jpg","0","0","1","","0.3447780093","false","15","","0.3447780093","main_expt","","0.2580729479","","0.4232641195","","0.105598426","","","","","",""
"158","","bandit","91","257082","0.0-53.0-0.0","19275182","wem/bandit_single","A13VIJ7G997ZCY","pain","8","","72","H","0","img/none_selected.jpg","0","0","1","","0.3451486401","false","16","","0.3451486401","main_expt","","0.3126944558","","0.408879381","","0.1085338479","","","","","",""
"5","","bandit","92","258843","0.0-54.0-0.0","19275182","wem/bandit_single","A13VIJ7G997ZCY","pain","8","","76","L","3","","0","0","1","","0.1267686316","false","17","","0.3788599072","main_expt","","0.3693960878","","0.376774317","","0.1267686316","","","","","",""
"18","","bandit","93","260617","0.0-55.0-0.0","19275182","wem/bandit_single","A13VIJ7G997ZCY","pain","8","","72","H","0","img/none_selected.jpg","0","0","1","","0.3977159439","false","18","","0.3977159439","main_expt","","0.3881723811","","0.4245824949","","0.2161611973","","","","","",""
"444","","bandit","94","262817","0.0-56.0-0.0","19275182","wem/bandit_single","A13VIJ7G997ZCY","pain","8","","74","J","1","","0","1","0","","0.3762380044","false","19","","0.3885232362","main_expt","","0.3762380044","","0.4391895307","","0.2028493804","","","","","",""
"74","","bandit","95","264649","0.0-57.0-0.0","19275182","wem/bandit_single","A13VIJ7G997ZCY","pain","8","","74","J","1","","0","0","1","","0.3842023068","false","20","","0.3985462001","main_expt","","0.3842023068","","0.4621127774","","0.2258994585","","","","","",""
"12","","bandit","96","266417","0.0-58.0-0.0","19275182","wem/bandit_single","A13VIJ7G997ZCY","pain","8","","74","J","1","","0","0","1","","0.3509270449","false","21","","0.349749023","main_expt","","0.3509270449","","0.4621164646","","0.1591174119","","","","","",""
"195","","bandit","97","268370","0.0-59.0-0.0","19275182","wem/bandit_single","A13VIJ7G997ZCY","pain","8","","75","K","2","","0","1","0","","0.4347396303","false","22","","0.3437713834","main_expt","","0.3777441782","","0.4347396303","","0.1526874152","","","","","",""
"22","","bandit","98","270148","0.0-60.0-0.0","19275182","wem/bandit_single","A13VIJ7G997ZCY","pain","8","","75","K","2","","0","0","1","","0.43496863","false","23","","0.3608333873","main_expt","","0.3799964268","","0.43496863","","0.1461335862","","","","","",""
"8","","bandit","99","271914","0.0-61.0-0.0","19275182","wem/bandit_single","A13VIJ7G997ZCY","pain","8","","75","K","2","","0","0","1","","0.43684491","false","24","","0.3832767268","main_expt","","0.4097073291","","0.43684491","","0.194032511","","","","","",""
"351","","bandit","100","274022","0.0-62.0-0.0","19275182","wem/bandit_single","A13VIJ7G997ZCY","pain","8","","75","K","2","","0","0","1","","0.3785768995","false","25","","0.3839685871","main_expt","","0.4196977393","","0.3785768995","","0.1913779305","","","","","",""
"182","","bandit","101","275961","0.0-63.0-0.0","19275182","wem/bandit_single","A13VIJ7G997ZCY","pain","8","","76","L","3","","0","1","0","","0.2830828826","false","26","","0.3871157951","main_expt","","0.3798545817","","0.3754964585","","0.2830828826","","","","","",""
"28","","bandit","102","277745","0.0-64.0-0.0","19275182","wem/bandit_single","A13VIJ7G997ZCY","pain","8","","76","L","3","","0","1","0","","0.3268824087","false","27","","0.4093540125","main_expt","","0.3531061786","","0.3964499655","","0.3268824087","","","","","",""
"458","","bandit","103","279961","0.0-65.0-0.0","19275182","wem/bandit_single","A13VIJ7G997ZCY","pain","8","","76","L","3","","0","0","1","","0.3092871108","false","28","","0.3781829904","main_expt","","0.3327392046","","0.4243602908","","0.3092871108","","","","","",""
"61","","bandit","104","281780","0.0-66.0-0.0","19275182","wem/bandit_single","A13VIJ7G997ZCY","pain","8","","76","L","3","","0","1","0","","0.299803321","false","29","","0.3633234486","main_expt","","0.2799969064","","0.4296462108","","0.299803321","","","","","",""
"25","","bandit","105","283567","0.0-67.0-0.0","19275182","wem/bandit_single","A13VIJ7G997ZCY","pain","8","","76","L","3","","0","0","1","","0.3318792252","false","30","","0.395486831","main_expt","","0.225268033","","0.4442153724","","0.3318792252","","","","","",""
"259","","bandit","106","285585","0.0-68.0-0.0","19275182","wem/bandit_single","A13VIJ7G997ZCY","pain","8","","76","L","3","","0","0","1","","0.3274080626","false","31","","0.353932484","main_expt","","0.2195205817","","0.4425075274","","0.3274080626","","","","","",""
"59","","bandit","107","287402","0.0-69.0-0.0","19275182","wem/bandit_single","A13VIJ7G997ZCY","pain","8","","76","L","3","","0","0","1","","0.3233555863","false","32","","0.3902442546","main_expt","","0.2569702332","","0.4038806219","","0.3233555863","","","","","",""
"385","","bandit","108","289546","0.0-70.0-0.0","19275182","wem/bandit_single","A13VIJ7G997ZCY","pain","8","","72","H","0","img/none_selected.jpg","0","0","1","","0.3727342875","false","33","","0.3727342875","main_expt","","0.2914027765","","0.4283701542","","0.3836123675","","","","","",""
"5","","bandit","109","291309","0.0-71.0-0.0","19275182","wem/bandit_single","A13VIJ7G997ZCY","pain","8","","72","H","0","img/none_selected.jpg","0","0","1","","0.3940120807","false","34","","0.3940120807","main_expt","","0.2667004126","","0.4332078231","","0.4200589335","","","","","",""
"490","","bandit","110","293555","0.0-72.0-0.0","19275182","wem/bandit_single","A13VIJ7G997ZCY","pain","8","","74","J","1","","0","0","1","","0.3112773703","false","35","","0.3682756201","main_expt","","0.3112773703","","0.3861361583","","0.4280145355","","","","","",""
"17","","bandit","111","295331","0.0-73.0-0.0","19275182","wem/bandit_single","A13VIJ7G997ZCY","pain","8","","74","J","1","","0","1","0","","0.3158013471","false","36","","0.4136743311","main_expt","","0.3158013471","","0.3176889815","","0.3696194815","","","","","",""
"33","","bandit","112","297121","0.0-74.0-0.0","19275182","wem/bandit_single","A13VIJ7G997ZCY","pain","8","","74","J","1","","0","0","1","","0.3348696363","false","37","","0.449594317","main_expt","","0.3348696363","","0.3333355096","","0.3567242832","","","","","",""
"241","","bandit","113","299124","0.0-75.0-0.0","19275182","wem/bandit_single","A13VIJ7G997ZCY","pain","8","","75","K","2","","0","1","0","","0.3613286773","false","38","","0.4427192246","main_expt","","0.2967031697","","0.3613286773","","0.3139752797","","","","","",""
"450","","bandit","114","301332","0.0-76.0-0.0","19275182","wem/bandit_single","A13VIJ7G997ZCY","pain","8","","75","K","2","","0","1","0","","0.3354588101","false","39","","0.4375360897","main_expt","","0.2816090282","","0.3354588101","","0.2884672813","","","","","",""
"44","","bandit","115","303133","0.0-77.0-0.0","19275182","wem/bandit_single","A13VIJ7G997ZCY","pain","8","","75","K","2","","0","1","0","","0.4044898685","false","40","","0.452648821","main_expt","","0.2900329111","","0.4044898685","","0.3253538103","","","","","",""
"96","","bandit","116","304987","0.0-78.0-0.0","19275182","wem/bandit_single","A13VIJ7G997ZCY","pain","8","","75","K","2","","0","1","0","","0.3615903795","false","41","","0.4689255384","main_expt","","0.3160732104","","0.3615903795","","0.2782289032","","","","","",""
"299","","bandit","117","307042","0.0-79.0-0.0","19275182","wem/bandit_single","A13VIJ7G997ZCY","pain","8","","75","K","2","","0","0","1","","0.3239257876","false","42","","0.470096522","main_expt","","0.370849222","","0.3239257876","","0.2378060085","","","","","",""
"538","","bandit","118","309338","0.0-80.0-0.0","19275182","wem/bandit_single","A13VIJ7G997ZCY","pain","8","","75","K","2","","0","0","1","","0.2907144625","false","43","","0.4349244256","main_expt","","0.385301305","","0.2907144625","","0.2250536993","","","","","",""
"44","","bandit","119","311138","0.0-81.0-0.0","19275182","wem/bandit_single","A13VIJ7G997ZCY","pain","8","","75","K","2","","0","1","0","","0.2937558929","false","44","","0.4316966947","main_expt","","0.416838688","","0.2937558929","","0.2132249492","","","","","",""
"60","","bandit","120","312955","0.0-82.0-0.0","19275182","wem/bandit_single","A13VIJ7G997ZCY","pain","8","","75","K","2","","0","1","0","","0.3667346614","false","45","","0.4526201082","main_expt","","0.3927526088","","0.3667346614","","0.2669052982","","","","","",""
"290","","bandit","121","315002","0.0-83.0-0.0","19275182","wem/bandit_single","A13VIJ7G997ZCY","pain","8","","75","K","2","","0","0","1","","0.4084803937","false","46","","0.4696962879","main_expt","","0.3789336214","","0.4084803937","","0.259601005","","","","","",""
"100","","bandit","122","316858","0.0-84.0-0.0","19275182","wem/bandit_single","A13VIJ7G997ZCY","pain","8","","75","K","2","","0","0","1","","0.3956447052","false","47","","0.4591824552","main_expt","","0.3994803113","","0.3956447052","","0.2442503122","","","","","",""
"82","","bandit","123","318698","0.0-85.0-0.0","19275182","wem/bandit_single","A13VIJ7G997ZCY","pain","8","","75","K","2","","0","0","1","","0.3859230678","false","48","","0.4548607847","main_expt","","0.3570668153","","0.3859230678","","0.2427668164","","","","","",""
"411","","bandit","124","320867","0.0-86.0-0.0","19275182","wem/bandit_single","A13VIJ7G997ZCY","pain","8","","75","K","2","","0","0","1","","0.394993817","false","49","","0.4625410341","main_expt","","0.3500417472","","0.394993817","","0.218731525","","","","","",""
"67","","bandit","125","322691","0.0-87.0-0.0","19275182","wem/bandit_single","A13VIJ7G997ZCY","pain","8","","76","L","3","","0","0","1","","0.2187604329","false","50","","0.4620574215","main_expt","","0.3110114061","","0.4358915385","","0.2187604329","","","","","",""
"231","","bandit","126","324679","0.0-88.0-0.0","19275182","wem/bandit_single","A13VIJ7G997ZCY","pain","8","","76","L","3","","0","0","1","","0.2764450854","false","51","","0.4573118055","main_expt","","0.3165374422","","0.4437026926","","0.2764450854","","","","","",""
"374","","bandit","127","326811","0.0-89.0-0.0","19275182","wem/bandit_single","A13VIJ7G997ZCY","pain","8","","74","J","1","","0","0","1","","0.3212783944","false","52","","0.4577170033","main_expt","","0.3212783944","","0.4357441266","","0.2735561336","","","","","",""
"41","","bandit","128","328610","0.0-90.0-0.0","19275182","wem/bandit_single","A13VIJ7G997ZCY","pain","8","","74","J","1","","0","0","1","","0.3079714244","false","53","","0.4599667981","main_expt","","0.3079714244","","0.3926545571","","0.2558353256","","","","","",""
"43","","bandit","129","330410","0.0-91.0-0.0","19275182","wem/bandit_single","A13VIJ7G997ZCY","pain","8","","72","H","0","img/none_selected.jpg","0","1","0","","0.4598989899","false","54","","0.4598989899","main_expt","","0.3538619638","","0.3841940555","","0.2856473895","","","","","",""
"18","","bandit","130","332186","0.0-92.0-0.0","19275182","wem/bandit_single","A13VIJ7G997ZCY","pain","8","","72","H","0","img/none_selected.jpg","0","1","0","","0.4371040197","false","55","","0.4371040197","main_expt","","0.3390258849","","0.3733442546","","0.3110799389","","","","","",""
"160","","bandit","131","334104","0.0-93.0-0.0","19275182","wem/bandit_single","A13VIJ7G997ZCY","pain","8","","72","H","0","img/none_selected.jpg","0","0","1","","0.3889704242","false","56","","0.3889704242","main_expt","","0.3282580673","","0.3500738246","","0.2862995849","","","","","",""
"84","","bandit","132","335946","0.0-94.0-0.0","19275182","wem/bandit_single","A13VIJ7G997ZCY","pain","8","","72","H","0","img/none_selected.jpg","0","1","0","","0.4089883961","false","57","","0.4089883961","main_expt","","0.3014999451","","0.3265916347","","0.3029349154","","","","","",""
"19","","bandit","133","337723","0.0-95.0-0.0","19275182","wem/bandit_single","A13VIJ7G997ZCY","pain","8","","72","H","0","img/none_selected.jpg","0","0","1","","0.3682078294","false","58","","0.3682078294","main_expt","","0.2895525025","","0.3203483638","","0.282602966","","","","","",""
"2","","bandit","134","339482","0.0-96.0-0.0","19275182","wem/bandit_single","A13VIJ7G997ZCY","pain","8","","72","H","0","img/none_selected.jpg","0","0","1","","0.426053772","false","59","","0.426053772","main_expt","","0.2538740387","","0.258324817","","0.3271218703","","","","","",""
"11","","bandit","135","341250","0.0-97.0-0.0","19275182","wem/bandit_single","A13VIJ7G997ZCY","pain","8","","72","H","0","img/none_selected.jpg","0","0","1","","0.4175969639","false","60","","0.4175969639","main_expt","","0.2509640494","","0.2527557167","","0.2978757068","","","","","",""
"18","","bandit","136","343026","0.0-98.0-0.0","19275182","wem/bandit_single","A13VIJ7G997ZCY","pain","8","","72","H","0","img/none_selected.jpg","0","1","0","","0.4124946444","false","61","","0.4124946444","main_expt","","0.1930295055","","0.2925705146","","0.1922553384","","","","","",""
"19","","bandit","137","344802","0.0-99.0-0.0","19275182","wem/bandit_single","A13VIJ7G997ZCY","pain","8","","72","H","0","img/none_selected.jpg","0","1","0","","0.4077217862","false","62","","0.4077217862","main_expt","","0.1259826115","","0.310648962","","0.1408400783","","","","","",""
"26","","bandit","138","346586","0.0-100.0-0.0","19275182","wem/bandit_single","A13VIJ7G997ZCY","pain","8","","72","H","0","img/none_selected.jpg","0","1","0","","0.4258821936","false","63","","0.4258821936","main_expt","","0.1388804293","","0.3175489896","","0.1779610645","","","","","",""
"347","","bandit","139","348690","0.0-101.0-0.0","19275182","wem/bandit_single","A13VIJ7G997ZCY","pain","8","","72","H","0","img/none_selected.jpg","0","1","0","","0.4314195329","false","64","","0.4314195329","main_expt","","0.1412297375","","0.2756852574","","0.1733040919","","","","","",""
"51","","bandit","140","350498","0.0-102.0-0.0","19275182","wem/bandit_single","A13VIJ7G997ZCY","pain","8","","72","H","0","img/none_selected.jpg","0","1","0","","0.4174082156","false","65","","0.4174082156","main_expt","","0.07856201072","","0.2798966648","","0.1669650696","","","","","",""
"12","","bandit","141","352267","0.0-103.0-0.0","19275182","wem/bandit_single","A13VIJ7G997ZCY","pain","8","","72","H","0","img/none_selected.jpg","0","0","1","","0.4396479182","false","66","","0.4396479182","main_expt","","0.04493535693","","0.2440426105","","0.1439674443","","","","","",""
"151","","bandit","142","354179","0.0-104.0-0.0","19275182","wem/bandit_single","A13VIJ7G997ZCY","pain","8","","72","H","0","img/none_selected.jpg","0","0","1","","0.4080198752","false","67","","0.4080198752","main_expt","","0.06268984171","","0.2630461485","","0.1892066175","","","","","",""
"545","","bandit","143","356483","0.0-105.0-0.0","19275182","wem/bandit_single","A13VIJ7G997ZCY","pain","8","","72","H","0","img/none_selected.jpg","0","0","1","","0.4137299856","false","68","","0.4137299856","main_expt","","0.0976634122","","0.2456224984","","0.1994174399","","","","","",""
"227","","bandit","144","358468","0.0-106.0-0.0","19275182","wem/bandit_single","A13VIJ7G997ZCY","pain","8","","72","H","0","img/none_selected.jpg","0","0","1","","0.3938947582","false","69","","0.3938947582","main_expt","","0.1303859095","","0.328759159","","0.1624567358","","","","","",""
"131","","bandit","145","360361","0.0-107.0-0.0","19275182","wem/bandit_single","A13VIJ7G997ZCY","pain","8","","75","K","2","","0","0","1","","0.3063762308","false","70","","0.3876621225","main_expt","","0.09159795462","","0.3063762308","","0.203142037","","","","","",""
"203","","bandit","146","362321","0.0-108.0-0.0","19275182","wem/bandit_single","A13VIJ7G997ZCY","pain","8","","74","J","1","","0","0","1","","0.07422050438","false","71","","0.3788053019","main_expt","","0.07422050438","","0.3509026903","","0.218187973","","","","","",""
"62","","bandit","147","364140","0.0-109.0-0.0","19275182","wem/bandit_single","A13VIJ7G997ZCY","pain","8","","72","H","0","img/none_selected.jpg","0","1","0","","0.3632611749","false","72","","0.3632611749","main_expt","","0.05420033029","","0.3695940198","","0.2357875668","","","","","",""
"94","","bandit","148","365992","0.0-110.0-0.0","19275182","wem/bandit_single","A13VIJ7G997ZCY","pain","8","","72","H","0","img/none_selected.jpg","0","0","1","","0.3121818875","false","73","","0.3121818875","main_expt","","0.04794676006","","0.3532210052","","0.1951490082","","","","","",""
"11","","bandit","149","367761","0.0-111.0-0.0","19275182","wem/bandit_single","A13VIJ7G997ZCY","pain","8","","72","H","0","img/none_selected.jpg","0","0","1","","0.3385624816","false","74","","0.3385624816","main_expt","","0.03645121522","","0.3780170277","","0.208621177","","","","","",""
"2","","bandit","150","369524","0.0-112.0-0.0","19275182","wem/bandit_single","A13VIJ7G997ZCY","pain","8","","76","L","3","","0","0","1","","0.2016482668","false","75","","0.3393964734","main_expt","","0.04346784694","","0.3141643986","","0.2016482668","","","","","",""
"175","","bandit","151","371458","0.0-113.0-0.0","19275182","wem/bandit_single","A13VIJ7G997ZCY","pain","8","","72","H","0","img/none_selected.jpg","0","1","0","","0.3489067358","false","76","","0.3489067358","main_expt","","0.05697420644","","0.3520496016","","0.2495615647","","","","","",""
"23","","bandit","152","373241","0.0-114.0-0.0","19275182","wem/bandit_single","A13VIJ7G997ZCY","pain","8","","72","H","0","img/none_selected.jpg","0","1","0","","0.3502211764","false","77","","0.3502211764","main_expt","","0.05831686642","","0.2628688268","","0.2225386599","","","","","",""
"57","","bandit","153","375059","0.0-115.0-0.0","19275182","wem/bandit_single","A13VIJ7G997ZCY","pain","8","","72","H","0","img/none_selected.jpg","0","1","0","","0.2979424841","false","78","","0.2979424841","main_expt","","0.0396837938","","0.2856335909","","0.2525784454","","","","","",""
"7","","bandit","154","376827","0.0-116.0-0.0","19275182","wem/bandit_single","A13VIJ7G997ZCY","pain","8","","72","H","0","img/none_selected.jpg","0","0","1","","0.2779986596","false","79","","0.2779986596","main_expt","","0.03651397352","","0.3052483479","","0.2691825077","","","","","",""
"563","","bandit","155","379147","0.0-117.0-0.0","19275182","wem/bandit_single","A13VIJ7G997ZCY","pain","8","","74","J","1","","0","0","1","","0.0570793957","false","80","","0.2681941829","main_expt","","0.0570793957","","0.2809417262","","0.2749696362","","","","","",""
"24","","bandit","156","380929","0.0-118.0-0.0","19275182","wem/bandit_single","A13VIJ7G997ZCY","pain","8","","72","H","0","img/none_selected.jpg","0","0","1","","0.2536714586","false","81","","0.2536714586","main_expt","","0.05597964966","","0.2639407754","","0.291945729","","","","","",""
"64","","bandit","157","382754","0.0-119.0-0.0","19275182","wem/bandit_single","A13VIJ7G997ZCY","pain","8","","75","K","2","","0","0","1","","0.3352417475","false","82","","0.1904528106","main_expt","","0.0589745046","","0.3352417475","","0.2804178179","","","","","",""
"3838","","bandit","158","388353","0.0-120.0-0.0","19275182","wem/bandit_single","A13VIJ7G997ZCY","pain","8","","72","H","0","img/none_selected.jpg","0","0","1","","0.2497062266","false","83","","0.2497062266","main_expt","","0.04461225985","","0.3246721101","","0.2253075454","","","","","",""
"90","","bandit","159","390203","0.0-121.0-0.0","19275182","wem/bandit_single","A13VIJ7G997ZCY","pain","8","","72","H","0","img/none_selected.jpg","0","1","0","","0.2960017758","false","84","","0.2960017758","main_expt","","0.04600221485","","0.3082112656","","0.2475548924","","","","","",""
"49","","bandit","160","392010","0.0-122.0-0.0","19275182","wem/bandit_single","A13VIJ7G997ZCY","pain","8","","72","H","0","img/none_selected.jpg","0","0","1","","0.2677312645","false","85","","0.2677312645","main_expt","","0.04782026086","","0.2733186338","","0.2443994903","","","","","",""
"133","","bandit","161","393902","0.0-123.0-0.0","19275182","wem/bandit_single","A13VIJ7G997ZCY","pain","8","","72","H","0","img/none_selected.jpg","0","1","0","","0.2764415163","false","86","","0.2764415163","main_expt","","0.05551660222","","0.2595222796","","0.2112262296","","","","","",""
"107","","bandit","162","395769","0.0-124.0-0.0","19275182","wem/bandit_single","A13VIJ7G997ZCY","pain","8","","72","H","0","img/none_selected.jpg","0","0","1","","0.324022149","false","87","","0.324022149","main_expt","","0.04708869331","","0.2256999028","","0.2188998383","","","","","",""
"283","","bandit","163","397813","0.0-125.0-0.0","19275182","wem/bandit_single","A13VIJ7G997ZCY","pain","8","","72","H","0","img/none_selected.jpg","0","0","1","","0.3109963835","false","88","","0.3109963835","main_expt","","0.02844544313","","0.1990670624","","0.2197891412","","","","","",""
"2312","","bandit","164","401885","0.0-126.0-0.0","19275182","wem/bandit_single","A13VIJ7G997ZCY","pain","8","","72","H","0","img/none_selected.jpg","0","0","1","","0.324941543","false","89","","0.324941543","main_expt","","0.02947982339","","0.2125628639","","0.1264972534","","","","","",""
"4099","","bandit","165","407746","0.0-127.0-0.0","19275182","wem/bandit_single","A13VIJ7G997ZCY","pain","8","","72","H","0","img/none_selected.jpg","0","0","1","","0.3309337967","false","90","","0.3309337967","main_expt","","0.01544371513","","0.2335475446","","0.09492746395","","","","","",""
"4025","","bandit","166","413529","0.0-128.0-0.0","19275182","wem/bandit_single","A13VIJ7G997ZCY","pain","8","","72","H","0","img/none_selected.jpg","0","1","0","","0.2419508287","false","91","","0.2419508287","main_expt","","0.02662688154","","0.2803997126","","0.0779798764","","","","","",""
"218","","bandit","167","415505","0.0-129.0-0.0","19275182","wem/bandit_single","A13VIJ7G997ZCY","pain","8","","72","H","0","img/none_selected.jpg","0","1","0","","0.2040869203","false","92","","0.2040869203","main_expt","","0.03471523835","","0.2771315147","","0.1178574791","","","","","",""
"179","","bandit","168","417444","0.0-130.0-0.0","19275182","wem/bandit_single","A13VIJ7G997ZCY","pain","8","","72","H","0","img/none_selected.jpg","0","0","1","","0.1936143615","false","93","","0.1936143615","main_expt","","0.0252433293","","0.3069544445","","0.1199697814","","","","","",""
"186","","bandit","169","419390","0.0-131.0-0.0","19275182","wem/bandit_single","A13VIJ7G997ZCY","pain","8","","72","H","0","img/none_selected.jpg","0","0","1","","0.2296452841","false","94","","0.2296452841","main_expt","","0.02873343753","","0.2585327286","","0.1351842626","","","","","",""
"71","","bandit","170","421218","0.0-132.0-0.0","19275182","wem/bandit_single","A13VIJ7G997ZCY","pain","8","","72","H","0","img/none_selected.jpg","0","0","1","","0.3009770616","false","95","","0.3009770616","main_expt","","0.03754278977","","0.2043747222","","0.1229387465","","","","","",""
"34","","bandit","171","423010","0.0-133.0-0.0","19275182","wem/bandit_single","A13VIJ7G997ZCY","pain","8","","76","L","3","","0","0","1","","0.1341504272","false","96","","0.3664634414","main_expt","","0.02045008397","","0.2149370614","","0.1341504272","","","","","",""
"242","","bandit","172","425012","0.0-134.0-0.0","19275182","wem/bandit_single","A13VIJ7G997ZCY","pain","8","","75","K","2","","0","1","0","","0.1294523689","false","97","","0.3476641925","main_expt","","0.01282395838","","0.1294523689","","0.08646330057","","","","","",""
"80","","bandit","173","426850","0.0-135.0-0.0","19275182","wem/bandit_single","A13VIJ7G997ZCY","pain","8","","75","K","2","","0","0","1","","0.1653870254","false","98","","0.3885632826","main_expt","","0.02206163243","","0.1653870254","","0.07731746448","","","","","",""
"10","","bandit","174","428619","0.0-136.0-0.0","19275182","wem/bandit_single","A13VIJ7G997ZCY","pain","8","","75","K","2","","0","0","1","","0.187235433","false","99","","0.3222143249","main_expt","","0.03016500256","","0.187235433","","0.05048608161","","","","","",""
"592","","bandit","175","430971","0.0-137.0-0.0","19275182","wem/bandit_single","A13VIJ7G997ZCY","pain","8","","74","J","1","","0","0","1","","0.03237578522","false","100","","0.3386714995","main_expt","","0.03237578522","","0.1583251777","","0.03970728334","","","","","",""
"26","","bandit","176","432754","0.0-138.0-0.0","19275182","wem/bandit_single","A13VIJ7G997ZCY","pain","8","","72","H","0","img/none_selected.jpg","0","1","0","","0.3131396166","false","101","","0.3131396166","main_expt","","0.03241037075","","0.1337381207","","0.02108340439","","","","","",""
"258","","bandit","177","434775","0.0-139.0-0.0","19275182","wem/bandit_single","A13VIJ7G997ZCY","pain","8","","72","H","0","img/none_selected.jpg","0","0","1","","0.3417288757","false","102","","0.3417288757","main_expt","","0.06000215667","","0.1163639012","","0.05244648731","","","","","",""
"93","","bandit","178","436628","0.0-140.0-0.0","19275182","wem/bandit_single","A13VIJ7G997ZCY","pain","8","","72","H","0","img/none_selected.jpg","0","0","1","","0.3582654759","false","103","","0.3582654759","main_expt","","0.08726741307","","0.1118657557","","0.04574159302","","","","","",""
"81","","bandit","179","438466","0.0-141.0-0.0","19275182","wem/bandit_single","A13VIJ7G997ZCY","pain","8","","72","H","0","img/none_selected.jpg","0","0","1","","0.3409136392","false","104","","0.3409136392","main_expt","","0.1067467257","","0.1501499683","","0.05033190662","","","","","",""
"331","","bandit","180","440554","0.0-142.0-0.0","19275182","wem/bandit_single","A13VIJ7G997ZCY","pain","8","","75","K","2","","0","0","1","","0.1354733374","false","105","","0.3532992837","main_expt","","0.1004566838","","0.1354733374","","0.1076128494","","","","","",""
"23","","bandit","181","442339","0.0-143.0-0.0","19275182","wem/bandit_single","A13VIJ7G997ZCY","pain","8","","75","K","2","","0","0","1","","0.1727398631","false","106","","0.335683565","main_expt","","0.1055318719","","0.1727398631","","0.06740855405","","","","","",""
"82","","bandit","182","444180","0.0-144.0-0.0","19275182","wem/bandit_single","A13VIJ7G997ZCY","pain","8","","74","J","1","","0","0","1","","0.1236328269","false","107","","0.3924059951","main_expt","","0.1236328269","","0.1474174257","","0.06658027063","","","","","",""
"520","","bandit","183","446459","0.0-145.0-0.0","19275182","wem/bandit_single","A13VIJ7G997ZCY","pain","8","","74","J","1","","0","1","0","","0.1301170461","false","108","","0.3626054341","main_expt","","0.1301170461","","0.1683059408","","0.0777756245","","","","","",""
"43","","bandit","184","448262","0.0-146.0-0.0","19275182","wem/bandit_single","A13VIJ7G997ZCY","pain","8","","74","J","1","","0","0","1","","0.1507941036","false","109","","0.3806857721","main_expt","","0.1507941036","","0.1972223025","","0.1117823495","","","","","",""
"190","","bandit","185","450211","0.0-147.0-0.0","19275182","wem/bandit_single","A13VIJ7G997ZCY","pain","8","","72","H","0","img/none_selected.jpg","0","0","1","","0.3452619283","false","110","","0.3452619283","main_expt","","0.1647590848","","0.2085186414","","0.08710900622","","","","","",""
"57","","bandit","186","452026","0.0-148.0-0.0","19275182","wem/bandit_single","A13VIJ7G997ZCY","pain","8","","72","H","0","img/none_selected.jpg","0","0","1","","0.3653509784","false","111","","0.3653509784","main_expt","","0.1574612326","","0.1811180602","","0.107183683","","","","","",""
"106","","bandit","187","453892","0.0-149.0-0.0","19275182","wem/bandit_single","A13VIJ7G997ZCY","pain","8","","72","H","0","img/none_selected.jpg","0","0","1","","0.3435522482","false","112","","0.3435522482","main_expt","","0.1406493921","","0.222295219","","0.1099425133","","","","","",""
"926","","bandit","188","456578","0.0-150.0-0.0","19275182","wem/bandit_single","A13VIJ7G997ZCY","pain","8","","74","J","1","","0","0","1","","0.1367300214","false","113","","0.3424956272","main_expt","","0.1367300214","","0.254178783","","0.1457634924","","","","","",""
"27","","bandit","189","458364","0.0-151.0-0.0","19275182","wem/bandit_single","A13VIJ7G997ZCY","pain","8","","74","J","1","","0","0","1","","0.1534665218","false","114","","0.3353894863","main_expt","","0.1534665218","","0.2315882939","","0.09824844824","","","","","",""
"975","","bandit","190","461099","0.0-152.0-0.0","19275182","wem/bandit_single","A13VIJ7G997ZCY","pain","8","","75","K","2","","0","0","1","","0.2079629003","false","115","","0.3965113255","main_expt","","0.1890238391","","0.2079629003","","0.07202874502","","","","","",""
"82","","bandit","191","462939","0.0-153.0-0.0","19275182","wem/bandit_single","A13VIJ7G997ZCY","pain","8","","75","K","2","","0","1","0","","0.2117584369","false","116","","0.3889101716","main_expt","","0.1480670238","","0.2117584369","","0.08386797302","","","","","",""
"33","","bandit","192","464755","0.0-154.0-0.0","19275182","wem/bandit_single","A13VIJ7G997ZCY","pain","8","","75","K","2","","0","0","1","","0.1897465023","false","117","","0.412290601","main_expt","","0.1450369027","","0.1897465023","","0.1223406282","","","","","",""
"95","","bandit","193","466612","0.0-155.0-0.0","19275182","wem/bandit_single","A13VIJ7G997ZCY","pain","8","","75","K","2","","0","1","0","","0.2162179109","false","118","","0.4090296977","main_expt","","0.1525061225","","0.2162179109","","0.1131974311","","","","","",""
"1","","bandit","194","468374","0.0-156.0-0.0","19275182","wem/bandit_single","A13VIJ7G997ZCY","pain","8","","75","K","2","","0","1","0","","0.1954464435","false","119","","0.3900906375","main_expt","","0.1327940691","","0.1954464435","","0.1214903214","","","","","",""
"39","","bandit","195","470171","0.0-157.0-0.0","19275182","wem/bandit_single","A13VIJ7G997ZCY","pain","8","","75","K","2","","0","1","0","","0.2433439763","false","120","","0.3722828095","main_expt","","0.1517026744","","0.2433439763","","0.1379734046","","","","","",""
"62","","bandit","196","471994","0.0-158.0-0.0","19275182","wem/bandit_single","A13VIJ7G997ZCY","pain","8","","75","K","2","","0","0","1","","0.2093375247","false","121","","0.3593952677","main_expt","","0.09770447215","","0.2093375247","","0.1537473387","","","","","",""
"81","","bandit","197","473834","0.0-159.0-0.0","19275182","wem/bandit_single","A13VIJ7G997ZCY","pain","8","","75","K","2","","0","0","1","","0.2030857612","false","122","","0.3670381393","main_expt","","0.1084092314","","0.2030857612","","0.1654199468","","","","","",""
"154","","bandit","198","475747","0.0-160.0-0.0","19275182","wem/bandit_single","A13VIJ7G997ZCY","pain","8","","75","K","2","","0","0","1","","0.1810532848","false","123","","0.3587286137","main_expt","","0.1828660492","","0.1810532848","","0.1908187881","","","","","",""
"15","","bandit","199","477523","0.0-161.0-0.0","19275182","wem/bandit_single","A13VIJ7G997ZCY","pain","8","","75","K","2","","0","0","1","","0.1582229448","false","124","","0.3492740793","main_expt","","0.1743556658","","0.1582229448","","0.2229551501","","","","","",""
"37","","bandit","200","479320","0.0-162.0-0.0","19275182","wem/bandit_single","A13VIJ7G997ZCY","pain","8","","75","K","2","","0","0","1","","0.1223239468","false","125","","0.3031262708","main_expt","","0.2091647646","","0.1223239468","","0.2354127912","","","","","",""
"114","","bandit","201","481194","0.0-163.0-0.0","19275182","wem/bandit_single","A13VIJ7G997ZCY","pain","8","","75","K","2","","0","0","1","","0.08912034734","false","126","","0.3272336491","main_expt","","0.2089783764","","0.08912034734","","0.25119817","","","","","",""
"575","","bandit","202","483529","0.0-164.0-0.0","19275182","wem/bandit_single","A13VIJ7G997ZCY","pain","8","","76","L","3","","0","0","1","","0.2312690923","false","127","","0.3153677968","main_expt","","0.21334071","","0.05948163","","0.2312690923","","","","","",""
"57","","bandit","203","485345","0.0-165.0-0.0","19275182","wem/bandit_single","A13VIJ7G997ZCY","pain","8","","76","L","3","","0","0","1","","0.2741150261","false","128","","0.3317710332","main_expt","","0.1916283041","","0.06525821595","","0.2741150261","","","","","",""
"225","","bandit","204","487329","0.0-166.0-0.0","19275182","wem/bandit_single","A13VIJ7G997ZCY","pain","8","","76","L","3","","0","0","1","","0.2804264122","false","129","","0.3818586719","main_expt","","0.1810604207","","0.04677418535","","0.2804264122","","","","","",""
"33","","bandit","205","489121","0.0-167.0-0.0","19275182","wem/bandit_single","A13VIJ7G997ZCY","pain","8","","74","J","1","","0","0","1","","0.1492319935","false","130","","0.3778611376","main_expt","","0.1492319935","","0.04931785787","","0.2746384559","","","","","",""
"154","","bandit","206","491035","0.0-168.0-0.0","19275182","wem/bandit_single","A13VIJ7G997ZCY","pain","8","","74","J","1","","0","0","1","","0.129351286","false","131","","0.3745485054","main_expt","","0.129351286","","0.03231589458","","0.3052944487","","","","","",""
"303","","bandit","207","493105","0.0-169.0-0.0","19275182","wem/bandit_single","A13VIJ7G997ZCY","pain","8","","75","K","2","","0","0","1","","0.0374336399","false","132","","0.3901944836","main_expt","","0.1020216346","","0.0374336399","","0.2871604017","","","","","",""
"32","","bandit","208","494898","0.0-170.0-0.0","19275182","wem/bandit_single","A13VIJ7G997ZCY","pain","8","","75","K","2","","0","0","1","","0.04583961862","false","133","","0.3245875462","main_expt","","0.1100395313","","0.04583961862","","0.2262434135","","","","","",""
"432","","bandit","209","497090","0.0-171.0-0.0","19275182","wem/bandit_single","A13VIJ7G997ZCY","pain","8","","72","H","0","img/none_selected.jpg","0","0","1","","0.2794858075","false","134","","0.2794858075","main_expt","","0.1078381017","","0.04150300199","","0.2020687113","","","","","",""
"39","","bandit","210","498891","0.0-172.0-0.0","19275182","wem/bandit_single","A13VIJ7G997ZCY","pain","8","","72","H","0","img/none_selected.jpg","0","0","1","","0.2867414221","false","135","","0.2867414221","main_expt","","0.1093486249","","0.04663842542","","0.2168620662","","","","","",""
"210","","bandit","211","500859","0.0-173.0-0.0","19275182","wem/bandit_single","A13VIJ7G997ZCY","pain","8","","74","J","1","","0","0","1","","0.1246456113","false","136","","0.2388941587","main_expt","","0.1246456113","","0.06291357963","","0.151139006","","","","","",""
"110","","bandit","212","502729","0.0-174.0-0.0","19275182","wem/bandit_single","A13VIJ7G997ZCY","pain","8","","75","K","2","","0","0","1","","0.0848669819","false","137","","0.2301747732","main_expt","","0.1167447495","","0.0848669819","","0.1452995234","","","","","",""
"184","","bandit","213","504673","0.0-175.0-0.0","19275182","wem/bandit_single","A13VIJ7G997ZCY","pain","8","","76","L","3","","0","0","1","","0.1599176777","false","138","","0.2344721482","main_expt","","0.1357570265","","0.1250360552","","0.1599176777","","","","","",""
"42","","bandit","214","506473","0.0-176.0-0.0","19275182","wem/bandit_single","A13VIJ7G997ZCY","pain","8","","72","H","0","img/none_selected.jpg","0","0","1","","0.2351335283","false","139","","0.2351335283","main_expt","","0.1616689495","","0.122190115","","0.1704699841","","","","","",""
"48","","bandit","215","508281","0.0-177.0-0.0","19275182","wem/bandit_single","A13VIJ7G997ZCY","pain","8","","74","J","1","","0","0","1","","0.1979747013","false","140","","0.2876903143","main_expt","","0.1979747013","","0.08666030548","","0.1142956015","","","","","",""
"40","","bandit","216","510081","0.0-178.0-0.0","19275182","wem/bandit_single","A13VIJ7G997ZCY","pain","8","","75","K","2","","0","0","1","","0.09967801986","false","141","","0.2865732071","main_expt","","0.1708965128","","0.09967801986","","0.1206890816","","","","","",""
"313","","bandit","217","512154","0.0-179.0-0.0","19275182","wem/bandit_single","A13VIJ7G997ZCY","pain","8","","76","L","3","","0","0","1","","0.1324259923","false","142","","0.248943806","main_expt","","0.204481367","","0.1125289611","","0.1324259923","","","","","",""
"187","","bandit","218","514099","0.0-180.0-0.0","19275182","wem/bandit_single","A13VIJ7G997ZCY","pain","8","","72","H","0","img/none_selected.jpg","0","0","1","","0.2839045407","false","143","","0.2839045407","main_expt","","0.1861099789","","0.1467602081","","0.09892217097","","","","","",""
"56","","bandit","219","515914","0.0-181.0-0.0","19275182","wem/bandit_single","A13VIJ7G997ZCY","pain","8","","75","K","2","","0","0","1","","0.1467522766","false","144","","0.3150250783","main_expt","","0.1956465744","","0.1467522766","","0.1577744197","","","","","",""
"24","","bandit","220","517697","0.0-182.0-0.0","19275182","wem/bandit_single","A13VIJ7G997ZCY","pain","8","","75","K","2","","0","0","1","","0.118212248","false","145","","0.3090395899","main_expt","","0.2622876922","","0.118212248","","0.1392006829","","","","","",""
"41","","bandit","221","519498","0.0-183.0-0.0","19275182","wem/bandit_single","A13VIJ7G997ZCY","pain","8","","75","K","2","","0","1","0","","0.1089879874","false","146","","0.3122039877","main_expt","","0.304745079","","0.1089879874","","0.1262993523","","","","","",""
"80","","bandit","222","521337","0.0-184.0-0.0","19275182","wem/bandit_single","A13VIJ7G997ZCY","pain","8","","75","K","2","","0","0","1","","0.1200469816","false","147","","0.2959619691","main_expt","","0.2888799162","","0.1200469816","","0.1970652478","","","","","",""
"882","","bandit","223","523978","0.0-185.0-0.0","19275182","wem/bandit_single","A13VIJ7G997ZCY","pain","8","","75","K","2","","0","0","1","","0.1276189258","false","148","","0.2395536641","main_expt","","0.2290209364","","0.1276189258","","0.2502259542","","","","","",""
"66","","bandit","224","525803","0.0-186.0-0.0","19275182","wem/bandit_single","A13VIJ7G997ZCY","pain","8","","75","K","2","","0","0","1","","0.1280703092","false","149","","0.2650868272","main_expt","","0.1626908122","","0.1280703092","","0.264890558","","","","","",""
"44","","bandit","225","527609","0.0-187.0-0.0","19275182","wem/bandit_single","A13VIJ7G997ZCY","pain","8","","75","K","2","","0","0","1","","0.1260403861","false","150","","0.2986082654","main_expt","","0.1958031623","","0.1260403861","","0.2458403893","","","","","",""
"326","","bandit","226","529698","0.0-188.0-0.0","19275182","wem/bandit_single","A13VIJ7G997ZCY","pain","8","","75","K","2","","0","0","1","","0.1472493067","false","151","","0.2843767109","main_expt","","0.2110526716","","0.1472493067","","0.3021038309","","","","","",""
"88","","bandit","227","531546","0.0-189.0-0.0","19275182","wem/bandit_single","A13VIJ7G997ZCY","pain","8","","75","K","2","","0","0","1","","0.1256460397","false","152","","0.2910803031","main_expt","","0.239542308","","0.1256460397","","0.2863751765","","","","","",""
"313","","bandit","228","533619","0.0-190.0-0.0","19275182","wem/bandit_single","A13VIJ7G997ZCY","pain","8","","74","J","1","","0","0","1","","0.2781725502","false","153","","0.2910028656","main_expt","","0.2781725502","","0.1567097088","","0.250244768","","","","","",""
"48","","bandit","229","535425","0.0-191.0-0.0","19275182","wem/bandit_single","A13VIJ7G997ZCY","pain","8","","74","J","1","","0","0","1","","0.228047793","false","154","","0.2845613835","main_expt","","0.228047793","","0.1473662378","","0.2127808211","","","","","",""
"52","","bandit","230","537237","0.0-192.0-0.0","19275182","wem/bandit_single","A13VIJ7G997ZCY","pain","8","","74","J","1","","0","1","0","","0.2683949018","false","155","","0.2707345723","main_expt","","0.2683949018","","0.1466549972","","0.205053704","","","","","",""
"58","","bandit","231","539060","0.0-193.0-0.0","19275182","wem/bandit_single","A13VIJ7G997ZCY","pain","8","","74","J","1","","0","1","0","","0.3192141369","false","156","","0.3156720475","main_expt","","0.3192141369","","0.1127453184","","0.1648482415","","","","","",""
"46","","bandit","232","540866","0.0-194.0-0.0","19275182","wem/bandit_single","A13VIJ7G997ZCY","pain","8","","74","J","1","","0","1","0","","0.3402823895","false","157","","0.3101066834","main_expt","","0.3402823895","","0.1577506677","","0.1888047422","","","","","",""
"2","","bandit","233","542626","0.0-195.0-0.0","19275182","wem/bandit_single","A13VIJ7G997ZCY","pain","8","","74","J","1","","0","0","1","","0.2944958958","false","158","","0.3236654942","main_expt","","0.2944958958","","0.177177298","","0.1759444775","","","","","",""
"82","","bandit","234","544468","0.0-196.0-0.0","19275182","wem/bandit_single","A13VIJ7G997ZCY","pain","8","","74","J","1","","0","1","0","","0.3007248388","false","159","","0.2735657487","main_expt","","0.3007248388","","0.1693510486","","0.2066832709","","","","","",""
"1085","","bandit","235","547316","0.0-197.0-0.0","19275182","wem/bandit_single","A13VIJ7G997ZCY","pain","8","","74","J","1","","0","0","1","","0.3179332055","false","160","","0.2384912546","main_expt","","0.3179332055","","0.1230292859","","0.2570817279","","","","","",""
"35","","bandit","236","549115","0.0-198.0-0.0","19275182","wem/bandit_single","A13VIJ7G997ZCY","pain","8","","74","J","1","","0","1","0","","0.2506164635","false","161","","0.2615252743","main_expt","","0.2506164635","","0.07903667538","","0.2244749933","","","","","",""
"32","","bandit","237","550907","0.0-199.0-0.0","19275182","wem/bandit_single","A13VIJ7G997ZCY","pain","8","","74","J","1","","0","0","1","","0.2858836385","false","162","","0.2187643747","main_expt","","0.2858836385","","0.1136507332","","0.23263707","","","","","",""
"9","","bandit","238","552674","0.0-200.0-0.0","19275182","wem/bandit_single","A13VIJ7G997ZCY","pain","8","","74","J","1","","0","0","1","","0.2848163613","false","163","","0.1909081127","main_expt","","0.2848163613","","0.1137116213","","0.2287127565","","","","","",""
"982","","bandit","239","555418","0.0-201.0-0.0","19275182","wem/bandit_single","A13VIJ7G997ZCY","pain","8","","74","J","1","","0","0","1","","0.2688566635","false","164","","0.1808716434","main_expt","","0.2688566635","","0.1254102563","","0.2303253206","","","","","",""
"97","","bandit","240","557276","0.0-202.0-0.0","19275182","wem/bandit_single","A13VIJ7G997ZCY","pain","8","","74","J","1","","0","1","0","","0.2921202554","false","165","","0.2118073572","main_expt","","0.2921202554","","0.1216805934","","0.2771057403","","","","","",""
"57","","bandit","241","559092","0.0-203.0-0.0","19275182","wem/bandit_single","A13VIJ7G997ZCY","pain","8","","74","J","1","","0","1","0","","0.3143591269","false","166","","0.2410554973","main_expt","","0.3143591269","","0.1291529517","","0.2371810998","","","","","",""
"31","","bandit","242","560882","0.0-204.0-0.0","19275182","wem/bandit_single","A13VIJ7G997ZCY","pain","8","","74","J","1","","0","0","1","","0.2892924204","false","167","","0.2574005288","main_expt","","0.2892924204","","0.1535345887","","0.2349122652","","","","","",""
"254","","bandit","243","562915","0.0-205.0-0.0","19275182","wem/bandit_single","A13VIJ7G997ZCY","pain","8","","74","J","1","","0","0","1","","0.2786305655","false","168","","0.2729884233","main_expt","","0.2786305655","","0.1435034989","","0.1959020284","","","","","",""
"101","","bandit","244","564779","0.0-206.0-0.0","19275182","wem/bandit_single","A13VIJ7G997ZCY","pain","8","","74","J","1","","0","0","1","","0.246803054","false","169","","0.2625821735","main_expt","","0.246803054","","0.1957458285","","0.1899859579","","","","","",""
"95","","bandit","245","566636","0.0-207.0-0.0","19275182","wem/bandit_single","A13VIJ7G997ZCY","pain","8","","74","J","1","","0","0","1","","0.2375021307","false","170","","0.3100542845","main_expt","","0.2375021307","","0.1308867566","","0.2213833812","","","","","",""
"28","","bandit","246","568426","0.0-208.0-0.0","19275182","wem/bandit_single","A13VIJ7G997ZCY","pain","8","","74","J","1","","0","0","1","","0.2965678991","false","171","","0.3083945368","main_expt","","0.2965678991","","0.1422271972","","0.1589997081","","","","","",""
"37","","bandit","247","570222","0.0-209.0-0.0","19275182","wem/bandit_single","A13VIJ7G997ZCY","pain","8","","72","H","0","img/none_selected.jpg","0","0","1","","0.3929186772","false","172","","0.3929186772","main_expt","","0.2696718616","","0.1541925874","","0.1669714507","","","","","",""
"29","","bandit","248","572010","0.0-210.0-0.0","19275182","wem/bandit_single","A13VIJ7G997ZCY","pain","8","","76","L","3","","0","1","0","","0.1699847696","false","173","","0.4107736206","main_expt","","0.2576521005","","0.1416394444","","0.1699847696","","","","","",""
"418","","bandit","249","574188","0.0-211.0-0.0","19275182","wem/bandit_single","A13VIJ7G997ZCY","pain","8","","76","L","3","","0","1","0","","0.202136981","false","174","","0.4267170337","main_expt","","0.2839516933","","0.1207830423","","0.202136981","","","","","",""
"45","","bandit","250","575994","0.0-212.0-0.0","19275182","wem/bandit_single","A13VIJ7G997ZCY","pain","8","","76","L","3","","0","0","1","","0.1863880777","false","175","","0.420504823","main_expt","","0.2932452363","","0.1636312712","","0.1863880777","","","","","",""
"104","","bandit","251","577858","0.0-213.0-0.0","19275182","wem/bandit_single","A13VIJ7G997ZCY","pain","8","","76","L","3","","0","0","1","","0.1426909825","false","176","","0.3956962169","main_expt","","0.3118313574","","0.186569684","","0.1426909825","","","","","",""
"95","","bandit","252","579731","0.0-214.0-0.0","19275182","wem/bandit_single","A13VIJ7G997ZCY","pain","8","","76","L","3","","0","0","1","","0.1335645184","false","177","","0.3834761318","main_expt","","0.3378695823","","0.1089038478","","0.1335645184","","","","","",""
"41","","bandit","253","581533","0.0-215.0-0.0","19275182","wem/bandit_single","A13VIJ7G997ZCY","pain","8","","76","L","3","","0","0","1","","0.09719791569","false","178","","0.4167112469","main_expt","","0.3234122319","","0.08465244813","","0.09719791569","","","","","",""
"45","","bandit","254","583337","0.0-216.0-0.0","19275182","wem/bandit_single","A13VIJ7G997ZCY","pain","8","","76","L","3","","0","0","1","","0.07123289457","false","179","","0.4370197561","main_expt","","0.3281528324","","0.1015747644","","0.07123289457","","","","","",""
"26","","bandit","255","585124","0.0-217.0-0.0","19275182","wem/bandit_single","A13VIJ7G997ZCY","pain","8","","76","L","3","","0","0","1","","0.05555663239","false","180","","0.3776598584","main_expt","","0.340497037","","0.1277953302","","0.05555663239","","","","","",""
"38","","bandit","256","586923","0.0-218.0-0.0","19275182","wem/bandit_single","A13VIJ7G997ZCY","pain","8","","75","K","2","","0","0","1","","0.1854921141","false","181","","0.3636519722","main_expt","","0.3007371283","","0.1854921141","","0.04396828199","","","","","",""
"416","","bandit","257","589098","0.0-219.0-0.0","19275182","wem/bandit_single","A13VIJ7G997ZCY","pain","8","","75","K","2","","0","0","1","","0.2273529654","false","182","","0.3246411676","main_expt","","0.3190136055","","0.2273529654","","0.02691259782","","","","","",""
"145","","bandit","258","591002","0.0-220.0-0.0","19275182","wem/bandit_single","A13VIJ7G997ZCY","pain","8","","74","J","1","","0","0","1","","0.322323442","false","183","","0.3187018958","main_expt","","0.322323442","","0.2600234541","","0.04807599522","","","","","",""
"72","","bandit","259","592844","0.0-221.0-0.0","19275182","wem/bandit_single","A13VIJ7G997ZCY","pain","8","","74","J","1","","0","0","1","","0.3086696071","false","184","","0.3497063737","main_expt","","0.3086696071","","0.2689652485","","0.05076165442","","","","","",""
"69","","bandit","260","594674","0.0-222.0-0.0","19275182","wem/bandit_single","A13VIJ7G997ZCY","pain","8","","72","H","0","img/none_selected.jpg","0","1","0","","0.3334532315","false","185","","0.3334532315","main_expt","","0.3146814862","","0.2646203852","","0.1128087831","","","","","",""
"23","","bandit","261","596458","0.0-223.0-0.0","19275182","wem/bandit_single","A13VIJ7G997ZCY","pain","8","","72","H","0","img/none_selected.jpg","0","1","0","","0.3511592443","false","186","","0.3511592443","main_expt","","0.3353274036","","0.2038557162","","0.1592260056","","","","","",""
"42","","bandit","262","598274","0.0-224.0-0.0","19275182","wem/bandit_single","A13VIJ7G997ZCY","pain","8","","72","H","0","img/none_selected.jpg","0","0","1","","0.3758503369","false","187","","0.3758503369","main_expt","","0.331036234","","0.2643634763","","0.2195828404","","","","","",""
"31","","bandit","263","600065","0.0-225.0-0.0","19275182","wem/bandit_single","A13VIJ7G997ZCY","pain","8","","72","H","0","img/none_selected.jpg","0","0","1","","0.3951098987","false","188","","0.3951098987","main_expt","","0.3061178756","","0.2137054787","","0.214856838","","","","","",""
"352","","bandit","264","602178","0.0-226.0-0.0","19275182","wem/bandit_single","A13VIJ7G997ZCY","pain","8","","72","H","0","img/none_selected.jpg","0","0","1","","0.3766733461","false","189","","0.3766733461","main_expt","","0.3455914038","","0.2349639762","","0.2103369464","","","","","",""
"210","","bandit","265","604155","0.0-227.0-0.0","19275182","wem/bandit_single","A13VIJ7G997ZCY","pain","8","","72","H","0","img/none_selected.jpg","0","0","1","","0.3974997784","false","190","","0.3974997784","main_expt","","0.3734842368","","0.2067261929","","0.1932940482","","","","","",""
"55","","bandit","266","605969","0.0-228.0-0.0","19275182","wem/bandit_single","A13VIJ7G997ZCY","pain","8","","72","H","0","img/none_selected.jpg","0","0","1","","0.4174686418","false","191","","0.4174686418","main_expt","","0.3648323685","","0.275245882","","0.2285646161","","","","","",""
"56","","bandit","267","607786","0.0-229.0-0.0","19275182","wem/bandit_single","A13VIJ7G997ZCY","pain","8","","74","J","1","","0","1","0","","0.3339781981","false","192","","0.3963748123","main_expt","","0.3339781981","","0.306220044","","0.2589031043","","","","","",""
"95","","bandit","268","609641","0.0-230.0-0.0","19275182","wem/bandit_single","A13VIJ7G997ZCY","pain","8","","74","J","1","","0","1","0","","0.3342714415","false","193","","0.3921748604","main_expt","","0.3342714415","","0.3035773814","","0.2195537535","","","","","",""
"33","","bandit","269","611434","0.0-231.0-0.0","19275182","wem/bandit_single","A13VIJ7G997ZCY","pain","8","","74","J","1","","0","0","1","","0.3241295504","false","194","","0.3580841109","main_expt","","0.3241295504","","0.2510827831","","0.2027550427","","","","","",""
"16","","bandit","270","613209","0.0-232.0-0.0","19275182","wem/bandit_single","A13VIJ7G997ZCY","pain","8","","74","J","1","","0","0","1","","0.3116310431","false","195","","0.3508589263","main_expt","","0.3116310431","","0.2455858858","","0.1862287394","","","","","",""
"537","","bandit","271","615506","0.0-233.0-0.0","19275182","wem/bandit_single","A13VIJ7G997ZCY","pain","8","","75","K","2","","0","0","1","","0.2514601016","false","196","","0.3580593089","main_expt","","0.3757707762","","0.2514601016","","0.1892299528","","","","","",""
"345","","bandit","272","617610","0.0-234.0-0.0","19275182","wem/bandit_single","A13VIJ7G997ZCY","pain","8","","76","L","3","","0","0","1","","0.2217707201","false","197","","0.325214339","main_expt","","0.3510132286","","0.2735270373","","0.2217707201","","","","","",""
"8","","bandit","273","619378","0.0-235.0-0.0","19275182","wem/bandit_single","A13VIJ7G997ZCY","pain","8","","75","K","2","","0","0","1","","0.1856542716","false","198","","0.3214736551","main_expt","","0.3775824693","","0.1856542716","","0.2622368769","","","","","",""
"44","","bandit","274","621189","0.0-236.0-0.0","19275182","wem/bandit_single","A13VIJ7G997ZCY","pain","8","","76","L","3","","0","0","1","","0.2566369559","false","199","","0.3134841864","main_expt","","0.3591355879","","0.1439471636","","0.2566369559","","","","","",""
"42","","bandit","275","622993","0.0-237.0-0.0","19275182","wem/bandit_single","A13VIJ7G997ZCY","pain","8","","72","H","0","img/none_selected.jpg","0","0","1","","0.3484934822","false","200","","0.3484934822","main_expt","","0.4329566742","","0.1920673188","","0.2405232655","","","","","",""
"45","","bandit","276","624803","0.0-238.0-0.0","19275182","wem/bandit_single","A13VIJ7G997ZCY","pain","8","","74","J","1","","0","1","0","","0.4316294991","false","201","","0.3509587021","main_expt","","0.4316294991","","0.2139557707","","0.191632201","","","","","",""
"48","","bandit","277","626611","0.0-239.0-0.0","19275182","wem/bandit_single","A13VIJ7G997ZCY","pain","8","","74","J","1","","0","0","1","","0.4446061493","false","202","","0.3472711197","main_expt","","0.4446061493","","0.2411081829","","0.1860277461","","","","","",""
"15","","bandit","278","628386","0.0-240.0-0.0","19275182","wem/bandit_single","A13VIJ7G997ZCY","pain","8","","74","J","1","","0","1","0","","0.4350640844","false","203","","0.3501901851","main_expt","","0.4350640844","","0.2229679022","","0.1959395152","","","","","",""
"40","","bandit","279","630185","0.0-241.0-0.0","19275182","wem/bandit_single","A13VIJ7G997ZCY","pain","8","","74","J","1","","0","0","1","","0.4511953558","false","204","","0.4021923856","main_expt","","0.4511953558","","0.2094072873","","0.1909798814","","","","","",""
"121","","bandit","280","632067","0.0-242.0-0.0","19275182","wem/bandit_single","A13VIJ7G997ZCY","pain","8","","74","J","1","","0","0","1","","0.4444608137","false","205","","0.4103624794","main_expt","","0.4444608137","","0.2061243076","","0.1952925147","","","","","",""
"110","","bandit","281","633950","0.0-243.0-0.0","19275182","wem/bandit_single","A13VIJ7G997ZCY","pain","8","","74","J","1","","0","1","0","","0.4174874576","false","206","","0.3884407208","main_expt","","0.4174874576","","0.1830656651","","0.2333477628","","","","","",""
"67","","bandit","282","635778","0.0-244.0-0.0","19275182","wem/bandit_single","A13VIJ7G997ZCY","pain","8","","74","J","1","","0","0","1","","0.4473837798","false","207","","0.4205181933","main_expt","","0.4473837798","","0.1806213093","","0.2366383375","","","","","",""
"97","","bandit","283","637635","0.0-245.0-0.0","19275182","wem/bandit_single","A13VIJ7G997ZCY","pain","8","","74","J","1","","0","0","1","","0.4423282801","false","208","","0.39705837","main_expt","","0.4423282801","","0.1547428587","","0.2588239296","","","","","",""
"61","","bandit","284","639457","0.0-246.0-0.0","19275182","wem/bandit_single","A13VIJ7G997ZCY","pain","8","","74","J","1","","0","1","0","","0.4495798672","false","209","","0.3763678409","main_expt","","0.4495798672","","0.1633509089","","0.2109346514","","","","","",""
"117","","bandit","285","641345","0.0-247.0-0.0","19275182","wem/bandit_single","A13VIJ7G997ZCY","pain","8","","74","J","1","","0","1","0","","0.4604116181","false","210","","0.329669689","main_expt","","0.4604116181","","0.194224154","","0.2352346414","","","","","",""
"41","","bandit","286","643146","0.0-248.0-0.0","19275182","wem/bandit_single","A13VIJ7G997ZCY","pain","8","","74","J","1","","0","1","0","","0.4515605979","false","211","","0.3234151823","main_expt","","0.4515605979","","0.1428536625","","0.1919095989","","","","","",""
"45","","bandit","287","644953","0.0-249.0-0.0","19275182","wem/bandit_single","A13VIJ7G997ZCY","pain","8","","74","J","1","","0","0","1","","0.3796359761","false","212","","0.346289724","main_expt","","0.3796359761","","0.1876263767","","0.2511997366","","","","","",""
"49","","bandit","288","646761","0.0-250.0-0.0","19275182","wem/bandit_single","A13VIJ7G997ZCY","pain","8","","74","J","1","","0","0","1","","0.4098311692","false","213","","0.3579646626","main_expt","","0.4098311692","","0.1767426991","","0.2247602752","","","","","",""
"33","","bandit","289","648555","0.0-251.0-0.0","19275182","wem/bandit_single","A13VIJ7G997ZCY","pain","8","","74","J","1","","0","1","0","","0.3758430492","false","214","","0.3871938136","main_expt","","0.3758430492","","0.1997003326","","0.2078026042","","","","","",""
"1166","","bandit","290","651482","0.0-252.0-0.0","19275182","wem/bandit_single","A13VIJ7G997ZCY","pain","8","","74","J","1","","0","0","1","","0.3391734167","false","215","","0.4072701047","main_expt","","0.3391734167","","0.1753208105","","0.2000367883","","","","","",""
"275","","bandit","291","653523","0.0-253.0-0.0","19275182","wem/bandit_single","A13VIJ7G997ZCY","pain","8","","74","J","1","","0","0","1","","0.3292806148","false","216","","0.4139997029","main_expt","","0.3292806148","","0.1526073348","","0.1850279066","","","","","",""
"502","","bandit","292","655785","0.0-254.0-0.0","19275182","wem/bandit_single","A13VIJ7G997ZCY","pain","8","","74","J","1","","0","1","0","","0.3672552775","false","217","","0.4058129166","main_expt","","0.3672552775","","0.1885901152","","0.1862329662","","","","","",""
"255","","bandit","293","657801","0.0-255.0-0.0","19275182","wem/bandit_single","A13VIJ7G997ZCY","pain","8","","74","J","1","","0","1","0","","0.3540988412","false","218","","0.3831507141","main_expt","","0.3540988412","","0.2068683321","","0.2076422808","","","","","",""
"48","","bandit","294","659612","0.0-256.0-0.0","19275182","wem/bandit_single","A13VIJ7G997ZCY","pain","8","","74","J","1","","0","0","1","","0.3705907093","false","219","","0.3975704748","main_expt","","0.3705907093","","0.1830460615","","0.1693095695","","","","","",""
"69","","bandit","295","661441","0.0-257.0-0.0","19275182","wem/bandit_single","A13VIJ7G997ZCY","pain","8","","74","J","1","","0","0","1","","0.4071767116","false","220","","0.420208779","main_expt","","0.4071767116","","0.1510464272","","0.1643321708","","","","","",""
"89","","bandit","296","663289","0.0-258.0-0.0","19275182","wem/bandit_single","A13VIJ7G997ZCY","pain","8","","74","J","1","","0","0","1","","0.4000591573","false","221","","0.4277126104","main_expt","","0.4000591573","","0.1195154075","","0.1755642267","","","","","",""
"128","","bandit","297","665177","0.0-259.0-0.0","19275182","wem/bandit_single","A13VIJ7G997ZCY","pain","8","","74","J","1","","0","0","1","","0.4257242725","false","222","","0.4098861052","main_expt","","0.4257242725","","0.1322821073","","0.2047466037","","","","","",""
"72","","bandit","298","667010","0.0-260.0-0.0","19275182","wem/bandit_single","A13VIJ7G997ZCY","pain","8","","76","L","3","","0","0","1","","0.1261696039","false","223","","0.3865692481","main_expt","","0.4084538547","","0.1634864242","","0.1261696039","","","","","",""
"86","","bandit","299","668857","0.0-261.0-0.0","19275182","wem/bandit_single","A13VIJ7G997ZCY","pain","8","","75","K","2","","0","0","1","","0.1927622759","false","224","","0.3942994903","main_expt","","0.3756333804","","0.1927622759","","0.1671605087","","","","","",""
"49","","bandit","300","670667","0.0-262.0-0.0","19275182","wem/bandit_single","A13VIJ7G997ZCY","pain","8","","72","H","0","img/none_selected.jpg","0","0","1","","0.3444994861","false","225","","0.3444994861","main_expt","","0.3977261909","","0.1949177646","","0.1498322393","","","","","",""
"45","","bandit","301","672474","0.0-263.0-0.0","19275182","wem/bandit_single","A13VIJ7G997ZCY","pain","8","","74","J","1","","0","0","1","","0.3876796808","false","226","","0.4042132592","main_expt","","0.3876796808","","0.1675301724","","0.106170416","","","","","",""
"139","","bandit","302","674372","0.0-264.0-0.0","19275182","wem/bandit_single","A13VIJ7G997ZCY","pain","8","","74","J","1","","0","1","0","","0.3213858912","false","227","","0.3906229402","main_expt","","0.3213858912","","0.163375113","","0.0897934899","","","","","",""
"73","","bandit","303","676211","0.0-265.0-0.0","19275182","wem/bandit_single","A13VIJ7G997ZCY","pain","8","","74","J","1","","0","1","0","","0.3331191915","false","228","","0.3417164876","main_expt","","0.3331191915","","0.195474145","","0.09443294629","","","","","",""
"12","","bandit","304","677986","0.0-266.0-0.0","19275182","wem/bandit_single","A13VIJ7G997ZCY","pain","8","","74","J","1","","0","0","1","","0.308496805","false","229","","0.3222205624","main_expt","","0.308496805","","0.2410354958","","0.0848669953","","","","","",""
"31","","bandit","305","679777","0.0-267.0-0.0","19275182","wem/bandit_single","A13VIJ7G997ZCY","pain","8","","74","J","1","","0","0","1","","0.2734654059","false","230","","0.3442672336","main_expt","","0.2734654059","","0.2567648542","","0.0701458292","","","","","",""
"121","","bandit","306","681659","0.0-268.0-0.0","19275182","wem/bandit_single","A13VIJ7G997ZCY","pain","8","","74","J","1","","0","1","0","","0.292212981","false","231","","0.3164459362","main_expt","","0.292212981","","0.2304241664","","0.1251282835","","","","","",""
"517","","bandit","307","683940","0.0-269.0-0.0","19275182","wem/bandit_single","A13VIJ7G997ZCY","pain","8","","74","J","1","","0","0","1","","0.2516656152","false","232","","0.3396906789","main_expt","","0.2516656152","","0.2264886823","","0.1124912266","","","","","",""
"59","","bandit","308","685761","0.0-270.0-0.0","19275182","wem/bandit_single","A13VIJ7G997ZCY","pain","8","","74","J","1","","0","0","1","","0.2563877418","false","233","","0.3008540409","main_expt","","0.2563877418","","0.1892320941","","0.1535494164","","","","","",""
"156","","bandit","309","687682","0.0-271.0-0.0","19275182","wem/bandit_single","A13VIJ7G997ZCY","pain","8","","74","J","1","","0","0","1","","0.283882603","false","234","","0.2767988229","main_expt","","0.283882603","","0.1556895318","","0.1389628654","","","","","",""
"15","","bandit","310","689457","0.0-272.0-0.0","19275182","wem/bandit_single","A13VIJ7G997ZCY","pain","8","","74","J","1","","0","0","1","","0.2758852766","false","235","","0.2507781603","main_expt","","0.2758852766","","0.1976044491","","0.1680793718","","","","","",""
"46","","bandit","311","691266","0.0-273.0-0.0","19275182","wem/bandit_single","A13VIJ7G997ZCY","pain","8","","72","H","0","img/none_selected.jpg","0","0","1","","0.3091667607","false","236","","0.3091667607","main_expt","","0.2434452049","","0.1468950029","","0.2037097706","","","","","",""
"471","","bandit","312","693498","0.0-274.0-0.0","19275182","wem/bandit_single","A13VIJ7G997ZCY","pain","8","","74","J","1","","0","0","1","","0.2405517979","false","237","","0.2883211118","main_expt","","0.2405517979","","0.1365515699","","0.1897176974","","","","","",""
"230","","bandit","313","695489","0.0-275.0-0.0","19275182","wem/bandit_single","A13VIJ7G997ZCY","pain","8","","75","K","2","","0","0","1","","0.1527077476","false","238","","0.2756444762","main_expt","","0.2260832521","","0.1527077476","","0.2317710791","","","","","",""
"1","","bandit","314","697253","0.0-276.0-0.0","19275182","wem/bandit_single","A13VIJ7G997ZCY","pain","8","","76","L","3","","0","0","1","","0.2206906913","false","239","","0.3061346513","main_expt","","0.2061693665","","0.1315224722","","0.2206906913","","","","","",""
"51","","bandit","315","699065","0.0-277.0-0.0","19275182","wem/bandit_single","A13VIJ7G997ZCY","pain","8","","74","J","1","","0","0","1","","0.2203195159","false","240","","0.3274201615","main_expt","","0.2203195159","","0.1398926963","","0.2155283076","","","","","",""
"79","","bandit","316","700905","0.0-278.0-0.0","19275182","wem/bandit_single","A13VIJ7G997ZCY","pain","8","","74","J","1","","0","0","1","","0.2230507071","false","241","","0.2838770346","main_expt","","0.2230507071","","0.1698873683","","0.2386015387","","","","","",""
"37","","bandit","317","702705","0.0-279.0-0.0","19275182","wem/bandit_single","A13VIJ7G997ZCY","pain","8","","74","J","1","","0","0","1","","0.1834748297","false","242","","0.261873528","main_expt","","0.1834748297","","0.1693915972","","0.2178179326","","","","","",""
"184","","bandit","318","704653","0.0-280.0-0.0","19275182","wem/bandit_single","A13VIJ7G997ZCY","pain","8","","72","H","0","img/none_selected.jpg","0","0","1","","0.2346518895","false","243","","0.2346518895","main_expt","","0.1450766806","","0.2011280514","","0.2209910316","","","","","",""
"244","","bandit","319","706658","0.0-281.0-0.0","19275182","wem/bandit_single","A13VIJ7G997ZCY","pain","8","","75","K","2","","0","0","1","","0.283074141","false","244","","0.2253303202","main_expt","","0.1407015906","","0.283074141","","0.2202366047","","","","","",""
"419","","bandit","320","708838","0.0-282.0-0.0","19275182","wem/bandit_single","A13VIJ7G997ZCY","pain","8","","76","L","3","","0","0","1","","0.2369425358","false","245","","0.2379184421","main_expt","","0.1386250556","","0.2960363525","","0.2369425358","","","","","",""
"51","","bandit","321","710649","0.0-283.0-0.0","19275182","wem/bandit_single","A13VIJ7G997ZCY","pain","8","","72","H","0","img/none_selected.jpg","0","1","0","","0.1704118475","false","246","","0.1704118475","main_expt","","0.1561911267","","0.2985154159","","0.2437218948","","","","","",""
"7","","bandit","322","712417","0.0-284.0-0.0","19275182","wem/bandit_single","A13VIJ7G997ZCY","pain","8","","72","H","0","img/none_selected.jpg","0","1","0","","0.1520093858","false","247","","0.1520093858","main_expt","","0.251644506","","0.3159682012","","0.2573167276","","","","","",""
"182","","bandit","323","714361","0.0-285.0-0.0","19275182","wem/bandit_single","A13VIJ7G997ZCY","pain","8","","72","H","0","img/none_selected.jpg","0","0","1","","0.1246217458","false","248","","0.1246217458","main_expt","","0.2541276422","","0.2937445921","","0.255349996","","","","","",""
"1447","","bandit","324","717570","0.0-286.0-0.0","19275182","wem/bandit_single","A13VIJ7G997ZCY","pain","8","","72","H","0","img/none_selected.jpg","0","0","1","","0.1525969556","false","249","","0.1525969556","main_expt","","0.1924412691","","0.2794909668","","0.2866877344","","","","","",""
"102","","bandit","325","719434","0.0-287.0-0.0","19275182","wem/bandit_single","A13VIJ7G997ZCY","pain","8","","72","H","0","img/none_selected.jpg","0","0","1","","0.1500628479","false","250","","0.1500628479","main_expt","","0.1397358892","","0.2327966623","","0.2330780591","","","","","",""
"138","","bandit","326","721334","0.0-288.0-0.0","19275182","wem/bandit_single","A13VIJ7G997ZCY","pain","8","","72","H","0","img/none_selected.jpg","0","0","1","","0.1141396938","false","251","","0.1141396938","main_expt","","0.1362233376","","0.2595602212","","0.2580196572","","","","","",""
"13","","bandit","327","723107","0.0-289.0-0.0","19275182","wem/bandit_single","A13VIJ7G997ZCY","pain","8","","75","K","2","","0","0","1","","0.2715763176","false","252","","0.1476089834","main_expt","","0.1796418735","","0.2715763176","","0.2003146692","","","","","",""
"29","","bandit","328","724898","0.0-290.0-0.0","19275182","wem/bandit_single","A13VIJ7G997ZCY","pain","8","","72","H","0","img/none_selected.jpg","0","0","1","","0.175183139","false","253","","0.175183139","main_expt","","0.1833608075","","0.3146654463","","0.1651092288","","","","","",""
"50","","bandit","329","726709","0.0-291.0-0.0","19275182","wem/bandit_single","A13VIJ7G997ZCY","pain","8","","76","L","3","","0","0","1","","0.1413675546","false","254","","0.1916323123","main_expt","","0.1983034343","","0.3037610447","","0.1413675546","","","","","",""
"130","","bandit","330","728603","0.0-292.0-0.0","19275182","wem/bandit_single","A13VIJ7G997ZCY","pain","8","","72","H","0","img/none_selected.jpg","0","1","0","","0.1888714334","false","255","","0.1888714334","main_expt","","0.2286544637","","0.287825992","","0.1801919014","","","","","",""
"45","","bandit","331","730409","0.0-293.0-0.0","19275182","wem/bandit_single","A13VIJ7G997ZCY","pain","8","","72","H","0","img/none_selected.jpg","0","0","1","","0.2338577058","false","256","","0.2338577058","main_expt","","0.2502735072","","0.2673332977","","0.1883387327","","","","","",""
"50","","bandit","332","732230","0.0-294.0-0.0","19275182","wem/bandit_single","A13VIJ7G997ZCY","pain","8","","72","H","0","img/none_selected.jpg","0","0","1","","0.2235288738","false","257","","0.2235288738","main_expt","","0.2657937058","","0.2867614738","","0.1757220287","","","","","",""
"183","","bandit","333","734177","0.0-295.0-0.0","19275182","wem/bandit_single","A13VIJ7G997ZCY","pain","8","","72","H","0","img/none_selected.jpg","0","0","1","","0.2256298632","false","258","","0.2256298632","main_expt","","0.2326681124","","0.2432485896","","0.1817694486","","","","","",""
"31","","bandit","334","735970","0.0-296.0-0.0","19275182","wem/bandit_single","A13VIJ7G997ZCY","pain","8","","72","H","0","img/none_selected.jpg","0","0","1","","0.229367941","false","259","","0.229367941","main_expt","","0.2128848171","","0.2433124215","","0.1938363466","","","","","",""
"81","","bandit","335","737811","0.0-297.0-0.0","19275182","wem/bandit_single","A13VIJ7G997ZCY","pain","8","","74","J","1","","0","1","0","","0.261065439","false","260","","0.2585863351","main_expt","","0.261065439","","0.202057327","","0.2129025296","","","","","",""
"17","","bandit","336","739596","0.0-298.0-0.0","19275182","wem/bandit_single","A13VIJ7G997ZCY","pain","8","","74","J","1","","0","0","1","","0.2693274395","false","261","","0.2748644017","main_expt","","0.2693274395","","0.163702413","","0.1931457884","","","","","",""
"212","","bandit","337","741572","0.0-299.0-0.0","19275182","wem/bandit_single","A13VIJ7G997ZCY","pain","8","","74","J","1","","0","0","1","","0.3386888623","false","262","","0.288340978","main_expt","","0.3386888623","","0.1317961998","","0.183306516","","","","","",""
"22","","bandit","338","743355","0.0-300.0-0.0","19275182","wem/bandit_single","A13VIJ7G997ZCY","pain","8","","74","J","1","","0","0","1","","0.3645909238","false","263","","0.3151532186","main_expt","","0.3645909238","","0.09680570831","","0.1293037787","","","","","",""
"92","","bandit","339","745210","0.0-301.0-0.0","19275182","wem/bandit_single","A13VIJ7G997ZCY","pain","8","","72","H","0","img/none_selected.jpg","0","0","1","","0.2931268787","false","264","","0.2931268787","main_expt","","0.3437159196","","0.08846786375","","0.1386072774","","","","","",""
"12","","bandit","340","746986","0.0-302.0-0.0","19275182","wem/bandit_single","A13VIJ7G997ZCY","pain","8","","74","J","1","","0","0","1","","0.3644358952","false","265","","0.3131275506","main_expt","","0.3644358952","","0.08556864258","","0.1511252148","","","","","",""
"26","","bandit","341","748772","0.0-303.0-0.0","19275182","wem/bandit_single","A13VIJ7G997ZCY","pain","8","","74","J","1","","0","1","0","","0.3904852039","false","266","","0.336523231","main_expt","","0.3904852039","","0.0706515048","","0.2186772706","","","","","",""
"82","","bandit","342","750618","0.0-304.0-0.0","19275182","wem/bandit_single","A13VIJ7G997ZCY","pain","8","","74","J","1","","0","0","1","","0.3896615427","false","267","","0.2850369317","main_expt","","0.3896615427","","0.0747424838","","0.2625163009","","","","","",""
"23","","bandit","343","752402","0.0-305.0-0.0","19275182","wem/bandit_single","A13VIJ7G997ZCY","pain","8","","74","J","1","","0","1","0","","0.4017278216","false","268","","0.3163307124","main_expt","","0.4017278216","","0.112617448","","0.3140442454","","","","","",""
"32","","bandit","344","754194","0.0-306.0-0.0","19275182","wem/bandit_single","A13VIJ7G997ZCY","pain","8","","74","J","1","","0","0","1","","0.370996795","false","269","","0.2956683275","main_expt","","0.370996795","","0.1406639307","","0.3069084364","","","","","",""
"92","","bandit","345","756051","0.0-307.0-0.0","19275182","wem/bandit_single","A13VIJ7G997ZCY","pain","8","","74","J","1","","0","1","0","","0.4255483526","false","270","","0.3574655381","main_expt","","0.4255483526","","0.1398727949","","0.2814908846","","","","","",""
"70","","bandit","346","757883","0.0-308.0-0.0","19275182","wem/bandit_single","A13VIJ7G997ZCY","pain","8","","74","J","1","","0","0","1","","0.3948114384","false","271","","0.3969117111","main_expt","","0.3948114384","","0.1430486157","","0.3060786573","","","","","",""
"34","","bandit","347","759677","0.0-309.0-0.0","19275182","wem/bandit_single","A13VIJ7G997ZCY","pain","8","","74","J","1","","0","0","1","","0.3713372483","false","272","","0.3938657786","main_expt","","0.3713372483","","0.1872928851","","0.3555003363","","","","","",""
"27","","bandit","348","761466","0.0-310.0-0.0","19275182","wem/bandit_single","A13VIJ7G997ZCY","pain","8","","74","J","1","","0","0","1","","0.3650537767","false","273","","0.3903330825","main_expt","","0.3650537767","","0.1769074474","","0.3980140183","","","","","",""
"341","","bandit","349","763579","0.0-311.0-0.0","19275182","wem/bandit_single","A13VIJ7G997ZCY","pain","8","","74","J","1","","0","1","0","","0.3414565802","false","274","","0.4236793781","main_expt","","0.3414565802","","0.1820324592","","0.4077181827","","","","","",""
"13","","bandit","350","765355","0.0-312.0-0.0","19275182","wem/bandit_single","A13VIJ7G997ZCY","pain","8","","74","J","1","","0","0","1","","0.3027622838","false","275","","0.4320968281","main_expt","","0.3027622838","","0.1923133529","","0.4142369189","","","","","",""
"53","","bandit","351","767170","0.0-313.0-0.0","19275182","wem/bandit_single","A13VIJ7G997ZCY","pain","8","","74","J","1","","0","0","1","","0.3125082267","false","276","","0.4017915655","main_expt","","0.3125082267","","0.1917589367","","0.4250096067","","","","","",""
"63","","bandit","352","768994","0.0-314.0-0.0","19275182","wem/bandit_single","A13VIJ7G997ZCY","pain","8","","74","J","1","","0","1","0","","0.348890663","false","277","","0.3548215972","main_expt","","0.348890663","","0.1667093518","","0.4378988515","","","","","",""
"55","","bandit","353","770813","0.0-315.0-0.0","19275182","wem/bandit_single","A13VIJ7G997ZCY","pain","8","","74","J","1","","0","0","1","","0.3341457036","false","278","","0.3683165275","main_expt","","0.3341457036","","0.1695638059","","0.4323676568","","","","","",""
"89","","bandit","354","772666","0.0-316.0-0.0","19275182","wem/bandit_single","A13VIJ7G997ZCY","pain","8","","74","J","1","","0","1","0","","0.2341959149","false","279","","0.3750953637","main_expt","","0.2341959149","","0.1696283439","","0.4391545144","","","","","",""
"200","","bandit","355","774628","0.0-317.0-0.0","19275182","wem/bandit_single","A13VIJ7G997ZCY","pain","8","","74","J","1","","0","0","1","","0.1839622844","false","280","","0.3557095414","main_expt","","0.1839622844","","0.09227733008","","0.4467207207","","","","","",""
"43","","bandit","356","776435","0.0-318.0-0.0","19275182","wem/bandit_single","A13VIJ7G997ZCY","pain","8","","74","J","1","","0","0","1","","0.1303375237","false","281","","0.374333358","main_expt","","0.1303375237","","0.08059064446","","0.3922333676","","","","","",""
"156","","bandit","357","778355","0.0-319.0-0.0","19275182","wem/bandit_single","A13VIJ7G997ZCY","pain","8","","74","J","1","","0","0","1","","0.07449941097","false","282","","0.3786855632","main_expt","","0.07449941097","","0.06236597977","","0.4243132136","","","","","",""
"68","","bandit","358","780185","0.0-320.0-0.0","19275182","wem/bandit_single","A13VIJ7G997ZCY","pain","8","","74","J","1","","0","0","1","","0.08783129911","false","283","","0.437514669","main_expt","","0.08783129911","","0.07782340279","","0.4187362854","","","","","",""
"185","","bandit","359","782130","0.0-321.0-0.0","19275182","wem/bandit_single","A13VIJ7G997ZCY","pain","8","","74","J","1","","0","0","1","","0.08228152097","false","284","","0.410198323","main_expt","","0.08228152097","","0.07564660971","","0.422543139","","","","","",""
"170","","bandit","360","784066","0.0-322.0-0.0","19275182","wem/bandit_single","A13VIJ7G997ZCY","pain","8","","74","J","1","","0","0","1","","0.09246744832","false","285","","0.3777139522","main_expt","","0.09246744832","","0.08237135124","","0.434302279","","","","","",""
"78","","bandit","361","785906","0.0-323.0-0.0","19275182","wem/bandit_single","A13VIJ7G997ZCY","pain","8","","74","J","1","","0","0","1","","0.08394792075","false","286","","0.3841171753","main_expt","","0.08394792075","","0.05670298638","","0.4094725029","","","","","",""
"35","","bandit","362","787705","0.0-324.0-0.0","19275182","wem/bandit_single","A13VIJ7G997ZCY","pain","8","","72","H","0","img/none_selected.jpg","0","0","1","","0.3641862554","false","287","","0.3641862554","main_expt","","0.1021913287","","0.06647452785","","0.3778080042","","","","","",""
"56","","bandit","363","789529","0.0-325.0-0.0","19275182","wem/bandit_single","A13VIJ7G997ZCY","pain","8","","75","K","2","","0","0","1","","0.04859701272","false","288","","0.3192590496","main_expt","","0.1188664616","","0.04859701272","","0.3671495563","","","","","",""
"70","","bandit","364","791361","0.0-326.0-0.0","19275182","wem/bandit_single","A13VIJ7G997ZCY","pain","8","","76","L","3","","0","0","1","","0.3622055636","false","289","","0.3384054944","main_expt","","0.1050513492","","0.04246321062","","0.3622055636","","","","","",""
"49","","bandit","365","793171","0.0-327.0-0.0","19275182","wem/bandit_single","A13VIJ7G997ZCY","pain","8","","75","K","2","","0","0","1","","0.08307379137","false","290","","0.329366118","main_expt","","0.1304324694","","0.08307379137","","0.3616647964","","","","","",""
"45","","bandit","366","794977","0.0-328.0-0.0","19275182","wem/bandit_single","A13VIJ7G997ZCY","pain","8","","72","H","0","img/none_selected.jpg","0","0","1","","0.38061917","false","291","","0.38061917","main_expt","","0.09707891459","","0.09664054691","","0.3521760992","","","","","",""
"283","","bandit","367","797025","0.0-329.0-0.0","19275182","wem/bandit_single","A13VIJ7G997ZCY","pain","8","","76","L","3","","0","0","1","","0.3062989856","false","292","","0.3703624541","main_expt","","0.1166693976","","0.1089287446","","0.3062989856","","","","","",""
"39","","bandit","368","798825","0.0-330.0-0.0","19275182","wem/bandit_single","A13VIJ7G997ZCY","pain","8","","74","J","1","","0","0","1","","0.1448282665","false","293","","0.3554666564","main_expt","","0.1448282665","","0.1426967363","","0.2594623792","","","","","",""
"263","","bandit","369","800848","0.0-331.0-0.0","19275182","wem/bandit_single","A13VIJ7G997ZCY","pain","8","","75","K","2","","0","0","1","","0.08295656842","false","294","","0.3976604504","main_expt","","0.1486412875","","0.08295656842","","0.2666401727","","","","","",""
"63","","bandit","370","802673","0.0-332.0-0.0","19275182","wem/bandit_single","A13VIJ7G997ZCY","pain","8","","75","K","2","","0","0","1","","0.07441347029","false","295","","0.3567340825","main_expt","","0.1266024918","","0.07441347029","","0.2160621863","","","","","",""
"411","","bandit","371","804849","0.0-333.0-0.0","19275182","wem/bandit_single","A13VIJ7G997ZCY","pain","8","","72","H","0","img/none_selected.jpg","0","0","1","","0.3802278382","false","296","","0.3802278382","main_expt","","0.1499702932","","0.08167080543","","0.1924669582","","","","","",""
"13","","bandit","372","806625","0.0-334.0-0.0","19275182","wem/bandit_single","A13VIJ7G997ZCY","pain","8","","76","L","3","","0","1","0","","0.2572135825","false","297","","0.3764104085","main_expt","","0.1124444021","","0.06721412472","","0.2572135825","","","","","",""
"110","","bandit","373","808498","0.0-335.0-0.0","19275182","wem/bandit_single","A13VIJ7G997ZCY","pain","8","","76","L","3","","0","0","1","","0.2660288188","false","298","","0.3801851674","main_expt","","0.122133656","","0.1106754059","","0.2660288188","","","","","",""
