"rt","responses","trial_type","trial_index","time_elapsed","internal_node_id","subjID","study","MID","cond","drift","key_press","respCharCode","respKey","respChoiceNum","respChoice","gems","bombs","no_reward","GemPrChosen","BombPrChosen","practice","trial_counter","WinPr_0","LosePr_0","trial_label","WinPr_1","LosePr_1","WinPr_2","LosePr_2","WinPr_3","LosePr_3","Q0","Q1","Q2","gender","age","ethnicity"
"20513","{""Q0"":""A2LVPGEPC1EUOW""}","survey-text","0","20530","0.0-0.0","19314504","wem/bandit_single","A2LVPGEPC1EUOW","gain","5","","","","","","","","","","","","","","","","","","","","","","","","","","",""
"1535","","text","1","23071","0.0-1.0","19314504","wem/bandit_single","A2LVPGEPC1EUOW","gain","5","32","","","","","","","","","","","","","","","","","","","","","","","","","",""
"20736","","text","2","43812","0.0-2.0","19314504","wem/bandit_single","A2LVPGEPC1EUOW","gain","5","32","","","","","","","","","","","","","","","","","","","","","","","","","",""
"37251","","text","3","81067","0.0-3.0","19314504","wem/bandit_single","A2LVPGEPC1EUOW","gain","5","32","","","","","","","","","","","","","","","","","","","","","","","","","",""
"33411","","text","4","114481","0.0-4.0","19314504","wem/bandit_single","A2LVPGEPC1EUOW","gain","5","32","","","","","","","","","","","","","","","","","","","","","","","","","",""
"7667","","text","5","122151","0.0-5.0","19314504","wem/bandit_single","A2LVPGEPC1EUOW","gain","5","32","","","","","","","","","","","","","","","","","","","","","","","","","",""
"11382","","text","6","133536","0.0-6.0","19314504","wem/bandit_single","A2LVPGEPC1EUOW","gain","5","32","","","","","","","","","","","","","","","","","","","","","","","","","",""
"3730","","text","7","137271","0.0-7.0","19314504","wem/bandit_single","A2LVPGEPC1EUOW","gain","5","32","","","","","","","","","","","","","","","","","","","","","","","","","",""
"3355","","text","8","140629","0.0-8.0","19314504","wem/bandit_single","A2LVPGEPC1EUOW","gain","5","32","","","","","","","","","","","","","","","","","","","","","","","","","",""
"3800","","text","9","144432","0.0-9.0","19314504","wem/bandit_single","A2LVPGEPC1EUOW","gain","5","32","","","","","","","","","","","","","","","","","","","","","","","","","",""
"2218","","text","10","146654","0.0-10.0","19314504","wem/bandit_single","A2LVPGEPC1EUOW","gain","5","32","","","","","","","","","","","","","","","","","","","","","","","","","",""
"3741","","text","11","150398","0.0-11.0","19314504","wem/bandit_single","A2LVPGEPC1EUOW","gain","5","32","","","","","","","","","","","","","","","","","","","","","","","","","",""
"1243","","bandit","12","153160","0.0-12.0-0.0","19314504","wem/bandit_single","A2LVPGEPC1EUOW","gain","5","","74","J","0","img/none_selected_demo.jpg","0","0","1","0","0","true","0","0","0","","","","","","","","","","","","",""
"90","","bandit","13","155013","0.0-13.0-0.0","19314504","wem/bandit_single","A2LVPGEPC1EUOW","gain","5","","75","K","0","img/none_selected_demo.jpg","0","0","1","0","0","true","0","0","0","","","","","","","","","","","","",""
"3276","","text","14","158543","0.0-14.0","19314504","wem/bandit_single","A2LVPGEPC1EUOW","gain","5","32","","","","","","","","","","","","","","","","","","","","","","","","","",""
"1587","","text","15","160132","0.0-15.0","19314504","wem/bandit_single","A2LVPGEPC1EUOW","gain","5","32","","","","","","","","","","","","","","","","","","","","","","","","","",""
"3144","","text","16","163279","0.0-16.0","19314504","wem/bandit_single","A2LVPGEPC1EUOW","gain","5","32","","","","","","","","","","","","","","","","","","","","","","","","","",""
"2011","","text","17","165293","0.0-17.0","19314504","wem/bandit_single","A2LVPGEPC1EUOW","gain","5","32","","","","","","","","","","","","","","","","","","","","","","","","","",""
"834","","bandit","18","167637","0.0-18.0-0.0","19314504","wem/bandit_single","A2LVPGEPC1EUOW","gain","5","","74","J","0","img/none_selected_demo.jpg","0","0","1","0.8","0","true","0","0.8","0","80_20_practice","0.2","0","","","","","","","","","",""
"13","","bandit","19","169413","0.0-18.0-1.0","19314504","wem/bandit_single","A2LVPGEPC1EUOW","gain","5","","74","J","0","img/none_selected_demo.jpg","1","0","0","0.8","0","true","0","0.8","0","80_20_practice","0.2","0","","","","","","","","","",""
"1139","","bandit","20","172315","0.0-18.0-2.0","19314504","wem/bandit_single","A2LVPGEPC1EUOW","gain","5","","74","J","0","img/none_selected_demo.jpg","1","0","0","0.8","0","true","0","0.8","0","80_20_practice","0.2","0","","","","","","","","","",""
"158","","bandit","21","174234","0.0-18.0-3.0","19314504","wem/bandit_single","A2LVPGEPC1EUOW","gain","5","","74","J","0","img/none_selected_demo.jpg","1","0","0","0.8","0","true","0","0.8","0","80_20_practice","0.2","0","","","","","","","","","",""
"7","","bandit","22","176006","0.0-18.0-4.0","19314504","wem/bandit_single","A2LVPGEPC1EUOW","gain","5","","75","K","1","","1","0","0","0.2","0","true","0","0.8","0","80_20_practice","0.2","0","","","","","","","","","",""
"1442","","bandit","23","179212","0.0-18.0-5.0","19314504","wem/bandit_single","A2LVPGEPC1EUOW","gain","5","","75","K","1","","0","0","1","0.2","0","true","0","0.8","0","80_20_practice","0.2","0","","","","","","","","","",""
"38","","bandit","24","181011","0.0-18.0-6.0","19314504","wem/bandit_single","A2LVPGEPC1EUOW","gain","5","","75","K","1","","0","0","1","0.2","0","true","0","0.8","0","80_20_practice","0.2","0","","","","","","","","","",""
"112","","bandit","25","182885","0.0-18.0-7.0","19314504","wem/bandit_single","A2LVPGEPC1EUOW","gain","5","","75","K","1","","0","0","1","0.2","0","true","0","0.8","0","80_20_practice","0.2","0","","","","","","","","","",""
"13157","","bandit","26","197803","0.0-18.0-8.0","19314504","wem/bandit_single","A2LVPGEPC1EUOW","gain","5","","74","J","0","img/none_selected_demo.jpg","1","0","0","0.8","0","true","0","0.8","0","80_20_practice","0.2","0","","","","","","","","","",""
"265","","bandit","27","199828","0.0-18.0-9.0","19314504","wem/bandit_single","A2LVPGEPC1EUOW","gain","5","","74","J","0","img/none_selected_demo.jpg","1","0","0","0.8","0","true","0","0.8","0","80_20_practice","0.2","0","","","","","","","","","",""
"0","","bandit","28","201589","0.0-18.0-10.0","19314504","wem/bandit_single","A2LVPGEPC1EUOW","gain","5","","74","J","0","img/none_selected_demo.jpg","0","0","1","0.8","0","true","0","0.8","0","80_20_practice","0.2","0","","","","","","","","","",""
"132","","bandit","29","203482","0.0-18.0-11.0","19314504","wem/bandit_single","A2LVPGEPC1EUOW","gain","5","","74","J","0","img/none_selected_demo.jpg","1","0","0","0.8","0","true","0","0.8","0","80_20_practice","0.2","0","","","","","","","","","",""
"870","","bandit","30","206114","0.0-18.0-12.0","19314504","wem/bandit_single","A2LVPGEPC1EUOW","gain","5","","74","J","0","img/none_selected_demo.jpg","1","0","0","0.8","0","true","0","0.8","0","80_20_practice","0.2","0","","","","","","","","","",""
"31","","bandit","31","207908","0.0-18.0-13.0","19314504","wem/bandit_single","A2LVPGEPC1EUOW","gain","5","","74","J","0","img/none_selected_demo.jpg","1","0","0","0.8","0","true","0","0.8","0","80_20_practice","0.2","0","","","","","","","","","",""
"59","","bandit","32","209730","0.0-18.0-14.0","19314504","wem/bandit_single","A2LVPGEPC1EUOW","gain","5","","74","J","0","img/none_selected_demo.jpg","0","0","1","0.8","0","true","0","0.8","0","80_20_practice","0.2","0","","","","","","","","","",""
"2541","","bandit","33","214035","0.0-18.0-15.0","19314504","wem/bandit_single","A2LVPGEPC1EUOW","gain","5","","75","K","1","","1","0","0","0.2","0","true","0","0.8","0","80_20_practice","0.2","0","","","","","","","","","",""
"1252","","bandit","34","217049","0.0-18.0-16.0","19314504","wem/bandit_single","A2LVPGEPC1EUOW","gain","5","","75","K","1","","0","0","1","0.2","0","true","0","0.8","0","80_20_practice","0.2","0","","","","","","","","","",""
"464","","bandit","35","219273","0.0-18.0-17.0","19314504","wem/bandit_single","A2LVPGEPC1EUOW","gain","5","","74","J","0","img/none_selected_demo.jpg","0","0","1","0.8","0","true","0","0.8","0","80_20_practice","0.2","0","","","","","","","","","",""
"814","","bandit","36","221848","0.0-18.0-18.0","19314504","wem/bandit_single","A2LVPGEPC1EUOW","gain","5","","74","J","0","img/none_selected_demo.jpg","1","0","0","0.8","0","true","0","0.8","0","80_20_practice","0.2","0","","","","","","","","","",""
"254","","bandit","37","223866","0.0-18.0-19.0","19314504","wem/bandit_single","A2LVPGEPC1EUOW","gain","5","","74","J","0","img/none_selected_demo.jpg","1","0","0","0.8","0","true","0","0.8","0","80_20_practice","0.2","0","","","","","","","","","",""
"6144","","text","38","230266","0.0-19.0","19314504","wem/bandit_single","A2LVPGEPC1EUOW","gain","5","32","","","","","","","","","","","","","","","","","","","","","","","","","",""
"1608","","bandit","39","233384","0.0-20.0-0.0","19314504","wem/bandit_single","A2LVPGEPC1EUOW","gain","5","","74","J","0","img/none_selected_demo.jpg","0","0","1","0","0","true","0","0","0","","0","0","","","","","","","","","",""
"9172","","text","40","242811","0.0-21.0","19314504","wem/bandit_single","A2LVPGEPC1EUOW","gain","5","32","","","","","","","","","","","","","","","","","","","","","","","","","",""
"3147","","text","41","245963","0.0-22.0","19314504","wem/bandit_single","A2LVPGEPC1EUOW","gain","5","32","","","","","","","","","","","","","","","","","","","","","","","","","",""
"1970","","text","42","247939","0.0-23.0","19314504","wem/bandit_single","A2LVPGEPC1EUOW","gain","5","32","","","","","","","","","","","","","","","","","","","","","","","","","",""
"2681","","text","43","250624","0.0-24.0","19314504","wem/bandit_single","A2LVPGEPC1EUOW","gain","5","32","","","","","","","","","","","","","","","","","","","","","","","","","",""
"8646","","text","44","259274","0.0-25.0","19314504","wem/bandit_single","A2LVPGEPC1EUOW","gain","5","32","","","","","","","","","","","","","","","","","","","","","","","","","",""
"5121","","text","45","264401","0.0-26.0","19314504","wem/bandit_single","A2LVPGEPC1EUOW","gain","5","32","","","","","","","","","","","","","","","","","","","","","","","","","",""
"4307","","text","46","268713","0.0-27.0","19314504","wem/bandit_single","A2LVPGEPC1EUOW","gain","5","32","","","","","","","","","","","","","","","","","","","","","","","","","",""
"3113","","text","47","271832","0.0-28.0","19314504","wem/bandit_single","A2LVPGEPC1EUOW","gain","5","32","","","","","","","","","","","","","","","","","","","","","","","","","",""
"4157","","text","48","275992","0.0-29.0","19314504","wem/bandit_single","A2LVPGEPC1EUOW","gain","5","32","","","","","","","","","","","","","","","","","","","","","","","","","",""
"3489","","text","49","279488","0.0-30.0","19314504","wem/bandit_single","A2LVPGEPC1EUOW","gain","5","32","","","","","","","","","","","","","","","","","","","","","","","","","",""
"6521","","text","50","286014","0.0-31.0","19314504","wem/bandit_single","A2LVPGEPC1EUOW","gain","5","32","","","","","","","","","","","","","","","","","","","","","","","","","",""
"2349","","bandit","51","289869","0.0-32.0-0.0","19314504","wem/bandit_single","A2LVPGEPC1EUOW","gain","5","","72","H","0","img/none_selected.jpg","0","0","1","0.8","0","true","0","0.8","0","full_practice","0.2","0","0.6","0","0.2","0","","","","","",""
"48","","bandit","52","291676","0.0-32.0-1.0","19314504","wem/bandit_single","A2LVPGEPC1EUOW","gain","5","","74","J","1","","1","0","0","0.2","0","true","0","0.8","0","full_practice","0.2","0","0.6","0","0.2","0","","","","","",""
"429","","bandit","53","293869","0.0-32.0-2.0","19314504","wem/bandit_single","A2LVPGEPC1EUOW","gain","5","","75","K","2","","1","0","0","0.6","0","true","0","0.8","0","full_practice","0.2","0","0.6","0","0.2","0","","","","","",""
"1447","","bandit","54","297080","0.0-32.0-3.0","19314504","wem/bandit_single","A2LVPGEPC1EUOW","gain","5","","75","K","2","","0","0","1","0.6","0","true","0","0.8","0","full_practice","0.2","0","0.6","0","0.2","0","","","","","",""
"85","","bandit","55","298926","0.0-32.0-4.0","19314504","wem/bandit_single","A2LVPGEPC1EUOW","gain","5","","75","K","2","","1","0","0","0.6","0","true","0","0.8","0","full_practice","0.2","0","0.6","0","0.2","0","","","","","",""
"28","","bandit","56","300719","0.0-32.0-5.0","19314504","wem/bandit_single","A2LVPGEPC1EUOW","gain","5","","75","K","2","","0","0","1","0.6","0","true","0","0.8","0","full_practice","0.2","0","0.6","0","0.2","0","","","","","",""
"527","","bandit","57","303004","0.0-32.0-6.0","19314504","wem/bandit_single","A2LVPGEPC1EUOW","gain","5","","76","L","3","","0","0","1","0.2","0","true","0","0.8","0","full_practice","0.2","0","0.6","0","0.2","0","","","","","",""
"40","","bandit","58","304804","0.0-32.0-7.0","19314504","wem/bandit_single","A2LVPGEPC1EUOW","gain","5","","76","L","3","","1","0","0","0.2","0","true","0","0.8","0","full_practice","0.2","0","0.6","0","0.2","0","","","","","",""
"194","","bandit","59","306759","0.0-32.0-8.0","19314504","wem/bandit_single","A2LVPGEPC1EUOW","gain","5","","76","L","3","","0","0","1","0.2","0","true","0","0.8","0","full_practice","0.2","0","0.6","0","0.2","0","","","","","",""
"12","","bandit","60","308534","0.0-32.0-9.0","19314504","wem/bandit_single","A2LVPGEPC1EUOW","gain","5","","74","J","1","","1","0","0","0.2","0","true","0","0.8","0","full_practice","0.2","0","0.6","0","0.2","0","","","","","",""
"24","","bandit","61","310328","0.0-32.0-10.0","19314504","wem/bandit_single","A2LVPGEPC1EUOW","gain","5","","74","J","1","","1","0","0","0.2","0","true","0","0.8","0","full_practice","0.2","0","0.6","0","0.2","0","","","","","",""
"1017","","bandit","62","313108","0.0-32.0-11.0","19314504","wem/bandit_single","A2LVPGEPC1EUOW","gain","5","","74","J","1","","0","0","1","0.2","0","true","0","0.8","0","full_practice","0.2","0","0.6","0","0.2","0","","","","","",""
"590","","bandit","63","315462","0.0-32.0-12.0","19314504","wem/bandit_single","A2LVPGEPC1EUOW","gain","5","","74","J","1","","0","0","1","0.2","0","true","0","0.8","0","full_practice","0.2","0","0.6","0","0.2","0","","","","","",""
"209","","bandit","64","317437","0.0-32.0-13.0","19314504","wem/bandit_single","A2LVPGEPC1EUOW","gain","5","","74","J","1","","0","0","1","0.2","0","true","0","0.8","0","full_practice","0.2","0","0.6","0","0.2","0","","","","","",""
"8","","bandit","65","319205","0.0-32.0-14.0","19314504","wem/bandit_single","A2LVPGEPC1EUOW","gain","5","","72","H","0","img/none_selected.jpg","1","0","0","0.8","0","true","0","0.8","0","full_practice","0.2","0","0.6","0","0.2","0","","","","","",""
"214","","bandit","66","321183","0.0-32.0-15.0","19314504","wem/bandit_single","A2LVPGEPC1EUOW","gain","5","","72","H","0","img/none_selected.jpg","0","0","1","0.8","0","true","0","0.8","0","full_practice","0.2","0","0.6","0","0.2","0","","","","","",""
"298","","bandit","67","323244","0.0-32.0-16.0","19314504","wem/bandit_single","A2LVPGEPC1EUOW","gain","5","","72","H","0","img/none_selected.jpg","0","0","1","0.8","0","true","0","0.8","0","full_practice","0.2","0","0.6","0","0.2","0","","","","","",""
"767","","bandit","68","325773","0.0-32.0-17.0","19314504","wem/bandit_single","A2LVPGEPC1EUOW","gain","5","","76","L","3","","1","0","0","0.2","0","true","0","0.8","0","full_practice","0.2","0","0.6","0","0.2","0","","","","","",""
"25","","bandit","69","327557","0.0-32.0-18.0","19314504","wem/bandit_single","A2LVPGEPC1EUOW","gain","5","","76","L","3","","1","0","0","0.2","0","true","0","0.8","0","full_practice","0.2","0","0.6","0","0.2","0","","","","","",""
"115","","bandit","70","329437","0.0-32.0-19.0","19314504","wem/bandit_single","A2LVPGEPC1EUOW","gain","5","","76","L","3","","0","0","1","0.2","0","true","0","0.8","0","full_practice","0.2","0","0.6","0","0.2","0","","","","","",""
"2141","","text","71","331847","0.0-33.0","19314504","wem/bandit_single","A2LVPGEPC1EUOW","gain","5","32","","","","","","","","","","","","","","","","","","","","","","","","","",""
"8057","","text","72","340909","0.0-34.0","19314504","wem/bandit_single","A2LVPGEPC1EUOW","gain","5","32","","","","","","","","","","","","","","","","","","","","","","","","","",""
"4560","","text","73","345476","0.0-35.0","19314504","wem/bandit_single","A2LVPGEPC1EUOW","gain","5","32","","","","","","","","","","","","","","","","","","","","","","","","","",""
"4173","","text","74","349653","0.0-36.0","19314504","wem/bandit_single","A2LVPGEPC1EUOW","gain","5","32","","","","","","","","","","","","","","","","","","","","","","","","","",""
"36596","","text","75","386258","0.0-37.0","19314504","wem/bandit_single","A2LVPGEPC1EUOW","gain","5","32","","","","","","","","","","","","","","","","","","","","","","","","","",""
"548","","bandit","76","388322","0.0-38.0-0.0","19314504","wem/bandit_single","A2LVPGEPC1EUOW","gain","5","","74","J","1","","0","0","1","0.1478184891","","false","1","0.04962883862","","main_expt","0.1478184891","","0.4657241486","","0.3811303016","","","","","","",""
"156","","bandit","77","390242","0.0-39.0-0.0","19314504","wem/bandit_single","A2LVPGEPC1EUOW","gain","5","","74","J","1","","0","0","1","0.2081060842","","false","2","0.03569255153","","main_expt","0.2081060842","","0.4660849779","","0.350111504","","","","","","",""
"333","","bandit","78","392336","0.0-40.0-0.0","19314504","wem/bandit_single","A2LVPGEPC1EUOW","gain","5","","75","K","2","","1","0","0","0.4687539887","","false","3","0.02901958263","","main_expt","0.1722167697","","0.4687539887","","0.3436486883","","","","","","",""
"13","","bandit","79","394113","0.0-41.0-0.0","19314504","wem/bandit_single","A2LVPGEPC1EUOW","gain","5","","75","K","2","","0","0","1","0.48401473","","false","4","0.04894390993","","main_expt","0.1424145416","","0.48401473","","0.3419997506","","","","","","",""
"22","","bandit","80","395897","0.0-42.0-0.0","19314504","wem/bandit_single","A2LVPGEPC1EUOW","gain","5","","76","L","3","","1","0","0","0.3692180445","","false","5","0.04206610475","","main_expt","0.1446667298","","0.4755123677","","0.3692180445","","","","","","",""
"27","","bandit","81","397689","0.0-43.0-0.0","19314504","wem/bandit_single","A2LVPGEPC1EUOW","gain","5","","76","L","3","","1","0","0","0.3602257359","","false","6","0.04292771587","","main_expt","0.1447199692","","0.4802482158","","0.3602257359","","","","","","",""
"1421","","bandit","82","400873","0.0-44.0-0.0","19314504","wem/bandit_single","A2LVPGEPC1EUOW","gain","5","","76","L","3","","1","0","0","0.3568498895","","false","7","0.06035830385","","main_expt","0.1001258446","","0.4780438684","","0.3568498895","","","","","","",""
"15","","bandit","83","402648","0.0-45.0-0.0","19314504","wem/bandit_single","A2LVPGEPC1EUOW","gain","5","","76","L","3","","0","0","1","0.294604339","","false","8","0.09727842944","","main_expt","0.1244671667","","0.4575173044","","0.294604339","","","","","","",""
"390","","bandit","84","404802","0.0-46.0-0.0","19314504","wem/bandit_single","A2LVPGEPC1EUOW","gain","5","","76","L","3","","0","0","1","0.3802768622","","false","9","0.07952196982","","main_expt","0.1293804987","","0.4525933246","","0.3802768622","","","","","","",""
"66","","bandit","85","406633","0.0-47.0-0.0","19314504","wem/bandit_single","A2LVPGEPC1EUOW","gain","5","","76","L","3","","0","0","1","0.3530595227","","false","10","0.1049852556","","main_expt","0.1606810952","","0.4476408152","","0.3530595227","","","","","","",""
"2040","","bandit","86","410440","0.0-48.0-0.0","19314504","wem/bandit_single","A2LVPGEPC1EUOW","gain","5","","72","H","0","img/none_selected.jpg","0","0","1","0.1118692116","","false","11","0.1118692116","","main_expt","0.1585385462","","0.4484644352","","0.358648576","","","","","","",""
"406","","bandit","87","412608","0.0-49.0-0.0","19314504","wem/bandit_single","A2LVPGEPC1EUOW","gain","5","","72","H","0","img/none_selected.jpg","0","0","1","0.1270372311","","false","12","0.1270372311","","main_expt","0.1492634201","","0.4466341879","","0.3382469396","","","","","","",""
"146","","bandit","88","414520","0.0-50.0-0.0","19314504","wem/bandit_single","A2LVPGEPC1EUOW","gain","5","","76","L","3","","1","0","0","0.3092021245","","false","13","0.1278892577","","main_expt","0.1106465011","","0.4642511008","","0.3092021245","","","","","","",""
"441","","bandit","89","416723","0.0-51.0-0.0","19314504","wem/bandit_single","A2LVPGEPC1EUOW","gain","5","","76","L","3","","0","0","1","0.3532484784","","false","14","0.1024725346","","main_expt","0.1232346967","","0.4615970843","","0.3532484784","","","","","","",""
"249","","bandit","90","418736","0.0-52.0-0.0","19314504","wem/bandit_single","A2LVPGEPC1EUOW","gain","5","","76","L","3","","0","0","1","0.3371384495","","false","15","0.1234109619","","main_expt","0.1323340596","","0.4692442536","","0.3371384495","","","","","","",""
"77","","bandit","91","420574","0.0-53.0-0.0","19314504","wem/bandit_single","A2LVPGEPC1EUOW","gain","5","","75","K","2","","0","0","1","0.4755425263","","false","16","0.1360550169","","main_expt","0.1410223318","","0.4755425263","","0.3282622062","","","","","","",""
"519","","bandit","92","422855","0.0-54.0-0.0","19314504","wem/bandit_single","A2LVPGEPC1EUOW","gain","5","","76","L","3","","0","0","1","0.3032164303","","false","17","0.1070219664","","main_expt","0.1498636582","","0.4828633911","","0.3032164303","","","","","","",""
"1640","","bandit","93","426263","0.0-55.0-0.0","19314504","wem/bandit_single","A2LVPGEPC1EUOW","gain","5","","76","L","3","","0","0","1","0.2834034058","","false","18","0.09318331203","","main_expt","0.1132842199","","0.4784959143","","0.2834034058","","","","","","",""
"496","","bandit","94","428522","0.0-56.0-0.0","19314504","wem/bandit_single","A2LVPGEPC1EUOW","gain","5","","75","K","2","","0","0","1","0.4645747316","","false","19","0.08644374764","","main_expt","0.08554013857","","0.4645747316","","0.376157017","","","","","","",""
"519","","bandit","95","430807","0.0-57.0-0.0","19314504","wem/bandit_single","A2LVPGEPC1EUOW","gain","5","","75","K","2","","1","0","0","0.4441513352","","false","20","0.1066513301","","main_expt","0.1176407844","","0.4441513352","","0.3718288413","","","","","","",""
"32","","bandit","96","432600","0.0-58.0-0.0","19314504","wem/bandit_single","A2LVPGEPC1EUOW","gain","5","","75","K","2","","0","0","1","0.4281495132","","false","21","0.1143532382","","main_expt","0.09701455477","","0.4281495132","","0.3755251961","","","","","","",""
"118","","bandit","97","434480","0.0-59.0-0.0","19314504","wem/bandit_single","A2LVPGEPC1EUOW","gain","5","","76","L","3","","0","0","1","0.3536603278","","false","22","0.111858438","","main_expt","0.08683592795","","0.4374563715","","0.3536603278","","","","","","",""
"34","","bandit","98","436280","0.0-60.0-0.0","19314504","wem/bandit_single","A2LVPGEPC1EUOW","gain","5","","76","L","3","","1","0","0","0.3908816919","","false","23","0.09088087914","","main_expt","0.1062952262","","0.4408316507","","0.3908816919","","","","","","",""
"155","","bandit","99","438199","0.0-61.0-0.0","19314504","wem/bandit_single","A2LVPGEPC1EUOW","gain","5","","76","L","3","","0","0","1","0.3639752867","","false","24","0.1045917755","","main_expt","0.1320295984","","0.4249736282","","0.3639752867","","","","","","",""
"594","","bandit","100","440559","0.0-62.0-0.0","19314504","wem/bandit_single","A2LVPGEPC1EUOW","gain","5","","76","L","3","","0","0","1","0.3569796848","","false","25","0.107118439","","main_expt","0.18562956","","0.4542404639","","0.3569796848","","","","","","",""
"117","","bandit","101","442438","0.0-63.0-0.0","19314504","wem/bandit_single","A2LVPGEPC1EUOW","gain","5","","76","L","3","","0","0","1","0.3466804264","","false","26","0.08847958778","","main_expt","0.1589772959","","0.4707756245","","0.3466804264","","","","","","",""
"245","","bandit","102","444447","0.0-64.0-0.0","19314504","wem/bandit_single","A2LVPGEPC1EUOW","gain","5","","76","L","3","","0","0","1","0.3487144915","","false","27","0.105958259","","main_expt","0.1361305173","","0.4492807888","","0.3487144915","","","","","","",""
"516","","bandit","103","446727","0.0-65.0-0.0","19314504","wem/bandit_single","A2LVPGEPC1EUOW","gain","5","","72","H","0","img/none_selected.jpg","0","0","1","0.09976229861","","false","28","0.09976229861","","main_expt","0.1517112547","","0.4630254912","","0.31872733","","","","","","",""
"500","","bandit","104","448993","0.0-66.0-0.0","19314504","wem/bandit_single","A2LVPGEPC1EUOW","gain","5","","72","H","0","img/none_selected.jpg","0","0","1","0.1117783291","","false","29","0.1117783291","","main_expt","0.1207272987","","0.4582460064","","0.3351256986","","","","","","",""
"95","","bandit","105","450853","0.0-67.0-0.0","19314504","wem/bandit_single","A2LVPGEPC1EUOW","gain","5","","72","H","0","img/none_selected.jpg","0","0","1","0.104708879","","false","30","0.104708879","","main_expt","0.06619286558","","0.44398484","","0.3165147827","","","","","","",""
"1729","","bandit","106","454342","0.0-68.0-0.0","19314504","wem/bandit_single","A2LVPGEPC1EUOW","gain","5","","74","J","1","","0","0","1","0.08172424971","","false","31","0.1168740313","","main_expt","0.08172424971","","0.4662875842","","0.3587164307","","","","","","",""
"51","","bandit","107","456159","0.0-69.0-0.0","19314504","wem/bandit_single","A2LVPGEPC1EUOW","gain","5","","74","J","1","","0","0","1","0.1118972321","","false","32","0.1193100679","","main_expt","0.1118972321","","0.4823207571","","0.384091524","","","","","","",""
"754","","bandit","108","458679","0.0-70.0-0.0","19314504","wem/bandit_single","A2LVPGEPC1EUOW","gain","5","","74","J","1","","0","0","1","0.07764728595","","false","33","0.1160378653","","main_expt","0.07764728595","","0.4887640326","","0.3410562849","","","","","","",""
"818","","bandit","109","461262","0.0-71.0-0.0","19314504","wem/bandit_single","A2LVPGEPC1EUOW","gain","5","","75","K","2","","1","0","0","0.4871413525","","false","34","0.1240203414","","main_expt","0.1021677232","","0.4871413525","","0.3772037995","","","","","","",""
"211","","bandit","110","463238","0.0-72.0-0.0","19314504","wem/bandit_single","A2LVPGEPC1EUOW","gain","5","","75","K","2","","0","0","1","0.472467875","","false","35","0.1568527985","","main_expt","0.09263198197","","0.472467875","","0.3601610849","","","","","","",""
"90","","bandit","111","465094","0.0-73.0-0.0","19314504","wem/bandit_single","A2LVPGEPC1EUOW","gain","5","","75","K","2","","1","0","0","0.4801988656","","false","36","0.1887398002","","main_expt","0.1395706987","","0.4801988656","","0.3199141994","","","","","","",""
"51","","bandit","112","466909","0.0-74.0-0.0","19314504","wem/bandit_single","A2LVPGEPC1EUOW","gain","5","","75","K","2","","1","0","0","0.4658101737","","false","37","0.1567271146","","main_expt","0.1166343238","","0.4658101737","","0.3022128767","","","","","","",""
"22","","bandit","113","468692","0.0-75.0-0.0","19314504","wem/bandit_single","A2LVPGEPC1EUOW","gain","5","","75","K","2","","0","0","1","0.4725237643","","false","38","0.1213003185","","main_expt","0.1344783462","","0.4725237643","","0.220841548","","","","","","",""
"174","","bandit","114","470628","0.0-76.0-0.0","19314504","wem/bandit_single","A2LVPGEPC1EUOW","gain","5","","75","K","2","","0","0","1","0.4863678522","","false","39","0.1129188575","","main_expt","0.1132701409","","0.4863678522","","0.2273815274","","","","","","",""
"55","","bandit","115","472444","0.0-77.0-0.0","19314504","wem/bandit_single","A2LVPGEPC1EUOW","gain","5","","75","K","2","","1","0","0","0.4756100127","","false","40","0.1490040727","","main_expt","0.1269330716","","0.4756100127","","0.2216047912","","","","","","",""
"166","","bandit","116","474373","0.0-78.0-0.0","19314504","wem/bandit_single","A2LVPGEPC1EUOW","gain","5","","75","K","2","","0","0","1","0.4644843691","","false","41","0.20555416","","main_expt","0.1043764639","","0.4644843691","","0.1790357129","","","","","","",""
"147","","bandit","117","476286","0.0-79.0-0.0","19314504","wem/bandit_single","A2LVPGEPC1EUOW","gain","5","","75","K","2","","0","0","1","0.4595487669","","false","42","0.2458082757","","main_expt","0.123259557","","0.4595487669","","0.1124402831","","","","","","",""
"698","","bandit","118","478749","0.0-80.0-0.0","19314504","wem/bandit_single","A2LVPGEPC1EUOW","gain","5","","75","K","2","","1","0","0","0.4598563523","","false","43","0.1980967925","","main_expt","0.1523094635","","0.4598563523","","0.1309909921","","","","","","",""
"204","","bandit","119","480715","0.0-81.0-0.0","19314504","wem/bandit_single","A2LVPGEPC1EUOW","gain","5","","75","K","2","","0","0","1","0.4444935065","","false","44","0.2011817551","","main_expt","0.1438901127","","0.4444935065","","0.1620245532","","","","","","",""
"160","","bandit","120","482636","0.0-82.0-0.0","19314504","wem/bandit_single","A2LVPGEPC1EUOW","gain","5","","75","K","2","","0","0","1","0.4201454787","","false","45","0.1908172103","","main_expt","0.1381896233","","0.4201454787","","0.1962154431","","","","","","",""
"173","","bandit","121","484574","0.0-83.0-0.0","19314504","wem/bandit_single","A2LVPGEPC1EUOW","gain","5","","75","K","2","","0","0","1","0.4420567968","","false","46","0.1682898959","","main_expt","0.08118013389","","0.4420567968","","0.1548021256","","","","","","",""
"47","","bandit","122","486384","0.0-84.0-0.0","19314504","wem/bandit_single","A2LVPGEPC1EUOW","gain","5","","74","J","1","","0","0","1","0.08279503272","","false","47","0.114950809","","main_expt","0.08279503272","","0.4454115659","","0.155425446","","","","","","",""
"150","","bandit","123","488301","0.0-85.0-0.0","19314504","wem/bandit_single","A2LVPGEPC1EUOW","gain","5","","74","J","1","","0","0","1","0.09757227309","","false","48","0.1231508501","","main_expt","0.09757227309","","0.4409121906","","0.2368850053","","","","","","",""
"11","","bandit","124","490077","0.0-86.0-0.0","19314504","wem/bandit_single","A2LVPGEPC1EUOW","gain","5","","74","J","1","","0","0","1","0.1407466139","","false","49","0.1264715503","","main_expt","0.1407466139","","0.4640555105","","0.1712995484","","","","","","",""
"119","","bandit","125","491964","0.0-87.0-0.0","19314504","wem/bandit_single","A2LVPGEPC1EUOW","gain","5","","76","L","3","","0","0","1","0.2371897999","","false","50","0.1119267987","","main_expt","0.1128896644","","0.4619625264","","0.2371897999","","","","","","",""
"165","","bandit","126","493893","0.0-88.0-0.0","19314504","wem/bandit_single","A2LVPGEPC1EUOW","gain","5","","76","L","3","","0","0","1","0.2520952739","","false","51","0.1192285775","","main_expt","0.1292206793","","0.4686499241","","0.2520952739","","","","","","",""
"9","","bandit","127","495669","0.0-89.0-0.0","19314504","wem/bandit_single","A2LVPGEPC1EUOW","gain","5","","76","L","3","","1","0","0","0.2201249325","","false","52","0.1536714506","","main_expt","0.117204758","","0.4721244997","","0.2201249325","","","","","","",""
"128","","bandit","128","497556","0.0-90.0-0.0","19314504","wem/bandit_single","A2LVPGEPC1EUOW","gain","5","","76","L","3","","0","0","1","0.2019083534","","false","53","0.1817289366","","main_expt","0.1180232867","","0.4776765754","","0.2019083534","","","","","","",""
"186","","bandit","129","499509","0.0-91.0-0.0","19314504","wem/bandit_single","A2LVPGEPC1EUOW","gain","5","","76","L","3","","0","0","1","0.2133100918","","false","54","0.1664376657","","main_expt","0.09503139185","","0.4788042678","","0.2133100918","","","","","","",""
"51","","bandit","130","501323","0.0-92.0-0.0","19314504","wem/bandit_single","A2LVPGEPC1EUOW","gain","5","","76","L","3","","0","0","1","0.2210295122","","false","55","0.1219288973","","main_expt","0.1238025275","","0.4852168201","","0.2210295122","","","","","","",""
"137","","bandit","131","503227","0.0-93.0-0.0","19314504","wem/bandit_single","A2LVPGEPC1EUOW","gain","5","","72","H","0","img/none_selected.jpg","0","0","1","0.1392062569","","false","56","0.1392062569","","main_expt","0.1544257673","","0.4860946669","","0.1728424853","","","","","","",""
"119","","bandit","132","505116","0.0-94.0-0.0","19314504","wem/bandit_single","A2LVPGEPC1EUOW","gain","5","","72","H","0","img/none_selected.jpg","0","0","1","0.2060247316","","false","57","0.2060247316","","main_expt","0.1492478473","","0.4859962979","","0.2301797189","","","","","","",""
"3","","bandit","133","506886","0.0-95.0-0.0","19314504","wem/bandit_single","A2LVPGEPC1EUOW","gain","5","","75","K","2","","0","0","1","0.4751013025","","false","58","0.1723567799","","main_expt","0.1392181034","","0.4751013025","","0.2820892606","","","","","","",""
"75","","bandit","134","508733","0.0-96.0-0.0","19314504","wem/bandit_single","A2LVPGEPC1EUOW","gain","5","","75","K","2","","1","0","0","0.4816883425","","false","59","0.16345501","","main_expt","0.1854998728","","0.4816883425","","0.308641684","","","","","","",""
"110","","bandit","135","510612","0.0-97.0-0.0","19314504","wem/bandit_single","A2LVPGEPC1EUOW","gain","5","","75","K","2","","1","0","0","0.4846541976","","false","60","0.1552759559","","main_expt","0.1306651225","","0.4846541976","","0.3012287428","","","","","","",""
"16","","bandit","136","512394","0.0-98.0-0.0","19314504","wem/bandit_single","A2LVPGEPC1EUOW","gain","5","","75","K","2","","1","0","0","0.4848840061","","false","61","0.1652193455","","main_expt","0.1567024934","","0.4848840061","","0.263166603","","","","","","",""
"49","","bandit","137","514211","0.0-99.0-0.0","19314504","wem/bandit_single","A2LVPGEPC1EUOW","gain","5","","75","K","2","","0","0","1","0.4856292504","","false","62","0.1813222976","","main_expt","0.1622246099","","0.4856292504","","0.2428038775","","","","","","",""
"45","","bandit","138","516020","0.0-100.0-0.0","19314504","wem/bandit_single","A2LVPGEPC1EUOW","gain","5","","75","K","2","","1","0","0","0.4865153319","","false","63","0.1727004114","","main_expt","0.2196770705","","0.4865153319","","0.2843805899","","","","","","",""
"191","","bandit","139","517980","0.0-101.0-0.0","19314504","wem/bandit_single","A2LVPGEPC1EUOW","gain","5","","76","L","3","","0","0","1","0.2895992306","","false","64","0.2105999223","","main_expt","0.218319606","","0.4874146034","","0.2895992306","","","","","","",""
"189","","bandit","140","519931","0.0-102.0-0.0","19314504","wem/bandit_single","A2LVPGEPC1EUOW","gain","5","","75","K","2","","1","0","0","0.4781609215","","false","65","0.240225816","","main_expt","0.2278721313","","0.4781609215","","0.3847688","","","","","","",""
"156","","bandit","141","521851","0.0-103.0-0.0","19314504","wem/bandit_single","A2LVPGEPC1EUOW","gain","5","","75","K","2","","0","0","1","0.4848714892","","false","66","0.2924754864","","main_expt","0.1599393353","","0.4848714892","","0.4083751038","","","","","","",""
"84","","bandit","142","523698","0.0-104.0-0.0","19314504","wem/bandit_single","A2LVPGEPC1EUOW","gain","5","","75","K","2","","0","0","1","0.4872204599","","false","67","0.2363072125","","main_expt","0.1647045883","","0.4872204599","","0.4036944211","","","","","","",""
"91","","bandit","143","525555","0.0-105.0-0.0","19314504","wem/bandit_single","A2LVPGEPC1EUOW","gain","5","","75","K","2","","0","0","1","0.4749956953","","false","68","0.264359064","","main_expt","0.1442333851","","0.4749956953","","0.3910329043","","","","","","",""
"35","","bandit","144","527354","0.0-106.0-0.0","19314504","wem/bandit_single","A2LVPGEPC1EUOW","gain","5","","75","K","2","","1","0","0","0.4776093432","","false","69","0.2755227552","","main_expt","0.1757685765","","0.4776093432","","0.3438989047","","","","","","",""
"99","","bandit","145","529219","0.0-107.0-0.0","19314504","wem/bandit_single","A2LVPGEPC1EUOW","gain","5","","75","K","2","","1","0","0","0.4550183311","","false","70","0.2978365432","","main_expt","0.1995177274","","0.4550183311","","0.3282106587","","","","","","",""
"9","","bandit","146","530995","0.0-108.0-0.0","19314504","wem/bandit_single","A2LVPGEPC1EUOW","gain","5","","75","K","2","","0","0","1","0.4466984445","","false","71","0.2788476436","","main_expt","0.2429348876","","0.4466984445","","0.3085852942","","","","","","",""
"91","","bandit","147","532849","0.0-109.0-0.0","19314504","wem/bandit_single","A2LVPGEPC1EUOW","gain","5","","75","K","2","","1","0","0","0.453817204","","false","72","0.2983184618","","main_expt","0.2134703404","","0.453817204","","0.317066931","","","","","","",""
"50","","bandit","148","534667","0.0-110.0-0.0","19314504","wem/bandit_single","A2LVPGEPC1EUOW","gain","5","","75","K","2","","1","0","0","0.4421557619","","false","73","0.3235064893","","main_expt","0.2779115064","","0.4421557619","","0.3118309255","","","","","","",""
"34","","bandit","149","536470","0.0-111.0-0.0","19314504","wem/bandit_single","A2LVPGEPC1EUOW","gain","5","","75","K","2","","0","0","1","0.4340536998","","false","74","0.2605282151","","main_expt","0.2696493969","","0.4340536998","","0.3442292265","","","","","","",""
"134","","bandit","150","538370","0.0-112.0-0.0","19314504","wem/bandit_single","A2LVPGEPC1EUOW","gain","5","","75","K","2","","0","0","1","0.4148912722","","false","75","0.3081503464","","main_expt","0.2929582525","","0.4148912722","","0.3392290825","","","","","","",""
"127","","bandit","151","540259","0.0-113.0-0.0","19314504","wem/bandit_single","A2LVPGEPC1EUOW","gain","5","","75","K","2","","0","0","1","0.4049452856","","false","76","0.3793773342","","main_expt","0.2925997362","","0.4049452856","","0.3019050266","","","","","","",""
"158","","bandit","152","542185","0.0-114.0-0.0","19314504","wem/bandit_single","A2LVPGEPC1EUOW","gain","5","","75","K","2","","0","0","1","0.3804311168","","false","77","0.4108459626","","main_expt","0.2402419665","","0.3804311168","","0.3346778491","","","","","","",""
"162","","bandit","153","544115","0.0-115.0-0.0","19314504","wem/bandit_single","A2LVPGEPC1EUOW","gain","5","","76","L","3","","1","0","0","0.2858281516","","false","78","0.432197644","","main_expt","0.2662288132","","0.4076768351","","0.2858281516","","","","","","",""
"199","","bandit","154","546081","0.0-116.0-0.0","19314504","wem/bandit_single","A2LVPGEPC1EUOW","gain","5","","76","L","3","","0","0","1","0.2601805687","","false","79","0.4681634707","","main_expt","0.2946750364","","0.4322729224","","0.2601805687","","","","","","",""
"181","","bandit","155","548025","0.0-117.0-0.0","19314504","wem/bandit_single","A2LVPGEPC1EUOW","gain","5","","76","L","3","","1","0","0","0.2494540003","","false","80","0.4487514359","","main_expt","0.3142603933","","0.4344903628","","0.2494540003","","","","","","",""
"73","","bandit","156","549866","0.0-118.0-0.0","19314504","wem/bandit_single","A2LVPGEPC1EUOW","gain","5","","76","L","3","","0","0","1","0.2029748002","","false","81","0.4278748425","","main_expt","0.3045476359","","0.4128510282","","0.2029748002","","","","","","",""
"36","","bandit","157","551665","0.0-119.0-0.0","19314504","wem/bandit_single","A2LVPGEPC1EUOW","gain","5","","76","L","3","","0","0","1","0.1459008349","","false","82","0.3873338363","","main_expt","0.2481672469","","0.3473788204","","0.1459008349","","","","","","",""
"107","","bandit","158","553536","0.0-120.0-0.0","19314504","wem/bandit_single","A2LVPGEPC1EUOW","gain","5","","76","L","3","","0","0","1","0.1792892234","","false","83","0.3676955993","","main_expt","0.2366474468","","0.3964685929","","0.1792892234","","","","","","",""
"94","","bandit","159","555394","0.0-121.0-0.0","19314504","wem/bandit_single","A2LVPGEPC1EUOW","gain","5","","76","L","3","","0","0","1","0.1384159538","","false","84","0.3494013457","","main_expt","0.2327145127","","0.4058457219","","0.1384159538","","","","","","",""
"88","","bandit","160","557247","0.0-122.0-0.0","19314504","wem/bandit_single","A2LVPGEPC1EUOW","gain","5","","76","L","3","","0","0","1","0.1569521301","","false","85","0.3484693071","","main_expt","0.2276425053","","0.419702676","","0.1569521301","","","","","","",""
"166","","bandit","161","559178","0.0-123.0-0.0","19314504","wem/bandit_single","A2LVPGEPC1EUOW","gain","5","","75","K","2","","1","0","0","0.3584641731","","false","86","0.3738623358","","main_expt","0.1932648708","","0.3584641731","","0.2111509195","","","","","","",""
"67","","bandit","162","561008","0.0-124.0-0.0","19314504","wem/bandit_single","A2LVPGEPC1EUOW","gain","5","","75","K","2","","1","0","0","0.3362954576","","false","87","0.3635865115","","main_expt","0.1554886006","","0.3362954576","","0.1855749087","","","","","","",""
"84","","bandit","163","562856","0.0-125.0-0.0","19314504","wem/bandit_single","A2LVPGEPC1EUOW","gain","5","","74","J","1","","0","0","1","0.1288388744","","false","88","0.28993028","","main_expt","0.1288388744","","0.3495778317","","0.1260067519","","","","","","",""
"57","","bandit","164","564683","0.0-126.0-0.0","19314504","wem/bandit_single","A2LVPGEPC1EUOW","gain","5","","75","K","2","","1","0","0","0.3337998134","","false","89","0.2529053562","","main_expt","0.1672252434","","0.3337998134","","0.1930097593","","","","","","",""
"428","","bandit","165","566881","0.0-127.0-0.0","19314504","wem/bandit_single","A2LVPGEPC1EUOW","gain","5","","75","K","2","","0","0","1","0.3254710898","","false","90","0.2239223254","","main_expt","0.1379373657","","0.3254710898","","0.2016869017","","","","","","",""
"45","","bandit","166","568688","0.0-128.0-0.0","19314504","wem/bandit_single","A2LVPGEPC1EUOW","gain","5","","75","K","2","","0","0","1","0.3248617863","","false","91","0.1874521573","","main_expt","0.1296834551","","0.3248617863","","0.2283296651","","","","","","",""
"3","","bandit","167","570459","0.0-129.0-0.0","19314504","wem/bandit_single","A2LVPGEPC1EUOW","gain","5","","74","J","1","","0","0","1","0.1601432093","","false","92","0.1464907128","","main_expt","0.1601432093","","0.3290731597","","0.2253008126","","","","","","",""
"48","","bandit","168","572271","0.0-130.0-0.0","19314504","wem/bandit_single","A2LVPGEPC1EUOW","gain","5","","76","L","3","","0","0","1","0.1826671142","","false","93","0.1817498408","","main_expt","0.1976873148","","0.2947126164","","0.1826671142","","","","","","",""
"115","","bandit","169","574153","0.0-131.0-0.0","19314504","wem/bandit_single","A2LVPGEPC1EUOW","gain","5","","76","L","3","","0","0","1","0.1650727581","","false","94","0.1967130988","","main_expt","0.2296862911","","0.2762739163","","0.1650727581","","","","","","",""
"87","","bandit","170","576009","0.0-132.0-0.0","19314504","wem/bandit_single","A2LVPGEPC1EUOW","gain","5","","75","K","2","","0","0","1","0.3184689772","","false","95","0.2294656294","","main_expt","0.1990842867","","0.3184689772","","0.1971582392","","","","","","",""
"84","","bandit","171","577856","0.0-133.0-0.0","19314504","wem/bandit_single","A2LVPGEPC1EUOW","gain","5","","74","J","1","","0","0","1","0.258496532","","false","96","0.2966343553","","main_expt","0.258496532","","0.281027734","","0.1791402521","","","","","","",""
"104","","bandit","172","579729","0.0-134.0-0.0","19314504","wem/bandit_single","A2LVPGEPC1EUOW","gain","5","","72","H","0","img/none_selected.jpg","1","0","0","0.3346257274","","false","97","0.3346257274","","main_expt","0.2766566169","","0.2474299406","","0.1516442175","","","","","","",""
"16","","bandit","173","581511","0.0-135.0-0.0","19314504","wem/bandit_single","A2LVPGEPC1EUOW","gain","5","","72","H","0","img/none_selected.jpg","0","0","1","0.3139493976","","false","98","0.3139493976","","main_expt","0.2377114848","","0.2217126022","","0.2200018313","","","","","","",""
"70","","bandit","174","583352","0.0-136.0-0.0","19314504","wem/bandit_single","A2LVPGEPC1EUOW","gain","5","","72","H","0","img/none_selected.jpg","1","0","0","0.2478490566","","false","99","0.2478490566","","main_expt","0.3124158187","","0.2677278576","","0.2752547205","","","","","","",""
"23","","bandit","175","585145","0.0-137.0-0.0","19314504","wem/bandit_single","A2LVPGEPC1EUOW","gain","5","","72","H","0","img/none_selected.jpg","1","0","0","0.2602221343","","false","100","0.2602221343","","main_expt","0.2059987679","","0.3271916833","","0.252850905","","","","","","",""
"15","","bandit","176","586927","0.0-138.0-0.0","19314504","wem/bandit_single","A2LVPGEPC1EUOW","gain","5","","72","H","0","img/none_selected.jpg","0","0","1","0.2584762291","","false","101","0.2584762291","","main_expt","0.1758265216","","0.3066156257","","0.1867047362","","","","","","",""
"98","","bandit","177","588792","0.0-139.0-0.0","19314504","wem/bandit_single","A2LVPGEPC1EUOW","gain","5","","72","H","0","img/none_selected.jpg","1","0","0","0.282093771","","false","102","0.282093771","","main_expt","0.2262322791","","0.3260250896","","0.1175578895","","","","","","",""
"226","","bandit","178","590782","0.0-140.0-0.0","19314504","wem/bandit_single","A2LVPGEPC1EUOW","gain","5","","72","H","0","img/none_selected.jpg","0","0","1","0.2725256196","","false","103","0.2725256196","","main_expt","0.2018281434","","0.3731136732","","0.09132094505","","","","","","",""
"240","","bandit","179","592784","0.0-141.0-0.0","19314504","wem/bandit_single","A2LVPGEPC1EUOW","gain","5","","72","H","0","img/none_selected.jpg","0","0","1","0.2243623384","","false","104","0.2243623384","","main_expt","0.1447482012","","0.3941656488","","0.1422553795","","","","","","",""
"87","","bandit","180","594641","0.0-142.0-0.0","19314504","wem/bandit_single","A2LVPGEPC1EUOW","gain","5","","74","J","1","","0","0","1","0.2104813725","","false","105","0.2403200944","","main_expt","0.2104813725","","0.4030151573","","0.1390697773","","","","","","",""
"38","","bandit","181","596448","0.0-143.0-0.0","19314504","wem/bandit_single","A2LVPGEPC1EUOW","gain","5","","72","H","0","img/none_selected.jpg","1","0","0","0.2332798071","","false","106","0.2332798071","","main_expt","0.2492378957","","0.3715193073","","0.1155807694","","","","","","",""
"150","","bandit","182","598367","0.0-144.0-0.0","19314504","wem/bandit_single","A2LVPGEPC1EUOW","gain","5","","72","H","0","img/none_selected.jpg","0","0","1","0.181620067","","false","107","0.181620067","","main_expt","0.217404121","","0.3837270358","","0.105728532","","","","","","",""
"185","","bandit","183","600318","0.0-145.0-0.0","19314504","wem/bandit_single","A2LVPGEPC1EUOW","gain","5","","72","H","0","img/none_selected.jpg","0","0","1","0.2173069915","","false","108","0.2173069915","","main_expt","0.2142202377","","0.3908875135","","0.08831090648","","","","","","",""
"62","","bandit","184","602141","0.0-146.0-0.0","19314504","wem/bandit_single","A2LVPGEPC1EUOW","gain","5","","72","H","0","img/none_selected.jpg","1","0","0","0.226697077","","false","109","0.226697077","","main_expt","0.2683226389","","0.3774052568","","0.1043724426","","","","","","",""
"3","","bandit","185","603916","0.0-147.0-0.0","19314504","wem/bandit_single","A2LVPGEPC1EUOW","gain","5","","72","H","0","img/none_selected.jpg","1","0","0","0.2695419639","","false","110","0.2695419639","","main_expt","0.2619142817","","0.3601275089","","0.07530108238","","","","","","",""
"83","","bandit","186","605765","0.0-148.0-0.0","19314504","wem/bandit_single","A2LVPGEPC1EUOW","gain","5","","72","H","0","img/none_selected.jpg","1","0","0","0.2635727161","","false","111","0.2635727161","","main_expt","0.2754039507","","0.3880855357","","0.05159845725","","","","","","",""
"78","","bandit","187","607610","0.0-149.0-0.0","19314504","wem/bandit_single","A2LVPGEPC1EUOW","gain","5","","72","H","0","img/none_selected.jpg","1","0","0","0.3202716687","","false","112","0.3202716687","","main_expt","0.2721436228","","0.3864248384","","0.08116028731","","","","","","",""
"475","","bandit","188","609857","0.0-150.0-0.0","19314504","wem/bandit_single","A2LVPGEPC1EUOW","gain","5","","72","H","0","img/none_selected.jpg","0","0","1","0.3546461764","","false","113","0.3546461764","","main_expt","0.2598768298","","0.339569604","","0.08538759299","","","","","","",""
"626","","bandit","189","612253","0.0-151.0-0.0","19314504","wem/bandit_single","A2LVPGEPC1EUOW","gain","5","","74","J","1","","1","0","0","0.2271708717","","false","114","0.3339806629","","main_expt","0.2271708717","","0.3612744832","","0.106551095","","","","","","",""
"55","","bandit","190","614081","0.0-152.0-0.0","19314504","wem/bandit_single","A2LVPGEPC1EUOW","gain","5","","74","J","1","","0","0","1","0.2382373761","","false","115","0.3175163572","","main_expt","0.2382373761","","0.3616298021","","0.1120532439","","","","","","",""
"1137","","bandit","191","616990","0.0-153.0-0.0","19314504","wem/bandit_single","A2LVPGEPC1EUOW","gain","5","","72","H","0","img/none_selected.jpg","1","0","0","0.3626291523","","false","116","0.3626291523","","main_expt","0.2092397162","","0.3886586702","","0.07206247825","","","","","","",""
"139","","bandit","192","618895","0.0-154.0-0.0","19314504","wem/bandit_single","A2LVPGEPC1EUOW","gain","5","","72","H","0","img/none_selected.jpg","0","0","1","0.4005972513","","false","117","0.4005972513","","main_expt","0.1790603663","","0.3837198657","","0.05990892348","","","","","","",""
"6","","bandit","193","620668","0.0-155.0-0.0","19314504","wem/bandit_single","A2LVPGEPC1EUOW","gain","5","","75","K","2","","1","0","0","0.3831944796","","false","118","0.3994725347","","main_expt","0.2515048449","","0.3831944796","","0.07349038746","","","","","","",""
"72","","bandit","194","622503","0.0-156.0-0.0","19314504","wem/bandit_single","A2LVPGEPC1EUOW","gain","5","","75","K","2","","1","0","0","0.3200080389","","false","119","0.3690387214","","main_expt","0.2591845625","","0.3200080389","","0.0880416307","","","","","","",""
"31","","bandit","195","624305","0.0-157.0-0.0","19314504","wem/bandit_single","A2LVPGEPC1EUOW","gain","5","","75","K","2","","0","0","1","0.3498825307","","false","120","0.3553033444","","main_expt","0.2719994365","","0.3498825307","","0.08832912692","","","","","","",""
"42","","bandit","196","626118","0.0-158.0-0.0","19314504","wem/bandit_single","A2LVPGEPC1EUOW","gain","5","","75","K","2","","1","0","0","0.3150568547","","false","121","0.3558993888","","main_expt","0.2511552987","","0.3150568547","","0.08322673311","","","","","","",""
"750","","bandit","197","628638","0.0-159.0-0.0","19314504","wem/bandit_single","A2LVPGEPC1EUOW","gain","5","","75","K","2","","0","0","1","0.332296042","","false","122","0.3539125929","","main_expt","0.246059836","","0.332296042","","0.1027924146","","","","","","",""
"584","","bandit","198","630988","0.0-160.0-0.0","19314504","wem/bandit_single","A2LVPGEPC1EUOW","gain","5","","75","K","2","","1","0","0","0.3023892254","","false","123","0.2756210624","","main_expt","0.201637063","","0.3023892254","","0.1112730508","","","","","","",""
"89","","bandit","199","632846","0.0-161.0-0.0","19314504","wem/bandit_single","A2LVPGEPC1EUOW","gain","5","","75","K","2","","0","0","1","0.2971441903","","false","124","0.2924451827","","main_expt","0.2424225803","","0.2971441903","","0.1401536705","","","","","","",""
"30","","bandit","200","634646","0.0-162.0-0.0","19314504","wem/bandit_single","A2LVPGEPC1EUOW","gain","5","","75","K","2","","0","0","1","0.2989687221","","false","125","0.3283550958","","main_expt","0.2663511033","","0.2989687221","","0.170676821","","","","","","",""
"1550","","bandit","201","637968","0.0-163.0-0.0","19314504","wem/bandit_single","A2LVPGEPC1EUOW","gain","5","","75","K","2","","1","0","0","0.3470717071","","false","126","0.3561713316","","main_expt","0.2214557307","","0.3470717071","","0.2239131839","","","","","","",""
"199","","bandit","202","639933","0.0-164.0-0.0","19314504","wem/bandit_single","A2LVPGEPC1EUOW","gain","5","","75","K","2","","1","0","0","0.3399927284","","false","127","0.3093512765","","main_expt","0.2274120533","","0.3399927284","","0.1828765327","","","","","","",""
"114","","bandit","203","641812","0.0-165.0-0.0","19314504","wem/bandit_single","A2LVPGEPC1EUOW","gain","5","","74","J","1","","0","0","1","0.2035603578","","false","128","0.3682433617","","main_expt","0.2035603578","","0.3039142281","","0.2182936746","","","","","","",""
"132","","bandit","204","643710","0.0-166.0-0.0","19314504","wem/bandit_single","A2LVPGEPC1EUOW","gain","5","","72","H","0","img/none_selected.jpg","1","0","0","0.3485983391","","false","129","0.3485983391","","main_expt","0.1571118888","","0.331948561","","0.2206976306","","","","","","",""
"1980","","bandit","205","647461","0.0-167.0-0.0","19314504","wem/bandit_single","A2LVPGEPC1EUOW","gain","5","","72","H","0","img/none_selected.jpg","0","0","1","0.3907345736","","false","130","0.3907345736","","main_expt","0.08617346002","","0.3512730473","","0.1657145536","","","","","","",""
"5","","bandit","206","649238","0.0-168.0-0.0","19314504","wem/bandit_single","A2LVPGEPC1EUOW","gain","5","","74","J","1","","0","0","1","0.1196539686","","false","131","0.3697977754","","main_expt","0.1196539686","","0.3617370935","","0.2555784817","","","","","","",""
"3847","","bandit","207","654853","0.0-169.0-0.0","19314504","wem/bandit_single","A2LVPGEPC1EUOW","gain","5","","72","H","0","img/none_selected.jpg","0","0","1","0.3916621277","","false","132","0.3916621277","","main_expt","0.1111227042","","0.3520165756","","0.287060772","","","","","","",""
"319","","bandit","208","656941","0.0-170.0-0.0","19314504","wem/bandit_single","A2LVPGEPC1EUOW","gain","5","","75","K","2","","1","0","0","0.3863989014","","false","133","0.3437671512","","main_expt","0.1223368092","","0.3863989014","","0.238965149","","","","","","",""
"248","","bandit","209","658957","0.0-171.0-0.0","19314504","wem/bandit_single","A2LVPGEPC1EUOW","gain","5","","75","K","2","","0","0","1","0.3391859262","","false","134","0.3636108046","","main_expt","0.1001486166","","0.3391859262","","0.2457001749","","","","","","",""
"998","","bandit","210","661724","0.0-172.0-0.0","19314504","wem/bandit_single","A2LVPGEPC1EUOW","gain","5","","76","L","3","","0","0","1","0.2499382958","","false","135","0.3251377881","","main_expt","0.1179747861","","0.3700101905","","0.2499382958","","","","","","",""
"124","","bandit","211","663620","0.0-173.0-0.0","19314504","wem/bandit_single","A2LVPGEPC1EUOW","gain","5","","76","L","3","","0","0","1","0.2553087313","","false","136","0.3838305716","","main_expt","0.1167775935","","0.3002558999","","0.2553087313","","","","","","",""
"37","","bandit","212","665427","0.0-174.0-0.0","19314504","wem/bandit_single","A2LVPGEPC1EUOW","gain","5","","74","J","1","","0","0","1","0.1459170178","","false","137","0.374624825","","main_expt","0.1459170178","","0.3242357935","","0.2517181947","","","","","","",""
"305","","bandit","213","667502","0.0-175.0-0.0","19314504","wem/bandit_single","A2LVPGEPC1EUOW","gain","5","","72","H","0","img/none_selected.jpg","0","0","1","0.36903936","","false","138","0.36903936","","main_expt","0.1403776257","","0.3413485239","","0.2531469116","","","","","","",""
"1660","","bandit","214","670932","0.0-176.0-0.0","19314504","wem/bandit_single","A2LVPGEPC1EUOW","gain","5","","72","H","0","img/none_selected.jpg","1","0","0","0.3757762965","","false","139","0.3757762965","","main_expt","0.1647502834","","0.3172825342","","0.2810662396","","","","","","",""
"1030","","bandit","215","673731","0.0-177.0-0.0","19314504","wem/bandit_single","A2LVPGEPC1EUOW","gain","5","","72","H","0","img/none_selected.jpg","0","0","1","0.3240643918","","false","140","0.3240643918","","main_expt","0.2135508935","","0.3683668128","","0.2226737135","","","","","","",""
"45","","bandit","216","675549","0.0-178.0-0.0","19314504","wem/bandit_single","A2LVPGEPC1EUOW","gain","5","","74","J","1","","0","0","1","0.2286669107","","false","141","0.342151626","","main_expt","0.2286669107","","0.2976824498","","0.2330331678","","","","","","",""
"62","","bandit","217","677378","0.0-179.0-0.0","19314504","wem/bandit_single","A2LVPGEPC1EUOW","gain","5","","75","K","2","","0","0","1","0.3424177608","","false","142","0.3576151309","","main_expt","0.1870561284","","0.3424177608","","0.1833347363","","","","","","",""
"729","","bandit","218","679876","0.0-180.0-0.0","19314504","wem/bandit_single","A2LVPGEPC1EUOW","gain","5","","75","K","2","","1","0","0","0.3367953268","","false","143","0.3075624404","","main_expt","0.220851353","","0.3367953268","","0.2063127673","","","","","","",""
"184","","bandit","219","681828","0.0-181.0-0.0","19314504","wem/bandit_single","A2LVPGEPC1EUOW","gain","5","","75","K","2","","0","0","1","0.3446852995","","false","144","0.3666812205","","main_expt","0.1581776843","","0.3446852995","","0.24054226","","","","","","",""
"92","","bandit","220","683692","0.0-182.0-0.0","19314504","wem/bandit_single","A2LVPGEPC1EUOW","gain","5","","75","K","2","","1","0","0","0.3569090532","","false","145","0.373264243","","main_expt","0.1562309797","","0.3569090532","","0.3397881996","","","","","","",""
"18","","bandit","221","685483","0.0-183.0-0.0","19314504","wem/bandit_single","A2LVPGEPC1EUOW","gain","5","","75","K","2","","0","0","1","0.3546691234","","false","146","0.3588440804","","main_expt","0.201277092","","0.3546691234","","0.334771558","","","","","","",""
"357","","bandit","222","687611","0.0-184.0-0.0","19314504","wem/bandit_single","A2LVPGEPC1EUOW","gain","5","","76","L","3","","1","0","0","0.3135854179","","false","147","0.3848898601","","main_expt","0.2014254916","","0.3346193534","","0.3135854179","","","","","","",""
"1","","bandit","223","689384","0.0-185.0-0.0","19314504","wem/bandit_single","A2LVPGEPC1EUOW","gain","5","","76","L","3","","0","0","1","0.2601716543","","false","148","0.4049875018","","main_expt","0.1783642851","","0.3481099765","","0.2601716543","","","","","","",""
"72","","bandit","224","691228","0.0-186.0-0.0","19314504","wem/bandit_single","A2LVPGEPC1EUOW","gain","5","","76","L","3","","0","0","1","0.2449203511","","false","149","0.3644303146","","main_expt","0.2394621943","","0.3473239498","","0.2449203511","","","","","","",""
"170","","bandit","225","693172","0.0-187.0-0.0","19314504","wem/bandit_single","A2LVPGEPC1EUOW","gain","5","","76","L","3","","0","0","1","0.2679682766","","false","150","0.3820895465","","main_expt","0.2009439561","","0.3457177179","","0.2679682766","","","","","","",""
"470","","bandit","226","695410","0.0-188.0-0.0","19314504","wem/bandit_single","A2LVPGEPC1EUOW","gain","5","","75","K","2","","1","0","0","0.3131990842","","false","151","0.3715335383","","main_expt","0.1783838281","","0.3131990842","","0.2811524043","","","","","","",""
"273","","bandit","227","697451","0.0-189.0-0.0","19314504","wem/bandit_single","A2LVPGEPC1EUOW","gain","5","","75","K","2","","1","0","0","0.2632978047","","false","152","0.3270427106","","main_expt","0.2357029213","","0.2632978047","","0.2320671432","","","","","","",""
"213","","bandit","228","699438","0.0-190.0-0.0","19314504","wem/bandit_single","A2LVPGEPC1EUOW","gain","5","","74","J","1","","0","0","1","0.1701289497","","false","153","0.3117301263","","main_expt","0.1701289497","","0.2782579121","","0.2655606304","","","","","","",""
"470","","bandit","229","701683","0.0-191.0-0.0","19314504","wem/bandit_single","A2LVPGEPC1EUOW","gain","5","","72","H","0","img/none_selected.jpg","0","0","1","0.2860829053","","false","154","0.2860829053","","main_expt","0.1613436629","","0.2212449789","","0.3485425359","","","","","","",""
"1091","","bandit","230","704547","0.0-192.0-0.0","19314504","wem/bandit_single","A2LVPGEPC1EUOW","gain","5","","76","L","3","","0","0","1","0.3302543019","","false","155","0.2412247214","","main_expt","0.1419994917","","0.1944586175","","0.3302543019","","","","","","",""
"64","","bandit","231","706388","0.0-193.0-0.0","19314504","wem/bandit_single","A2LVPGEPC1EUOW","gain","5","","75","K","2","","0","0","1","0.2035424954","","false","156","0.2505935016","","main_expt","0.2076402971","","0.2035424954","","0.2696600886","","","","","","",""
"3","","bandit","232","708164","0.0-194.0-0.0","19314504","wem/bandit_single","A2LVPGEPC1EUOW","gain","5","","76","L","3","","1","0","0","0.3095791192","","false","157","0.2677381881","","main_expt","0.2253974945","","0.2039725598","","0.3095791192","","","","","","",""
"77","","bandit","233","710013","0.0-195.0-0.0","19314504","wem/bandit_single","A2LVPGEPC1EUOW","gain","5","","76","L","3","","0","0","1","0.3427908005","","false","158","0.228073272","","main_expt","0.3173726248","","0.1610126092","","0.3427908005","","","","","","",""
"66","","bandit","234","711850","0.0-196.0-0.0","19314504","wem/bandit_single","A2LVPGEPC1EUOW","gain","5","","76","L","3","","1","0","0","0.3459652535","","false","159","0.2181731157","","main_expt","0.2929560982","","0.2244023171","","0.3459652535","","","","","","",""
"390","","bandit","235","714012","0.0-197.0-0.0","19314504","wem/bandit_single","A2LVPGEPC1EUOW","gain","5","","76","L","3","","1","0","0","0.3277363444","","false","160","0.2483475363","","main_expt","0.2599130114","","0.2550463449","","0.3277363444","","","","","","",""
"83","","bandit","236","715865","0.0-198.0-0.0","19314504","wem/bandit_single","A2LVPGEPC1EUOW","gain","5","","76","L","3","","0","0","1","0.3043896987","","false","161","0.2287268475","","main_expt","0.3006759107","","0.1988840894","","0.3043896987","","","","","","",""
"7","","bandit","237","717636","0.0-199.0-0.0","19314504","wem/bandit_single","A2LVPGEPC1EUOW","gain","5","","76","L","3","","1","0","0","0.3013302692","","false","162","0.2118340618","","main_expt","0.3359074288","","0.3208820199","","0.3013302692","","","","","","",""
"87","","bandit","238","719497","0.0-200.0-0.0","19314504","wem/bandit_single","A2LVPGEPC1EUOW","gain","5","","76","L","3","","1","0","0","0.3359404133","","false","163","0.2467500447","","main_expt","0.3248254093","","0.3416291965","","0.3359404133","","","","","","",""
"605","","bandit","239","721872","0.0-201.0-0.0","19314504","wem/bandit_single","A2LVPGEPC1EUOW","gain","5","","76","L","3","","0","0","1","0.3449747326","","false","164","0.2745506496","","main_expt","0.2480447101","","0.3531125991","","0.3449747326","","","","","","",""
"126","","bandit","240","723770","0.0-202.0-0.0","19314504","wem/bandit_single","A2LVPGEPC1EUOW","gain","5","","76","L","3","","0","0","1","0.3388680014","","false","165","0.2893970703","","main_expt","0.2291527929","","0.3329293945","","0.3388680014","","","","","","",""
"69","","bandit","241","725609","0.0-203.0-0.0","19314504","wem/bandit_single","A2LVPGEPC1EUOW","gain","5","","76","L","3","","1","0","0","0.3565097084","","false","166","0.326956194","","main_expt","0.2408823094","","0.368824295","","0.3565097084","","","","","","",""
"241","","bandit","242","727617","0.0-204.0-0.0","19314504","wem/bandit_single","A2LVPGEPC1EUOW","gain","5","","76","L","3","","1","0","0","0.3807311224","","false","167","0.2562538154","","main_expt","0.1852653973","","0.3528049135","","0.3807311224","","","","","","",""
"21","","bandit","243","729409","0.0-205.0-0.0","19314504","wem/bandit_single","A2LVPGEPC1EUOW","gain","5","","76","L","3","","0","0","1","0.4157533759","","false","168","0.259707785","","main_expt","0.1123614246","","0.3530437727","","0.4157533759","","","","","","",""
"566","","bandit","244","731737","0.0-206.0-0.0","19314504","wem/bandit_single","A2LVPGEPC1EUOW","gain","5","","76","L","3","","0","0","1","0.3990846218","","false","169","0.305903145","","main_expt","0.1289140747","","0.3619584092","","0.3990846218","","","","","","",""
"487","","bandit","245","733994","0.0-207.0-0.0","19314504","wem/bandit_single","A2LVPGEPC1EUOW","gain","5","","76","L","3","","0","0","1","0.3840903594","","false","170","0.2780458482","","main_expt","0.1082073398","","0.3851568221","","0.3840903594","","","","","","",""
"218","","bandit","246","735985","0.0-208.0-0.0","19314504","wem/bandit_single","A2LVPGEPC1EUOW","gain","5","","75","K","2","","1","0","0","0.369821393","","false","171","0.2754425626","","main_expt","0.09560917383","","0.369821393","","0.4279034191","","","","","","",""
"14","","bandit","247","737769","0.0-209.0-0.0","19314504","wem/bandit_single","A2LVPGEPC1EUOW","gain","5","","75","K","2","","0","0","1","0.3238500873","","false","172","0.2801866594","","main_expt","0.09002122866","","0.3238500873","","0.4277210969","","","","","","",""
"387","","bandit","248","739930","0.0-210.0-0.0","19314504","wem/bandit_single","A2LVPGEPC1EUOW","gain","5","","75","K","2","","0","0","1","0.371178543","","false","173","0.2903169923","","main_expt","0.06359212806","","0.371178543","","0.4177409887","","","","","","",""
"326","","bandit","249","742023","0.0-211.0-0.0","19314504","wem/bandit_single","A2LVPGEPC1EUOW","gain","5","","76","L","3","","0","0","1","0.4149019111","","false","174","0.3135769273","","main_expt","0.07897407323","","0.364968973","","0.4149019111","","","","","","",""
"45","","bandit","250","743841","0.0-212.0-0.0","19314504","wem/bandit_single","A2LVPGEPC1EUOW","gain","5","","75","K","2","","0","0","1","0.4172857806","","false","175","0.3205535054","","main_expt","0.05374651045","","0.4172857806","","0.3890834012","","","","","","",""
"540","","bandit","251","746152","0.0-213.0-0.0","19314504","wem/bandit_single","A2LVPGEPC1EUOW","gain","5","","74","J","1","","0","0","1","0.05298342689","","false","176","0.3548310205","","main_expt","0.05298342689","","0.3931137538","","0.3775492635","","","","","","",""
"19","","bandit","252","747944","0.0-214.0-0.0","19314504","wem/bandit_single","A2LVPGEPC1EUOW","gain","5","","74","J","1","","0","0","1","0.04117570961","","false","177","0.3374760958","","main_expt","0.04117570961","","0.4118750583","","0.2763311933","","","","","","",""
"439","","bandit","253","750153","0.0-215.0-0.0","19314504","wem/bandit_single","A2LVPGEPC1EUOW","gain","5","","72","H","0","img/none_selected.jpg","0","0","1","0.3045899674","","false","178","0.3045899674","","main_expt","0.0682688674","","0.4019835374","","0.2117274321","","","","","","",""
"93","","bandit","254","752017","0.0-216.0-0.0","19314504","wem/bandit_single","A2LVPGEPC1EUOW","gain","5","","72","H","0","img/none_selected.jpg","0","0","1","0.2701203387","","false","179","0.2701203387","","main_expt","0.0699035784","","0.3943962464","","0.2071796451","","","","","","",""
"57","","bandit","255","753840","0.0-217.0-0.0","19314504","wem/bandit_single","A2LVPGEPC1EUOW","gain","5","","75","K","2","","1","0","0","0.3879360396","","false","180","0.3010541938","","main_expt","0.08066818268","","0.3879360396","","0.2237333922","","","","","","",""
"703","","bandit","256","756313","0.0-218.0-0.0","19314504","wem/bandit_single","A2LVPGEPC1EUOW","gain","5","","75","K","2","","1","0","0","0.3516035239","","false","181","0.2685782119","","main_expt","0.06418194011","","0.3516035239","","0.1462221579","","","","","","",""
"27","","bandit","257","758112","0.0-219.0-0.0","19314504","wem/bandit_single","A2LVPGEPC1EUOW","gain","5","","75","K","2","","1","0","0","0.3544849886","","false","182","0.2333395507","","main_expt","0.05948248489","","0.3544849886","","0.1745001591","","","","","","",""
"181","","bandit","258","760065","0.0-220.0-0.0","19314504","wem/bandit_single","A2LVPGEPC1EUOW","gain","5","","75","K","2","","0","0","1","0.3239224462","","false","183","0.1817222791","","main_expt","0.04249263759","","0.3239224462","","0.1840457003","","","","","","",""
"67","","bandit","259","761902","0.0-221.0-0.0","19314504","wem/bandit_single","A2LVPGEPC1EUOW","gain","5","","75","K","2","","1","0","0","0.3437575642","","false","184","0.1946528514","","main_expt","0.05174265856","","0.3437575642","","0.1684271963","","","","","","",""
"493","","bandit","260","764166","0.0-222.0-0.0","19314504","wem/bandit_single","A2LVPGEPC1EUOW","gain","5","","75","K","2","","0","0","1","0.3584643827","","false","185","0.1998780622","","main_expt","0.04700335152","","0.3584643827","","0.1820742113","","","","","","",""
"60","","bandit","261","765993","0.0-223.0-0.0","19314504","wem/bandit_single","A2LVPGEPC1EUOW","gain","5","","75","K","2","","0","0","1","0.3968797112","","false","186","0.2674223733","","main_expt","0.0651928762","","0.3968797112","","0.2156320388","","","","","","",""
"451","","bandit","262","768216","0.0-224.0-0.0","19314504","wem/bandit_single","A2LVPGEPC1EUOW","gain","5","","76","L","3","","1","0","0","0.2805416817","","false","187","0.2625155344","","main_expt","0.1006801651","","0.3851297664","","0.2805416817","","","","","","",""
"42","","bandit","263","770031","0.0-225.0-0.0","19314504","wem/bandit_single","A2LVPGEPC1EUOW","gain","5","","76","L","3","","0","0","1","0.255869765","","false","188","0.2428845682","","main_expt","0.1650650448","","0.3861445831","","0.255869765","","","","","","",""
"469","","bandit","264","772271","0.0-226.0-0.0","19314504","wem/bandit_single","A2LVPGEPC1EUOW","gain","5","","76","L","3","","0","0","1","0.1757761595","","false","189","0.2017656849","","main_expt","0.1545550266","","0.3904601473","","0.1757761595","","","","","","",""
"455","","bandit","265","774495","0.0-227.0-0.0","19314504","wem/bandit_single","A2LVPGEPC1EUOW","gain","5","","75","K","2","","0","0","1","0.430863334","","false","190","0.2163316772","","main_expt","0.187471884","","0.430863334","","0.1346649685","","","","","","",""
"186","","bandit","266","776448","0.0-228.0-0.0","19314504","wem/bandit_single","A2LVPGEPC1EUOW","gain","5","","76","L","3","","0","0","1","0.1132332922","","false","191","0.2055350187","","main_expt","0.1611513775","","0.4113524325","","0.1132332922","","","","","","",""
"29","","bandit","267","778247","0.0-229.0-0.0","19314504","wem/bandit_single","A2LVPGEPC1EUOW","gain","5","","74","J","1","","1","0","0","0.1777959463","","false","192","0.1895719249","","main_expt","0.1777959463","","0.4039805352","","0.1208943264","","","","","","",""
"202","","bandit","268","780223","0.0-230.0-0.0","19314504","wem/bandit_single","A2LVPGEPC1EUOW","gain","5","","74","J","1","","0","0","1","0.1871499601","","false","193","0.1748526562","","main_expt","0.1871499601","","0.4245567291","","0.1939792015","","","","","","",""
"21","","bandit","269","782014","0.0-231.0-0.0","19314504","wem/bandit_single","A2LVPGEPC1EUOW","gain","5","","74","J","1","","0","0","1","0.1876497678","","false","194","0.1474168317","","main_expt","0.1876497678","","0.3947968319","","0.16637132","","","","","","",""
"4","","bandit","270","783792","0.0-232.0-0.0","19314504","wem/bandit_single","A2LVPGEPC1EUOW","gain","5","","74","J","1","","1","0","0","0.1091892437","","false","195","0.192031623","","main_expt","0.1091892437","","0.4142863389","","0.1730885183","","","","","","",""
"78","","bandit","271","785637","0.0-233.0-0.0","19314504","wem/bandit_single","A2LVPGEPC1EUOW","gain","5","","74","J","1","","0","0","1","0.1617114059","","false","196","0.2058404012","","main_expt","0.1617114059","","0.4233691667","","0.215114198","","","","","","",""
"3","","bandit","272","787405","0.0-234.0-0.0","19314504","wem/bandit_single","A2LVPGEPC1EUOW","gain","5","","74","J","1","","0","0","1","0.1704243662","","false","197","0.2424759238","","main_expt","0.1704243662","","0.3910113043","","0.2080771369","","","","","","",""
"507","","bandit","273","789690","0.0-235.0-0.0","19314504","wem/bandit_single","A2LVPGEPC1EUOW","gain","5","","72","H","0","img/none_selected.jpg","1","0","0","0.2209877853","","false","198","0.2209877853","","main_expt","0.1547158464","","0.4036427912","","0.2349601263","","","","","","",""
"52","","bandit","274","791518","0.0-236.0-0.0","19314504","wem/bandit_single","A2LVPGEPC1EUOW","gain","5","","72","H","0","img/none_selected.jpg","0","0","1","0.2167038869","","false","199","0.2167038869","","main_expt","0.1871633293","","0.4211573591","","0.2603506135","","","","","","",""
"199","","bandit","275","793486","0.0-237.0-0.0","19314504","wem/bandit_single","A2LVPGEPC1EUOW","gain","5","","72","H","0","img/none_selected.jpg","0","0","1","0.1923465651","","false","200","0.1923465651","","main_expt","0.2044595191","","0.4279321675","","0.3238520586","","","","","","",""
"1","","bandit","276","795258","0.0-238.0-0.0","19314504","wem/bandit_single","A2LVPGEPC1EUOW","gain","5","","72","H","0","img/none_selected.jpg","0","0","1","0.2292217674","","false","201","0.2292217674","","main_expt","0.2260370877","","0.4164542871","","0.3006478669","","","","","","",""
"145","","bandit","277","797172","0.0-239.0-0.0","19314504","wem/bandit_single","A2LVPGEPC1EUOW","gain","5","","72","H","0","img/none_selected.jpg","0","0","1","0.2458551357","","false","202","0.2458551357","","main_expt","0.2543806879","","0.4304584766","","0.2728804465","","","","","","",""
"124","","bandit","278","799069","0.0-240.0-0.0","19314504","wem/bandit_single","A2LVPGEPC1EUOW","gain","5","","75","K","2","","1","0","0","0.4301844238","","false","203","0.2388066436","","main_expt","0.248330882","","0.4301844238","","0.3070028205","","","","","","",""
"9","","bandit","279","800855","0.0-241.0-0.0","19314504","wem/bandit_single","A2LVPGEPC1EUOW","gain","5","","75","K","2","","0","0","1","0.3900297032","","false","204","0.2087278664","","main_expt","0.272777159","","0.3900297032","","0.2937269753","","","","","","",""
"442","","bandit","280","803062","0.0-242.0-0.0","19314504","wem/bandit_single","A2LVPGEPC1EUOW","gain","5","","74","J","1","","0","0","1","0.3434557908","","false","205","0.1498191458","","main_expt","0.3434557908","","0.3928583167","","0.2378968556","","","","","","",""
"299","","bandit","281","805135","0.0-243.0-0.0","19314504","wem/bandit_single","A2LVPGEPC1EUOW","gain","5","","75","K","2","","0","0","1","0.4066069638","","false","206","0.1173401749","","main_expt","0.3670462125","","0.4066069638","","0.2621799838","","","","","","",""
"96","","bandit","282","807003","0.0-244.0-0.0","19314504","wem/bandit_single","A2LVPGEPC1EUOW","gain","5","","76","L","3","","0","0","1","0.2751860601","","false","207","0.131911627","","main_expt","0.3762900352","","0.3973448409","","0.2751860601","","","","","","",""
"1","","bandit","283","808770","0.0-245.0-0.0","19314504","wem/bandit_single","A2LVPGEPC1EUOW","gain","5","","76","L","3","","1","0","0","0.2449975294","","false","208","0.121614138","","main_expt","0.3619644859","","0.4149937731","","0.2449975294","","","","","","",""
"142","","bandit","284","810686","0.0-246.0-0.0","19314504","wem/bandit_single","A2LVPGEPC1EUOW","gain","5","","76","L","3","","0","0","1","0.2260792918","","false","209","0.1301565943","","main_expt","0.3487947413","","0.4174336027","","0.2260792918","","","","","","",""
"23","","bandit","285","812476","0.0-247.0-0.0","19314504","wem/bandit_single","A2LVPGEPC1EUOW","gain","5","","76","L","3","","0","0","1","0.2506868781","","false","210","0.09603783024","","main_expt","0.3019817091","","0.3969791934","","0.2506868781","","","","","","",""
"338","","bandit","286","814580","0.0-248.0-0.0","19314504","wem/bandit_single","A2LVPGEPC1EUOW","gain","5","","75","K","2","","0","0","1","0.4109689779","","false","211","0.09853312819","","main_expt","0.3322841588","","0.4109689779","","0.2364470615","","","","","","",""
"8","","bandit","287","816356","0.0-249.0-0.0","19314504","wem/bandit_single","A2LVPGEPC1EUOW","gain","5","","74","J","1","","0","0","1","0.3257981887","","false","212","0.08497623984","","main_expt","0.3257981887","","0.3870841375","","0.2097336517","","","","","","",""
"76","","bandit","288","818195","0.0-250.0-0.0","19314504","wem/bandit_single","A2LVPGEPC1EUOW","gain","5","","75","K","2","","0","0","1","0.3702451026","","false","213","0.0690536233","","main_expt","0.299150427","","0.3702451026","","0.223293056","","","","","","",""
"15","","bandit","289","819981","0.0-251.0-0.0","19314504","wem/bandit_single","A2LVPGEPC1EUOW","gain","5","","76","L","3","","1","0","0","0.2797804449","","false","214","0.05607702273","","main_expt","0.2841516905","","0.4052473305","","0.2797804449","","","","","","",""
"82","","bandit","290","821837","0.0-252.0-0.0","19314504","wem/bandit_single","A2LVPGEPC1EUOW","gain","5","","76","L","3","","1","0","0","0.3307304153","","false","215","0.0612243178","","main_expt","0.2421432752","","0.4003088938","","0.3307304153","","","","","","",""
"12","","bandit","291","823621","0.0-253.0-0.0","19314504","wem/bandit_single","A2LVPGEPC1EUOW","gain","5","","76","L","3","","0","0","1","0.3341057131","","false","216","0.03010565971","","main_expt","0.1705338946","","0.4087675299","","0.3341057131","","","","","","",""
"248","","bandit","292","825645","0.0-254.0-0.0","19314504","wem/bandit_single","A2LVPGEPC1EUOW","gain","5","","75","K","2","","0","0","1","0.3947963157","","false","217","0.05034411961","","main_expt","0.219014384","","0.3947963157","","0.3086359365","","","","","","",""
"537","","bandit","293","827947","0.0-255.0-0.0","19314504","wem/bandit_single","A2LVPGEPC1EUOW","gain","5","","74","J","1","","1","0","0","0.2135739311","","false","218","0.03278593655","","main_expt","0.2135739311","","0.4200256015","","0.370061562","","","","","","",""
"238","","bandit","294","829956","0.0-256.0-0.0","19314504","wem/bandit_single","A2LVPGEPC1EUOW","gain","5","","74","J","1","","0","0","1","0.1719688778","","false","219","0.02968551415","","main_expt","0.1719688778","","0.3845181055","","0.3425962001","","","","","","",""
"154","","bandit","295","831883","0.0-257.0-0.0","19314504","wem/bandit_single","A2LVPGEPC1EUOW","gain","5","","74","J","1","","0","0","1","0.1017501311","","false","220","0.03392365282","","main_expt","0.1017501311","","0.3200105211","","0.3200162658","","","","","","",""
"372","","bandit","296","834029","0.0-258.0-0.0","19314504","wem/bandit_single","A2LVPGEPC1EUOW","gain","5","","72","H","0","img/none_selected.jpg","0","0","1","0.03139192041","","false","221","0.03139192041","","main_expt","0.1121412156","","0.297673658","","0.3209906652","","","","","","",""
"12","","bandit","297","835812","0.0-259.0-0.0","19314504","wem/bandit_single","A2LVPGEPC1EUOW","gain","5","","75","K","2","","0","0","1","0.2963768597","","false","222","0.02842311261","","main_expt","0.1091313961","","0.2963768597","","0.3013890172","","","","","","",""
"139","","bandit","298","837715","0.0-260.0-0.0","19314504","wem/bandit_single","A2LVPGEPC1EUOW","gain","5","","76","L","3","","1","0","0","0.2614115174","","false","223","0.0287580325","","main_expt","0.09983876589","","0.2927297303","","0.2614115174","","","","","","",""
"104","","bandit","299","839588","0.0-261.0-0.0","19314504","wem/bandit_single","A2LVPGEPC1EUOW","gain","5","","76","L","3","","0","0","1","0.2490141009","","false","224","0.02300930076","","main_expt","0.1018501693","","0.2751498343","","0.2490141009","","","","","","",""
"204","","bandit","300","841565","0.0-262.0-0.0","19314504","wem/bandit_single","A2LVPGEPC1EUOW","gain","5","","76","L","3","","1","0","0","0.263459589","","false","225","0.02989568437","","main_expt","0.1222407881","","0.2377617529","","0.263459589","","","","","","",""
"34","","bandit","301","843372","0.0-263.0-0.0","19314504","wem/bandit_single","A2LVPGEPC1EUOW","gain","5","","76","L","3","","0","0","1","0.2828917593","","false","226","0.04233903912","","main_expt","0.1332846515","","0.2137681397","","0.2828917593","","","","","","",""
"64","","bandit","302","845212","0.0-264.0-0.0","19314504","wem/bandit_single","A2LVPGEPC1EUOW","gain","5","","76","L","3","","0","0","1","0.2635957152","","false","227","0.0317259717","","main_expt","0.1606351014","","0.1830623781","","0.2635957152","","","","","","",""
"64","","bandit","303","847049","0.0-265.0-0.0","19314504","wem/bandit_single","A2LVPGEPC1EUOW","gain","5","","76","L","3","","0","0","1","0.259674247","","false","228","0.04253553249","","main_expt","0.1292420082","","0.1665925442","","0.259674247","","","","","","",""
"189","","bandit","304","849005","0.0-266.0-0.0","19314504","wem/bandit_single","A2LVPGEPC1EUOW","gain","5","","76","L","3","","0","0","1","0.2737318667","","false","229","0.06761640147","","main_expt","0.1281284096","","0.2136718414","","0.2737318667","","","","","","",""
"394","","bandit","305","851172","0.0-267.0-0.0","19314504","wem/bandit_single","A2LVPGEPC1EUOW","gain","5","","75","K","2","","0","0","1","0.2435987791","","false","230","0.08572380951","","main_expt","0.0791291566","","0.2435987791","","0.3195589589","","","","","","",""
"103","","bandit","306","853052","0.0-268.0-0.0","19314504","wem/bandit_single","A2LVPGEPC1EUOW","gain","5","","76","L","3","","0","0","1","0.3304270948","","false","231","0.07272236896","","main_expt","0.10920453","","0.2566168121","","0.3304270948","","","","","","",""
"617","","bandit","307","855445","0.0-269.0-0.0","19314504","wem/bandit_single","A2LVPGEPC1EUOW","gain","5","","74","J","1","","0","0","1","0.167261158","","false","232","0.0735724775","","main_expt","0.167261158","","0.2152843379","","0.2806951239","","","","","","",""
"56","","bandit","308","857274","0.0-270.0-0.0","19314504","wem/bandit_single","A2LVPGEPC1EUOW","gain","5","","75","K","2","","0","0","1","0.2361400262","","false","233","0.06465645962","","main_expt","0.1078973024","","0.2361400262","","0.3115261247","","","","","","",""
"66","","bandit","309","859117","0.0-271.0-0.0","19314504","wem/bandit_single","A2LVPGEPC1EUOW","gain","5","","76","L","3","","0","0","1","0.3001083946","","false","234","0.04279198238","","main_expt","0.2366146445","","0.2575526348","","0.3001083946","","","","","","",""
"184","","bandit","310","861075","0.0-272.0-0.0","19314504","wem/bandit_single","A2LVPGEPC1EUOW","gain","5","","72","H","0","img/none_selected.jpg","0","0","1","0.06672803397","","false","235","0.06672803397","","main_expt","0.2393051992","","0.2828430508","","0.2768541542","","","","","","",""
"114","","bandit","311","862962","0.0-273.0-0.0","19314504","wem/bandit_single","A2LVPGEPC1EUOW","gain","5","","74","J","1","","0","0","1","0.2976693115","","false","236","0.07100342573","","main_expt","0.2976693115","","0.2860482958","","0.332362789","","","","","","",""
"611","","bandit","312","865348","0.0-274.0-0.0","19314504","wem/bandit_single","A2LVPGEPC1EUOW","gain","5","","75","K","2","","0","0","1","0.2783023894","","false","237","0.03680589181","","main_expt","0.2674299269","","0.2783023894","","0.3408832027","","","","","","",""
"1530","","bandit","313","868653","0.0-275.0-0.0","19314504","wem/bandit_single","A2LVPGEPC1EUOW","gain","5","","76","L","3","","0","0","1","0.362117859","","false","238","0.02733344458","","main_expt","0.2647207175","","0.2644861187","","0.362117859","","","","","","",""
"404","","bandit","314","870834","0.0-276.0-0.0","19314504","wem/bandit_single","A2LVPGEPC1EUOW","gain","5","","72","H","0","img/none_selected.jpg","0","0","1","0.01831396817","","false","239","0.01831396817","","main_expt","0.1936342125","","0.3186717024","","0.3574250999","","","","","","",""
"615","","bandit","315","873220","0.0-277.0-0.0","19314504","wem/bandit_single","A2LVPGEPC1EUOW","gain","5","","74","J","1","","0","0","1","0.2382432393","","false","240","0.01383764992","","main_expt","0.2382432393","","0.3360375491","","0.290436356","","","","","","",""
"504","","bandit","316","875499","0.0-278.0-0.0","19314504","wem/bandit_single","A2LVPGEPC1EUOW","gain","5","","75","K","2","","1","0","0","0.3386213473","","false","241","0.0277662638","","main_expt","0.2984572788","","0.3386213473","","0.3414967811","","","","","","",""
"60","","bandit","317","877329","0.0-279.0-0.0","19314504","wem/bandit_single","A2LVPGEPC1EUOW","gain","5","","75","K","2","","0","0","1","0.3523037021","","false","242","0.04064120638","","main_expt","0.2927867707","","0.3523037021","","0.3778608287","","","","","","",""
"224","","bandit","318","879332","0.0-280.0-0.0","19314504","wem/bandit_single","A2LVPGEPC1EUOW","gain","5","","75","K","2","","0","0","1","0.360543067","","false","243","0.04640587852","","main_expt","0.2870713985","","0.360543067","","0.3552630766","","","","","","",""
"55","","bandit","319","881162","0.0-281.0-0.0","19314504","wem/bandit_single","A2LVPGEPC1EUOW","gain","5","","75","K","2","","0","0","1","0.3728786331","","false","244","0.06567084485","","main_expt","0.2882437102","","0.3728786331","","0.3538674815","","","","","","",""
"896","","bandit","320","883834","0.0-282.0-0.0","19314504","wem/bandit_single","A2LVPGEPC1EUOW","gain","5","","75","K","2","","0","0","1","0.3736501537","","false","245","0.1069305933","","main_expt","0.3125457984","","0.3736501537","","0.3592745223","","","","","","",""
"289","","bandit","321","885889","0.0-283.0-0.0","19314504","wem/bandit_single","A2LVPGEPC1EUOW","gain","5","","76","L","3","","1","0","0","0.3784559109","","false","246","0.07318543846","","main_expt","0.2949331023","","0.3880614915","","0.3784559109","","","","","","",""
"371","","bandit","322","888025","0.0-284.0-0.0","19314504","wem/bandit_single","A2LVPGEPC1EUOW","gain","5","","76","L","3","","0","0","1","0.3871101473","","false","247","0.06866628372","","main_expt","0.3557375168","","0.3906355486","","0.3871101473","","","","","","",""
"68","","bandit","323","889867","0.0-285.0-0.0","19314504","wem/bandit_single","A2LVPGEPC1EUOW","gain","5","","76","L","3","","0","0","1","0.366594806","","false","248","0.06101724449","","main_expt","0.3190142928","","0.3713177951","","0.366594806","","","","","","",""
"468","","bandit","324","892113","0.0-286.0-0.0","19314504","wem/bandit_single","A2LVPGEPC1EUOW","gain","5","","76","L","3","","0","0","1","0.35265903","","false","249","0.07132197128","","main_expt","0.2946857214","","0.2887643678","","0.35265903","","","","","","",""
"76","","bandit","325","893960","0.0-287.0-0.0","19314504","wem/bandit_single","A2LVPGEPC1EUOW","gain","5","","76","L","3","","1","0","0","0.3725690128","","false","250","0.04991986053","","main_expt","0.285145352","","0.3503459773","","0.3725690128","","","","","","",""
"167","","bandit","326","895904","0.0-288.0-0.0","19314504","wem/bandit_single","A2LVPGEPC1EUOW","gain","5","","76","L","3","","1","0","0","0.3516217444","","false","251","0.087584861","","main_expt","0.2572530626","","0.3900307368","","0.3516217444","","","","","","",""
"131","","bandit","327","897810","0.0-289.0-0.0","19314504","wem/bandit_single","A2LVPGEPC1EUOW","gain","5","","76","L","3","","1","0","0","0.3478664427","","false","252","0.1089760904","","main_expt","0.206609756","","0.3998204568","","0.3478664427","","","","","","",""
"361","","bandit","328","899948","0.0-290.0-0.0","19314504","wem/bandit_single","A2LVPGEPC1EUOW","gain","5","","76","L","3","","0","0","1","0.2845216812","","false","253","0.1389783028","","main_expt","0.2526850855","","0.4062214202","","0.2845216812","","","","","","",""
"75","","bandit","329","901802","0.0-291.0-0.0","19314504","wem/bandit_single","A2LVPGEPC1EUOW","gain","5","","76","L","3","","0","0","1","0.3395138109","","false","254","0.1438582992","","main_expt","0.2143143283","","0.434330363","","0.3395138109","","","","","","",""
"288","","bandit","330","903865","0.0-292.0-0.0","19314504","wem/bandit_single","A2LVPGEPC1EUOW","gain","5","","76","L","3","","0","0","1","0.284072963","","false","255","0.1341592381","","main_expt","0.2330346229","","0.463361135","","0.284072963","","","","","","",""
"38","","bandit","331","905671","0.0-293.0-0.0","19314504","wem/bandit_single","A2LVPGEPC1EUOW","gain","5","","76","L","3","","0","0","1","0.2791977035","","false","256","0.1539827047","","main_expt","0.1707848091","","0.4513325925","","0.2791977035","","","","","","",""
"250","","bandit","332","907689","0.0-294.0-0.0","19314504","wem/bandit_single","A2LVPGEPC1EUOW","gain","5","","76","L","3","","0","0","1","0.2827618753","","false","257","0.1067893116","","main_expt","0.204762461","","0.4493477618","","0.2827618753","","","","","","",""
"62","","bandit","333","909529","0.0-295.0-0.0","19314504","wem/bandit_single","A2LVPGEPC1EUOW","gain","5","","76","L","3","","0","0","1","0.2367173663","","false","258","0.05021154971","","main_expt","0.1678630312","","0.4586876348","","0.2367173663","","","","","","",""
"233","","bandit","334","911539","0.0-296.0-0.0","19314504","wem/bandit_single","A2LVPGEPC1EUOW","gain","5","","76","L","3","","0","0","1","0.2715647874","","false","259","0.04357518244","","main_expt","0.1739170557","","0.45931789","","0.2715647874","","","","","","",""
"293","","bandit","335","913609","0.0-297.0-0.0","19314504","wem/bandit_single","A2LVPGEPC1EUOW","gain","5","","76","L","3","","0","0","1","0.2310951927","","false","260","0.05606835832","","main_expt","0.1848885371","","0.4583289396","","0.2310951927","","","","","","",""
"40","","bandit","336","915425","0.0-298.0-0.0","19314504","wem/bandit_single","A2LVPGEPC1EUOW","gain","5","","76","L","3","","0","0","1","0.2297288133","","false","261","0.05035703518","","main_expt","0.2258440324","","0.4470277171","","0.2297288133","","","","","","",""
"439","","bandit","337","917640","0.0-299.0-0.0","19314504","wem/bandit_single","A2LVPGEPC1EUOW","gain","5","","75","K","2","","0","0","1","0.457772586","","false","262","0.04352905051","","main_expt","0.2167220908","","0.457772586","","0.2072969611","","","","","","",""
"435","","bandit","338","919849","0.0-300.0-0.0","19314504","wem/bandit_single","A2LVPGEPC1EUOW","gain","5","","74","J","1","","1","0","0","0.2118780444","","false","263","0.0373968872","","main_expt","0.2118780444","","0.417694616","","0.2427077321","","","","","","",""
"111","","bandit","339","921730","0.0-301.0-0.0","19314504","wem/bandit_single","A2LVPGEPC1EUOW","gain","5","","74","J","1","","0","0","1","0.1870566281","","false","264","0.04440415955","","main_expt","0.1870566281","","0.4214939516","","0.3052561595","","","","","","",""
"186","","bandit","340","923696","0.0-302.0-0.0","19314504","wem/bandit_single","A2LVPGEPC1EUOW","gain","5","","74","J","1","","0","0","1","0.1706127143","","false","265","0.0139225964","","main_expt","0.1706127143","","0.413465883","","0.3000319327","","","","","","",""
"45","","bandit","341","925519","0.0-303.0-0.0","19314504","wem/bandit_single","A2LVPGEPC1EUOW","gain","5","","74","J","1","","0","0","1","0.1693140566","","false","266","0.01259799349","","main_expt","0.1693140566","","0.4116424673","","0.3134404232","","","","","","",""
"75","","bandit","342","927367","0.0-304.0-0.0","19314504","wem/bandit_single","A2LVPGEPC1EUOW","gain","5","","72","H","0","img/none_selected.jpg","0","0","1","0.00740451457","","false","267","0.00740451457","","main_expt","0.1753800763","","0.3863145418","","0.3066387991","","","","","","",""
"38","","bandit","343","929185","0.0-305.0-0.0","19314504","wem/bandit_single","A2LVPGEPC1EUOW","gain","5","","74","J","1","","1","0","0","0.1918786918","","false","268","0.004693585052","","main_expt","0.1918786918","","0.4265221664","","0.3058482798","","","","","","",""
"116","","bandit","344","931080","0.0-306.0-0.0","19314504","wem/bandit_single","A2LVPGEPC1EUOW","gain","5","","74","J","1","","0","0","1","0.1999989265","","false","269","0.004824061053","","main_expt","0.1999989265","","0.4515898034","","0.2523051309","","","","","","",""
"177","","bandit","345","933033","0.0-307.0-0.0","19314504","wem/bandit_single","A2LVPGEPC1EUOW","gain","5","","74","J","1","","0","0","1","0.2211747839","","false","270","0.006174480496","","main_expt","0.2211747839","","0.4467147125","","0.2663701485","","","","","","",""
"435","","bandit","346","935247","0.0-308.0-0.0","19314504","wem/bandit_single","A2LVPGEPC1EUOW","gain","5","","74","J","1","","0","0","1","0.2404792593","","false","271","0.00832103917","","main_expt","0.2404792593","","0.4582909467","","0.2485798686","","","","","","",""
"109","","bandit","347","937134","0.0-309.0-0.0","19314504","wem/bandit_single","A2LVPGEPC1EUOW","gain","5","","74","J","1","","1","0","0","0.2558589782","","false","272","0.00728594366","","main_expt","0.2558589782","","0.4709209778","","0.2345495347","","","","","","",""
"8","","bandit","348","938918","0.0-310.0-0.0","19314504","wem/bandit_single","A2LVPGEPC1EUOW","gain","5","","74","J","1","","0","0","1","0.1700432942","","false","273","0.01114453755","","main_expt","0.1700432942","","0.4660917397","","0.2137032991","","","","","","",""
"425","","bandit","349","941120","0.0-311.0-0.0","19314504","wem/bandit_single","A2LVPGEPC1EUOW","gain","5","","75","K","2","","1","0","0","0.4639522763","","false","274","0.01390500062","","main_expt","0.2452429789","","0.4639522763","","0.2108512091","","","","","","",""
"195","","bandit","350","943094","0.0-312.0-0.0","19314504","wem/bandit_single","A2LVPGEPC1EUOW","gain","5","","75","K","2","","1","0","0","0.4559735555","","false","275","0.01307999715","","main_expt","0.2540496776","","0.4559735555","","0.1817434844","","","","","","",""
"7","","bandit","351","944870","0.0-313.0-0.0","19314504","wem/bandit_single","A2LVPGEPC1EUOW","gain","5","","75","K","2","","1","0","0","0.4246507461","","false","276","0.01650166306","","main_expt","0.2816965905","","0.4246507461","","0.2037179719","","","","","","",""
"21","","bandit","352","946662","0.0-314.0-0.0","19314504","wem/bandit_single","A2LVPGEPC1EUOW","gain","5","","75","K","2","","1","0","0","0.4061878557","","false","277","0.02228120093","","main_expt","0.2757967379","","0.4061878557","","0.211691867","","","","","","",""
"15","","bandit","353","948455","0.0-315.0-0.0","19314504","wem/bandit_single","A2LVPGEPC1EUOW","gain","5","","75","K","2","","1","0","0","0.4185559707","","false","278","0.01609054627","","main_expt","0.3233086266","","0.4185559707","","0.1725584367","","","","","","",""
"652","","bandit","354","950885","0.0-316.0-0.0","19314504","wem/bandit_single","A2LVPGEPC1EUOW","gain","5","","75","K","2","","0","0","1","0.4048416859","","false","279","0.03276024715","","main_expt","0.3447853064","","0.4048416859","","0.1976152383","","","","","","",""
"1534","","bandit","355","954185","0.0-317.0-0.0","19314504","wem/bandit_single","A2LVPGEPC1EUOW","gain","5","","76","L","3","","0","0","1","0.2245419331","","false","280","0.045813934","","main_expt","0.2944080033","","0.3930733378","","0.2245419331","","","","","","",""
"786","","bandit","356","956743","0.0-318.0-0.0","19314504","wem/bandit_single","A2LVPGEPC1EUOW","gain","5","","74","J","1","","1","0","0","0.3455536282","","false","281","0.07680660156","","main_expt","0.3455536282","","0.3722539572","","0.2649095144","","","","","","",""
"99","","bandit","357","958622","0.0-319.0-0.0","19314504","wem/bandit_single","A2LVPGEPC1EUOW","gain","5","","74","J","1","","0","0","1","0.3002636441","","false","282","0.08989395926","","main_expt","0.3002636441","","0.392640689","","0.2440542309","","","","","","",""
"109","","bandit","358","960511","0.0-320.0-0.0","19314504","wem/bandit_single","A2LVPGEPC1EUOW","gain","5","","72","H","0","img/none_selected.jpg","1","0","0","0.1096048843","","false","283","0.1096048843","","main_expt","0.2433385189","","0.3657249804","","0.3074658718","","","","","","",""
"159","","bandit","359","962447","0.0-321.0-0.0","19314504","wem/bandit_single","A2LVPGEPC1EUOW","gain","5","","72","H","0","img/none_selected.jpg","0","0","1","0.1082817284","","false","284","0.1082817284","","main_expt","0.2108667552","","0.3625644972","","0.3224089974","","","","","","",""
"117","","bandit","360","964344","0.0-322.0-0.0","19314504","wem/bandit_single","A2LVPGEPC1EUOW","gain","5","","72","H","0","img/none_selected.jpg","1","0","0","0.1629804938","","false","285","0.1629804938","","main_expt","0.2340218901","","0.3054288932","","0.3022873968","","","","","","",""
"122","","bandit","361","966237","0.0-323.0-0.0","19314504","wem/bandit_single","A2LVPGEPC1EUOW","gain","5","","72","H","0","img/none_selected.jpg","0","0","1","0.1852598429","","false","286","0.1852598429","","main_expt","0.2499238339","","0.3391155559","","0.2889410052","","","","","","",""
"498","","bandit","362","968509","0.0-324.0-0.0","19314504","wem/bandit_single","A2LVPGEPC1EUOW","gain","5","","75","K","2","","0","0","1","0.3328791194","","false","287","0.2065414002","","main_expt","0.2334780882","","0.3328791194","","0.3151816804","","","","","","",""
"165","","bandit","363","970447","0.0-325.0-0.0","19314504","wem/bandit_single","A2LVPGEPC1EUOW","gain","5","","72","H","0","img/none_selected.jpg","1","0","0","0.1811366591","","false","288","0.1811366591","","main_expt","0.2784320663","","0.3011075564","","0.3489654206","","","","","","",""
"102","","bandit","364","972324","0.0-326.0-0.0","19314504","wem/bandit_single","A2LVPGEPC1EUOW","gain","5","","72","H","0","img/none_selected.jpg","0","0","1","0.1202209304","","false","289","0.1202209304","","main_expt","0.2751214951","","0.3326814497","","0.3673528387","","","","","","",""
"221","","bandit","365","974326","0.0-327.0-0.0","19314504","wem/bandit_single","A2LVPGEPC1EUOW","gain","5","","74","J","1","","0","0","1","0.304381699","","false","290","0.1453470377","","main_expt","0.304381699","","0.3289320066","","0.3156989172","","","","","","",""
"28","","bandit","366","976134","0.0-328.0-0.0","19314504","wem/bandit_single","A2LVPGEPC1EUOW","gain","5","","72","H","0","img/none_selected.jpg","0","0","1","0.1477070836","","false","291","0.1477070836","","main_expt","0.2447169523","","0.3074380044","","0.3731423443","","","","","","",""
"64","","bandit","367","977974","0.0-329.0-0.0","19314504","wem/bandit_single","A2LVPGEPC1EUOW","gain","5","","72","H","0","img/none_selected.jpg","0","0","1","0.1442574827","","false","292","0.1442574827","","main_expt","0.2422140582","","0.247625386","","0.3819638953","","","","","","",""
"500","","bandit","368","980253","0.0-330.0-0.0","19314504","wem/bandit_single","A2LVPGEPC1EUOW","gain","5","","75","K","2","","0","0","1","0.2438381571","","false","293","0.1219757373","","main_expt","0.1480972705","","0.2438381571","","0.3709780048","","","","","","",""
"393","","bandit","369","982422","0.0-331.0-0.0","19314504","wem/bandit_single","A2LVPGEPC1EUOW","gain","5","","76","L","3","","0","0","1","0.4013541824","","false","294","0.149249144","","main_expt","0.1338078997","","0.2772308066","","0.4013541824","","","","","","",""
"44","","bandit","370","984246","0.0-332.0-0.0","19314504","wem/bandit_single","A2LVPGEPC1EUOW","gain","5","","75","K","2","","0","0","1","0.2386370059","","false","295","0.1066825056","","main_expt","0.1452417655","","0.2386370059","","0.4203470877","","","","","","",""
"155","","bandit","371","986182","0.0-333.0-0.0","19314504","wem/bandit_single","A2LVPGEPC1EUOW","gain","5","","74","J","1","","0","0","1","0.12995508","","false","296","0.06692503618","","main_expt","0.12995508","","0.2322267342","","0.4006598815","","","","","","",""
"497","","bandit","372","988454","0.0-334.0-0.0","19314504","wem/bandit_single","A2LVPGEPC1EUOW","gain","5","","72","H","0","img/none_selected.jpg","0","0","1","0.08806334149","","false","297","0.08806334149","","main_expt","0.1079814357","","0.2930795043","","0.4189250697","","","","","","",""
"12","","bandit","373","990246","0.0-335.0-0.0","19314504","wem/bandit_single","A2LVPGEPC1EUOW","gain","5","","74","J","1","","0","0","1","0.08396844466","","false","298","0.0708541643","","main_expt","0.08396844466","","0.3168190842","","0.4204303011","","","","","","",""
"485","","bandit","374","992509","0.0-336.0-0.0","19314504","wem/bandit_single","A2LVPGEPC1EUOW","gain","5","","75","K","2","","0","0","1","0.3251331367","","false","299","0.07807128628","","main_expt","0.08942466987","","0.3251331367","","0.3955170021","","","","","","",""
"297","","bandit","375","994581","0.0-337.0-0.0","19314504","wem/bandit_single","A2LVPGEPC1EUOW","gain","5","","76","L","3","","0","0","1","0.3580479124","","false","300","0.09051803512","","main_expt","0.09399158568","","0.3253714703","","0.3580479124","","","","","","",""
