"rt","responses","trial_type","trial_index","time_elapsed","internal_node_id","subjID","study","MID","cond","drift","key_press","respCharCode","respKey","respChoiceNum","respChoice","gems","bombs","no_reward","GemPrChosen","BombPrChosen","practice","trial_counter","WinPr_0","LosePr_0","trial_label","WinPr_1","LosePr_1","WinPr_2","LosePr_2","WinPr_3","LosePr_3","Q0","Q1","Q2","gender","age","ethnicity"
"7452","{""Q0"":""A25D66AC4QUW2U""}","survey-text","0","7477","0.0-0.0","20098390","wem/bandit_single","A25D66AC4QUW2U","gain","4","","","","","","","","","","","","","","","","","","","","","","","","","","",""
"2497","","text","1","10982","0.0-1.0","20098390","wem/bandit_single","A25D66AC4QUW2U","gain","4","32","","","","","","","","","","","","","","","","","","","","","","","","","",""
"6455","","text","2","17443","0.0-2.0","20098390","wem/bandit_single","A25D66AC4QUW2U","gain","4","32","","","","","","","","","","","","","","","","","","","","","","","","","",""
"41501","","text","3","58949","0.0-3.0","20098390","wem/bandit_single","A25D66AC4QUW2U","gain","4","32","","","","","","","","","","","","","","","","","","","","","","","","","",""
"19550","","text","4","78505","0.0-4.0","20098390","wem/bandit_single","A25D66AC4QUW2U","gain","4","32","","","","","","","","","","","","","","","","","","","","","","","","","",""
"23493","","text","5","102002","0.0-5.0","20098390","wem/bandit_single","A25D66AC4QUW2U","gain","4","32","","","","","","","","","","","","","","","","","","","","","","","","","",""
"8463","","text","6","110471","0.0-6.0","20098390","wem/bandit_single","A25D66AC4QUW2U","gain","4","32","","","","","","","","","","","","","","","","","","","","","","","","","",""
"7297","","text","7","117772","0.0-7.0","20098390","wem/bandit_single","A25D66AC4QUW2U","gain","4","32","","","","","","","","","","","","","","","","","","","","","","","","","",""
"4615","","text","8","122391","0.0-8.0","20098390","wem/bandit_single","A25D66AC4QUW2U","gain","4","32","","","","","","","","","","","","","","","","","","","","","","","","","",""
"4106","","text","9","126500","0.0-9.0","20098390","wem/bandit_single","A25D66AC4QUW2U","gain","4","32","","","","","","","","","","","","","","","","","","","","","","","","","",""
"10598","","text","10","137103","0.0-10.0","20098390","wem/bandit_single","A25D66AC4QUW2U","gain","4","32","","","","","","","","","","","","","","","","","","","","","","","","","",""
"12212","","text","11","149321","0.0-11.0","20098390","wem/bandit_single","A25D66AC4QUW2U","gain","4","32","","","","","","","","","","","","","","","","","","","","","","","","","",""
"2549","","bandit","12","153406","0.0-12.0-0.0","20098390","wem/bandit_single","A25D66AC4QUW2U","gain","4","","74","J","0","img/none_selected_demo.jpg","0","0","1","0","0","true","0","0","0","","","","","","","","","","","","",""
"1712","","bandit","13","156928","0.0-13.0-0.0","20098390","wem/bandit_single","A25D66AC4QUW2U","gain","4","","75","K","0","img/none_selected_demo.jpg","0","0","1","0","0","true","0","0","0","","","","","","","","","","","","",""
"9733","","text","14","166920","0.0-14.0","20098390","wem/bandit_single","A25D66AC4QUW2U","gain","4","32","","","","","","","","","","","","","","","","","","","","","","","","","",""
"4579","","text","15","171504","0.0-15.0","20098390","wem/bandit_single","A25D66AC4QUW2U","gain","4","32","","","","","","","","","","","","","","","","","","","","","","","","","",""
"4393","","text","16","175902","0.0-16.0","20098390","wem/bandit_single","A25D66AC4QUW2U","gain","4","32","","","","","","","","","","","","","","","","","","","","","","","","","",""
"7131","","text","17","183039","0.0-17.0","20098390","wem/bandit_single","A25D66AC4QUW2U","gain","4","32","","","","","","","","","","","","","","","","","","","","","","","","","",""
"2196","","bandit","18","186782","0.0-18.0-0.0","20098390","wem/bandit_single","A25D66AC4QUW2U","gain","4","","75","K","1","","0","0","1","0.2","0","true","0","0.8","0","80_20_practice","0.2","0","","","","","","","","","",""
"2692","","bandit","19","191239","0.0-18.0-1.0","20098390","wem/bandit_single","A25D66AC4QUW2U","gain","4","","74","J","0","img/none_selected_demo.jpg","1","0","0","0.8","0","true","0","0.8","0","80_20_practice","0.2","0","","","","","","","","","",""
"1439","","bandit","20","194456","0.0-18.0-2.0","20098390","wem/bandit_single","A25D66AC4QUW2U","gain","4","","74","J","0","img/none_selected_demo.jpg","1","0","0","0.8","0","true","0","0.8","0","80_20_practice","0.2","0","","","","","","","","","",""
"1075","","bandit","21","197319","0.0-18.0-3.0","20098390","wem/bandit_single","A25D66AC4QUW2U","gain","4","","74","J","0","img/none_selected_demo.jpg","1","0","0","0.8","0","true","0","0.8","0","80_20_practice","0.2","0","","","","","","","","","",""
"850","","bandit","22","200289","0.0-18.0-4.0","20098390","wem/bandit_single","A25D66AC4QUW2U","gain","4","","74","J","0","img/none_selected_demo.jpg","1","0","0","0.8","0","true","0","0.8","0","80_20_practice","0.2","0","","","","","","","","","",""
"853","","bandit","23","202919","0.0-18.0-5.0","20098390","wem/bandit_single","A25D66AC4QUW2U","gain","4","","74","J","0","img/none_selected_demo.jpg","0","0","1","0.8","0","true","0","0.8","0","80_20_practice","0.2","0","","","","","","","","","",""
"1463","","bandit","24","206245","0.0-18.0-6.0","20098390","wem/bandit_single","A25D66AC4QUW2U","gain","4","","75","K","1","","0","0","1","0.2","0","true","0","0.8","0","80_20_practice","0.2","0","","","","","","","","","",""
"489","","bandit","25","208500","0.0-18.0-7.0","20098390","wem/bandit_single","A25D66AC4QUW2U","gain","4","","75","K","1","","0","0","1","0.2","0","true","0","0.8","0","80_20_practice","0.2","0","","","","","","","","","",""
"2184","","bandit","26","212449","0.0-18.0-8.0","20098390","wem/bandit_single","A25D66AC4QUW2U","gain","4","","74","J","0","img/none_selected_demo.jpg","1","0","0","0.8","0","true","0","0.8","0","80_20_practice","0.2","0","","","","","","","","","",""
"1659","","bandit","27","215881","0.0-18.0-9.0","20098390","wem/bandit_single","A25D66AC4QUW2U","gain","4","","74","J","0","img/none_selected_demo.jpg","1","0","0","0.8","0","true","0","0.8","0","80_20_practice","0.2","0","","","","","","","","","",""
"1029","","bandit","28","219171","0.0-18.0-10.0","20098390","wem/bandit_single","A25D66AC4QUW2U","gain","4","","74","J","0","img/none_selected_demo.jpg","1","0","0","0.8","0","true","0","0.8","0","80_20_practice","0.2","0","","","","","","","","","",""
"1029","","bandit","29","221964","0.0-18.0-11.0","20098390","wem/bandit_single","A25D66AC4QUW2U","gain","4","","74","J","0","img/none_selected_demo.jpg","1","0","0","0.8","0","true","0","0.8","0","80_20_practice","0.2","0","","","","","","","","","",""
"1154","","bandit","30","225150","0.0-18.0-12.0","20098390","wem/bandit_single","A25D66AC4QUW2U","gain","4","","74","J","0","img/none_selected_demo.jpg","1","0","0","0.8","0","true","0","0.8","0","80_20_practice","0.2","0","","","","","","","","","",""
"4262","","bandit","31","231178","0.0-18.0-13.0","20098390","wem/bandit_single","A25D66AC4QUW2U","gain","4","","74","J","0","img/none_selected_demo.jpg","1","0","0","0.8","0","true","0","0.8","0","80_20_practice","0.2","0","","","","","","","","","",""
"1764","","bandit","32","235132","0.0-18.0-14.0","20098390","wem/bandit_single","A25D66AC4QUW2U","gain","4","","74","J","0","img/none_selected_demo.jpg","0","0","1","0.8","0","true","0","0.8","0","80_20_practice","0.2","0","","","","","","","","","",""
"7066","","bandit","33","243983","0.0-18.0-15.0","20098390","wem/bandit_single","A25D66AC4QUW2U","gain","4","","74","J","0","img/none_selected_demo.jpg","0","0","1","0.8","0","true","0","0.8","0","80_20_practice","0.2","0","","","","","","","","","",""
"1942","","bandit","34","247694","0.0-18.0-16.0","20098390","wem/bandit_single","A25D66AC4QUW2U","gain","4","","75","K","1","","0","0","1","0.2","0","true","0","0.8","0","80_20_practice","0.2","0","","","","","","","","","",""
"698","","bandit","35","250158","0.0-18.0-17.0","20098390","wem/bandit_single","A25D66AC4QUW2U","gain","4","","75","K","1","","1","0","0","0.2","0","true","0","0.8","0","80_20_practice","0.2","0","","","","","","","","","",""
"1978","","bandit","36","253918","0.0-18.0-18.0","20098390","wem/bandit_single","A25D66AC4QUW2U","gain","4","","75","K","1","","0","0","1","0.2","0","true","0","0.8","0","80_20_practice","0.2","0","","","","","","","","","",""
"1049","","bandit","37","256767","0.0-18.0-19.0","20098390","wem/bandit_single","A25D66AC4QUW2U","gain","4","","75","K","1","","0","0","1","0.2","0","true","0","0.8","0","80_20_practice","0.2","0","","","","","","","","","",""
"5356","","text","38","262383","0.0-19.0","20098390","wem/bandit_single","A25D66AC4QUW2U","gain","4","32","","","","","","","","","","","","","","","","","","","","","","","","","",""
"4605","","bandit","39","268509","0.0-20.0-0.0","20098390","wem/bandit_single","A25D66AC4QUW2U","gain","4","","74","J","0","img/none_selected_demo.jpg","0","0","1","0","0","true","0","0","0","","0","0","","","","","","","","","",""
"9563","","text","40","278330","0.0-21.0","20098390","wem/bandit_single","A25D66AC4QUW2U","gain","4","32","","","","","","","","","","","","","","","","","","","","","","","","","",""
"6773","","text","41","285110","0.0-22.0","20098390","wem/bandit_single","A25D66AC4QUW2U","gain","4","32","","","","","","","","","","","","","","","","","","","","","","","","","",""
"4343","","text","42","289461","0.0-23.0","20098390","wem/bandit_single","A25D66AC4QUW2U","gain","4","32","","","","","","","","","","","","","","","","","","","","","","","","","",""
"3489","","text","43","292956","0.0-24.0","20098390","wem/bandit_single","A25D66AC4QUW2U","gain","4","32","","","","","","","","","","","","","","","","","","","","","","","","","",""
"8661","","text","44","301622","0.0-25.0","20098390","wem/bandit_single","A25D66AC4QUW2U","gain","4","32","","","","","","","","","","","","","","","","","","","","","","","","","",""
"4795","","text","45","306427","0.0-26.0","20098390","wem/bandit_single","A25D66AC4QUW2U","gain","4","32","","","","","","","","","","","","","","","","","","","","","","","","","",""
"4720","","text","46","311160","0.0-27.0","20098390","wem/bandit_single","A25D66AC4QUW2U","gain","4","32","","","","","","","","","","","","","","","","","","","","","","","","","",""
"6011","","text","47","317181","0.0-28.0","20098390","wem/bandit_single","A25D66AC4QUW2U","gain","4","32","","","","","","","","","","","","","","","","","","","","","","","","","",""
"7167","","text","48","324354","0.0-29.0","20098390","wem/bandit_single","A25D66AC4QUW2U","gain","4","32","","","","","","","","","","","","","","","","","","","","","","","","","",""
"2035","","text","49","326396","0.0-30.0","20098390","wem/bandit_single","A25D66AC4QUW2U","gain","4","32","","","","","","","","","","","","","","","","","","","","","","","","","",""
"2712","","text","50","329114","0.0-31.0","20098390","wem/bandit_single","A25D66AC4QUW2U","gain","4","32","","","","","","","","","","","","","","","","","","","","","","","","","",""
"1175","","bandit","51","332344","0.0-32.0-0.0","20098390","wem/bandit_single","A25D66AC4QUW2U","gain","4","","74","J","1","","0","0","1","0.2","0","true","0","0.8","0","full_practice","0.2","0","0.6","0","0.2","0","","","","","",""
"1625","","bandit","52","335743","0.0-32.0-1.0","20098390","wem/bandit_single","A25D66AC4QUW2U","gain","4","","75","K","2","","0","0","1","0.6","0","true","0","0.8","0","full_practice","0.2","0","0.6","0","0.2","0","","","","","",""
"927","","bandit","53","338456","0.0-32.0-2.0","20098390","wem/bandit_single","A25D66AC4QUW2U","gain","4","","76","L","3","","1","0","0","0.2","0","true","0","0.8","0","full_practice","0.2","0","0.6","0","0.2","0","","","","","",""
"1678","","bandit","54","341924","0.0-32.0-3.0","20098390","wem/bandit_single","A25D66AC4QUW2U","gain","4","","72","H","0","img/none_selected.jpg","1","0","0","0.8","0","true","0","0.8","0","full_practice","0.2","0","0.6","0","0.2","0","","","","","",""
"2067","","bandit","55","345780","0.0-32.0-4.0","20098390","wem/bandit_single","A25D66AC4QUW2U","gain","4","","72","H","0","img/none_selected.jpg","0","0","1","0.8","0","true","0","0.8","0","full_practice","0.2","0","0.6","0","0.2","0","","","","","",""
"898","","bandit","56","348449","0.0-32.0-5.0","20098390","wem/bandit_single","A25D66AC4QUW2U","gain","4","","76","L","3","","1","0","0","0.2","0","true","0","0.8","0","full_practice","0.2","0","0.6","0","0.2","0","","","","","",""
"1296","","bandit","57","351512","0.0-32.0-6.0","20098390","wem/bandit_single","A25D66AC4QUW2U","gain","4","","76","L","3","","0","0","1","0.2","0","true","0","0.8","0","full_practice","0.2","0","0.6","0","0.2","0","","","","","",""
"735","","bandit","58","354189","0.0-32.0-7.0","20098390","wem/bandit_single","A25D66AC4QUW2U","gain","4","","72","H","0","img/none_selected.jpg","1","0","0","0.8","0","true","0","0.8","0","full_practice","0.2","0","0.6","0","0.2","0","","","","","",""
"668","","bandit","59","356682","0.0-32.0-8.0","20098390","wem/bandit_single","A25D66AC4QUW2U","gain","4","","72","H","0","img/none_selected.jpg","0","0","1","0.8","0","true","0","0.8","0","full_practice","0.2","0","0.6","0","0.2","0","","","","","",""
"445","","bandit","60","358899","0.0-32.0-9.0","20098390","wem/bandit_single","A25D66AC4QUW2U","gain","4","","76","L","3","","0","0","1","0.2","0","true","0","0.8","0","full_practice","0.2","0","0.6","0","0.2","0","","","","","",""
"1427","","bandit","61","362105","0.0-32.0-10.0","20098390","wem/bandit_single","A25D66AC4QUW2U","gain","4","","75","K","2","","0","0","1","0.6","0","true","0","0.8","0","full_practice","0.2","0","0.6","0","0.2","0","","","","","",""
"1103","","bandit","62","364995","0.0-32.0-11.0","20098390","wem/bandit_single","A25D66AC4QUW2U","gain","4","","74","J","1","","0","0","1","0.2","0","true","0","0.8","0","full_practice","0.2","0","0.6","0","0.2","0","","","","","",""
"1332","","bandit","63","368097","0.0-32.0-12.0","20098390","wem/bandit_single","A25D66AC4QUW2U","gain","4","","76","L","3","","0","0","1","0.2","0","true","0","0.8","0","full_practice","0.2","0","0.6","0","0.2","0","","","","","",""
"1005","","bandit","64","370942","0.0-32.0-13.0","20098390","wem/bandit_single","A25D66AC4QUW2U","gain","4","","72","H","0","img/none_selected.jpg","1","0","0","0.8","0","true","0","0.8","0","full_practice","0.2","0","0.6","0","0.2","0","","","","","",""
"569","","bandit","65","373284","0.0-32.0-14.0","20098390","wem/bandit_single","A25D66AC4QUW2U","gain","4","","72","H","0","img/none_selected.jpg","1","0","0","0.8","0","true","0","0.8","0","full_practice","0.2","0","0.6","0","0.2","0","","","","","",""
"1295","","bandit","66","376417","0.0-32.0-15.0","20098390","wem/bandit_single","A25D66AC4QUW2U","gain","4","","72","H","0","img/none_selected.jpg","0","0","1","0.8","0","true","0","0.8","0","full_practice","0.2","0","0.6","0","0.2","0","","","","","",""
"1006","","bandit","67","379202","0.0-32.0-16.0","20098390","wem/bandit_single","A25D66AC4QUW2U","gain","4","","72","H","0","img/none_selected.jpg","1","0","0","0.8","0","true","0","0.8","0","full_practice","0.2","0","0.6","0","0.2","0","","","","","",""
"1121","","bandit","68","382089","0.0-32.0-17.0","20098390","wem/bandit_single","A25D66AC4QUW2U","gain","4","","72","H","0","img/none_selected.jpg","1","0","0","0.8","0","true","0","0.8","0","full_practice","0.2","0","0.6","0","0.2","0","","","","","",""
"1004","","bandit","69","384871","0.0-32.0-18.0","20098390","wem/bandit_single","A25D66AC4QUW2U","gain","4","","72","H","0","img/none_selected.jpg","1","0","0","0.8","0","true","0","0.8","0","full_practice","0.2","0","0.6","0","0.2","0","","","","","",""
"1003","","bandit","70","387683","0.0-32.0-19.0","20098390","wem/bandit_single","A25D66AC4QUW2U","gain","4","","72","H","0","img/none_selected.jpg","1","0","0","0.8","0","true","0","0.8","0","full_practice","0.2","0","0.6","0","0.2","0","","","","","",""
"3677","","text","71","391679","0.0-33.0","20098390","wem/bandit_single","A25D66AC4QUW2U","gain","4","32","","","","","","","","","","","","","","","","","","","","","","","","","",""
"13985","","text","72","406671","0.0-34.0","20098390","wem/bandit_single","A25D66AC4QUW2U","gain","4","32","","","","","","","","","","","","","","","","","","","","","","","","","",""
"15613","","text","73","422293","0.0-35.0","20098390","wem/bandit_single","A25D66AC4QUW2U","gain","4","32","","","","","","","","","","","","","","","","","","","","","","","","","",""
"3012","","text","74","425317","0.0-36.0","20098390","wem/bandit_single","A25D66AC4QUW2U","gain","4","32","","","","","","","","","","","","","","","","","","","","","","","","","",""
"7369","","text","75","432695","0.0-37.0","20098390","wem/bandit_single","A25D66AC4QUW2U","gain","4","32","","","","","","","","","","","","","","","","","","","","","","","","","",""
"2506","","bandit","76","436753","0.0-38.0-0.0","20098390","wem/bandit_single","A25D66AC4QUW2U","gain","4","","72","H","0","img/none_selected.jpg","0","0","1","0.04789219489","","false","1","0.04789219489","","main_expt","0.1534711312","","0.2633340886","","0.1530555908","","","","","","",""
"327","","bandit","77","438871","0.0-39.0-0.0","20098390","wem/bandit_single","A25D66AC4QUW2U","gain","4","","74","J","1","","0","0","1","0.1140054314","","false","2","0.06526788736","","main_expt","0.1140054314","","0.288049036","","0.103598712","","","","","","",""
"1130","","bandit","78","442431","0.0-40.0-0.0","20098390","wem/bandit_single","A25D66AC4QUW2U","gain","4","","76","L","3","","0","0","1","0.08136741005","","false","3","0.04764418461","","main_expt","0.1012650834","","0.2979487298","","0.08136741005","","","","","","",""
"428","","bandit","79","444654","0.0-41.0-0.0","20098390","wem/bandit_single","A25D66AC4QUW2U","gain","4","","75","K","2","","0","0","1","0.3306303211","","false","4","0.05056035824","","main_expt","0.09541256236","","0.3306303211","","0.08723083084","","","","","","",""
"1372","","bandit","80","448372","0.0-42.0-0.0","20098390","wem/bandit_single","A25D66AC4QUW2U","gain","4","","72","H","0","img/none_selected.jpg","0","0","1","0.05944929255","","false","5","0.05944929255","","main_expt","0.07842998328","","0.2438199519","","0.1255982651","","","","","","",""
"2385","","bandit","81","452555","0.0-43.0-0.0","20098390","wem/bandit_single","A25D66AC4QUW2U","gain","4","","76","L","3","","0","0","1","0.09044777998","","false","6","0.09562353852","","main_expt","0.09158282766","","0.2362074668","","0.09044777998","","","","","","",""
"1270","","bandit","82","455664","0.0-44.0-0.0","20098390","wem/bandit_single","A25D66AC4QUW2U","gain","4","","72","H","0","img/none_selected.jpg","0","0","1","0.08069121891","","false","7","0.08069121891","","main_expt","0.09712353232","","0.2591683673","","0.1067491613","","","","","","",""
"870","","bandit","83","458420","0.0-45.0-0.0","20098390","wem/bandit_single","A25D66AC4QUW2U","gain","4","","74","J","1","","0","0","1","0.08440361392","","false","8","0.07203927837","","main_expt","0.08440361392","","0.2299415188","","0.15597148","","","","","","",""
"890","","bandit","84","461083","0.0-46.0-0.0","20098390","wem/bandit_single","A25D66AC4QUW2U","gain","4","","75","K","2","","0","0","1","0.2057198223","","false","9","0.08219025907","","main_expt","0.102519384","","0.2057198223","","0.2250404859","","","","","","",""
"450","","bandit","85","463310","0.0-47.0-0.0","20098390","wem/bandit_single","A25D66AC4QUW2U","gain","4","","76","L","3","","0","0","1","0.2205918947","","false","10","0.06517742799","","main_expt","0.06157476224","","0.2002554128","","0.2205918947","","","","","","",""
"1807","","bandit","86","466917","0.0-48.0-0.0","20098390","wem/bandit_single","A25D66AC4QUW2U","gain","4","","72","H","0","img/none_selected.jpg","0","0","1","0.0549201251","","false","11","0.0549201251","","main_expt","0.05516119966","","0.2390702858","","0.1999173076","","","","","","",""
"500","","bandit","87","469195","0.0-49.0-0.0","20098390","wem/bandit_single","A25D66AC4QUW2U","gain","4","","72","H","0","img/none_selected.jpg","0","0","1","0.0630283727","","false","12","0.0630283727","","main_expt","0.04311537102","","0.2309669968","","0.2006159367","","","","","","",""
"588","","bandit","88","471570","0.0-50.0-0.0","20098390","wem/bandit_single","A25D66AC4QUW2U","gain","4","","72","H","0","img/none_selected.jpg","0","0","1","0.07136250487","","false","13","0.07136250487","","main_expt","0.03895599675","","0.2667386483","","0.202674457","","","","","","",""
"425","","bandit","89","473766","0.0-51.0-0.0","20098390","wem/bandit_single","A25D66AC4QUW2U","gain","4","","72","H","0","img/none_selected.jpg","0","0","1","0.07333211558","","false","14","0.07333211558","","main_expt","0.03256744162","","0.2057326914","","0.152812741","","","","","","",""
"415","","bandit","90","476264","0.0-52.0-0.0","20098390","wem/bandit_single","A25D66AC4QUW2U","gain","4","","72","H","0","img/none_selected.jpg","0","0","1","0.1154740655","","false","15","0.1154740655","","main_expt","0.01982065674","","0.2081585857","","0.1648564856","","","","","","",""
"369","","bandit","91","478405","0.0-53.0-0.0","20098390","wem/bandit_single","A25D66AC4QUW2U","gain","4","","72","H","0","img/none_selected.jpg","0","0","1","0.1011313391","","false","16","0.1011313391","","main_expt","0.04082574049","","0.1909184248","","0.1619055423","","","","","","",""
"728","","bandit","92","480901","0.0-54.0-0.0","20098390","wem/bandit_single","A25D66AC4QUW2U","gain","4","","76","L","3","","1","0","0","0.1651197045","","false","17","0.1447019112","","main_expt","0.0363298649","","0.2198432556","","0.1651197045","","","","","","",""
"983","","bandit","93","483674","0.0-55.0-0.0","20098390","wem/bandit_single","A25D66AC4QUW2U","gain","4","","76","L","3","","0","0","1","0.1079041081","","false","18","0.1039364862","","main_expt","0.07917382237","","0.2347766335","","0.1079041081","","","","","","",""
"960","","bandit","94","486403","0.0-56.0-0.0","20098390","wem/bandit_single","A25D66AC4QUW2U","gain","4","","76","L","3","","0","0","1","0.1059999363","","false","19","0.08759831402","","main_expt","0.08476555987","","0.24668571","","0.1059999363","","","","","","",""
"620","","bandit","95","489195","0.0-57.0-0.0","20098390","wem/bandit_single","A25D66AC4QUW2U","gain","4","","76","L","3","","0","0","1","0.1197169881","","false","20","0.08010338479","","main_expt","0.04047152317","","0.2355281317","","0.1197169881","","","","","","",""
"211","","bandit","96","491174","0.0-58.0-0.0","20098390","wem/bandit_single","A25D66AC4QUW2U","gain","4","","76","L","3","","0","0","1","0.1338215077","","false","21","0.07820488182","","main_expt","0.07021106672","","0.2290721377","","0.1338215077","","","","","","",""
"829","","bandit","97","494114","0.0-59.0-0.0","20098390","wem/bandit_single","A25D66AC4QUW2U","gain","4","","72","H","0","img/none_selected.jpg","0","0","1","0.06301774499","","false","22","0.06301774499","","main_expt","0.08794503477","","0.1982968879","","0.1691749215","","","","","","",""
"261","","bandit","98","496146","0.0-60.0-0.0","20098390","wem/bandit_single","A25D66AC4QUW2U","gain","4","","72","H","0","img/none_selected.jpg","0","0","1","0.04380944514","","false","23","0.04380944514","","main_expt","0.07274518233","","0.1991555028","","0.2100599157","","","","","","",""
"508","","bandit","99","498446","0.0-61.0-0.0","20098390","wem/bandit_single","A25D66AC4QUW2U","gain","4","","72","H","0","img/none_selected.jpg","0","0","1","0.04485861341","","false","24","0.04485861341","","main_expt","0.09602528561","","0.1700743611","","0.1763606332","","","","","","",""
"143","","bandit","100","500423","0.0-62.0-0.0","20098390","wem/bandit_single","A25D66AC4QUW2U","gain","4","","74","J","1","","0","0","1","0.07148754983","","false","25","0.08350983839","","main_expt","0.07148754983","","0.2303117276","","0.1155065599","","","","","","",""
"380","","bandit","101","502572","0.0-63.0-0.0","20098390","wem/bandit_single","A25D66AC4QUW2U","gain","4","","74","J","1","","0","0","1","0.05591681381","","false","26","0.04946014148","","main_expt","0.05591681381","","0.2615068669","","0.08411514459","","","","","","",""
"497","","bandit","102","504851","0.0-64.0-0.0","20098390","wem/bandit_single","A25D66AC4QUW2U","gain","4","","75","K","2","","0","0","1","0.2108316327","","false","27","0.07008172503","","main_expt","0.06488914964","","0.2108316327","","0.1192049255","","","","","","",""
"414","","bandit","103","507178","0.0-65.0-0.0","20098390","wem/bandit_single","A25D66AC4QUW2U","gain","4","","75","K","2","","0","0","1","0.2616222854","","false","28","0.09766989806","","main_expt","0.07067710387","","0.2616222854","","0.1530516972","","","","","","",""
"804","","bandit","104","509751","0.0-66.0-0.0","20098390","wem/bandit_single","A25D66AC4QUW2U","gain","4","","76","L","3","","0","0","1","0.1243035263","","false","29","0.1020433103","","main_expt","0.06184318105","","0.2754145478","","0.1243035263","","","","","","",""
"247","","bandit","105","512322","0.0-67.0-0.0","20098390","wem/bandit_single","A25D66AC4QUW2U","gain","4","","76","L","3","","0","0","1","0.2106934108","","false","30","0.1128186897","","main_expt","0.06562203124","","0.3091083038","","0.2106934108","","","","","","",""
"555","","bandit","106","514659","0.0-68.0-0.0","20098390","wem/bandit_single","A25D66AC4QUW2U","gain","4","","76","L","3","","1","0","0","0.269819176","","false","31","0.1021038766","","main_expt","0.06340423818","","0.3032558385","","0.269819176","","","","","","",""
"521","","bandit","107","516954","0.0-69.0-0.0","20098390","wem/bandit_single","A25D66AC4QUW2U","gain","4","","76","L","3","","0","0","1","0.2415851803","","false","32","0.1010238501","","main_expt","0.08582013972","","0.3160124579","","0.2415851803","","","","","","",""
"948","","bandit","108","519678","0.0-70.0-0.0","20098390","wem/bandit_single","A25D66AC4QUW2U","gain","4","","76","L","3","","0","0","1","0.2754451294","","false","33","0.0674926465","","main_expt","0.1020351259","","0.355825184","","0.2754451294","","","","","","",""
"259","","bandit","109","521742","0.0-71.0-0.0","20098390","wem/bandit_single","A25D66AC4QUW2U","gain","4","","76","L","3","","0","0","1","0.3566428969","","false","34","0.1007783216","","main_expt","0.07925884201","","0.3380280112","","0.3566428969","","","","","","",""
"361","","bandit","110","524171","0.0-72.0-0.0","20098390","wem/bandit_single","A25D66AC4QUW2U","gain","4","","76","L","3","","1","0","0","0.2652811253","","false","35","0.09542819821","","main_expt","0.06071167626","","0.3772093912","","0.2652811253","","","","","","",""
"518","","bandit","111","526452","0.0-73.0-0.0","20098390","wem/bandit_single","A25D66AC4QUW2U","gain","4","","76","L","3","","0","0","1","0.2472166127","","false","36","0.07425724813","","main_expt","0.05331310492","","0.3916459715","","0.2472166127","","","","","","",""
"301","","bandit","112","528553","0.0-74.0-0.0","20098390","wem/bandit_single","A25D66AC4QUW2U","gain","4","","76","L","3","","1","0","0","0.2941536534","","false","37","0.07325651263","","main_expt","0.08395737389","","0.3724196513","","0.2941536534","","","","","","",""
"588","","bandit","113","530920","0.0-75.0-0.0","20098390","wem/bandit_single","A25D66AC4QUW2U","gain","4","","76","L","3","","0","0","1","0.2850199379","","false","38","0.06058557764","","main_expt","0.07562804978","","0.3885064771","","0.2850199379","","","","","","",""
"157","","bandit","114","532867","0.0-76.0-0.0","20098390","wem/bandit_single","A25D66AC4QUW2U","gain","4","","76","L","3","","0","0","1","0.2308750992","","false","39","0.05480529152","","main_expt","0.06339693541","","0.4332305888","","0.2308750992","","","","","","",""
"291","","bandit","115","534975","0.0-77.0-0.0","20098390","wem/bandit_single","A25D66AC4QUW2U","gain","4","","76","L","3","","1","0","0","0.2166928419","","false","40","0.08480448704","","main_expt","0.07741261751","","0.4320021358","","0.2166928419","","","","","","",""
"1330","","bandit","116","538079","0.0-78.0-0.0","20098390","wem/bandit_single","A25D66AC4QUW2U","gain","4","","76","L","3","","0","0","1","0.222341992","","false","41","0.07863220129","","main_expt","0.08199889575","","0.4378374231","","0.222341992","","","","","","",""
"736","","bandit","117","540588","0.0-79.0-0.0","20098390","wem/bandit_single","A25D66AC4QUW2U","gain","4","","76","L","3","","0","0","1","0.2420609394","","false","42","0.07947159818","","main_expt","0.1252939417","","0.4138470733","","0.2420609394","","","","","","",""
"1879","","bandit","118","544243","0.0-80.0-0.0","20098390","wem/bandit_single","A25D66AC4QUW2U","gain","4","","76","L","3","","0","0","1","0.2683234569","","false","43","0.0747194724","","main_expt","0.1464491551","","0.3618848001","","0.2683234569","","","","","","",""
"1001","","bandit","119","547034","0.0-81.0-0.0","20098390","wem/bandit_single","A25D66AC4QUW2U","gain","4","","76","L","3","","1","0","0","0.2592073096","","false","44","0.06873866496","","main_expt","0.1846315016","","0.3902132048","","0.2592073096","","","","","","",""
"353","","bandit","120","549200","0.0-82.0-0.0","20098390","wem/bandit_single","A25D66AC4QUW2U","gain","4","","76","L","3","","0","0","1","0.258850709","","false","45","0.05624711086","","main_expt","0.1454302639","","0.370584769","","0.258850709","","","","","","",""
"1114","","bandit","121","552226","0.0-83.0-0.0","20098390","wem/bandit_single","A25D66AC4QUW2U","gain","4","","76","L","3","","0","0","1","0.2162528617","","false","46","0.06710767933","","main_expt","0.1420401956","","0.3416192418","","0.2162528617","","","","","","",""
"333","","bandit","122","554328","0.0-84.0-0.0","20098390","wem/bandit_single","A25D66AC4QUW2U","gain","4","","76","L","3","","0","0","1","0.1380472806","","false","47","0.05828218186","","main_expt","0.2049545467","","0.3254497978","","0.1380472806","","","","","","",""
"497","","bandit","123","556663","0.0-85.0-0.0","20098390","wem/bandit_single","A25D66AC4QUW2U","gain","4","","76","L","3","","0","0","1","0.1673270425","","false","48","0.1161016377","","main_expt","0.1608881285","","0.3438960799","","0.1673270425","","","","","","",""
"188","","bandit","124","559065","0.0-86.0-0.0","20098390","wem/bandit_single","A25D66AC4QUW2U","gain","4","","76","L","3","","0","0","1","0.1637821127","","false","49","0.1135844416","","main_expt","0.2001806823","","0.3405395495","","0.1637821127","","","","","","",""
"258","","bandit","125","561098","0.0-87.0-0.0","20098390","wem/bandit_single","A25D66AC4QUW2U","gain","4","","76","L","3","","0","0","1","0.1826101584","","false","50","0.1646239324","","main_expt","0.2061381611","","0.3305224856","","0.1826101584","","","","","","",""
"1080","","bandit","126","564231","0.0-88.0-0.0","20098390","wem/bandit_single","A25D66AC4QUW2U","gain","4","","76","L","3","","0","0","1","0.2270371056","","false","51","0.1699716213","","main_expt","0.2369791141","","0.2304924019","","0.2270371056","","","","","","",""
"172","","bandit","127","566175","0.0-89.0-0.0","20098390","wem/bandit_single","A25D66AC4QUW2U","gain","4","","76","L","3","","1","0","0","0.2203225001","","false","52","0.1762937123","","main_expt","0.2378663067","","0.2832256505","","0.2203225001","","","","","","",""
"531","","bandit","128","568479","0.0-90.0-0.0","20098390","wem/bandit_single","A25D66AC4QUW2U","gain","4","","76","L","3","","0","0","1","0.2776849753","","false","53","0.2287193473","","main_expt","0.2063519028","","0.2391441838","","0.2776849753","","","","","","",""
"1930","","bandit","129","572589","0.0-91.0-0.0","20098390","wem/bandit_single","A25D66AC4QUW2U","gain","4","","76","L","3","","0","0","1","0.2454572706","","false","54","0.2356834932","","main_expt","0.2439582882","","0.2697071588","","0.2454572706","","","","","","",""
"262","","bandit","130","574625","0.0-92.0-0.0","20098390","wem/bandit_single","A25D66AC4QUW2U","gain","4","","76","L","3","","0","0","1","0.2382153161","","false","55","0.306547883","","main_expt","0.2381950618","","0.2875326611","","0.2382153161","","","","","","",""
"136","","bandit","131","576756","0.0-93.0-0.0","20098390","wem/bandit_single","A25D66AC4QUW2U","gain","4","","76","L","3","","0","0","1","0.1960908288","","false","56","0.2853582168","","main_expt","0.1800346575","","0.2854258916","","0.1960908288","","","","","","",""
"349","","bandit","132","578881","0.0-94.0-0.0","20098390","wem/bandit_single","A25D66AC4QUW2U","gain","4","","76","L","3","","0","0","1","0.2042340564","","false","57","0.2834250679","","main_expt","0.2336203315","","0.3445045135","","0.2042340564","","","","","","",""
"944","","bandit","133","581602","0.0-95.0-0.0","20098390","wem/bandit_single","A25D66AC4QUW2U","gain","4","","72","H","0","img/none_selected.jpg","0","0","1","0.2690284398","","false","58","0.2690284398","","main_expt","0.189887459","","0.3390226593","","0.1490893454","","","","","","",""
"636","","bandit","134","584051","0.0-96.0-0.0","20098390","wem/bandit_single","A25D66AC4QUW2U","gain","4","","72","H","0","img/none_selected.jpg","0","0","1","0.2616697142","","false","59","0.2616697142","","main_expt","0.1548607402","","0.2666291788","","0.1581154669","","","","","","",""
"443","","bandit","135","586269","0.0-97.0-0.0","20098390","wem/bandit_single","A25D66AC4QUW2U","gain","4","","72","H","0","img/none_selected.jpg","0","0","1","0.2704186185","","false","60","0.2704186185","","main_expt","0.1233285174","","0.246985882","","0.1715954381","","","","","","",""
"747","","bandit","136","589306","0.0-98.0-0.0","20098390","wem/bandit_single","A25D66AC4QUW2U","gain","4","","74","J","1","","1","0","0","0.186549837","","false","61","0.3376037184","","main_expt","0.186549837","","0.2171589204","","0.1999420892","","","","","","",""
"1111","","bandit","137","592198","0.0-99.0-0.0","20098390","wem/bandit_single","A25D66AC4QUW2U","gain","4","","74","J","1","","0","0","1","0.1420872584","","false","62","0.3098521258","","main_expt","0.1420872584","","0.2677831299","","0.1539309088","","","","","","",""
"703","","bandit","138","594686","0.0-100.0-0.0","20098390","wem/bandit_single","A25D66AC4QUW2U","gain","4","","74","J","1","","0","0","1","0.151707711","","false","63","0.3137631198","","main_expt","0.151707711","","0.2303454974","","0.1085632924","","","","","","",""
"532","","bandit","139","596995","0.0-101.0-0.0","20098390","wem/bandit_single","A25D66AC4QUW2U","gain","4","","74","J","1","","0","0","1","0.1474827626","","false","64","0.3179430645","","main_expt","0.1474827626","","0.196947777","","0.1370187426","","","","","","",""
"289","","bandit","140","599084","0.0-102.0-0.0","20098390","wem/bandit_single","A25D66AC4QUW2U","gain","4","","74","J","1","","1","0","0","0.1746529425","","false","65","0.2980330155","","main_expt","0.1746529425","","0.1645630622","","0.1322062037","","","","","","",""
"261","","bandit","141","601140","0.0-103.0-0.0","20098390","wem/bandit_single","A25D66AC4QUW2U","gain","4","","74","J","1","","0","0","1","0.1310865155","","false","66","0.2537140377","","main_expt","0.1310865155","","0.1533283495","","0.1496501041","","","","","","",""
"167","","bandit","142","603101","0.0-104.0-0.0","20098390","wem/bandit_single","A25D66AC4QUW2U","gain","4","","74","J","1","","0","0","1","0.1370872981","","false","67","0.2153704701","","main_expt","0.1370872981","","0.1708403009","","0.1626820295","","","","","","",""
"348","","bandit","143","605233","0.0-105.0-0.0","20098390","wem/bandit_single","A25D66AC4QUW2U","gain","4","","74","J","1","","0","0","1","0.09914494933","","false","68","0.2417705853","","main_expt","0.09914494933","","0.1887917493","","0.1989514297","","","","","","",""
"232","","bandit","144","607245","0.0-106.0-0.0","20098390","wem/bandit_single","A25D66AC4QUW2U","gain","4","","74","J","1","","0","0","1","0.1092411584","","false","69","0.3235463827","","main_expt","0.1092411584","","0.2160515082","","0.1888867792","","","","","","",""
"153","","bandit","145","609193","0.0-107.0-0.0","20098390","wem/bandit_single","A25D66AC4QUW2U","gain","4","","74","J","1","","1","0","0","0.1213917008","","false","70","0.3647615206","","main_expt","0.1213917008","","0.2778565133","","0.1767550628","","","","","","",""
"447","","bandit","146","611422","0.0-108.0-0.0","20098390","wem/bandit_single","A25D66AC4QUW2U","gain","4","","74","J","1","","0","0","1","0.1479005197","","false","71","0.3472934012","","main_expt","0.1479005197","","0.2623699359","","0.1253641033","","","","","","",""
"452","","bandit","147","613644","0.0-109.0-0.0","20098390","wem/bandit_single","A25D66AC4QUW2U","gain","4","","74","J","1","","1","0","0","0.1931369739","","false","72","0.2965124106","","main_expt","0.1931369739","","0.2574081817","","0.1319365506","","","","","","",""
"180","","bandit","148","615595","0.0-110.0-0.0","20098390","wem/bandit_single","A25D66AC4QUW2U","gain","4","","74","J","1","","0","0","1","0.1900103681","","false","73","0.2823595977","","main_expt","0.1900103681","","0.2503470883","","0.1061905376","","","","","","",""
"1710","","bandit","149","619085","0.0-111.0-0.0","20098390","wem/bandit_single","A25D66AC4QUW2U","gain","4","","74","J","1","","0","0","1","0.1344428369","","false","74","0.2835749375","","main_expt","0.1344428369","","0.2710758316","","0.1303083533","","","","","","",""
"1313","","bandit","150","622181","0.0-112.0-0.0","20098390","wem/bandit_single","A25D66AC4QUW2U","gain","4","","74","J","1","","0","0","1","0.1528357022","","false","75","0.3526847528","","main_expt","0.1528357022","","0.260759121","","0.1359111238","","","","","","",""
"257","","bandit","151","624383","0.0-113.0-0.0","20098390","wem/bandit_single","A25D66AC4QUW2U","gain","4","","74","J","1","","0","0","1","0.1898592508","","false","76","0.3434196486","","main_expt","0.1898592508","","0.2610050464","","0.1128391495","","","","","","",""
"3042","","bandit","152","629192","0.0-114.0-0.0","20098390","wem/bandit_single","A25D66AC4QUW2U","gain","4","","74","J","1","","0","0","1","0.191464519","","false","77","0.3073782559","","main_expt","0.191464519","","0.1920601856","","0.1118044987","","","","","","",""
"939","","bandit","153","632240","0.0-115.0-0.0","20098390","wem/bandit_single","A25D66AC4QUW2U","gain","4","","74","J","1","","0","0","1","0.2665821314","","false","78","0.3200097729","","main_expt","0.2665821314","","0.1726035312","","0.1315400358","","","","","","",""
"551","","bandit","154","634572","0.0-116.0-0.0","20098390","wem/bandit_single","A25D66AC4QUW2U","gain","4","","74","J","1","","0","0","1","0.2510402579","","false","79","0.3406321397","","main_expt","0.2510402579","","0.1974193715","","0.1421279646","","","","","","",""
"42","","bandit","155","636392","0.0-117.0-0.0","20098390","wem/bandit_single","A25D66AC4QUW2U","gain","4","","74","J","1","","0","0","1","0.2803090616","","false","80","0.2934749235","","main_expt","0.2803090616","","0.1771423485","","0.1666910293","","","","","","",""
"302","","bandit","156","638468","0.0-118.0-0.0","20098390","wem/bandit_single","A25D66AC4QUW2U","gain","4","","74","J","1","","1","0","0","0.3053401272","","false","81","0.3080678564","","main_expt","0.3053401272","","0.1689426189","","0.1514130178","","","","","","",""
"793","","bandit","157","641035","0.0-119.0-0.0","20098390","wem/bandit_single","A25D66AC4QUW2U","gain","4","","74","J","1","","0","0","1","0.3079009489","","false","82","0.3118316764","","main_expt","0.3079009489","","0.2008945118","","0.1667518413","","","","","","",""
"332","","bandit","158","643333","0.0-120.0-0.0","20098390","wem/bandit_single","A25D66AC4QUW2U","gain","4","","74","J","1","","0","0","1","0.3294465445","","false","83","0.2539803618","","main_expt","0.3294465445","","0.2679993971","","0.1620161121","","","","","","",""
"113","","bandit","159","645240","0.0-121.0-0.0","20098390","wem/bandit_single","A25D66AC4QUW2U","gain","4","","74","J","1","","0","0","1","0.3567704092","","false","84","0.2665148507","","main_expt","0.3567704092","","0.2187304288","","0.1920696542","","","","","","",""
"407","","bandit","160","647430","0.0-122.0-0.0","20098390","wem/bandit_single","A25D66AC4QUW2U","gain","4","","75","K","2","","0","0","1","0.2668074714","","false","85","0.2638978108","","main_expt","0.3637986046","","0.2668074714","","0.1790321084","","","","","","",""
"491","","bandit","161","649701","0.0-123.0-0.0","20098390","wem/bandit_single","A25D66AC4QUW2U","gain","4","","75","K","2","","0","0","1","0.3011617684","","false","86","0.2430370424","","main_expt","0.3661817966","","0.3011617684","","0.1644507099","","","","","","",""
"242","","bandit","162","651781","0.0-124.0-0.0","20098390","wem/bandit_single","A25D66AC4QUW2U","gain","4","","75","K","2","","0","0","1","0.2866912597","","false","87","0.2369050713","","main_expt","0.349996741","","0.2866912597","","0.1731377232","","","","","","",""
"162","","bandit","163","653749","0.0-125.0-0.0","20098390","wem/bandit_single","A25D66AC4QUW2U","gain","4","","75","K","2","","0","0","1","0.2921806028","","false","88","0.2322244834","","main_expt","0.3021468993","","0.2921806028","","0.1562940882","","","","","","",""
"1757","","bandit","164","657597","0.0-126.0-0.0","20098390","wem/bandit_single","A25D66AC4QUW2U","gain","4","","75","K","2","","0","0","1","0.2877077994","","false","89","0.214722025","","main_expt","0.2752269066","","0.2877077994","","0.1344734597","","","","","","",""
"163","","bandit","165","659537","0.0-127.0-0.0","20098390","wem/bandit_single","A25D66AC4QUW2U","gain","4","","76","L","3","","0","0","1","0.1192135027","","false","90","0.1767670318","","main_expt","0.3172240337","","0.2390413286","","0.1192135027","","","","","","",""
"1460","","bandit","166","663044","0.0-128.0-0.0","20098390","wem/bandit_single","A25D66AC4QUW2U","gain","4","","76","L","3","","0","0","1","0.1639104845","","false","91","0.1391375388","","main_expt","0.3049723864","","0.2582098676","","0.1639104845","","","","","","",""
"1843","","bandit","167","666696","0.0-129.0-0.0","20098390","wem/bandit_single","A25D66AC4QUW2U","gain","4","","76","L","3","","0","0","1","0.1960431165","","false","92","0.1283323985","","main_expt","0.3261529518","","0.3066747335","","0.1960431165","","","","","","",""
"539","","bandit","168","669004","0.0-130.0-0.0","20098390","wem/bandit_single","A25D66AC4QUW2U","gain","4","","76","L","3","","1","0","0","0.2137056669","","false","93","0.07538544447","","main_expt","0.3550538726","","0.3051362106","","0.2137056669","","","","","","",""
"6209","","bandit","169","676988","0.0-131.0-0.0","20098390","wem/bandit_single","A25D66AC4QUW2U","gain","4","","76","L","3","","1","0","0","0.2188004936","","false","94","0.07407963518","","main_expt","0.3335231974","","0.3433649514","","0.2188004936","","","","","","",""
"1604","","bandit","170","680381","0.0-132.0-0.0","20098390","wem/bandit_single","A25D66AC4QUW2U","gain","4","","76","L","3","","0","0","1","0.2442185641","","false","95","0.06265185683","","main_expt","0.3060397856","","0.3638642947","","0.2442185641","","","","","","",""
"19","","bandit","171","682177","0.0-133.0-0.0","20098390","wem/bandit_single","A25D66AC4QUW2U","gain","4","","76","L","3","","0","0","1","0.2062156096","","false","96","0.0626930361","","main_expt","0.3420618169","","0.3433071503","","0.2062156096","","","","","","",""
"2121","","bandit","172","686083","0.0-134.0-0.0","20098390","wem/bandit_single","A25D66AC4QUW2U","gain","4","","76","L","3","","0","0","1","0.1824441478","","false","97","0.03702031205","","main_expt","0.3451805041","","0.3287523936","","0.1824441478","","","","","","",""
"699","","bandit","173","688559","0.0-135.0-0.0","20098390","wem/bandit_single","A25D66AC4QUW2U","gain","4","","76","L","3","","0","0","1","0.1741419228","","false","98","0.02896114516","","main_expt","0.3067376926","","0.3384657171","","0.1741419228","","","","","","",""
"428","","bandit","174","691124","0.0-136.0-0.0","20098390","wem/bandit_single","A25D66AC4QUW2U","gain","4","","76","L","3","","0","0","1","0.1402348549","","false","99","0.04301278827","","main_expt","0.2980645096","","0.3929596429","","0.1402348549","","","","","","",""
"1008","","bandit","175","694196","0.0-137.0-0.0","20098390","wem/bandit_single","A25D66AC4QUW2U","gain","4","","76","L","3","","0","0","1","0.1856728267","","false","100","0.03198738169","","main_expt","0.2862788702","","0.3972918561","","0.1856728267","","","","","","",""
"1998","","bandit","176","697991","0.0-138.0-0.0","20098390","wem/bandit_single","A25D66AC4QUW2U","gain","4","","76","L","3","","0","0","1","0.1731032509","","false","101","0.03387094668","","main_expt","0.2622165861","","0.4064604032","","0.1731032509","","","","","","",""
"894","","bandit","177","700671","0.0-139.0-0.0","20098390","wem/bandit_single","A25D66AC4QUW2U","gain","4","","76","L","3","","0","0","1","0.1387116465","","false","102","0.0235124197","","main_expt","0.3261799811","","0.4273413635","","0.1387116465","","","","","","",""
"578","","bandit","178","703024","0.0-140.0-0.0","20098390","wem/bandit_single","A25D66AC4QUW2U","gain","4","","76","L","3","","0","0","1","0.1880660303","","false","103","0.02482610326","","main_expt","0.334814711","","0.4566487837","","0.1880660303","","","","","","",""
"101","","bandit","179","705030","0.0-141.0-0.0","20098390","wem/bandit_single","A25D66AC4QUW2U","gain","4","","76","L","3","","1","0","0","0.142060421","","false","104","0.03330094042","","main_expt","0.3486298313","","0.459539636","","0.142060421","","","","","","",""
"556","","bandit","180","707384","0.0-142.0-0.0","20098390","wem/bandit_single","A25D66AC4QUW2U","gain","4","","76","L","3","","0","0","1","0.1839839798","","false","105","0.06543537915","","main_expt","0.3538911629","","0.4462881264","","0.1839839798","","","","","","",""
"392","","bandit","181","709558","0.0-143.0-0.0","20098390","wem/bandit_single","A25D66AC4QUW2U","gain","4","","76","L","3","","0","0","1","0.1691947451","","false","106","0.07051160025","","main_expt","0.3886974852","","0.4417011126","","0.1691947451","","","","","","",""
"1199","","bandit","182","712866","0.0-144.0-0.0","20098390","wem/bandit_single","A25D66AC4QUW2U","gain","4","","76","L","3","","0","0","1","0.180010917","","false","107","0.08830456602","","main_expt","0.3489433712","","0.4419194373","","0.180010917","","","","","","",""
"1604","","bandit","183","716243","0.0-145.0-0.0","20098390","wem/bandit_single","A25D66AC4QUW2U","gain","4","","76","L","3","","0","0","1","0.1338722415","","false","108","0.05921849724","","main_expt","0.3901728218","","0.4061848383","","0.1338722415","","","","","","",""
"1056","","bandit","184","719075","0.0-146.0-0.0","20098390","wem/bandit_single","A25D66AC4QUW2U","gain","4","","76","L","3","","0","0","1","0.1350853679","","false","109","0.04581125366","","main_expt","0.4006799949","","0.3906669636","","0.1350853679","","","","","","",""
"2005","","bandit","185","723312","0.0-147.0-0.0","20098390","wem/bandit_single","A25D66AC4QUW2U","gain","4","","75","K","2","","0","0","1","0.3969614195","","false","110","0.08345510588","","main_expt","0.3867714499","","0.3969614195","","0.184551263","","","","","","",""
"27","","bandit","186","725112","0.0-148.0-0.0","20098390","wem/bandit_single","A25D66AC4QUW2U","gain","4","","75","K","2","","0","0","1","0.370186674","","false","111","0.07355878572","","main_expt","0.4252141842","","0.370186674","","0.2635344293","","","","","","",""
"141","","bandit","187","727055","0.0-149.0-0.0","20098390","wem/bandit_single","A25D66AC4QUW2U","gain","4","","75","K","2","","1","0","0","0.3488043283","","false","112","0.09226575929","","main_expt","0.4197282726","","0.3488043283","","0.2972025743","","","","","","",""
"68","","bandit","188","729206","0.0-150.0-0.0","20098390","wem/bandit_single","A25D66AC4QUW2U","gain","4","","75","K","2","","0","0","1","0.2886117592","","false","113","0.07711661396","","main_expt","0.4371411526","","0.2886117592","","0.2853398636","","","","","","",""
"121","","bandit","189","731109","0.0-151.0-0.0","20098390","wem/bandit_single","A25D66AC4QUW2U","gain","4","","75","K","2","","0","0","1","0.3507025671","","false","114","0.09366406151","","main_expt","0.4523407119","","0.3507025671","","0.2354235092","","","","","","",""
"71","","bandit","190","733170","0.0-152.0-0.0","20098390","wem/bandit_single","A25D66AC4QUW2U","gain","4","","75","K","2","","1","0","0","0.3308051733","","false","115","0.09297781317","","main_expt","0.4544977282","","0.3308051733","","0.2228923984","","","","","","",""
"190","","bandit","191","735134","0.0-153.0-0.0","20098390","wem/bandit_single","A25D66AC4QUW2U","gain","4","","75","K","2","","0","0","1","0.2696902145","","false","116","0.09292735615","","main_expt","0.4458191396","","0.2696902145","","0.182615248","","","","","","",""
"172","","bandit","192","737078","0.0-154.0-0.0","20098390","wem/bandit_single","A25D66AC4QUW2U","gain","4","","75","K","2","","1","0","0","0.3048340551","","false","117","0.1277349031","","main_expt","0.4384124693","","0.3048340551","","0.1702457594","","","","","","",""
"20","","bandit","193","739193","0.0-155.0-0.0","20098390","wem/bandit_single","A25D66AC4QUW2U","gain","4","","75","K","2","","0","0","1","0.2682044258","","false","118","0.1057820856","","main_expt","0.4590850855","","0.2682044258","","0.2075823826","","","","","","",""
"31","","bandit","194","741000","0.0-156.0-0.0","20098390","wem/bandit_single","A25D66AC4QUW2U","gain","4","","75","K","2","","0","0","1","0.2314514612","","false","119","0.08453932314","","main_expt","0.4718937063","","0.2314514612","","0.2281388084","","","","","","",""
"54","","bandit","195","742831","0.0-157.0-0.0","20098390","wem/bandit_single","A25D66AC4QUW2U","gain","4","","75","K","2","","1","0","0","0.197474053","","false","120","0.1106897037","","main_expt","0.4645470247","","0.197474053","","0.2620651535","","","","","","",""
"86","","bandit","196","745130","0.0-158.0-0.0","20098390","wem/bandit_single","A25D66AC4QUW2U","gain","4","","75","K","2","","0","0","1","0.1819521248","","false","121","0.1200625234","","main_expt","0.4422277234","","0.1819521248","","0.2953433235","","","","","","",""
"136","","bandit","197","747050","0.0-159.0-0.0","20098390","wem/bandit_single","A25D66AC4QUW2U","gain","4","","75","K","2","","0","0","1","0.171732915","","false","122","0.1570760405","","main_expt","0.4150525319","","0.171732915","","0.2702367277","","","","","","",""
"13","","bandit","198","748875","0.0-160.0-0.0","20098390","wem/bandit_single","A25D66AC4QUW2U","gain","4","","75","K","2","","0","0","1","0.1577660673","","false","123","0.1616024906","","main_expt","0.4356762379","","0.1577660673","","0.3190818872","","","","","","",""
"122","","bandit","199","751072","0.0-161.0-0.0","20098390","wem/bandit_single","A25D66AC4QUW2U","gain","4","","75","K","2","","0","0","1","0.1384195938","","false","124","0.1371750093","","main_expt","0.4475351861","","0.1384195938","","0.3415455108","","","","","","",""
"75","","bandit","200","752936","0.0-162.0-0.0","20098390","wem/bandit_single","A25D66AC4QUW2U","gain","4","","75","K","2","","0","0","1","0.1367208018","","false","125","0.1293707667","","main_expt","0.4310995666","","0.1367208018","","0.3955313072","","","","","","",""
"40","","bandit","201","754767","0.0-163.0-0.0","20098390","wem/bandit_single","A25D66AC4QUW2U","gain","4","","75","K","2","","0","0","1","0.14570125","","false","126","0.1231453761","","main_expt","0.4246911586","","0.14570125","","0.4150522509","","","","","","",""
"450","","bandit","202","757213","0.0-164.0-0.0","20098390","wem/bandit_single","A25D66AC4QUW2U","gain","4","","74","J","1","","0","0","1","0.3855858577","","false","127","0.1044431599","","main_expt","0.3855858577","","0.116128816","","0.3803228979","","","","","","",""
"111","","bandit","203","759108","0.0-165.0-0.0","20098390","wem/bandit_single","A25D66AC4QUW2U","gain","4","","74","J","1","","1","0","0","0.3886900275","","false","128","0.07509994275","","main_expt","0.3886900275","","0.1118736017","","0.4028097642","","","","","","",""
"10","","bandit","204","760891","0.0-166.0-0.0","20098390","wem/bandit_single","A25D66AC4QUW2U","gain","4","","74","J","1","","0","0","1","0.3712880315","","false","129","0.07499531951","","main_expt","0.3712880315","","0.1153634536","","0.3759087187","","","","","","",""
"164","","bandit","205","763208","0.0-167.0-0.0","20098390","wem/bandit_single","A25D66AC4QUW2U","gain","4","","74","J","1","","0","0","1","0.3163545042","","false","130","0.06898381409","","main_expt","0.3163545042","","0.09323577747","","0.3578404683","","","","","","",""
"39","","bandit","206","765031","0.0-168.0-0.0","20098390","wem/bandit_single","A25D66AC4QUW2U","gain","4","","74","J","1","","0","0","1","0.3203759455","","false","131","0.08255272978","","main_expt","0.3203759455","","0.1064947735","","0.3874222675","","","","","","",""
"29","","bandit","207","766844","0.0-169.0-0.0","20098390","wem/bandit_single","A25D66AC4QUW2U","gain","4","","74","J","1","","1","0","0","0.3128419263","","false","132","0.06266196304","","main_expt","0.3128419263","","0.1574274544","","0.3773694481","","","","","","",""
"191","","bandit","208","768823","0.0-170.0-0.0","20098390","wem/bandit_single","A25D66AC4QUW2U","gain","4","","74","J","1","","0","0","1","0.3057041938","","false","133","0.06584579886","","main_expt","0.3057041938","","0.1613106331","","0.3961249281","","","","","","",""
"15","","bandit","209","770613","0.0-171.0-0.0","20098390","wem/bandit_single","A25D66AC4QUW2U","gain","4","","74","J","1","","0","0","1","0.2816585421","","false","134","0.05935363428","","main_expt","0.2816585421","","0.1660744508","","0.4152923946","","","","","","",""
"204","","bandit","210","772609","0.0-172.0-0.0","20098390","wem/bandit_single","A25D66AC4QUW2U","gain","4","","74","J","1","","0","0","1","0.2955422992","","false","135","0.05732645975","","main_expt","0.2955422992","","0.1973964499","","0.4424865849","","","","","","",""
"56","","bandit","211","774446","0.0-173.0-0.0","20098390","wem/bandit_single","A25D66AC4QUW2U","gain","4","","74","J","1","","0","0","1","0.3509846551","","false","136","0.07342087183","","main_expt","0.3509846551","","0.1813196928","","0.4465543098","","","","","","",""
"82","","bandit","212","776303","0.0-174.0-0.0","20098390","wem/bandit_single","A25D66AC4QUW2U","gain","4","","74","J","1","","1","0","0","0.3344410146","","false","137","0.07676045657","","main_expt","0.3344410146","","0.1859539446","","0.4520996047","","","","","","",""
"82","","bandit","213","778170","0.0-175.0-0.0","20098390","wem/bandit_single","A25D66AC4QUW2U","gain","4","","74","J","1","","0","0","1","0.2657268636","","false","138","0.09127868582","","main_expt","0.2657268636","","0.1014888705","","0.428300575","","","","","","",""
"63","","bandit","214","780105","0.0-176.0-0.0","20098390","wem/bandit_single","A25D66AC4QUW2U","gain","4","","74","J","1","","0","0","1","0.2267955479","","false","139","0.1057771966","","main_expt","0.2267955479","","0.09034098631","","0.419833238","","","","","","",""
"67","","bandit","215","781965","0.0-177.0-0.0","20098390","wem/bandit_single","A25D66AC4QUW2U","gain","4","","74","J","1","","1","0","0","0.2278141127","","false","140","0.1134354218","","main_expt","0.2278141127","","0.09102227313","","0.423721229","","","","","","",""
"136","","bandit","216","783902","0.0-178.0-0.0","20098390","wem/bandit_single","A25D66AC4QUW2U","gain","4","","74","J","1","","0","0","1","0.23653477","","false","141","0.1205694848","","main_expt","0.23653477","","0.1095349378","","0.4382479885","","","","","","",""
"136","","bandit","217","785814","0.0-179.0-0.0","20098390","wem/bandit_single","A25D66AC4QUW2U","gain","4","","74","J","1","","0","0","1","0.2155890047","","false","142","0.1423721259","","main_expt","0.2155890047","","0.1184068784","","0.4247465964","","","","","","",""
"189","","bandit","218","787784","0.0-180.0-0.0","20098390","wem/bandit_single","A25D66AC4QUW2U","gain","4","","74","J","1","","0","0","1","0.2203428631","","false","143","0.1199770031","","main_expt","0.2203428631","","0.1056920569","","0.3978340057","","","","","","",""
"60","","bandit","219","789943","0.0-181.0-0.0","20098390","wem/bandit_single","A25D66AC4QUW2U","gain","4","","74","J","1","","0","0","1","0.1834171178","","false","144","0.1431068991","","main_expt","0.1834171178","","0.1563123998","","0.4094639435","","","","","","",""
"142","","bandit","220","791861","0.0-182.0-0.0","20098390","wem/bandit_single","A25D66AC4QUW2U","gain","4","","74","J","1","","0","0","1","0.2064693802","","false","145","0.1630017245","","main_expt","0.2064693802","","0.09088636348","","0.4198905501","","","","","","",""
"184","","bandit","221","794326","0.0-183.0-0.0","20098390","wem/bandit_single","A25D66AC4QUW2U","gain","4","","74","J","1","","1","0","0","0.1342941172","","false","146","0.145034553","","main_expt","0.1342941172","","0.0827806059","","0.4050886303","","","","","","",""
"129","","bandit","222","796232","0.0-184.0-0.0","20098390","wem/bandit_single","A25D66AC4QUW2U","gain","4","","74","J","1","","0","0","1","0.1515740161","","false","147","0.1488017726","","main_expt","0.1515740161","","0.1149215639","","0.3785891444","","","","","","",""
"307","","bandit","223","798328","0.0-185.0-0.0","20098390","wem/bandit_single","A25D66AC4QUW2U","gain","4","","74","J","1","","0","0","1","0.1212747878","","false","148","0.1582677895","","main_expt","0.1212747878","","0.1099148444","","0.3854511928","","","","","","",""
"608","","bandit","224","800756","0.0-186.0-0.0","20098390","wem/bandit_single","A25D66AC4QUW2U","gain","4","","74","J","1","","0","0","1","0.08453377975","","false","149","0.1647072654","","main_expt","0.08453377975","","0.1127327795","","0.3928641012","","","","","","",""
"3","","bandit","225","802563","0.0-187.0-0.0","20098390","wem/bandit_single","A25D66AC4QUW2U","gain","4","","74","J","1","","0","0","1","0.1060211344","","false","150","0.1333243968","","main_expt","0.1060211344","","0.1477728786","","0.3981420368","","","","","","",""
"227","","bandit","226","804577","0.0-188.0-0.0","20098390","wem/bandit_single","A25D66AC4QUW2U","gain","4","","74","J","1","","0","0","1","0.06473992137","","false","151","0.1232516149","","main_expt","0.06473992137","","0.1634569086","","0.3954234158","","","","","","",""
"0","","bandit","227","806711","0.0-189.0-0.0","20098390","wem/bandit_single","A25D66AC4QUW2U","gain","4","","74","J","1","","1","0","0","0.07847139908","","false","152","0.1218764731","","main_expt","0.07847139908","","0.2119786212","","0.3684376671","","","","","","",""
"136","","bandit","228","808634","0.0-190.0-0.0","20098390","wem/bandit_single","A25D66AC4QUW2U","gain","4","","74","J","1","","1","0","0","0.06170083269","","false","153","0.1181944444","","main_expt","0.06170083269","","0.190815194","","0.3586265296","","","","","","",""
"130","","bandit","229","810555","0.0-191.0-0.0","20098390","wem/bandit_single","A25D66AC4QUW2U","gain","4","","74","J","1","","0","0","1","0.07752027139","","false","154","0.1524072167","","main_expt","0.07752027139","","0.2539230859","","0.3711835277","","","","","","",""
"72","","bandit","230","812890","0.0-192.0-0.0","20098390","wem/bandit_single","A25D66AC4QUW2U","gain","4","","74","J","1","","0","0","1","0.07430376846","","false","155","0.2181316645","","main_expt","0.07430376846","","0.2214647723","","0.3296220366","","","","","","",""
"97","","bandit","231","814774","0.0-193.0-0.0","20098390","wem/bandit_single","A25D66AC4QUW2U","gain","4","","74","J","1","","0","0","1","0.05925504694","","false","156","0.213475765","","main_expt","0.05925504694","","0.1812397975","","0.287903252","","","","","","",""
"13","","bandit","232","816567","0.0-194.0-0.0","20098390","wem/bandit_single","A25D66AC4QUW2U","gain","4","","74","J","1","","0","0","1","0.0737155059","","false","157","0.2264995707","","main_expt","0.0737155059","","0.1447548225","","0.296290929","","","","","","",""
"206","","bandit","233","819122","0.0-195.0-0.0","20098390","wem/bandit_single","A25D66AC4QUW2U","gain","4","","74","J","1","","0","0","1","0.05755321342","","false","158","0.2991482761","","main_expt","0.05755321342","","0.1458137519","","0.2721348168","","","","","","",""
"73","","bandit","234","820970","0.0-196.0-0.0","20098390","wem/bandit_single","A25D66AC4QUW2U","gain","4","","76","L","3","","0","0","1","0.2765185667","","false","159","0.3365391658","","main_expt","0.1007830752","","0.1035755389","","0.2765185667","","","","","","",""
"26","","bandit","235","823269","0.0-197.0-0.0","20098390","wem/bandit_single","A25D66AC4QUW2U","gain","4","","76","L","3","","1","0","0","0.3162688162","","false","160","0.313402929","","main_expt","0.06149362121","","0.1142027444","","0.3162688162","","","","","","",""
"23","","bandit","236","825066","0.0-198.0-0.0","20098390","wem/bandit_single","A25D66AC4QUW2U","gain","4","","76","L","3","","0","0","1","0.3302336848","","false","161","0.3529908654","","main_expt","0.09516109007","","0.1510988582","","0.3302336848","","","","","","",""
"47","","bandit","237","826886","0.0-199.0-0.0","20098390","wem/bandit_single","A25D66AC4QUW2U","gain","4","","76","L","3","","1","0","0","0.3622896815","","false","162","0.3608295961","","main_expt","0.08429007215","","0.1720124831","","0.3622896815","","","","","","",""
"328","","bandit","238","829251","0.0-200.0-0.0","20098390","wem/bandit_single","A25D66AC4QUW2U","gain","4","","76","L","3","","0","0","1","0.3696580379","","false","163","0.4197284319","","main_expt","0.1199893575","","0.2119433459","","0.3696580379","","","","","","",""
"324","","bandit","239","831360","0.0-201.0-0.0","20098390","wem/bandit_single","A25D66AC4QUW2U","gain","4","","76","L","3","","0","0","1","0.3217553384","","false","164","0.4162507976","","main_expt","0.1353867718","","0.2413639604","","0.3217553384","","","","","","",""
"130","","bandit","240","833298","0.0-202.0-0.0","20098390","wem/bandit_single","A25D66AC4QUW2U","gain","4","","76","L","3","","0","0","1","0.2370356752","","false","165","0.424344073","","main_expt","0.08700720397","","0.3231443763","","0.2370356752","","","","","","",""
"735","","bandit","241","835907","0.0-203.0-0.0","20098390","wem/bandit_single","A25D66AC4QUW2U","gain","4","","76","L","3","","0","0","1","0.1952619304","","false","166","0.4385436022","","main_expt","0.09613155095","","0.2907209657","","0.1952619304","","","","","","",""
"354","","bandit","242","838055","0.0-204.0-0.0","20098390","wem/bandit_single","A25D66AC4QUW2U","gain","4","","76","L","3","","0","0","1","0.2008635704","","false","167","0.4428370211","","main_expt","0.08740230362","","0.2386263765","","0.2008635704","","","","","","",""
"14","","bandit","243","840091","0.0-205.0-0.0","20098390","wem/bandit_single","A25D66AC4QUW2U","gain","4","","72","H","0","img/none_selected.jpg","0","0","1","0.4475632301","","false","168","0.4475632301","","main_expt","0.1033010443","","0.2802872421","","0.2872582577","","","","","","",""
"237","","bandit","244","842102","0.0-206.0-0.0","20098390","wem/bandit_single","A25D66AC4QUW2U","gain","4","","72","H","0","img/none_selected.jpg","0","0","1","0.4358894507","","false","169","0.4358894507","","main_expt","0.1288835215","","0.2858578204","","0.2478638945","","","","","","",""
"122","","bandit","245","844014","0.0-207.0-0.0","20098390","wem/bandit_single","A25D66AC4QUW2U","gain","4","","72","H","0","img/none_selected.jpg","1","0","0","0.4401344765","","false","170","0.4401344765","","main_expt","0.0821831217","","0.3542119366","","0.2335785199","","","","","","",""
"891","","bandit","246","846719","0.0-208.0-0.0","20098390","wem/bandit_single","A25D66AC4QUW2U","gain","4","","72","H","0","img/none_selected.jpg","1","0","0","0.4182824287","","false","171","0.4182824287","","main_expt","0.08448133796","","0.363516632","","0.263029084","","","","","","",""
"264","","bandit","247","848760","0.0-209.0-0.0","20098390","wem/bandit_single","A25D66AC4QUW2U","gain","4","","72","H","0","img/none_selected.jpg","0","0","1","0.4206293302","","false","172","0.4206293302","","main_expt","0.1142172702","","0.3285232471","","0.282237019","","","","","","",""
"268","","bandit","248","850811","0.0-210.0-0.0","20098390","wem/bandit_single","A25D66AC4QUW2U","gain","4","","72","H","0","img/none_selected.jpg","1","0","0","0.4424673434","","false","173","0.4424673434","","main_expt","0.1585219493","","0.3379934215","","0.2798091978","","","","","","",""
"266","","bandit","249","853224","0.0-211.0-0.0","20098390","wem/bandit_single","A25D66AC4QUW2U","gain","4","","72","H","0","img/none_selected.jpg","1","0","0","0.4470793942","","false","174","0.4470793942","","main_expt","0.2167008269","","0.2937018888","","0.2782342077","","","","","","",""
"41","","bandit","250","855044","0.0-212.0-0.0","20098390","wem/bandit_single","A25D66AC4QUW2U","gain","4","","72","H","0","img/none_selected.jpg","0","0","1","0.4466152725","","false","175","0.4466152725","","main_expt","0.2564405216","","0.2691073907","","0.3095951925","","","","","","",""
"32","","bandit","251","856868","0.0-213.0-0.0","20098390","wem/bandit_single","A25D66AC4QUW2U","gain","4","","72","H","0","img/none_selected.jpg","1","0","0","0.4622816701","","false","176","0.4622816701","","main_expt","0.2740916264","","0.2797966768","","0.3149167583","","","","","","",""
"292","","bandit","252","859382","0.0-214.0-0.0","20098390","wem/bandit_single","A25D66AC4QUW2U","gain","4","","72","H","0","img/none_selected.jpg","0","0","1","0.4791174255","","false","177","0.4791174255","","main_expt","0.2701885048","","0.2956207272","","0.3057016371","","","","","","",""
"220","","bandit","253","861378","0.0-215.0-0.0","20098390","wem/bandit_single","A25D66AC4QUW2U","gain","4","","72","H","0","img/none_selected.jpg","1","0","0","0.4878404122","","false","178","0.4878404122","","main_expt","0.2525299603","","0.2903749226","","0.2973749651","","","","","","",""
"176","","bandit","254","863347","0.0-216.0-0.0","20098390","wem/bandit_single","A25D66AC4QUW2U","gain","4","","72","H","0","img/none_selected.jpg","0","0","1","0.4871204803","","false","179","0.4871204803","","main_expt","0.2923151224","","0.2324022499","","0.3205080684","","","","","","",""
"655","","bandit","255","865804","0.0-217.0-0.0","20098390","wem/bandit_single","A25D66AC4QUW2U","gain","4","","72","H","0","img/none_selected.jpg","0","0","1","0.4783768728","","false","180","0.4783768728","","main_expt","0.2712435876","","0.157369965","","0.3668921479","","","","","","",""
"319","","bandit","256","867903","0.0-218.0-0.0","20098390","wem/bandit_single","A25D66AC4QUW2U","gain","4","","72","H","0","img/none_selected.jpg","0","0","1","0.4791844977","","false","181","0.4791844977","","main_expt","0.2911825171","","0.1928111427","","0.36743573","","","","","","",""
"106","","bandit","257","870185","0.0-219.0-0.0","20098390","wem/bandit_single","A25D66AC4QUW2U","gain","4","","72","H","0","img/none_selected.jpg","0","0","1","0.4796326775","","false","182","0.4796326775","","main_expt","0.2812290194","","0.1831473083","","0.3444330154","","","","","","",""
"35","","bandit","258","872015","0.0-220.0-0.0","20098390","wem/bandit_single","A25D66AC4QUW2U","gain","4","","72","H","0","img/none_selected.jpg","0","0","1","0.4610412729","","false","183","0.4610412729","","main_expt","0.2998653002","","0.1367876881","","0.376594699","","","","","","",""
"717","","bandit","259","874545","0.0-221.0-0.0","20098390","wem/bandit_single","A25D66AC4QUW2U","gain","4","","76","L","3","","1","0","0","0.3576767422","","false","184","0.4654872089","","main_expt","0.3019566185","","0.1225312115","","0.3576767422","","","","","","",""
"364","","bandit","260","877117","0.0-222.0-0.0","20098390","wem/bandit_single","A25D66AC4QUW2U","gain","4","","76","L","3","","1","0","0","0.3420219295","","false","185","0.4579605539","","main_expt","0.3297019868","","0.1342014861","","0.3420219295","","","","","","",""
"79","","bandit","261","878997","0.0-223.0-0.0","20098390","wem/bandit_single","A25D66AC4QUW2U","gain","4","","76","L","3","","1","0","0","0.3398722127","","false","186","0.4285966985","","main_expt","0.3522504082","","0.1302900424","","0.3398722127","","","","","","",""
"168","","bandit","262","881094","0.0-224.0-0.0","20098390","wem/bandit_single","A25D66AC4QUW2U","gain","4","","76","L","3","","0","0","1","0.3329123812","","false","187","0.4348535533","","main_expt","0.3716798598","","0.1721475048","","0.3329123812","","","","","","",""
"65","","bandit","263","882948","0.0-225.0-0.0","20098390","wem/bandit_single","A25D66AC4QUW2U","gain","4","","76","L","3","","0","0","1","0.3185375489","","false","188","0.4485299143","","main_expt","0.3516931858","","0.194848396","","0.3185375489","","","","","","",""
"312","","bandit","264","885114","0.0-226.0-0.0","20098390","wem/bandit_single","A25D66AC4QUW2U","gain","4","","76","L","3","","1","0","0","0.2819885058","","false","189","0.4108460603","","main_expt","0.311825216","","0.2010474049","","0.2819885058","","","","","","",""
"171","","bandit","265","887071","0.0-227.0-0.0","20098390","wem/bandit_single","A25D66AC4QUW2U","gain","4","","76","L","3","","0","0","1","0.2938453289","","false","190","0.4276881046","","main_expt","0.3228194114","","0.2388592571","","0.2938453289","","","","","","",""
"247","","bandit","266","889099","0.0-228.0-0.0","20098390","wem/bandit_single","A25D66AC4QUW2U","gain","4","","76","L","3","","0","0","1","0.3252392313","","false","191","0.4252680513","","main_expt","0.3070679034","","0.2125939305","","0.3252392313","","","","","","",""
"262","","bandit","267","891215","0.0-229.0-0.0","20098390","wem/bandit_single","A25D66AC4QUW2U","gain","4","","76","L","3","","0","0","1","0.2886148476","","false","192","0.4128843357","","main_expt","0.3224985291","","0.2494953747","","0.2886148476","","","","","","",""
"68","","bandit","268","893083","0.0-230.0-0.0","20098390","wem/bandit_single","A25D66AC4QUW2U","gain","4","","76","L","3","","1","0","0","0.2985788169","","false","193","0.3935422506","","main_expt","0.3869795439","","0.2831479201","","0.2985788169","","","","","","",""
"215","","bandit","269","895075","0.0-231.0-0.0","20098390","wem/bandit_single","A25D66AC4QUW2U","gain","4","","76","L","3","","0","0","1","0.2480640489","","false","194","0.3844836544","","main_expt","0.4012627402","","0.3119862296","","0.2480640489","","","","","","",""
"266","","bandit","270","897424","0.0-232.0-0.0","20098390","wem/bandit_single","A25D66AC4QUW2U","gain","4","","76","L","3","","0","0","1","0.2512767584","","false","195","0.3676726872","","main_expt","0.3984750166","","0.3216729489","","0.2512767584","","","","","","",""
"217","","bandit","271","899422","0.0-233.0-0.0","20098390","wem/bandit_single","A25D66AC4QUW2U","gain","4","","76","L","3","","0","0","1","0.2465093633","","false","196","0.3789354293","","main_expt","0.354698241","","0.3321806914","","0.2465093633","","","","","","",""
"328","","bandit","272","901531","0.0-234.0-0.0","20098390","wem/bandit_single","A25D66AC4QUW2U","gain","4","","75","K","2","","0","0","1","0.3046277309","","false","197","0.3163718389","","main_expt","0.388220233","","0.3046277309","","0.2064088789","","","","","","",""
"673","","bandit","273","904479","0.0-235.0-0.0","20098390","wem/bandit_single","A25D66AC4QUW2U","gain","4","","75","K","2","","0","0","1","0.2780350238","","false","198","0.3791854339","","main_expt","0.3702696144","","0.2780350238","","0.1991167995","","","","","","",""
"475","","bandit","274","906772","0.0-236.0-0.0","20098390","wem/bandit_single","A25D66AC4QUW2U","gain","4","","75","K","2","","1","0","0","0.2933352516","","false","199","0.3677616307","","main_expt","0.3901406761","","0.2933352516","","0.217931059","","","","","","",""
"27","","bandit","275","908614","0.0-237.0-0.0","20098390","wem/bandit_single","A25D66AC4QUW2U","gain","4","","75","K","2","","0","0","1","0.2826656477","","false","200","0.3696360463","","main_expt","0.3606677237","","0.2826656477","","0.1684289921","","","","","","",""
"345","","bandit","276","911080","0.0-238.0-0.0","20098390","wem/bandit_single","A25D66AC4QUW2U","gain","4","","75","K","2","","0","0","1","0.2337361703","","false","201","0.3685313937","","main_expt","0.3608273241","","0.2337361703","","0.1526494416","","","","","","",""
"71","","bandit","277","912933","0.0-239.0-0.0","20098390","wem/bandit_single","A25D66AC4QUW2U","gain","4","","75","K","2","","0","0","1","0.1697000529","","false","202","0.354480527","","main_expt","0.3495453025","","0.1697000529","","0.1474087426","","","","","","",""
"1058","","bandit","278","915796","0.0-240.0-0.0","20098390","wem/bandit_single","A25D66AC4QUW2U","gain","4","","75","K","2","","0","0","1","0.1941246875","","false","203","0.3420940801","","main_expt","0.3660628182","","0.1941246875","","0.1499100939","","","","","","",""
"756","","bandit","279","918337","0.0-241.0-0.0","20098390","wem/bandit_single","A25D66AC4QUW2U","gain","4","","75","K","2","","0","0","1","0.2006574904","","false","204","0.3365711719","","main_expt","0.337040125","","0.2006574904","","0.173155318","","","","","","",""
"36","","bandit","280","920212","0.0-242.0-0.0","20098390","wem/bandit_single","A25D66AC4QUW2U","gain","4","","75","K","2","","1","0","0","0.1905393187","","false","205","0.3517226909","","main_expt","0.303371863","","0.1905393187","","0.1813441082","","","","","","",""
"22","","bandit","281","922010","0.0-243.0-0.0","20098390","wem/bandit_single","A25D66AC4QUW2U","gain","4","","75","K","2","","0","0","1","0.1715448013","","false","206","0.3476038752","","main_expt","0.256221391","","0.1715448013","","0.1491413167","","","","","","",""
"361","","bandit","282","924148","0.0-244.0-0.0","20098390","wem/bandit_single","A25D66AC4QUW2U","gain","4","","75","K","2","","0","0","1","0.1857981004","","false","207","0.3349551135","","main_expt","0.2368802791","","0.1857981004","","0.08847738283","","","","","","",""
"412","","bandit","283","926557","0.0-245.0-0.0","20098390","wem/bandit_single","A25D66AC4QUW2U","gain","4","","75","K","2","","0","0","1","0.2102455122","","false","208","0.342580335","","main_expt","0.1949321076","","0.2102455122","","0.1283817583","","","","","","",""
"57","","bandit","284","928470","0.0-246.0-0.0","20098390","wem/bandit_single","A25D66AC4QUW2U","gain","4","","75","K","2","","1","0","0","0.2400108979","","false","209","0.3043768385","","main_expt","0.1838736563","","0.2400108979","","0.116273769","","","","","","",""
"8","","bandit","285","930270","0.0-247.0-0.0","20098390","wem/bandit_single","A25D66AC4QUW2U","gain","4","","75","K","2","","0","0","1","0.2756077388","","false","210","0.2578785415","","main_expt","0.2021797606","","0.2756077388","","0.1255054793","","","","","","",""
"55","","bandit","286","932348","0.0-248.0-0.0","20098390","wem/bandit_single","A25D66AC4QUW2U","gain","4","","75","K","2","","0","0","1","0.2509099491","","false","211","0.2684152162","","main_expt","0.1724183734","","0.2509099491","","0.1183517879","","","","","","",""
"110","","bandit","287","934256","0.0-249.0-0.0","20098390","wem/bandit_single","A25D66AC4QUW2U","gain","4","","75","K","2","","1","0","0","0.1980821896","","false","212","0.2734791169","","main_expt","0.1730984207","","0.1980821896","","0.05794836862","","","","","","",""
"295","","bandit","288","936330","0.0-250.0-0.0","20098390","wem/bandit_single","A25D66AC4QUW2U","gain","4","","75","K","2","","0","0","1","0.1925164192","","false","213","0.2278558496","","main_expt","0.1324166562","","0.1925164192","","0.05975327623","","","","","","",""
"322","","bandit","289","938437","0.0-251.0-0.0","20098390","wem/bandit_single","A25D66AC4QUW2U","gain","4","","75","K","2","","0","0","1","0.2265747235","","false","214","0.3028606466","","main_expt","0.1503769339","","0.2265747235","","0.08438277685","","","","","","",""
"236","","bandit","290","940461","0.0-252.0-0.0","20098390","wem/bandit_single","A25D66AC4QUW2U","gain","4","","75","K","2","","1","0","0","0.2019374621","","false","215","0.2931323275","","main_expt","0.1957560139","","0.2019374621","","0.06249742642","","","","","","",""
"598","","bandit","291","942864","0.0-253.0-0.0","20098390","wem/bandit_single","A25D66AC4QUW2U","gain","4","","75","K","2","","0","0","1","0.1789305456","","false","216","0.3496422565","","main_expt","0.2405167914","","0.1789305456","","0.03962767808","","","","","","",""
"227","","bandit","292","944878","0.0-254.0-0.0","20098390","wem/bandit_single","A25D66AC4QUW2U","gain","4","","75","K","2","","0","0","1","0.1749198907","","false","217","0.3773047798","","main_expt","0.1730494568","","0.1749198907","","0.04234009702","","","","","","",""
"164","","bandit","293","946829","0.0-255.0-0.0","20098390","wem/bandit_single","A25D66AC4QUW2U","gain","4","","75","K","2","","0","0","1","0.1735363699","","false","218","0.3416605923","","main_expt","0.194438436","","0.1735363699","","0.03503126556","","","","","","",""
"642","","bandit","294","949272","0.0-256.0-0.0","20098390","wem/bandit_single","A25D66AC4QUW2U","gain","4","","75","K","2","","1","0","0","0.2007391453","","false","219","0.3559276739","","main_expt","0.1883779435","","0.2007391453","","0.04555228435","","","","","","",""
"162","","bandit","295","951209","0.0-257.0-0.0","20098390","wem/bandit_single","A25D66AC4QUW2U","gain","4","","75","K","2","","1","0","0","0.2082644318","","false","220","0.3535435837","","main_expt","0.146052069","","0.2082644318","","0.03183460319","","","","","","",""
"110","","bandit","296","953100","0.0-258.0-0.0","20098390","wem/bandit_single","A25D66AC4QUW2U","gain","4","","75","K","2","","0","0","1","0.1821586712","","false","221","0.3418709783","","main_expt","0.1494285134","","0.1821586712","","0.05071015327","","","","","","",""
"734","","bandit","297","955618","0.0-259.0-0.0","20098390","wem/bandit_single","A25D66AC4QUW2U","gain","4","","75","K","2","","0","0","1","0.2158533928","","false","222","0.3004905908","","main_expt","0.182387278","","0.2158533928","","0.04027023507","","","","","","",""
"326","","bandit","298","957742","0.0-260.0-0.0","20098390","wem/bandit_single","A25D66AC4QUW2U","gain","4","","75","K","2","","0","0","1","0.1832968935","","false","223","0.3691689592","","main_expt","0.198140534","","0.1832968935","","0.05247893246","","","","","","",""
"41","","bandit","299","959585","0.0-261.0-0.0","20098390","wem/bandit_single","A25D66AC4QUW2U","gain","4","","75","K","2","","0","0","1","0.1701073256","","false","224","0.2915556832","","main_expt","0.1957066115","","0.1701073256","","0.06352932029","","","","","","",""
"134","","bandit","300","961502","0.0-262.0-0.0","20098390","wem/bandit_single","A25D66AC4QUW2U","gain","4","","75","K","2","","1","0","0","0.1599508429","","false","225","0.3175642321","","main_expt","0.2132826896","","0.1599508429","","0.04388745626","","","","","","",""
"347","","bandit","301","963633","0.0-263.0-0.0","20098390","wem/bandit_single","A25D66AC4QUW2U","gain","4","","75","K","2","","0","0","1","0.1801289829","","false","226","0.2803716623","","main_expt","0.2679811769","","0.1801289829","","0.0536624769","","","","","","",""
"48","","bandit","302","965480","0.0-264.0-0.0","20098390","wem/bandit_single","A25D66AC4QUW2U","gain","4","","75","K","2","","0","0","1","0.1920788888","","false","227","0.2506224893","","main_expt","0.2101601544","","0.1920788888","","0.07211167966","","","","","","",""
"53","","bandit","303","967342","0.0-265.0-0.0","20098390","wem/bandit_single","A25D66AC4QUW2U","gain","4","","75","K","2","","0","0","1","0.1540575712","","false","228","0.2890404278","","main_expt","0.1808571688","","0.1540575712","","0.04486621846","","","","","","",""
"298","","bandit","304","969426","0.0-266.0-0.0","20098390","wem/bandit_single","A25D66AC4QUW2U","gain","4","","75","K","2","","0","0","1","0.161449161","","false","229","0.2746035793","","main_expt","0.1132309001","","0.161449161","","0.05387953984","","","","","","",""
"115","","bandit","305","971333","0.0-267.0-0.0","20098390","wem/bandit_single","A25D66AC4QUW2U","gain","4","","75","K","2","","0","0","1","0.1413021421","","false","230","0.282726532","","main_expt","0.1450818377","","0.1413021421","","0.03848872117","","","","","","",""
"16315","","bandit","306","989435","0.0-268.0-0.0","20098390","wem/bandit_single","A25D66AC4QUW2U","gain","4","","76","L","3","","0","0","1","0.04669383004","","false","231","0.3472256411","","main_expt","0.1077137685","","0.1745796094","","0.04669383004","","","","","","",""
"147","","bandit","307","991406","0.0-269.0-0.0","20098390","wem/bandit_single","A25D66AC4QUW2U","gain","4","","76","L","3","","0","0","1","0.03395804074","","false","232","0.3994934702","","main_expt","0.06427161289","","0.1680880834","","0.03395804074","","","","","","",""
"86","","bandit","308","993330","0.0-270.0-0.0","20098390","wem/bandit_single","A25D66AC4QUW2U","gain","4","","76","L","3","","0","0","1","0.05150109453","","false","233","0.4029083043","","main_expt","0.1060089469","","0.213250795","","0.05150109453","","","","","","",""
"26","","bandit","309","995138","0.0-271.0-0.0","20098390","wem/bandit_single","A25D66AC4QUW2U","gain","4","","76","L","3","","0","0","1","0.06099663442","","false","234","0.4486287737","","main_expt","0.1117154146","","0.221091899","","0.06099663442","","","","","","",""
"114","","bandit","310","997263","0.0-272.0-0.0","20098390","wem/bandit_single","A25D66AC4QUW2U","gain","4","","76","L","3","","0","0","1","0.05202127711","","false","235","0.4561120354","","main_expt","0.1276115887","","0.2688923835","","0.05202127711","","","","","","",""
"31","","bandit","311","999141","0.0-273.0-0.0","20098390","wem/bandit_single","A25D66AC4QUW2U","gain","4","","75","K","2","","0","0","1","0.2323123402","","false","236","0.4375102443","","main_expt","0.1786916187","","0.2323123402","","0.07001303924","","","","","","",""
"126","","bandit","312","1001063","0.0-274.0-0.0","20098390","wem/bandit_single","A25D66AC4QUW2U","gain","4","","75","K","2","","0","0","1","0.174764536","","false","237","0.4582573195","","main_expt","0.1896980961","","0.174764536","","0.07602679398","","","","","","",""
"223","","bandit","313","1003065","0.0-275.0-0.0","20098390","wem/bandit_single","A25D66AC4QUW2U","gain","4","","75","K","2","","0","0","1","0.1654919337","","false","238","0.4463811869","","main_expt","0.2205101014","","0.1654919337","","0.08775462142","","","","","","",""
"222","","bandit","314","1005076","0.0-276.0-0.0","20098390","wem/bandit_single","A25D66AC4QUW2U","gain","4","","75","K","2","","1","0","0","0.2402574844","","false","239","0.4507479662","","main_expt","0.2661717939","","0.2402574844","","0.06721086637","","","","","","",""
"282","","bandit","315","1007142","0.0-277.0-0.0","20098390","wem/bandit_single","A25D66AC4QUW2U","gain","4","","75","K","2","","0","0","1","0.2445968751","","false","240","0.4504038859","","main_expt","0.1972661282","","0.2445968751","","0.07433064979","","","","","","",""
"26","","bandit","316","1009228","0.0-278.0-0.0","20098390","wem/bandit_single","A25D66AC4QUW2U","gain","4","","75","K","2","","0","0","1","0.2708632627","","false","241","0.4346931185","","main_expt","0.1868253343","","0.2708632627","","0.08919714094","","","","","","",""
"117","","bandit","317","1011160","0.0-279.0-0.0","20098390","wem/bandit_single","A25D66AC4QUW2U","gain","4","","75","K","2","","1","0","0","0.2047807489","","false","242","0.3898892773","","main_expt","0.1649449253","","0.2047807489","","0.06159770715","","","","","","",""
"363","","bandit","318","1013302","0.0-280.0-0.0","20098390","wem/bandit_single","A25D66AC4QUW2U","gain","4","","75","K","2","","1","0","0","0.222122474","","false","243","0.4033463229","","main_expt","0.184368772","","0.222122474","","0.05299296545","","","","","","",""
"75","","bandit","319","1015164","0.0-281.0-0.0","20098390","wem/bandit_single","A25D66AC4QUW2U","gain","4","","75","K","2","","1","0","0","0.2425992204","","false","244","0.4096532456","","main_expt","0.2121467569","","0.2425992204","","0.06275569833","","","","","","",""
"60","","bandit","320","1017024","0.0-282.0-0.0","20098390","wem/bandit_single","A25D66AC4QUW2U","gain","4","","75","K","2","","0","0","1","0.2173978931","","false","245","0.3779527256","","main_expt","0.1894702338","","0.2173978931","","0.06673215917","","","","","","",""
"159","","bandit","321","1018974","0.0-283.0-0.0","20098390","wem/bandit_single","A25D66AC4QUW2U","gain","4","","75","K","2","","0","0","1","0.2218069129","","false","246","0.3953318503","","main_expt","0.2018459735","","0.2218069129","","0.06500670021","","","","","","",""
"267","","bandit","322","1021337","0.0-284.0-0.0","20098390","wem/bandit_single","A25D66AC4QUW2U","gain","4","","75","K","2","","0","0","1","0.1888628326","","false","247","0.4287890539","","main_expt","0.1986179994","","0.1888628326","","0.07271559664","","","","","","",""
"341","","bandit","323","1023522","0.0-285.0-0.0","20098390","wem/bandit_single","A25D66AC4QUW2U","gain","4","","75","K","2","","0","0","1","0.1722509531","","false","248","0.4104310255","","main_expt","0.1299779064","","0.1722509531","","0.09654775784","","","","","","",""
"64","","bandit","324","1025373","0.0-286.0-0.0","20098390","wem/bandit_single","A25D66AC4QUW2U","gain","4","","75","K","2","","0","0","1","0.2541205998","","false","249","0.4116337798","","main_expt","0.1590650881","","0.2541205998","","0.1179039307","","","","","","",""
"180","","bandit","325","1027406","0.0-287.0-0.0","20098390","wem/bandit_single","A25D66AC4QUW2U","gain","4","","75","K","2","","0","0","1","0.2664885101","","false","250","0.426505214","","main_expt","0.1213614167","","0.2664885101","","0.1265890049","","","","","","",""
"82","","bandit","326","1029304","0.0-288.0-0.0","20098390","wem/bandit_single","A25D66AC4QUW2U","gain","4","","75","K","2","","1","0","0","0.2519669898","","false","251","0.3949293487","","main_expt","0.1099334476","","0.2519669898","","0.1039398773","","","","","","",""
"137","","bandit","327","1031230","0.0-289.0-0.0","20098390","wem/bandit_single","A25D66AC4QUW2U","gain","4","","75","K","2","","1","0","0","0.2932098873","","false","252","0.3913077142","","main_expt","0.1087011898","","0.2932098873","","0.107940897","","","","","","",""
"190","","bandit","328","1033392","0.0-290.0-0.0","20098390","wem/bandit_single","A25D66AC4QUW2U","gain","4","","75","K","2","","1","0","0","0.3179249839","","false","253","0.3648650894","","main_expt","0.09397011719","","0.3179249839","","0.1136461566","","","","","","",""
"572","","bandit","329","1035770","0.0-291.0-0.0","20098390","wem/bandit_single","A25D66AC4QUW2U","gain","4","","75","K","2","","0","0","1","0.2908620441","","false","254","0.3452883024","","main_expt","0.08474648857","","0.2908620441","","0.1374631792","","","","","","",""
"100","","bandit","330","1037676","0.0-292.0-0.0","20098390","wem/bandit_single","A25D66AC4QUW2U","gain","4","","75","K","2","","0","0","1","0.3067265453","","false","255","0.2943306686","","main_expt","0.1025854271","","0.3067265453","","0.1453945637","","","","","","",""
"124","","bandit","331","1039583","0.0-293.0-0.0","20098390","wem/bandit_single","A25D66AC4QUW2U","gain","4","","75","K","2","","0","0","1","0.3133222149","","false","256","0.3225000795","","main_expt","0.08686152536","","0.3133222149","","0.1543600678","","","","","","",""
"178","","bandit","332","1041550","0.0-294.0-0.0","20098390","wem/bandit_single","A25D66AC4QUW2U","gain","4","","75","K","2","","0","0","1","0.3194106209","","false","257","0.3199750271","","main_expt","0.08667022303","","0.3194106209","","0.107160473","","","","","","",""
"119","","bandit","333","1043500","0.0-295.0-0.0","20098390","wem/bandit_single","A25D66AC4QUW2U","gain","4","","75","K","2","","1","0","0","0.35032938","","false","258","0.355105101","","main_expt","0.1158580788","","0.35032938","","0.0567043194","","","","","","",""
"385","","bandit","334","1046034","0.0-296.0-0.0","20098390","wem/bandit_single","A25D66AC4QUW2U","gain","4","","75","K","2","","1","0","0","0.3856615787","","false","259","0.3566572827","","main_expt","0.08241329339","","0.3856615787","","0.05418204449","","","","","","",""
"70","","bandit","335","1047902","0.0-297.0-0.0","20098390","wem/bandit_single","A25D66AC4QUW2U","gain","4","","75","K","2","","0","0","1","0.3977147975","","false","260","0.3492833521","","main_expt","0.09346186364","","0.3977147975","","0.0423658587","","","","","","",""
"172","","bandit","336","1050205","0.0-298.0-0.0","20098390","wem/bandit_single","A25D66AC4QUW2U","gain","4","","75","K","2","","0","0","1","0.4011116255","","false","261","0.3406934897","","main_expt","0.07434745577","","0.4011116255","","0.08097208102","","","","","","",""
"172","","bandit","337","1052175","0.0-299.0-0.0","20098390","wem/bandit_single","A25D66AC4QUW2U","gain","4","","75","K","2","","0","0","1","0.4149706566","","false","262","0.3604065233","","main_expt","0.1177047137","","0.4149706566","","0.05731993864","","","","","","",""
"253","","bandit","338","1054215","0.0-300.0-0.0","20098390","wem/bandit_single","A25D66AC4QUW2U","gain","4","","75","K","2","","0","0","1","0.4476629791","","false","263","0.3584147688","","main_expt","0.09530987449","","0.4476629791","","0.07314079116","","","","","","",""
"635","","bandit","339","1056637","0.0-301.0-0.0","20098390","wem/bandit_single","A25D66AC4QUW2U","gain","4","","75","K","2","","0","0","1","0.4640453953","","false","264","0.3723043834","","main_expt","0.07595610255","","0.4640453953","","0.08382102311","","","","","","",""
"185","","bandit","340","1058634","0.0-302.0-0.0","20098390","wem/bandit_single","A25D66AC4QUW2U","gain","4","","76","L","3","","0","0","1","0.1065624759","","false","265","0.316280577","","main_expt","0.08850347459","","0.4465377191","","0.1065624759","","","","","","",""
"262","","bandit","341","1060689","0.0-303.0-0.0","20098390","wem/bandit_single","A25D66AC4QUW2U","gain","4","","76","L","3","","0","0","1","0.1253885588","","false","266","0.269287162","","main_expt","0.1215706641","","0.4183068553","","0.1253885588","","","","","","",""
"94","","bandit","342","1062586","0.0-304.0-0.0","20098390","wem/bandit_single","A25D66AC4QUW2U","gain","4","","76","L","3","","0","0","1","0.09016252172","","false","267","0.2280314931","","main_expt","0.1841144129","","0.4268145795","","0.09016252172","","","","","","",""
"131","","bandit","343","1064501","0.0-305.0-0.0","20098390","wem/bandit_single","A25D66AC4QUW2U","gain","4","","76","L","3","","1","0","0","0.08700052181","","false","268","0.2243604643","","main_expt","0.1409141681","","0.4319202891","","0.08700052181","","","","","","",""
"61","","bandit","344","1066364","0.0-306.0-0.0","20098390","wem/bandit_single","A25D66AC4QUW2U","gain","4","","76","L","3","","0","0","1","0.09500676271","","false","269","0.2334807581","","main_expt","0.1011197226","","0.4493038861","","0.09500676271","","","","","","",""
"469","","bandit","345","1068622","0.0-307.0-0.0","20098390","wem/bandit_single","A25D66AC4QUW2U","gain","4","","76","L","3","","0","0","1","0.07607499825","","false","270","0.2376518603","","main_expt","0.118556502","","0.443059266","","0.07607499825","","","","","","",""
"25","","bandit","346","1070432","0.0-308.0-0.0","20098390","wem/bandit_single","A25D66AC4QUW2U","gain","4","","76","L","3","","0","0","1","0.08946946819","","false","271","0.2139372972","","main_expt","0.131750931","","0.4362671961","","0.08946946819","","","","","","",""
"199","","bandit","347","1072438","0.0-309.0-0.0","20098390","wem/bandit_single","A25D66AC4QUW2U","gain","4","","76","L","3","","0","0","1","0.108288805","","false","272","0.157688628","","main_expt","0.174678733","","0.4452199348","","0.108288805","","","","","","",""
"94","","bandit","348","1074342","0.0-310.0-0.0","20098390","wem/bandit_single","A25D66AC4QUW2U","gain","4","","76","L","3","","0","0","1","0.105491008","","false","273","0.271098703","","main_expt","0.1730415972","","0.454652927","","0.105491008","","","","","","",""
"35","","bandit","349","1076172","0.0-311.0-0.0","20098390","wem/bandit_single","A25D66AC4QUW2U","gain","4","","76","L","3","","0","0","1","0.1059149547","","false","274","0.2778056479","","main_expt","0.1520576313","","0.4646374989","","0.1059149547","","","","","","",""
"200","","bandit","350","1078185","0.0-312.0-0.0","20098390","wem/bandit_single","A25D66AC4QUW2U","gain","4","","76","L","3","","0","0","1","0.09894283875","","false","275","0.2698457611","","main_expt","0.1007060326","","0.4535579815","","0.09894283875","","","","","","",""
"166","","bandit","351","1080283","0.0-313.0-0.0","20098390","wem/bandit_single","A25D66AC4QUW2U","gain","4","","76","L","3","","0","0","1","0.07695295732","","false","276","0.2774836338","","main_expt","0.08844777519","","0.4319407295","","0.07695295732","","","","","","",""
"45","","bandit","352","1082116","0.0-314.0-0.0","20098390","wem/bandit_single","A25D66AC4QUW2U","gain","4","","76","L","3","","0","0","1","0.0896712608","","false","277","0.3222794015","","main_expt","0.1315613084","","0.4475260374","","0.0896712608","","","","","","",""
"132","","bandit","353","1084048","0.0-315.0-0.0","20098390","wem/bandit_single","A25D66AC4QUW2U","gain","4","","76","L","3","","0","0","1","0.1343695578","","false","278","0.3122447371","","main_expt","0.1508492864","","0.4553849104","","0.1343695578","","","","","","",""
"150","","bandit","354","1086224","0.0-316.0-0.0","20098390","wem/bandit_single","A25D66AC4QUW2U","gain","4","","76","L","3","","0","0","1","0.1106050404","","false","279","0.2934764685","","main_expt","0.1181182825","","0.4621871954","","0.1106050404","","","","","","",""
"434","","bandit","355","1088463","0.0-317.0-0.0","20098390","wem/bandit_single","A25D66AC4QUW2U","gain","4","","76","L","3","","0","0","1","0.114105974","","false","280","0.290984208","","main_expt","0.1244803533","","0.4482597109","","0.114105974","","","","","","",""
"151","","bandit","356","1090418","0.0-318.0-0.0","20098390","wem/bandit_single","A25D66AC4QUW2U","gain","4","","76","L","3","","0","0","1","0.1246337516","","false","281","0.2974260948","","main_expt","0.105821284","","0.4347423019","","0.1246337516","","","","","","",""
"144","","bandit","357","1092422","0.0-319.0-0.0","20098390","wem/bandit_single","A25D66AC4QUW2U","gain","4","","76","L","3","","0","0","1","0.079988156","","false","282","0.2972171025","","main_expt","0.1562468179","","0.4583393623","","0.079988156","","","","","","",""
"106","","bandit","358","1094322","0.0-320.0-0.0","20098390","wem/bandit_single","A25D66AC4QUW2U","gain","4","","76","L","3","","0","0","1","0.06901380195","","false","283","0.2821487798","","main_expt","0.1478322318","","0.4497532375","","0.06901380195","","","","","","",""
"486","","bandit","359","1096601","0.0-321.0-0.0","20098390","wem/bandit_single","A25D66AC4QUW2U","gain","4","","76","L","3","","0","0","1","0.05901051183","","false","284","0.2739939459","","main_expt","0.1371678423","","0.4312811421","","0.05901051183","","","","","","",""
"129","","bandit","360","1098539","0.0-322.0-0.0","20098390","wem/bandit_single","A25D66AC4QUW2U","gain","4","","76","L","3","","0","0","1","0.1126944794","","false","285","0.2251097973","","main_expt","0.12762277","","0.4599346403","","0.1126944794","","","","","","",""
"92","","bandit","361","1100427","0.0-323.0-0.0","20098390","wem/bandit_single","A25D66AC4QUW2U","gain","4","","76","L","3","","0","0","1","0.09646131279","","false","286","0.2124690726","","main_expt","0.1587978561","","0.4588450488","","0.09646131279","","","","","","",""
"156","","bandit","362","1102386","0.0-324.0-0.0","20098390","wem/bandit_single","A25D66AC4QUW2U","gain","4","","76","L","3","","1","0","0","0.0795853072","","false","287","0.2311163105","","main_expt","0.1262084743","","0.4684539465","","0.0795853072","","","","","","",""
"244","","bandit","363","1104428","0.0-325.0-0.0","20098390","wem/bandit_single","A25D66AC4QUW2U","gain","4","","76","L","3","","0","0","1","0.07210460151","","false","288","0.2178761709","","main_expt","0.08849331384","","0.4555823871","","0.07210460151","","","","","","",""
"1","","bandit","364","1106673","0.0-326.0-0.0","20098390","wem/bandit_single","A25D66AC4QUW2U","gain","4","","76","L","3","","0","0","1","0.08807043944","","false","289","0.2656120211","","main_expt","0.1082793638","","0.4779982095","","0.08807043944","","","","","","",""
"22886","","bandit","365","1131356","0.0-327.0-0.0","20098390","wem/bandit_single","A25D66AC4QUW2U","gain","4","","76","L","3","","0","0","1","0.09097769709","","false","290","0.2756957417","","main_expt","0.1591187351","","0.4806691972","","0.09097769709","","","","","","",""
"638","","bandit","366","1134253","0.0-328.0-0.0","20098390","wem/bandit_single","A25D66AC4QUW2U","gain","4","","76","L","3","","0","0","1","0.1486720085","","false","291","0.3111580235","","main_expt","0.1766493085","","0.4856322508","","0.1486720085","","","","","","",""
"144","","bandit","367","1136192","0.0-329.0-0.0","20098390","wem/bandit_single","A25D66AC4QUW2U","gain","4","","76","L","3","","0","0","1","0.166368556","","false","292","0.3019137931","","main_expt","0.1303677554","","0.4905538215","","0.166368556","","","","","","",""
"631","","bandit","368","1138619","0.0-330.0-0.0","20098390","wem/bandit_single","A25D66AC4QUW2U","gain","4","","76","L","3","","0","0","1","0.1516979355","","false","293","0.2930542664","","main_expt","0.1553518032","","0.4915741327","","0.1516979355","","","","","","",""
"1407","","bandit","369","1141833","0.0-331.0-0.0","20098390","wem/bandit_single","A25D66AC4QUW2U","gain","4","","72","H","0","img/none_selected.jpg","0","0","1","0.294566814","","false","294","0.294566814","","main_expt","0.1586445557","","0.4854109815","","0.142642289","","","","","","",""
"214","","bandit","370","1143850","0.0-332.0-0.0","20098390","wem/bandit_single","A25D66AC4QUW2U","gain","4","","72","H","0","img/none_selected.jpg","0","0","1","0.2590601899","","false","295","0.2590601899","","main_expt","0.1474370852","","0.4737464351","","0.1038045902","","","","","","",""
"62","","bandit","371","1146202","0.0-333.0-0.0","20098390","wem/bandit_single","A25D66AC4QUW2U","gain","4","","72","H","0","img/none_selected.jpg","0","0","1","0.260130188","","false","296","0.260130188","","main_expt","0.1281429101","","0.4752126994","","0.1055366566","","","","","","",""
"413","","bandit","372","1148399","0.0-334.0-0.0","20098390","wem/bandit_single","A25D66AC4QUW2U","gain","4","","72","H","0","img/none_selected.jpg","1","0","0","0.243487995","","false","297","0.243487995","","main_expt","0.1486346553","","0.47087989","","0.07292146603","","","","","","",""
"155","","bandit","373","1150372","0.0-335.0-0.0","20098390","wem/bandit_single","A25D66AC4QUW2U","gain","4","","72","H","0","img/none_selected.jpg","1","0","0","0.2746908113","","false","298","0.2746908113","","main_expt","0.154412059","","0.454436629","","0.07361350609","","","","","","",""
"556","","bandit","374","1152723","0.0-336.0-0.0","20098390","wem/bandit_single","A25D66AC4QUW2U","gain","4","","72","H","0","img/none_selected.jpg","0","0","1","0.2709745525","","false","299","0.2709745525","","main_expt","0.1773434797","","0.4553067608","","0.06838735966","","","","","","",""
"149","","bandit","375","1154694","0.0-337.0-0.0","20098390","wem/bandit_single","A25D66AC4QUW2U","gain","4","","72","H","0","img/none_selected.jpg","0","0","1","0.2661493254","","false","300","0.2661493254","","main_expt","0.2126897005","","0.4529526291","","0.09958756775","","","","","","",""
