"rt","responses","trial_type","trial_index","time_elapsed","internal_node_id","subjID","study","MID","cond","drift","key_press","respCharCode","respKey","respChoiceNum","respChoice","gems","bombs","no_reward","GemPrChosen","BombPrChosen","practice","trial_counter","WinPr_0","LosePr_0","trial_label","WinPr_1","LosePr_1","WinPr_2","LosePr_2","WinPr_3","LosePr_3","Q0","Q1","Q2","gender","age","ethnicity"
"3880","{""Q0"":""APLBF6JY2C1QZ""}","survey-text","0","3888","0.0-0.0","21382061","wem/bandit_single","APLBF6JY2C1QZ","gain","5","","","","","","","","","","","","","","","","","","","","","","","","","","",""
"1513","","text","1","6409","0.0-1.0","21382061","wem/bandit_single","APLBF6JY2C1QZ","gain","5","32","","","","","","","","","","","","","","","","","","","","","","","","","",""
"553","","text","2","6967","0.0-2.0","21382061","wem/bandit_single","APLBF6JY2C1QZ","gain","5","32","","","","","","","","","","","","","","","","","","","","","","","","","",""
"405","","text","3","7375","0.0-3.0","21382061","wem/bandit_single","APLBF6JY2C1QZ","gain","5","32","","","","","","","","","","","","","","","","","","","","","","","","","",""
"325","","text","4","7702","0.0-4.0","21382061","wem/bandit_single","APLBF6JY2C1QZ","gain","5","32","","","","","","","","","","","","","","","","","","","","","","","","","",""
"853","","text","5","8558","0.0-5.0","21382061","wem/bandit_single","APLBF6JY2C1QZ","gain","5","32","","","","","","","","","","","","","","","","","","","","","","","","","",""
"565","","text","6","9126","0.0-6.0","21382061","wem/bandit_single","APLBF6JY2C1QZ","gain","5","32","","","","","","","","","","","","","","","","","","","","","","","","","",""
"3733","","text","7","12862","0.0-7.0","21382061","wem/bandit_single","APLBF6JY2C1QZ","gain","5","32","","","","","","","","","","","","","","","","","","","","","","","","","",""
"2725","","text","8","15590","0.0-8.0","21382061","wem/bandit_single","APLBF6JY2C1QZ","gain","5","32","","","","","","","","","","","","","","","","","","","","","","","","","",""
"1439","","text","9","17031","0.0-9.0","21382061","wem/bandit_single","APLBF6JY2C1QZ","gain","5","32","","","","","","","","","","","","","","","","","","","","","","","","","",""
"25004","","text","10","42038","0.0-10.0","21382061","wem/bandit_single","APLBF6JY2C1QZ","gain","5","32","","","","","","","","","","","","","","","","","","","","","","","","","",""
"5388","","text","11","47431","0.0-11.0","21382061","wem/bandit_single","APLBF6JY2C1QZ","gain","5","32","","","","","","","","","","","","","","","","","","","","","","","","","",""
"1605","","bandit","12","50552","0.0-12.0-0.0","21382061","wem/bandit_single","APLBF6JY2C1QZ","gain","5","","74","J","0","img/none_selected_demo.jpg","0","0","1","0","0","true","0","0","0","","","","","","","","","","","","",""
"884","","bandit","13","53196","0.0-13.0-0.0","21382061","wem/bandit_single","APLBF6JY2C1QZ","gain","5","","75","K","0","img/none_selected_demo.jpg","0","0","1","0","0","true","0","0","0","","","","","","","","","","","","",""
"1098","","text","14","54550","0.0-14.0","21382061","wem/bandit_single","APLBF6JY2C1QZ","gain","5","32","","","","","","","","","","","","","","","","","","","","","","","","","",""
"5181","","text","15","59735","0.0-15.0","21382061","wem/bandit_single","APLBF6JY2C1QZ","gain","5","32","","","","","","","","","","","","","","","","","","","","","","","","","",""
"2618","","text","16","62357","0.0-16.0","21382061","wem/bandit_single","APLBF6JY2C1QZ","gain","5","32","","","","","","","","","","","","","","","","","","","","","","","","","",""
"2693","","text","17","65053","0.0-17.0","21382061","wem/bandit_single","APLBF6JY2C1QZ","gain","5","32","","","","","","","","","","","","","","","","","","","","","","","","","",""
"1161","","bandit","18","67725","0.0-18.0-0.0","21382061","wem/bandit_single","APLBF6JY2C1QZ","gain","5","","74","J","0","img/none_selected_demo.jpg","1","0","0","0.8","0","true","0","0.8","0","80_20_practice","0.2","0","","","","","","","","","",""
"760","","bandit","19","70245","0.0-18.0-1.0","21382061","wem/bandit_single","APLBF6JY2C1QZ","gain","5","","74","J","0","img/none_selected_demo.jpg","0","0","1","0.8","0","true","0","0.8","0","80_20_practice","0.2","0","","","","","","","","","",""
"152","","bandit","20","72157","0.0-18.0-2.0","21382061","wem/bandit_single","APLBF6JY2C1QZ","gain","5","","74","J","0","img/none_selected_demo.jpg","1","0","0","0.8","0","true","0","0.8","0","80_20_practice","0.2","0","","","","","","","","","",""
"135","","bandit","21","74051","0.0-18.0-3.0","21382061","wem/bandit_single","APLBF6JY2C1QZ","gain","5","","75","K","1","","0","0","1","0.2","0","true","0","0.8","0","80_20_practice","0.2","0","","","","","","","","","",""
"102","","bandit","22","75917","0.0-18.0-4.0","21382061","wem/bandit_single","APLBF6JY2C1QZ","gain","5","","75","K","1","","0","0","1","0.2","0","true","0","0.8","0","80_20_practice","0.2","0","","","","","","","","","",""
"86","","bandit","23","77764","0.0-18.0-5.0","21382061","wem/bandit_single","APLBF6JY2C1QZ","gain","5","","75","K","1","","0","0","1","0.2","0","true","0","0.8","0","80_20_practice","0.2","0","","","","","","","","","",""
"215","","bandit","24","79740","0.0-18.0-6.0","21382061","wem/bandit_single","APLBF6JY2C1QZ","gain","5","","74","J","0","img/none_selected_demo.jpg","1","0","0","0.8","0","true","0","0.8","0","80_20_practice","0.2","0","","","","","","","","","",""
"90","","bandit","25","81586","0.0-18.0-7.0","21382061","wem/bandit_single","APLBF6JY2C1QZ","gain","5","","74","J","0","img/none_selected_demo.jpg","0","0","1","0.8","0","true","0","0.8","0","80_20_practice","0.2","0","","","","","","","","","",""
"114","","bandit","26","83459","0.0-18.0-8.0","21382061","wem/bandit_single","APLBF6JY2C1QZ","gain","5","","74","J","0","img/none_selected_demo.jpg","1","0","0","0.8","0","true","0","0.8","0","80_20_practice","0.2","0","","","","","","","","","",""
"160","","bandit","27","85380","0.0-18.0-9.0","21382061","wem/bandit_single","APLBF6JY2C1QZ","gain","5","","74","J","0","img/none_selected_demo.jpg","1","0","0","0.8","0","true","0","0.8","0","80_20_practice","0.2","0","","","","","","","","","",""
"2496","","bandit","28","89637","0.0-18.0-10.0","21382061","wem/bandit_single","APLBF6JY2C1QZ","gain","5","","74","J","0","img/none_selected_demo.jpg","1","0","0","0.8","0","true","0","0.8","0","80_20_practice","0.2","0","","","","","","","","","",""
"77","","bandit","29","91477","0.0-18.0-11.0","21382061","wem/bandit_single","APLBF6JY2C1QZ","gain","5","","74","J","0","img/none_selected_demo.jpg","1","0","0","0.8","0","true","0","0.8","0","80_20_practice","0.2","0","","","","","","","","","",""
"55","","bandit","30","93296","0.0-18.0-12.0","21382061","wem/bandit_single","APLBF6JY2C1QZ","gain","5","","74","J","0","img/none_selected_demo.jpg","1","0","0","0.8","0","true","0","0.8","0","80_20_practice","0.2","0","","","","","","","","","",""
"31","","bandit","31","95085","0.0-18.0-13.0","21382061","wem/bandit_single","APLBF6JY2C1QZ","gain","5","","74","J","0","img/none_selected_demo.jpg","1","0","0","0.8","0","true","0","0.8","0","80_20_practice","0.2","0","","","","","","","","","",""
"95","","bandit","32","96941","0.0-18.0-14.0","21382061","wem/bandit_single","APLBF6JY2C1QZ","gain","5","","75","K","1","","0","0","1","0.2","0","true","0","0.8","0","80_20_practice","0.2","0","","","","","","","","","",""
"127","","bandit","33","98829","0.0-18.0-15.0","21382061","wem/bandit_single","APLBF6JY2C1QZ","gain","5","","75","K","1","","0","0","1","0.2","0","true","0","0.8","0","80_20_practice","0.2","0","","","","","","","","","",""
"64","","bandit","34","100653","0.0-18.0-16.0","21382061","wem/bandit_single","APLBF6JY2C1QZ","gain","5","","75","K","1","","0","0","1","0.2","0","true","0","0.8","0","80_20_practice","0.2","0","","","","","","","","","",""
"40","","bandit","35","102453","0.0-18.0-17.0","21382061","wem/bandit_single","APLBF6JY2C1QZ","gain","5","","75","K","1","","0","0","1","0.2","0","true","0","0.8","0","80_20_practice","0.2","0","","","","","","","","","",""
"39","","bandit","36","104253","0.0-18.0-18.0","21382061","wem/bandit_single","APLBF6JY2C1QZ","gain","5","","75","K","1","","0","0","1","0.2","0","true","0","0.8","0","80_20_practice","0.2","0","","","","","","","","","",""
"57","","bandit","37","106070","0.0-18.0-19.0","21382061","wem/bandit_single","APLBF6JY2C1QZ","gain","5","","75","K","1","","1","0","0","0.2","0","true","0","0.8","0","80_20_practice","0.2","0","","","","","","","","","",""
"3040","","text","38","109365","0.0-19.0","21382061","wem/bandit_single","APLBF6JY2C1QZ","gain","5","32","","","","","","","","","","","","","","","","","","","","","","","","","",""
"1179","","bandit","39","112054","0.0-20.0-0.0","21382061","wem/bandit_single","APLBF6JY2C1QZ","gain","5","","74","J","0","img/none_selected_demo.jpg","0","0","1","0","0","true","0","0","0","","0","0","","","","","","","","","",""
"6273","","text","40","118583","0.0-21.0","21382061","wem/bandit_single","APLBF6JY2C1QZ","gain","5","32","","","","","","","","","","","","","","","","","","","","","","","","","",""
"2026","","text","41","120613","0.0-22.0","21382061","wem/bandit_single","APLBF6JY2C1QZ","gain","5","32","","","","","","","","","","","","","","","","","","","","","","","","","",""
"2572","","text","42","123189","0.0-23.0","21382061","wem/bandit_single","APLBF6JY2C1QZ","gain","5","32","","","","","","","","","","","","","","","","","","","","","","","","","",""
"1892","","text","43","125085","0.0-24.0","21382061","wem/bandit_single","APLBF6JY2C1QZ","gain","5","32","","","","","","","","","","","","","","","","","","","","","","","","","",""
"4374","","text","44","129461","0.0-25.0","21382061","wem/bandit_single","APLBF6JY2C1QZ","gain","5","32","","","","","","","","","","","","","","","","","","","","","","","","","",""
"2102","","text","45","131565","0.0-26.0","21382061","wem/bandit_single","APLBF6JY2C1QZ","gain","5","32","","","","","","","","","","","","","","","","","","","","","","","","","",""
"10630","","text","46","142199","0.0-27.0","21382061","wem/bandit_single","APLBF6JY2C1QZ","gain","5","32","","","","","","","","","","","","","","","","","","","","","","","","","",""
"2483","","text","47","144686","0.0-28.0","21382061","wem/bandit_single","APLBF6JY2C1QZ","gain","5","32","","","","","","","","","","","","","","","","","","","","","","","","","",""
"4080","","text","48","148774","0.0-29.0","21382061","wem/bandit_single","APLBF6JY2C1QZ","gain","5","32","","","","","","","","","","","","","","","","","","","","","","","","","",""
"46910","","text","49","195688","0.0-30.0","21382061","wem/bandit_single","APLBF6JY2C1QZ","gain","5","32","","","","","","","","","","","","","","","","","","","","","","","","","",""
"2930","","text","50","198621","0.0-31.0","21382061","wem/bandit_single","APLBF6JY2C1QZ","gain","5","32","","","","","","","","","","","","","","","","","","","","","","","","","",""
"563","","bandit","51","200692","0.0-32.0-0.0","21382061","wem/bandit_single","APLBF6JY2C1QZ","gain","5","","72","H","0","img/none_selected.jpg","1","0","0","0.8","0","true","0","0.8","0","full_practice","0.2","0","0.6","0","0.2","0","","","","","",""
"112","","bandit","52","202564","0.0-32.0-1.0","21382061","wem/bandit_single","APLBF6JY2C1QZ","gain","5","","72","H","0","img/none_selected.jpg","1","0","0","0.8","0","true","0","0.8","0","full_practice","0.2","0","0.6","0","0.2","0","","","","","",""
"203","","bandit","53","204535","0.0-32.0-2.0","21382061","wem/bandit_single","APLBF6JY2C1QZ","gain","5","","75","K","2","","1","0","0","0.6","0","true","0","0.8","0","full_practice","0.2","0","0.6","0","0.2","0","","","","","",""
"828","","bandit","54","207124","0.0-32.0-3.0","21382061","wem/bandit_single","APLBF6JY2C1QZ","gain","5","","74","J","1","","0","0","1","0.2","0","true","0","0.8","0","full_practice","0.2","0","0.6","0","0.2","0","","","","","",""
"1247","","bandit","55","210134","0.0-32.0-4.0","21382061","wem/bandit_single","APLBF6JY2C1QZ","gain","5","","75","K","2","","0","0","1","0.6","0","true","0","0.8","0","full_practice","0.2","0","0.6","0","0.2","0","","","","","",""
"126","","bandit","56","212020","0.0-32.0-5.0","21382061","wem/bandit_single","APLBF6JY2C1QZ","gain","5","","72","H","0","img/none_selected.jpg","1","0","0","0.8","0","true","0","0.8","0","full_practice","0.2","0","0.6","0","0.2","0","","","","","",""
"294","","bandit","57","214076","0.0-32.0-6.0","21382061","wem/bandit_single","APLBF6JY2C1QZ","gain","5","","72","H","0","img/none_selected.jpg","1","0","0","0.8","0","true","0","0.8","0","full_practice","0.2","0","0.6","0","0.2","0","","","","","",""
"129","","bandit","58","215964","0.0-32.0-7.0","21382061","wem/bandit_single","APLBF6JY2C1QZ","gain","5","","72","H","0","img/none_selected.jpg","1","0","0","0.8","0","true","0","0.8","0","full_practice","0.2","0","0.6","0","0.2","0","","","","","",""
"109","","bandit","59","217837","0.0-32.0-8.0","21382061","wem/bandit_single","APLBF6JY2C1QZ","gain","5","","74","J","1","","1","0","0","0.2","0","true","0","0.8","0","full_practice","0.2","0","0.6","0","0.2","0","","","","","",""
"123","","bandit","60","219723","0.0-32.0-9.0","21382061","wem/bandit_single","APLBF6JY2C1QZ","gain","5","","74","J","1","","0","0","1","0.2","0","true","0","0.8","0","full_practice","0.2","0","0.6","0","0.2","0","","","","","",""
"82","","bandit","61","221567","0.0-32.0-10.0","21382061","wem/bandit_single","APLBF6JY2C1QZ","gain","5","","75","K","2","","1","0","0","0.6","0","true","0","0.8","0","full_practice","0.2","0","0.6","0","0.2","0","","","","","",""
"291","","bandit","62","223620","0.0-32.0-11.0","21382061","wem/bandit_single","APLBF6JY2C1QZ","gain","5","","76","L","3","","0","0","1","0.2","0","true","0","0.8","0","full_practice","0.2","0","0.6","0","0.2","0","","","","","",""
"146","","bandit","63","225525","0.0-32.0-12.0","21382061","wem/bandit_single","APLBF6JY2C1QZ","gain","5","","76","L","3","","0","0","1","0.2","0","true","0","0.8","0","full_practice","0.2","0","0.6","0","0.2","0","","","","","",""
"109","","bandit","64","227397","0.0-32.0-13.0","21382061","wem/bandit_single","APLBF6JY2C1QZ","gain","5","","75","K","2","","0","0","1","0.6","0","true","0","0.8","0","full_practice","0.2","0","0.6","0","0.2","0","","","","","",""
"52","","bandit","65","229213","0.0-32.0-14.0","21382061","wem/bandit_single","APLBF6JY2C1QZ","gain","5","","74","J","1","","1","0","0","0.2","0","true","0","0.8","0","full_practice","0.2","0","0.6","0","0.2","0","","","","","",""
"10","","bandit","66","230991","0.0-32.0-15.0","21382061","wem/bandit_single","APLBF6JY2C1QZ","gain","5","","74","J","1","","0","0","1","0.2","0","true","0","0.8","0","full_practice","0.2","0","0.6","0","0.2","0","","","","","",""
"729","","bandit","67","233484","0.0-32.0-16.0","21382061","wem/bandit_single","APLBF6JY2C1QZ","gain","5","","72","H","0","img/none_selected.jpg","1","0","0","0.8","0","true","0","0.8","0","full_practice","0.2","0","0.6","0","0.2","0","","","","","",""
"35","","bandit","68","235287","0.0-32.0-17.0","21382061","wem/bandit_single","APLBF6JY2C1QZ","gain","5","","72","H","0","img/none_selected.jpg","1","0","0","0.8","0","true","0","0.8","0","full_practice","0.2","0","0.6","0","0.2","0","","","","","",""
"971","","bandit","69","238019","0.0-32.0-18.0","21382061","wem/bandit_single","APLBF6JY2C1QZ","gain","5","","72","H","0","img/none_selected.jpg","1","0","0","0.8","0","true","0","0.8","0","full_practice","0.2","0","0.6","0","0.2","0","","","","","",""
"67","","bandit","70","239851","0.0-32.0-19.0","21382061","wem/bandit_single","APLBF6JY2C1QZ","gain","5","","72","H","0","img/none_selected.jpg","0","0","1","0.8","0","true","0","0.8","0","full_practice","0.2","0","0.6","0","0.2","0","","","","","",""
"2249","","text","71","242366","0.0-33.0","21382061","wem/bandit_single","APLBF6JY2C1QZ","gain","5","32","","","","","","","","","","","","","","","","","","","","","","","","","",""
"12643","","text","72","256016","0.0-34.0","21382061","wem/bandit_single","APLBF6JY2C1QZ","gain","5","32","","","","","","","","","","","","","","","","","","","","","","","","","",""
"4686","","text","73","260708","0.0-35.0","21382061","wem/bandit_single","APLBF6JY2C1QZ","gain","5","32","","","","","","","","","","","","","","","","","","","","","","","","","",""
"4490","","text","74","265204","0.0-36.0","21382061","wem/bandit_single","APLBF6JY2C1QZ","gain","5","32","","","","","","","","","","","","","","","","","","","","","","","","","",""
"4324","","text","75","269534","0.0-37.0","21382061","wem/bandit_single","APLBF6JY2C1QZ","gain","5","32","","","","","","","","","","","","","","","","","","","","","","","","","",""
"1511","","bandit","76","272555","0.0-38.0-0.0","21382061","wem/bandit_single","APLBF6JY2C1QZ","gain","5","","72","H","0","img/none_selected.jpg","0","0","1","0.1478184891","","false","1","0.1478184891","","main_expt","0.3811303016","","0.4657241486","","0.04962883862","","","","","","",""
"91","","bandit","77","274403","0.0-39.0-0.0","21382061","wem/bandit_single","APLBF6JY2C1QZ","gain","5","","74","J","1","","1","0","0","0.350111504","","false","2","0.2081060842","","main_expt","0.350111504","","0.4660849779","","0.03569255153","","","","","","",""
"14","","bandit","78","276179","0.0-40.0-0.0","21382061","wem/bandit_single","APLBF6JY2C1QZ","gain","5","","74","J","1","","0","0","1","0.3436486883","","false","3","0.1722167697","","main_expt","0.3436486883","","0.4687539887","","0.02901958263","","","","","","",""
"1179","","bandit","79","279124","0.0-41.0-0.0","21382061","wem/bandit_single","APLBF6JY2C1QZ","gain","5","","74","J","1","","0","0","1","0.3419997506","","false","4","0.1424145416","","main_expt","0.3419997506","","0.48401473","","0.04894390993","","","","","","",""
"44","","bandit","80","280931","0.0-42.0-0.0","21382061","wem/bandit_single","APLBF6JY2C1QZ","gain","5","","74","J","1","","1","0","0","0.3692180445","","false","5","0.1446667298","","main_expt","0.3692180445","","0.4755123677","","0.04206610475","","","","","","",""
"126","","bandit","81","282821","0.0-43.0-0.0","21382061","wem/bandit_single","APLBF6JY2C1QZ","gain","5","","75","K","2","","1","0","0","0.4802482158","","false","6","0.1447199692","","main_expt","0.3602257359","","0.4802482158","","0.04292771587","","","","","","",""
"100","","bandit","82","284682","0.0-44.0-0.0","21382061","wem/bandit_single","APLBF6JY2C1QZ","gain","5","","75","K","2","","1","0","0","0.4780438684","","false","7","0.1001258446","","main_expt","0.3568498895","","0.4780438684","","0.06035830385","","","","","","",""
"108","","bandit","83","286555","0.0-45.0-0.0","21382061","wem/bandit_single","APLBF6JY2C1QZ","gain","5","","75","K","2","","0","0","1","0.4575173044","","false","8","0.1244671667","","main_expt","0.294604339","","0.4575173044","","0.09727842944","","","","","","",""
"54","","bandit","84","288371","0.0-46.0-0.0","21382061","wem/bandit_single","APLBF6JY2C1QZ","gain","5","","75","K","2","","0","0","1","0.4525933246","","false","9","0.1293804987","","main_expt","0.3802768622","","0.4525933246","","0.07952196982","","","","","","",""
"13","","bandit","85","290148","0.0-47.0-0.0","21382061","wem/bandit_single","APLBF6JY2C1QZ","gain","5","","75","K","2","","0","0","1","0.4476408152","","false","10","0.1606810952","","main_expt","0.3530595227","","0.4476408152","","0.1049852556","","","","","","",""
"498","","bandit","86","292412","0.0-48.0-0.0","21382061","wem/bandit_single","APLBF6JY2C1QZ","gain","5","","74","J","1","","0","0","1","0.358648576","","false","11","0.1585385462","","main_expt","0.358648576","","0.4484644352","","0.1118692116","","","","","","",""
"75","","bandit","87","294253","0.0-49.0-0.0","21382061","wem/bandit_single","APLBF6JY2C1QZ","gain","5","","74","J","1","","0","0","1","0.3382469396","","false","12","0.1492634201","","main_expt","0.3382469396","","0.4466341879","","0.1270372311","","","","","","",""
"163","","bandit","88","296178","0.0-50.0-0.0","21382061","wem/bandit_single","APLBF6JY2C1QZ","gain","5","","76","L","3","","0","0","1","0.1278892577","","false","13","0.1106465011","","main_expt","0.3092021245","","0.4642511008","","0.1278892577","","","","","","",""
"85","","bandit","89","298028","0.0-51.0-0.0","21382061","wem/bandit_single","APLBF6JY2C1QZ","gain","5","","76","L","3","","0","0","1","0.1024725346","","false","14","0.1232346967","","main_expt","0.3532484784","","0.4615970843","","0.1024725346","","","","","","",""
"93","","bandit","90","299882","0.0-52.0-0.0","21382061","wem/bandit_single","APLBF6JY2C1QZ","gain","5","","76","L","3","","0","0","1","0.1234109619","","false","15","0.1323340596","","main_expt","0.3371384495","","0.4692442536","","0.1234109619","","","","","","",""
"15","","bandit","91","301663","0.0-53.0-0.0","21382061","wem/bandit_single","APLBF6JY2C1QZ","gain","5","","75","K","2","","0","0","1","0.4755425263","","false","16","0.1410223318","","main_expt","0.3282622062","","0.4755425263","","0.1360550169","","","","","","",""
"114","","bandit","92","303537","0.0-54.0-0.0","21382061","wem/bandit_single","APLBF6JY2C1QZ","gain","5","","72","H","0","img/none_selected.jpg","0","0","1","0.1498636582","","false","17","0.1498636582","","main_expt","0.3032164303","","0.4828633911","","0.1070219664","","","","","","",""
"152","","bandit","93","305452","0.0-55.0-0.0","21382061","wem/bandit_single","APLBF6JY2C1QZ","gain","5","","72","H","0","img/none_selected.jpg","0","0","1","0.1132842199","","false","18","0.1132842199","","main_expt","0.2834034058","","0.4784959143","","0.09318331203","","","","","","",""
"875","","bandit","94","308092","0.0-56.0-0.0","21382061","wem/bandit_single","APLBF6JY2C1QZ","gain","5","","72","H","0","img/none_selected.jpg","0","0","1","0.08554013857","","false","19","0.08554013857","","main_expt","0.376157017","","0.4645747316","","0.08644374764","","","","","","",""
"21","","bandit","95","309877","0.0-57.0-0.0","21382061","wem/bandit_single","APLBF6JY2C1QZ","gain","5","","74","J","1","","1","0","0","0.3718288413","","false","20","0.1176407844","","main_expt","0.3718288413","","0.4441513352","","0.1066513301","","","","","","",""
"34","","bandit","96","311676","0.0-58.0-0.0","21382061","wem/bandit_single","APLBF6JY2C1QZ","gain","5","","74","J","1","","1","0","0","0.3755251961","","false","21","0.09701455477","","main_expt","0.3755251961","","0.4281495132","","0.1143532382","","","","","","",""
"106","","bandit","97","313546","0.0-59.0-0.0","21382061","wem/bandit_single","APLBF6JY2C1QZ","gain","5","","74","J","1","","0","0","1","0.3536603278","","false","22","0.08683592795","","main_expt","0.3536603278","","0.4374563715","","0.111858438","","","","","","",""
"62","","bandit","98","315370","0.0-60.0-0.0","21382061","wem/bandit_single","APLBF6JY2C1QZ","gain","5","","74","J","1","","1","0","0","0.3908816919","","false","23","0.1062952262","","main_expt","0.3908816919","","0.4408316507","","0.09088087914","","","","","","",""
"46","","bandit","99","317180","0.0-61.0-0.0","21382061","wem/bandit_single","APLBF6JY2C1QZ","gain","5","","74","J","1","","0","0","1","0.3639752867","","false","24","0.1320295984","","main_expt","0.3639752867","","0.4249736282","","0.1045917755","","","","","","",""
"66","","bandit","100","319010","0.0-62.0-0.0","21382061","wem/bandit_single","APLBF6JY2C1QZ","gain","5","","74","J","1","","0","0","1","0.3569796848","","false","25","0.18562956","","main_expt","0.3569796848","","0.4542404639","","0.107118439","","","","","","",""
"55","","bandit","101","320827","0.0-63.0-0.0","21382061","wem/bandit_single","APLBF6JY2C1QZ","gain","5","","74","J","1","","0","0","1","0.3466804264","","false","26","0.1589772959","","main_expt","0.3466804264","","0.4707756245","","0.08847958778","","","","","","",""
"94","","bandit","102","322683","0.0-64.0-0.0","21382061","wem/bandit_single","APLBF6JY2C1QZ","gain","5","","74","J","1","","0","0","1","0.3487144915","","false","27","0.1361305173","","main_expt","0.3487144915","","0.4492807888","","0.105958259","","","","","","",""
"769","","bandit","103","325218","0.0-65.0-0.0","21382061","wem/bandit_single","APLBF6JY2C1QZ","gain","5","","75","K","2","","0","0","1","0.4630254912","","false","28","0.1517112547","","main_expt","0.31872733","","0.4630254912","","0.09976229861","","","","","","",""
"62","","bandit","104","327043","0.0-66.0-0.0","21382061","wem/bandit_single","APLBF6JY2C1QZ","gain","5","","75","K","2","","0","0","1","0.4582460064","","false","29","0.1207272987","","main_expt","0.3351256986","","0.4582460064","","0.1117783291","","","","","","",""
"91","","bandit","105","328901","0.0-67.0-0.0","21382061","wem/bandit_single","APLBF6JY2C1QZ","gain","5","","75","K","2","","0","0","1","0.44398484","","false","30","0.06619286558","","main_expt","0.3165147827","","0.44398484","","0.104708879","","","","","","",""
"562","","bandit","106","331226","0.0-68.0-0.0","21382061","wem/bandit_single","APLBF6JY2C1QZ","gain","5","","75","K","2","","0","0","1","0.4662875842","","false","31","0.08172424971","","main_expt","0.3587164307","","0.4662875842","","0.1168740313","","","","","","",""
"883","","bandit","107","333874","0.0-69.0-0.0","21382061","wem/bandit_single","APLBF6JY2C1QZ","gain","5","","76","L","3","","0","0","1","0.1193100679","","false","32","0.1118972321","","main_expt","0.384091524","","0.4823207571","","0.1193100679","","","","","","",""
"76","","bandit","108","335714","0.0-70.0-0.0","21382061","wem/bandit_single","APLBF6JY2C1QZ","gain","5","","76","L","3","","0","0","1","0.1160378653","","false","33","0.07764728595","","main_expt","0.3410562849","","0.4887640326","","0.1160378653","","","","","","",""
"69","","bandit","109","337545","0.0-71.0-0.0","21382061","wem/bandit_single","APLBF6JY2C1QZ","gain","5","","76","L","3","","0","0","1","0.1240203414","","false","34","0.1021677232","","main_expt","0.3772037995","","0.4871413525","","0.1240203414","","","","","","",""
"429","","bandit","110","339741","0.0-72.0-0.0","21382061","wem/bandit_single","APLBF6JY2C1QZ","gain","5","","72","H","0","img/none_selected.jpg","0","0","1","0.09263198197","","false","35","0.09263198197","","main_expt","0.3601610849","","0.472467875","","0.1568527985","","","","","","",""
"49","","bandit","111","341555","0.0-73.0-0.0","21382061","wem/bandit_single","APLBF6JY2C1QZ","gain","5","","72","H","0","img/none_selected.jpg","0","0","1","0.1395706987","","false","36","0.1395706987","","main_expt","0.3199141994","","0.4801988656","","0.1887398002","","","","","","",""
"20","","bandit","112","343340","0.0-74.0-0.0","21382061","wem/bandit_single","APLBF6JY2C1QZ","gain","5","","72","H","0","img/none_selected.jpg","1","0","0","0.1166343238","","false","37","0.1166343238","","main_expt","0.3022128767","","0.4658101737","","0.1567271146","","","","","","",""
"18","","bandit","113","345123","0.0-75.0-0.0","21382061","wem/bandit_single","APLBF6JY2C1QZ","gain","5","","72","H","0","img/none_selected.jpg","0","0","1","0.1344783462","","false","38","0.1344783462","","main_expt","0.220841548","","0.4725237643","","0.1213003185","","","","","","",""
"50","","bandit","114","346938","0.0-76.0-0.0","21382061","wem/bandit_single","APLBF6JY2C1QZ","gain","5","","72","H","0","img/none_selected.jpg","0","0","1","0.1132701409","","false","39","0.1132701409","","main_expt","0.2273815274","","0.4863678522","","0.1129188575","","","","","","",""
"81","","bandit","115","348778","0.0-77.0-0.0","21382061","wem/bandit_single","APLBF6JY2C1QZ","gain","5","","72","H","0","img/none_selected.jpg","0","0","1","0.1269330716","","false","40","0.1269330716","","main_expt","0.2216047912","","0.4756100127","","0.1490040727","","","","","","",""
"30","","bandit","116","350570","0.0-78.0-0.0","21382061","wem/bandit_single","APLBF6JY2C1QZ","gain","5","","72","H","0","img/none_selected.jpg","0","0","1","0.1043764639","","false","41","0.1043764639","","main_expt","0.1790357129","","0.4644843691","","0.20555416","","","","","","",""
"596","","bandit","117","352931","0.0-79.0-0.0","21382061","wem/bandit_single","APLBF6JY2C1QZ","gain","5","","76","L","3","","0","0","1","0.2458082757","","false","42","0.123259557","","main_expt","0.1124402831","","0.4595487669","","0.2458082757","","","","","","",""
"44","","bandit","118","354738","0.0-80.0-0.0","21382061","wem/bandit_single","APLBF6JY2C1QZ","gain","5","","76","L","3","","1","0","0","0.1980967925","","false","43","0.1523094635","","main_expt","0.1309909921","","0.4598563523","","0.1980967925","","","","","","",""
"98","","bandit","119","356601","0.0-81.0-0.0","21382061","wem/bandit_single","APLBF6JY2C1QZ","gain","5","","76","L","3","","0","0","1","0.2011817551","","false","44","0.1438901127","","main_expt","0.1620245532","","0.4444935065","","0.2011817551","","","","","","",""
"61","","bandit","120","358428","0.0-82.0-0.0","21382061","wem/bandit_single","APLBF6JY2C1QZ","gain","5","","76","L","3","","0","0","1","0.1908172103","","false","45","0.1381896233","","main_expt","0.1962154431","","0.4201454787","","0.1908172103","","","","","","",""
"17","","bandit","121","360212","0.0-83.0-0.0","21382061","wem/bandit_single","APLBF6JY2C1QZ","gain","5","","76","L","3","","0","0","1","0.1682898959","","false","46","0.08118013389","","main_expt","0.1548021256","","0.4420567968","","0.1682898959","","","","","","",""
"464","","bandit","122","362443","0.0-84.0-0.0","21382061","wem/bandit_single","APLBF6JY2C1QZ","gain","5","","76","L","3","","0","0","1","0.114950809","","false","47","0.08279503272","","main_expt","0.155425446","","0.4454115659","","0.114950809","","","","","","",""
"107","","bandit","123","364315","0.0-85.0-0.0","21382061","wem/bandit_single","APLBF6JY2C1QZ","gain","5","","75","K","2","","1","0","0","0.4409121906","","false","48","0.09757227309","","main_expt","0.2368850053","","0.4409121906","","0.1231508501","","","","","","",""
"109","","bandit","124","366185","0.0-86.0-0.0","21382061","wem/bandit_single","APLBF6JY2C1QZ","gain","5","","75","K","2","","1","0","0","0.4640555105","","false","49","0.1407466139","","main_expt","0.1712995484","","0.4640555105","","0.1264715503","","","","","","",""
"68","","bandit","125","368018","0.0-87.0-0.0","21382061","wem/bandit_single","APLBF6JY2C1QZ","gain","5","","75","K","2","","1","0","0","0.4619625264","","false","50","0.1128896644","","main_expt","0.2371897999","","0.4619625264","","0.1119267987","","","","","","",""
"62","","bandit","126","369843","0.0-88.0-0.0","21382061","wem/bandit_single","APLBF6JY2C1QZ","gain","5","","75","K","2","","1","0","0","0.4686499241","","false","51","0.1292206793","","main_expt","0.2520952739","","0.4686499241","","0.1192285775","","","","","","",""
"105","","bandit","127","371714","0.0-89.0-0.0","21382061","wem/bandit_single","APLBF6JY2C1QZ","gain","5","","75","K","2","","0","0","1","0.4721244997","","false","52","0.117204758","","main_expt","0.2201249325","","0.4721244997","","0.1536714506","","","","","","",""
"67","","bandit","128","373538","0.0-90.0-0.0","21382061","wem/bandit_single","APLBF6JY2C1QZ","gain","5","","75","K","2","","0","0","1","0.4776765754","","false","53","0.1180232867","","main_expt","0.2019083534","","0.4776765754","","0.1817289366","","","","","","",""
"97","","bandit","129","375396","0.0-91.0-0.0","21382061","wem/bandit_single","APLBF6JY2C1QZ","gain","5","","75","K","2","","0","0","1","0.4788042678","","false","54","0.09503139185","","main_expt","0.2133100918","","0.4788042678","","0.1664376657","","","","","","",""
"95","","bandit","130","377258","0.0-92.0-0.0","21382061","wem/bandit_single","APLBF6JY2C1QZ","gain","5","","75","K","2","","0","0","1","0.4852168201","","false","55","0.1238025275","","main_expt","0.2210295122","","0.4852168201","","0.1219288973","","","","","","",""
"81","","bandit","131","379097","0.0-93.0-0.0","21382061","wem/bandit_single","APLBF6JY2C1QZ","gain","5","","75","K","2","","0","0","1","0.4860946669","","false","56","0.1544257673","","main_expt","0.1728424853","","0.4860946669","","0.1392062569","","","","","","",""
"202","","bandit","132","381069","0.0-94.0-0.0","21382061","wem/bandit_single","APLBF6JY2C1QZ","gain","5","","75","K","2","","0","0","1","0.4859962979","","false","57","0.1492478473","","main_expt","0.2301797189","","0.4859962979","","0.2060247316","","","","","","",""
"72","","bandit","133","382907","0.0-95.0-0.0","21382061","wem/bandit_single","APLBF6JY2C1QZ","gain","5","","75","K","2","","1","0","0","0.4751013025","","false","58","0.1392181034","","main_expt","0.2820892606","","0.4751013025","","0.1723567799","","","","","","",""
"29","","bandit","134","384698","0.0-96.0-0.0","21382061","wem/bandit_single","APLBF6JY2C1QZ","gain","5","","75","K","2","","0","0","1","0.4816883425","","false","59","0.1854998728","","main_expt","0.308641684","","0.4816883425","","0.16345501","","","","","","",""
"556","","bandit","135","387016","0.0-97.0-0.0","21382061","wem/bandit_single","APLBF6JY2C1QZ","gain","5","","75","K","2","","0","0","1","0.4846541976","","false","60","0.1306651225","","main_expt","0.3012287428","","0.4846541976","","0.1552759559","","","","","","",""
"422","","bandit","136","389204","0.0-98.0-0.0","21382061","wem/bandit_single","APLBF6JY2C1QZ","gain","5","","74","J","1","","0","0","1","0.263166603","","false","61","0.1567024934","","main_expt","0.263166603","","0.4848840061","","0.1652193455","","","","","","",""
"362","","bandit","137","391330","0.0-99.0-0.0","21382061","wem/bandit_single","APLBF6JY2C1QZ","gain","5","","74","J","1","","0","0","1","0.2428038775","","false","62","0.1622246099","","main_expt","0.2428038775","","0.4856292504","","0.1813222976","","","","","","",""
"42","","bandit","138","393139","0.0-100.0-0.0","21382061","wem/bandit_single","APLBF6JY2C1QZ","gain","5","","74","J","1","","1","0","0","0.2843805899","","false","63","0.2196770705","","main_expt","0.2843805899","","0.4865153319","","0.1727004114","","","","","","",""
"76","","bandit","139","394981","0.0-101.0-0.0","21382061","wem/bandit_single","APLBF6JY2C1QZ","gain","5","","74","J","1","","0","0","1","0.2895992306","","false","64","0.218319606","","main_expt","0.2895992306","","0.4874146034","","0.2105999223","","","","","","",""
"64","","bandit","140","396814","0.0-102.0-0.0","21382061","wem/bandit_single","APLBF6JY2C1QZ","gain","5","","74","J","1","","1","0","0","0.3847688","","false","65","0.2278721313","","main_expt","0.3847688","","0.4781609215","","0.240225816","","","","","","",""
"55","","bandit","141","398635","0.0-103.0-0.0","21382061","wem/bandit_single","APLBF6JY2C1QZ","gain","5","","74","J","1","","0","0","1","0.4083751038","","false","66","0.1599393353","","main_expt","0.4083751038","","0.4848714892","","0.2924754864","","","","","","",""
"56","","bandit","142","400458","0.0-104.0-0.0","21382061","wem/bandit_single","APLBF6JY2C1QZ","gain","5","","74","J","1","","0","0","1","0.4036944211","","false","67","0.1647045883","","main_expt","0.4036944211","","0.4872204599","","0.2363072125","","","","","","",""
"120","","bandit","143","402348","0.0-105.0-0.0","21382061","wem/bandit_single","APLBF6JY2C1QZ","gain","5","","72","H","0","img/none_selected.jpg","0","0","1","0.1442333851","","false","68","0.1442333851","","main_expt","0.3910329043","","0.4749956953","","0.264359064","","","","","","",""
"110","","bandit","144","404225","0.0-106.0-0.0","21382061","wem/bandit_single","APLBF6JY2C1QZ","gain","5","","72","H","0","img/none_selected.jpg","0","0","1","0.1757685765","","false","69","0.1757685765","","main_expt","0.3438989047","","0.4776093432","","0.2755227552","","","","","","",""
"68","","bandit","145","406060","0.0-107.0-0.0","21382061","wem/bandit_single","APLBF6JY2C1QZ","gain","5","","72","H","0","img/none_selected.jpg","0","0","1","0.1995177274","","false","70","0.1995177274","","main_expt","0.3282106587","","0.4550183311","","0.2978365432","","","","","","",""
"169","","bandit","146","407994","0.0-108.0-0.0","21382061","wem/bandit_single","APLBF6JY2C1QZ","gain","5","","72","H","0","img/none_selected.jpg","1","0","0","0.2429348876","","false","71","0.2429348876","","main_expt","0.3085852942","","0.4466984445","","0.2788476436","","","","","","",""
"72","","bandit","147","409835","0.0-109.0-0.0","21382061","wem/bandit_single","APLBF6JY2C1QZ","gain","5","","72","H","0","img/none_selected.jpg","0","0","1","0.2134703404","","false","72","0.2134703404","","main_expt","0.317066931","","0.453817204","","0.2983184618","","","","","","",""
"88","","bandit","148","411694","0.0-110.0-0.0","21382061","wem/bandit_single","APLBF6JY2C1QZ","gain","5","","72","H","0","img/none_selected.jpg","1","0","0","0.2779115064","","false","73","0.2779115064","","main_expt","0.3118309255","","0.4421557619","","0.3235064893","","","","","","",""
"70","","bandit","149","413529","0.0-111.0-0.0","21382061","wem/bandit_single","APLBF6JY2C1QZ","gain","5","","72","H","0","img/none_selected.jpg","0","0","1","0.2696493969","","false","74","0.2696493969","","main_expt","0.3442292265","","0.4340536998","","0.2605282151","","","","","","",""
"81","","bandit","150","415369","0.0-112.0-0.0","21382061","wem/bandit_single","APLBF6JY2C1QZ","gain","5","","72","H","0","img/none_selected.jpg","0","0","1","0.2929582525","","false","75","0.2929582525","","main_expt","0.3392290825","","0.4148912722","","0.3081503464","","","","","","",""
"115","","bandit","151","417251","0.0-113.0-0.0","21382061","wem/bandit_single","APLBF6JY2C1QZ","gain","5","","72","H","0","img/none_selected.jpg","0","0","1","0.2925997362","","false","76","0.2925997362","","main_expt","0.3019050266","","0.4049452856","","0.3793773342","","","","","","",""
"138","","bandit","152","419154","0.0-114.0-0.0","21382061","wem/bandit_single","APLBF6JY2C1QZ","gain","5","","72","H","0","img/none_selected.jpg","0","0","1","0.2402419665","","false","77","0.2402419665","","main_expt","0.3346778491","","0.3804311168","","0.4108459626","","","","","","",""
"2978","","bandit","153","423899","0.0-115.0-0.0","21382061","wem/bandit_single","APLBF6JY2C1QZ","gain","5","","75","K","2","","0","0","1","0.4076768351","","false","78","0.2662288132","","main_expt","0.2858281516","","0.4076768351","","0.432197644","","","","","","",""
"304","","bandit","154","425971","0.0-116.0-0.0","21382061","wem/bandit_single","APLBF6JY2C1QZ","gain","5","","75","K","2","","1","0","0","0.4322729224","","false","79","0.2946750364","","main_expt","0.2601805687","","0.4322729224","","0.4681634707","","","","","","",""
"115","","bandit","155","427851","0.0-117.0-0.0","21382061","wem/bandit_single","APLBF6JY2C1QZ","gain","5","","75","K","2","","1","0","0","0.4344903628","","false","80","0.3142603933","","main_expt","0.2494540003","","0.4344903628","","0.4487514359","","","","","","",""
"113","","bandit","156","429729","0.0-118.0-0.0","21382061","wem/bandit_single","APLBF6JY2C1QZ","gain","5","","75","K","2","","1","0","0","0.4128510282","","false","81","0.3045476359","","main_expt","0.2029748002","","0.4128510282","","0.4278748425","","","","","","",""
"223","","bandit","157","431714","0.0-119.0-0.0","21382061","wem/bandit_single","APLBF6JY2C1QZ","gain","5","","75","K","2","","1","0","0","0.3473788204","","false","82","0.2481672469","","main_expt","0.1459008349","","0.3473788204","","0.3873338363","","","","","","",""
"178","","bandit","158","433658","0.0-120.0-0.0","21382061","wem/bandit_single","APLBF6JY2C1QZ","gain","5","","75","K","2","","1","0","0","0.3964685929","","false","83","0.2366474468","","main_expt","0.1792892234","","0.3964685929","","0.3676955993","","","","","","",""
"113","","bandit","159","435538","0.0-121.0-0.0","21382061","wem/bandit_single","APLBF6JY2C1QZ","gain","5","","75","K","2","","0","0","1","0.4058457219","","false","84","0.2327145127","","main_expt","0.1384159538","","0.4058457219","","0.3494013457","","","","","","",""
"107","","bandit","160","437412","0.0-122.0-0.0","21382061","wem/bandit_single","APLBF6JY2C1QZ","gain","5","","75","K","2","","1","0","0","0.419702676","","false","85","0.2276425053","","main_expt","0.1569521301","","0.419702676","","0.3484693071","","","","","","",""
"87","","bandit","161","439259","0.0-123.0-0.0","21382061","wem/bandit_single","APLBF6JY2C1QZ","gain","5","","75","K","2","","1","0","0","0.3584641731","","false","86","0.1932648708","","main_expt","0.2111509195","","0.3584641731","","0.3738623358","","","","","","",""
"139","","bandit","162","441163","0.0-124.0-0.0","21382061","wem/bandit_single","APLBF6JY2C1QZ","gain","5","","75","K","2","","0","0","1","0.3362954576","","false","87","0.1554886006","","main_expt","0.1855749087","","0.3362954576","","0.3635865115","","","","","","",""
"490","","bandit","163","443418","0.0-125.0-0.0","21382061","wem/bandit_single","APLBF6JY2C1QZ","gain","5","","75","K","2","","0","0","1","0.3495778317","","false","88","0.1288388744","","main_expt","0.1260067519","","0.3495778317","","0.28993028","","","","","","",""
"90","","bandit","164","445275","0.0-126.0-0.0","21382061","wem/bandit_single","APLBF6JY2C1QZ","gain","5","","75","K","2","","0","0","1","0.3337998134","","false","89","0.1672252434","","main_expt","0.1930097593","","0.3337998134","","0.2529053562","","","","","","",""
"55","","bandit","165","447089","0.0-127.0-0.0","21382061","wem/bandit_single","APLBF6JY2C1QZ","gain","5","","75","K","2","","1","0","0","0.3254710898","","false","90","0.1379373657","","main_expt","0.2016869017","","0.3254710898","","0.2239223254","","","","","","",""
"260","","bandit","166","449115","0.0-128.0-0.0","21382061","wem/bandit_single","APLBF6JY2C1QZ","gain","5","","75","K","2","","0","0","1","0.3248617863","","false","91","0.1296834551","","main_expt","0.2283296651","","0.3248617863","","0.1874521573","","","","","","",""
"172","","bandit","167","451052","0.0-129.0-0.0","21382061","wem/bandit_single","APLBF6JY2C1QZ","gain","5","","75","K","2","","0","0","1","0.3290731597","","false","92","0.1601432093","","main_expt","0.2253008126","","0.3290731597","","0.1464907128","","","","","","",""
"413","","bandit","168","453228","0.0-130.0-0.0","21382061","wem/bandit_single","APLBF6JY2C1QZ","gain","5","","75","K","2","","1","0","0","0.2947126164","","false","93","0.1976873148","","main_expt","0.1826671142","","0.2947126164","","0.1817498408","","","","","","",""
"159","","bandit","169","455156","0.0-131.0-0.0","21382061","wem/bandit_single","APLBF6JY2C1QZ","gain","5","","75","K","2","","0","0","1","0.2762739163","","false","94","0.2296862911","","main_expt","0.1650727581","","0.2762739163","","0.1967130988","","","","","","",""
"155","","bandit","170","457076","0.0-132.0-0.0","21382061","wem/bandit_single","APLBF6JY2C1QZ","gain","5","","75","K","2","","0","0","1","0.3184689772","","false","95","0.1990842867","","main_expt","0.1971582392","","0.3184689772","","0.2294656294","","","","","","",""
"233","","bandit","171","459076","0.0-133.0-0.0","21382061","wem/bandit_single","APLBF6JY2C1QZ","gain","5","","75","K","2","","1","0","0","0.281027734","","false","96","0.258496532","","main_expt","0.1791402521","","0.281027734","","0.2966343553","","","","","","",""
"153","","bandit","172","460995","0.0-134.0-0.0","21382061","wem/bandit_single","APLBF6JY2C1QZ","gain","5","","75","K","2","","0","0","1","0.2474299406","","false","97","0.2766566169","","main_expt","0.1516442175","","0.2474299406","","0.3346257274","","","","","","",""
"97","","bandit","173","462861","0.0-135.0-0.0","21382061","wem/bandit_single","APLBF6JY2C1QZ","gain","5","","75","K","2","","0","0","1","0.2217126022","","false","98","0.2377114848","","main_expt","0.2200018313","","0.2217126022","","0.3139493976","","","","","","",""
"613","","bandit","174","465244","0.0-136.0-0.0","21382061","wem/bandit_single","APLBF6JY2C1QZ","gain","5","","75","K","2","","0","0","1","0.2677278576","","false","99","0.3124158187","","main_expt","0.2752547205","","0.2677278576","","0.2478490566","","","","","","",""
"136","","bandit","175","467147","0.0-137.0-0.0","21382061","wem/bandit_single","APLBF6JY2C1QZ","gain","5","","76","L","3","","0","0","1","0.2602221343","","false","100","0.2059987679","","main_expt","0.252850905","","0.3271916833","","0.2602221343","","","","","","",""
"494","","bandit","176","469405","0.0-138.0-0.0","21382061","wem/bandit_single","APLBF6JY2C1QZ","gain","5","","76","L","3","","1","0","0","0.2584762291","","false","101","0.1758265216","","main_expt","0.1867047362","","0.3066156257","","0.2584762291","","","","","","",""
"407","","bandit","177","471580","0.0-139.0-0.0","21382061","wem/bandit_single","APLBF6JY2C1QZ","gain","5","","76","L","3","","0","0","1","0.282093771","","false","102","0.2262322791","","main_expt","0.1175578895","","0.3260250896","","0.282093771","","","","","","",""
"2185","","bandit","178","475531","0.0-140.0-0.0","21382061","wem/bandit_single","APLBF6JY2C1QZ","gain","5","","76","L","3","","0","0","1","0.2725256196","","false","103","0.2018281434","","main_expt","0.09132094505","","0.3731136732","","0.2725256196","","","","","","",""
"1273","","bandit","179","478563","0.0-141.0-0.0","21382061","wem/bandit_single","APLBF6JY2C1QZ","gain","5","","76","L","3","","0","0","1","0.2243623384","","false","104","0.1447482012","","main_expt","0.1422553795","","0.3941656488","","0.2243623384","","","","","","",""
"704","","bandit","180","481036","0.0-142.0-0.0","21382061","wem/bandit_single","APLBF6JY2C1QZ","gain","5","","76","L","3","","0","0","1","0.2403200944","","false","105","0.2104813725","","main_expt","0.1390697773","","0.4030151573","","0.2403200944","","","","","","",""
"91","","bandit","181","482892","0.0-143.0-0.0","21382061","wem/bandit_single","APLBF6JY2C1QZ","gain","5","","76","L","3","","1","0","0","0.2332798071","","false","106","0.2492378957","","main_expt","0.1155807694","","0.3715193073","","0.2332798071","","","","","","",""
"251","","bandit","182","484916","0.0-144.0-0.0","21382061","wem/bandit_single","APLBF6JY2C1QZ","gain","5","","76","L","3","","0","0","1","0.181620067","","false","107","0.217404121","","main_expt","0.105728532","","0.3837270358","","0.181620067","","","","","","",""
"436","","bandit","183","487121","0.0-145.0-0.0","21382061","wem/bandit_single","APLBF6JY2C1QZ","gain","5","","76","L","3","","0","0","1","0.2173069915","","false","108","0.2142202377","","main_expt","0.08831090648","","0.3908875135","","0.2173069915","","","","","","",""
"3735","","bandit","184","492619","0.0-146.0-0.0","21382061","wem/bandit_single","APLBF6JY2C1QZ","gain","5","","75","K","2","","0","0","1","0.3774052568","","false","109","0.2683226389","","main_expt","0.1043724426","","0.3774052568","","0.226697077","","","","","","",""
"90","","bandit","185","494475","0.0-147.0-0.0","21382061","wem/bandit_single","APLBF6JY2C1QZ","gain","5","","75","K","2","","0","0","1","0.3601275089","","false","110","0.2619142817","","main_expt","0.07530108238","","0.3601275089","","0.2695419639","","","","","","",""
"119","","bandit","186","496363","0.0-148.0-0.0","21382061","wem/bandit_single","APLBF6JY2C1QZ","gain","5","","74","J","1","","0","0","1","0.05159845725","","false","111","0.2754039507","","main_expt","0.05159845725","","0.3880855357","","0.2635727161","","","","","","",""
"65","","bandit","187","498198","0.0-149.0-0.0","21382061","wem/bandit_single","APLBF6JY2C1QZ","gain","5","","74","J","1","","0","0","1","0.08116028731","","false","112","0.2721436228","","main_expt","0.08116028731","","0.3864248384","","0.3202716687","","","","","","",""
"190","","bandit","188","500154","0.0-150.0-0.0","21382061","wem/bandit_single","APLBF6JY2C1QZ","gain","5","","74","J","1","","0","0","1","0.08538759299","","false","113","0.2598768298","","main_expt","0.08538759299","","0.339569604","","0.3546461764","","","","","","",""
"255","","bandit","189","502171","0.0-151.0-0.0","21382061","wem/bandit_single","APLBF6JY2C1QZ","gain","5","","72","H","0","img/none_selected.jpg","1","0","0","0.2271708717","","false","114","0.2271708717","","main_expt","0.106551095","","0.3612744832","","0.3339806629","","","","","","",""
"233","","bandit","190","504173","0.0-152.0-0.0","21382061","wem/bandit_single","APLBF6JY2C1QZ","gain","5","","72","H","0","img/none_selected.jpg","0","0","1","0.2382373761","","false","115","0.2382373761","","main_expt","0.1120532439","","0.3616298021","","0.3175163572","","","","","","",""
"147","","bandit","191","506094","0.0-153.0-0.0","21382061","wem/bandit_single","APLBF6JY2C1QZ","gain","5","","72","H","0","img/none_selected.jpg","1","0","0","0.2092397162","","false","116","0.2092397162","","main_expt","0.07206247825","","0.3886586702","","0.3626291523","","","","","","",""
"166","","bandit","192","508027","0.0-154.0-0.0","21382061","wem/bandit_single","APLBF6JY2C1QZ","gain","5","","72","H","0","img/none_selected.jpg","0","0","1","0.1790603663","","false","117","0.1790603663","","main_expt","0.05990892348","","0.3837198657","","0.4005972513","","","","","","",""
"128","","bandit","193","509925","0.0-155.0-0.0","21382061","wem/bandit_single","APLBF6JY2C1QZ","gain","5","","72","H","0","img/none_selected.jpg","0","0","1","0.2515048449","","false","118","0.2515048449","","main_expt","0.07349038746","","0.3831944796","","0.3994725347","","","","","","",""
"374","","bandit","194","512068","0.0-156.0-0.0","21382061","wem/bandit_single","APLBF6JY2C1QZ","gain","5","","72","H","0","img/none_selected.jpg","0","0","1","0.2591845625","","false","119","0.2591845625","","main_expt","0.0880416307","","0.3200080389","","0.3690387214","","","","","","",""
"95","","bandit","195","513931","0.0-157.0-0.0","21382061","wem/bandit_single","APLBF6JY2C1QZ","gain","5","","72","H","0","img/none_selected.jpg","0","0","1","0.2719994365","","false","120","0.2719994365","","main_expt","0.08832912692","","0.3498825307","","0.3553033444","","","","","","",""
"121","","bandit","196","515820","0.0-158.0-0.0","21382061","wem/bandit_single","APLBF6JY2C1QZ","gain","5","","72","H","0","img/none_selected.jpg","0","0","1","0.2511552987","","false","121","0.2511552987","","main_expt","0.08322673311","","0.3150568547","","0.3558993888","","","","","","",""
"112","","bandit","197","517699","0.0-159.0-0.0","21382061","wem/bandit_single","APLBF6JY2C1QZ","gain","5","","72","H","0","img/none_selected.jpg","0","0","1","0.246059836","","false","122","0.246059836","","main_expt","0.1027924146","","0.332296042","","0.3539125929","","","","","","",""
"142","","bandit","198","519611","0.0-160.0-0.0","21382061","wem/bandit_single","APLBF6JY2C1QZ","gain","5","","74","J","1","","0","0","1","0.1112730508","","false","123","0.201637063","","main_expt","0.1112730508","","0.3023892254","","0.2756210624","","","","","","",""
"102","","bandit","199","521476","0.0-161.0-0.0","21382061","wem/bandit_single","APLBF6JY2C1QZ","gain","5","","74","J","1","","0","0","1","0.1401536705","","false","124","0.2424225803","","main_expt","0.1401536705","","0.2971441903","","0.2924451827","","","","","","",""
"119","","bandit","200","523363","0.0-162.0-0.0","21382061","wem/bandit_single","APLBF6JY2C1QZ","gain","5","","75","K","2","","1","0","0","0.2989687221","","false","125","0.2663511033","","main_expt","0.170676821","","0.2989687221","","0.3283550958","","","","","","",""
"49","","bandit","201","525180","0.0-163.0-0.0","21382061","wem/bandit_single","APLBF6JY2C1QZ","gain","5","","75","K","2","","0","0","1","0.3470717071","","false","126","0.2214557307","","main_expt","0.2239131839","","0.3470717071","","0.3561713316","","","","","","",""
"7","","bandit","202","526957","0.0-164.0-0.0","21382061","wem/bandit_single","APLBF6JY2C1QZ","gain","5","","75","K","2","","0","0","1","0.3399927284","","false","127","0.2274120533","","main_expt","0.1828765327","","0.3399927284","","0.3093512765","","","","","","",""
"52","","bandit","203","528779","0.0-165.0-0.0","21382061","wem/bandit_single","APLBF6JY2C1QZ","gain","5","","75","K","2","","0","0","1","0.3039142281","","false","128","0.2035603578","","main_expt","0.2182936746","","0.3039142281","","0.3682433617","","","","","","",""
"96","","bandit","204","530643","0.0-166.0-0.0","21382061","wem/bandit_single","APLBF6JY2C1QZ","gain","5","","75","K","2","","0","0","1","0.331948561","","false","129","0.1571118888","","main_expt","0.2206976306","","0.331948561","","0.3485983391","","","","","","",""
"878","","bandit","205","533290","0.0-167.0-0.0","21382061","wem/bandit_single","APLBF6JY2C1QZ","gain","5","","75","K","2","","1","0","0","0.3512730473","","false","130","0.08617346002","","main_expt","0.1657145536","","0.3512730473","","0.3907345736","","","","","","",""
"183","","bandit","206","535243","0.0-168.0-0.0","21382061","wem/bandit_single","APLBF6JY2C1QZ","gain","5","","75","K","2","","0","0","1","0.3617370935","","false","131","0.1196539686","","main_expt","0.2555784817","","0.3617370935","","0.3697977754","","","","","","",""
"23","","bandit","207","537034","0.0-169.0-0.0","21382061","wem/bandit_single","APLBF6JY2C1QZ","gain","5","","75","K","2","","1","0","0","0.3520165756","","false","132","0.1111227042","","main_expt","0.287060772","","0.3520165756","","0.3916621277","","","","","","",""
"43","","bandit","208","538842","0.0-170.0-0.0","21382061","wem/bandit_single","APLBF6JY2C1QZ","gain","5","","75","K","2","","1","0","0","0.3863989014","","false","133","0.1223368092","","main_expt","0.238965149","","0.3863989014","","0.3437671512","","","","","","",""
"2","","bandit","209","540614","0.0-171.0-0.0","21382061","wem/bandit_single","APLBF6JY2C1QZ","gain","5","","75","K","2","","0","0","1","0.3391859262","","false","134","0.1001486166","","main_expt","0.2457001749","","0.3391859262","","0.3636108046","","","","","","",""
"10","","bandit","210","542391","0.0-172.0-0.0","21382061","wem/bandit_single","APLBF6JY2C1QZ","gain","5","","75","K","2","","0","0","1","0.3700101905","","false","135","0.1179747861","","main_expt","0.2499382958","","0.3700101905","","0.3251377881","","","","","","",""
"472","","bandit","211","544635","0.0-173.0-0.0","21382061","wem/bandit_single","APLBF6JY2C1QZ","gain","5","","75","K","2","","0","0","1","0.3002558999","","false","136","0.1167775935","","main_expt","0.2553087313","","0.3002558999","","0.3838305716","","","","","","",""
"241","","bandit","212","546643","0.0-174.0-0.0","21382061","wem/bandit_single","APLBF6JY2C1QZ","gain","5","","75","K","2","","0","0","1","0.3242357935","","false","137","0.1459170178","","main_expt","0.2517181947","","0.3242357935","","0.374624825","","","","","","",""
"41","","bandit","213","548451","0.0-175.0-0.0","21382061","wem/bandit_single","APLBF6JY2C1QZ","gain","5","","76","L","3","","1","0","0","0.36903936","","false","138","0.1403776257","","main_expt","0.2531469116","","0.3413485239","","0.36903936","","","","","","",""
"104","","bandit","214","550324","0.0-176.0-0.0","21382061","wem/bandit_single","APLBF6JY2C1QZ","gain","5","","76","L","3","","1","0","0","0.3757762965","","false","139","0.1647502834","","main_expt","0.2810662396","","0.3172825342","","0.3757762965","","","","","","",""
"46","","bandit","215","552138","0.0-177.0-0.0","21382061","wem/bandit_single","APLBF6JY2C1QZ","gain","5","","76","L","3","","0","0","1","0.3240643918","","false","140","0.2135508935","","main_expt","0.2226737135","","0.3683668128","","0.3240643918","","","","","","",""
"45","","bandit","216","553955","0.0-178.0-0.0","21382061","wem/bandit_single","APLBF6JY2C1QZ","gain","5","","76","L","3","","0","0","1","0.342151626","","false","141","0.2286669107","","main_expt","0.2330331678","","0.2976824498","","0.342151626","","","","","","",""
"47","","bandit","217","555770","0.0-179.0-0.0","21382061","wem/bandit_single","APLBF6JY2C1QZ","gain","5","","76","L","3","","0","0","1","0.3576151309","","false","142","0.1870561284","","main_expt","0.1833347363","","0.3424177608","","0.3576151309","","","","","","",""
"38","","bandit","218","557571","0.0-180.0-0.0","21382061","wem/bandit_single","APLBF6JY2C1QZ","gain","5","","76","L","3","","0","0","1","0.3075624404","","false","143","0.220851353","","main_expt","0.2063127673","","0.3367953268","","0.3075624404","","","","","","",""
"29","","bandit","219","559371","0.0-181.0-0.0","21382061","wem/bandit_single","APLBF6JY2C1QZ","gain","5","","76","L","3","","0","0","1","0.3666812205","","false","144","0.1581776843","","main_expt","0.24054226","","0.3446852995","","0.3666812205","","","","","","",""
"1","","bandit","220","561140","0.0-182.0-0.0","21382061","wem/bandit_single","APLBF6JY2C1QZ","gain","5","","76","L","3","","0","0","1","0.373264243","","false","145","0.1562309797","","main_expt","0.3397881996","","0.3569090532","","0.373264243","","","","","","",""
"107","","bandit","221","563017","0.0-183.0-0.0","21382061","wem/bandit_single","APLBF6JY2C1QZ","gain","5","","75","K","2","","0","0","1","0.3546691234","","false","146","0.201277092","","main_expt","0.334771558","","0.3546691234","","0.3588440804","","","","","","",""
"416","","bandit","222","565202","0.0-184.0-0.0","21382061","wem/bandit_single","APLBF6JY2C1QZ","gain","5","","74","J","1","","1","0","0","0.3135854179","","false","147","0.2014254916","","main_expt","0.3135854179","","0.3346193534","","0.3848898601","","","","","","",""
"54","","bandit","223","567027","0.0-185.0-0.0","21382061","wem/bandit_single","APLBF6JY2C1QZ","gain","5","","74","J","1","","0","0","1","0.2601716543","","false","148","0.1783642851","","main_expt","0.2601716543","","0.3481099765","","0.4049875018","","","","","","",""
"2","","bandit","224","568798","0.0-186.0-0.0","21382061","wem/bandit_single","APLBF6JY2C1QZ","gain","5","","74","J","1","","0","0","1","0.2449203511","","false","149","0.2394621943","","main_expt","0.2449203511","","0.3473239498","","0.3644303146","","","","","","",""
"553","","bandit","225","571113","0.0-187.0-0.0","21382061","wem/bandit_single","APLBF6JY2C1QZ","gain","5","","74","J","1","","1","0","0","0.2679682766","","false","150","0.2009439561","","main_expt","0.2679682766","","0.3457177179","","0.3820895465","","","","","","",""
"45","","bandit","226","572931","0.0-188.0-0.0","21382061","wem/bandit_single","APLBF6JY2C1QZ","gain","5","","74","J","1","","0","0","1","0.2811524043","","false","151","0.1783838281","","main_expt","0.2811524043","","0.3131990842","","0.3715335383","","","","","","",""
"22","","bandit","227","574721","0.0-189.0-0.0","21382061","wem/bandit_single","APLBF6JY2C1QZ","gain","5","","74","J","1","","1","0","0","0.2320671432","","false","152","0.2357029213","","main_expt","0.2320671432","","0.2632978047","","0.3270427106","","","","","","",""
"20","","bandit","228","576514","0.0-190.0-0.0","21382061","wem/bandit_single","APLBF6JY2C1QZ","gain","5","","74","J","1","","0","0","1","0.2655606304","","false","153","0.1701289497","","main_expt","0.2655606304","","0.2782579121","","0.3117301263","","","","","","",""
"24","","bandit","229","578305","0.0-191.0-0.0","21382061","wem/bandit_single","APLBF6JY2C1QZ","gain","5","","74","J","1","","0","0","1","0.3485425359","","false","154","0.1613436629","","main_expt","0.3485425359","","0.2212449789","","0.2860829053","","","","","","",""
"46","","bandit","230","580122","0.0-192.0-0.0","21382061","wem/bandit_single","APLBF6JY2C1QZ","gain","5","","74","J","1","","1","0","0","0.3302543019","","false","155","0.1419994917","","main_expt","0.3302543019","","0.1944586175","","0.2412247214","","","","","","",""
"670","","bandit","231","582564","0.0-193.0-0.0","21382061","wem/bandit_single","APLBF6JY2C1QZ","gain","5","","74","J","1","","0","0","1","0.2696600886","","false","156","0.2076402971","","main_expt","0.2696600886","","0.2035424954","","0.2505935016","","","","","","",""
"509","","bandit","232","584842","0.0-194.0-0.0","21382061","wem/bandit_single","APLBF6JY2C1QZ","gain","5","","74","J","1","","1","0","0","0.3095791192","","false","157","0.2253974945","","main_expt","0.3095791192","","0.2039725598","","0.2677381881","","","","","","",""
"251","","bandit","233","586857","0.0-195.0-0.0","21382061","wem/bandit_single","APLBF6JY2C1QZ","gain","5","","74","J","1","","0","0","1","0.3427908005","","false","158","0.3173726248","","main_expt","0.3427908005","","0.1610126092","","0.228073272","","","","","","",""
"0","","bandit","234","588629","0.0-196.0-0.0","21382061","wem/bandit_single","APLBF6JY2C1QZ","gain","5","","74","J","1","","1","0","0","0.3459652535","","false","159","0.2929560982","","main_expt","0.3459652535","","0.2244023171","","0.2181731157","","","","","","",""
"42","","bandit","235","590442","0.0-197.0-0.0","21382061","wem/bandit_single","APLBF6JY2C1QZ","gain","5","","74","J","1","","1","0","0","0.3277363444","","false","160","0.2599130114","","main_expt","0.3277363444","","0.2550463449","","0.2483475363","","","","","","",""
"39","","bandit","236","592251","0.0-198.0-0.0","21382061","wem/bandit_single","APLBF6JY2C1QZ","gain","5","","74","J","1","","1","0","0","0.3043896987","","false","161","0.3006759107","","main_expt","0.3043896987","","0.1988840894","","0.2287268475","","","","","","",""
"66","","bandit","237","594091","0.0-199.0-0.0","21382061","wem/bandit_single","APLBF6JY2C1QZ","gain","5","","74","J","1","","1","0","0","0.3013302692","","false","162","0.3359074288","","main_expt","0.3013302692","","0.3208820199","","0.2118340618","","","","","","",""
"22","","bandit","238","595882","0.0-200.0-0.0","21382061","wem/bandit_single","APLBF6JY2C1QZ","gain","5","","74","J","1","","0","0","1","0.3359404133","","false","163","0.3248254093","","main_expt","0.3359404133","","0.3416291965","","0.2467500447","","","","","","",""
"205","","bandit","239","597858","0.0-201.0-0.0","21382061","wem/bandit_single","APLBF6JY2C1QZ","gain","5","","74","J","1","","0","0","1","0.3449747326","","false","164","0.2480447101","","main_expt","0.3449747326","","0.3531125991","","0.2745506496","","","","","","",""
"14","","bandit","240","599643","0.0-202.0-0.0","21382061","wem/bandit_single","APLBF6JY2C1QZ","gain","5","","74","J","1","","0","0","1","0.3388680014","","false","165","0.2291527929","","main_expt","0.3388680014","","0.3329293945","","0.2893970703","","","","","","",""
"3","","bandit","241","601419","0.0-203.0-0.0","21382061","wem/bandit_single","APLBF6JY2C1QZ","gain","5","","74","J","1","","0","0","1","0.3565097084","","false","166","0.2408823094","","main_expt","0.3565097084","","0.368824295","","0.326956194","","","","","","",""
"259","","bandit","242","603449","0.0-204.0-0.0","21382061","wem/bandit_single","APLBF6JY2C1QZ","gain","5","","74","J","1","","1","0","0","0.3807311224","","false","167","0.1852653973","","main_expt","0.3807311224","","0.3528049135","","0.2562538154","","","","","","",""
"422","","bandit","243","605650","0.0-205.0-0.0","21382061","wem/bandit_single","APLBF6JY2C1QZ","gain","5","","74","J","1","","1","0","0","0.4157533759","","false","168","0.1123614246","","main_expt","0.4157533759","","0.3530437727","","0.259707785","","","","","","",""
"100","","bandit","244","607521","0.0-206.0-0.0","21382061","wem/bandit_single","APLBF6JY2C1QZ","gain","5","","74","J","1","","1","0","0","0.3990846218","","false","169","0.1289140747","","main_expt","0.3990846218","","0.3619584092","","0.305903145","","","","","","",""
"69","","bandit","245","609362","0.0-207.0-0.0","21382061","wem/bandit_single","APLBF6JY2C1QZ","gain","5","","74","J","1","","0","0","1","0.3840903594","","false","170","0.1082073398","","main_expt","0.3840903594","","0.3851568221","","0.2780458482","","","","","","",""
"77","","bandit","246","611210","0.0-208.0-0.0","21382061","wem/bandit_single","APLBF6JY2C1QZ","gain","5","","74","J","1","","1","0","0","0.4279034191","","false","171","0.09560917383","","main_expt","0.4279034191","","0.369821393","","0.2754425626","","","","","","",""
"947","","bandit","247","613929","0.0-209.0-0.0","21382061","wem/bandit_single","APLBF6JY2C1QZ","gain","5","","74","J","1","","1","0","0","0.4277210969","","false","172","0.09002122866","","main_expt","0.4277210969","","0.3238500873","","0.2801866594","","","","","","",""
"284","","bandit","248","615977","0.0-210.0-0.0","21382061","wem/bandit_single","APLBF6JY2C1QZ","gain","5","","74","J","1","","0","0","1","0.4177409887","","false","173","0.06359212806","","main_expt","0.4177409887","","0.371178543","","0.2903169923","","","","","","",""
"70","","bandit","249","617819","0.0-211.0-0.0","21382061","wem/bandit_single","APLBF6JY2C1QZ","gain","5","","74","J","1","","1","0","0","0.4149019111","","false","174","0.07897407323","","main_expt","0.4149019111","","0.364968973","","0.3135769273","","","","","","",""
"44","","bandit","250","619641","0.0-212.0-0.0","21382061","wem/bandit_single","APLBF6JY2C1QZ","gain","5","","74","J","1","","0","0","1","0.3890834012","","false","175","0.05374651045","","main_expt","0.3890834012","","0.4172857806","","0.3205535054","","","","","","",""
"401","","bandit","251","621816","0.0-213.0-0.0","21382061","wem/bandit_single","APLBF6JY2C1QZ","gain","5","","74","J","1","","0","0","1","0.3775492635","","false","176","0.05298342689","","main_expt","0.3775492635","","0.3931137538","","0.3548310205","","","","","","",""
"132","","bandit","252","623714","0.0-214.0-0.0","21382061","wem/bandit_single","APLBF6JY2C1QZ","gain","5","","74","J","1","","0","0","1","0.2763311933","","false","177","0.04117570961","","main_expt","0.2763311933","","0.4118750583","","0.3374760958","","","","","","",""
"478","","bandit","253","625961","0.0-215.0-0.0","21382061","wem/bandit_single","APLBF6JY2C1QZ","gain","5","","74","J","1","","0","0","1","0.2117274321","","false","178","0.0682688674","","main_expt","0.2117274321","","0.4019835374","","0.3045899674","","","","","","",""
"128","","bandit","254","627859","0.0-216.0-0.0","21382061","wem/bandit_single","APLBF6JY2C1QZ","gain","5","","74","J","1","","1","0","0","0.2071796451","","false","179","0.0699035784","","main_expt","0.2071796451","","0.3943962464","","0.2701203387","","","","","","",""
"27","","bandit","255","629657","0.0-217.0-0.0","21382061","wem/bandit_single","APLBF6JY2C1QZ","gain","5","","74","J","1","","0","0","1","0.2237333922","","false","180","0.08066818268","","main_expt","0.2237333922","","0.3879360396","","0.3010541938","","","","","","",""
"229","","bandit","256","631658","0.0-218.0-0.0","21382061","wem/bandit_single","APLBF6JY2C1QZ","gain","5","","74","J","1","","0","0","1","0.1462221579","","false","181","0.06418194011","","main_expt","0.1462221579","","0.3516035239","","0.2685782119","","","","","","",""
"116","","bandit","257","633546","0.0-219.0-0.0","21382061","wem/bandit_single","APLBF6JY2C1QZ","gain","5","","72","H","0","img/none_selected.jpg","0","0","1","0.05948248489","","false","182","0.05948248489","","main_expt","0.1745001591","","0.3544849886","","0.2333395507","","","","","","",""
"83","","bandit","258","635400","0.0-220.0-0.0","21382061","wem/bandit_single","APLBF6JY2C1QZ","gain","5","","72","H","0","img/none_selected.jpg","0","0","1","0.04249263759","","false","183","0.04249263759","","main_expt","0.1840457003","","0.3239224462","","0.1817222791","","","","","","",""
"110","","bandit","259","637281","0.0-221.0-0.0","21382061","wem/bandit_single","APLBF6JY2C1QZ","gain","5","","72","H","0","img/none_selected.jpg","0","0","1","0.05174265856","","false","184","0.05174265856","","main_expt","0.1684271963","","0.3437575642","","0.1946528514","","","","","","",""
"6","","bandit","260","639061","0.0-222.0-0.0","21382061","wem/bandit_single","APLBF6JY2C1QZ","gain","5","","72","H","0","img/none_selected.jpg","0","0","1","0.04700335152","","false","185","0.04700335152","","main_expt","0.1820742113","","0.3584643827","","0.1998780622","","","","","","",""
"75","","bandit","261","640905","0.0-223.0-0.0","21382061","wem/bandit_single","APLBF6JY2C1QZ","gain","5","","76","L","3","","0","0","1","0.2674223733","","false","186","0.0651928762","","main_expt","0.2156320388","","0.3968797112","","0.2674223733","","","","","","",""
"98","","bandit","262","642771","0.0-224.0-0.0","21382061","wem/bandit_single","APLBF6JY2C1QZ","gain","5","","76","L","3","","0","0","1","0.2625155344","","false","187","0.1006801651","","main_expt","0.2805416817","","0.3851297664","","0.2625155344","","","","","","",""
"429","","bandit","263","644970","0.0-225.0-0.0","21382061","wem/bandit_single","APLBF6JY2C1QZ","gain","5","","76","L","3","","0","0","1","0.2428845682","","false","188","0.1650650448","","main_expt","0.255869765","","0.3861445831","","0.2428845682","","","","","","",""
"99","","bandit","264","646840","0.0-226.0-0.0","21382061","wem/bandit_single","APLBF6JY2C1QZ","gain","5","","75","K","2","","0","0","1","0.3904601473","","false","189","0.1545550266","","main_expt","0.1757761595","","0.3904601473","","0.2017656849","","","","","","",""
"64","","bandit","265","648673","0.0-227.0-0.0","21382061","wem/bandit_single","APLBF6JY2C1QZ","gain","5","","75","K","2","","0","0","1","0.430863334","","false","190","0.187471884","","main_expt","0.1346649685","","0.430863334","","0.2163316772","","","","","","",""
"43","","bandit","266","650492","0.0-228.0-0.0","21382061","wem/bandit_single","APLBF6JY2C1QZ","gain","5","","75","K","2","","0","0","1","0.4113524325","","false","191","0.1611513775","","main_expt","0.1132332922","","0.4113524325","","0.2055350187","","","","","","",""
"18","","bandit","267","652282","0.0-229.0-0.0","21382061","wem/bandit_single","APLBF6JY2C1QZ","gain","5","","74","J","1","","1","0","0","0.1208943264","","false","192","0.1777959463","","main_expt","0.1208943264","","0.4039805352","","0.1895719249","","","","","","",""
"82","","bandit","268","654137","0.0-230.0-0.0","21382061","wem/bandit_single","APLBF6JY2C1QZ","gain","5","","74","J","1","","0","0","1","0.1939792015","","false","193","0.1871499601","","main_expt","0.1939792015","","0.4245567291","","0.1748526562","","","","","","",""
"85","","bandit","269","655993","0.0-231.0-0.0","21382061","wem/bandit_single","APLBF6JY2C1QZ","gain","5","","74","J","1","","0","0","1","0.16637132","","false","194","0.1876497678","","main_expt","0.16637132","","0.3947968319","","0.1474168317","","","","","","",""
"50","","bandit","270","657818","0.0-232.0-0.0","21382061","wem/bandit_single","APLBF6JY2C1QZ","gain","5","","74","J","1","","0","0","1","0.1730885183","","false","195","0.1091892437","","main_expt","0.1730885183","","0.4142863389","","0.192031623","","","","","","",""
"45","","bandit","271","659634","0.0-233.0-0.0","21382061","wem/bandit_single","APLBF6JY2C1QZ","gain","5","","74","J","1","","0","0","1","0.215114198","","false","196","0.1617114059","","main_expt","0.215114198","","0.4233691667","","0.2058404012","","","","","","",""
"378","","bandit","272","661785","0.0-234.0-0.0","21382061","wem/bandit_single","APLBF6JY2C1QZ","gain","5","","74","J","1","","0","0","1","0.2080771369","","false","197","0.1704243662","","main_expt","0.2080771369","","0.3910113043","","0.2424759238","","","","","","",""
"325","","bandit","273","663881","0.0-235.0-0.0","21382061","wem/bandit_single","APLBF6JY2C1QZ","gain","5","","74","J","1","","0","0","1","0.2349601263","","false","198","0.1547158464","","main_expt","0.2349601263","","0.4036427912","","0.2209877853","","","","","","",""
"341","","bandit","274","665994","0.0-236.0-0.0","21382061","wem/bandit_single","APLBF6JY2C1QZ","gain","5","","72","H","0","img/none_selected.jpg","0","0","1","0.1871633293","","false","199","0.1871633293","","main_expt","0.2603506135","","0.4211573591","","0.2167038869","","","","","","",""
"48","","bandit","275","667816","0.0-237.0-0.0","21382061","wem/bandit_single","APLBF6JY2C1QZ","gain","5","","72","H","0","img/none_selected.jpg","0","0","1","0.2044595191","","false","200","0.2044595191","","main_expt","0.3238520586","","0.4279321675","","0.1923465651","","","","","","",""
"314","","bandit","276","669908","0.0-238.0-0.0","21382061","wem/bandit_single","APLBF6JY2C1QZ","gain","5","","72","H","0","img/none_selected.jpg","0","0","1","0.2260370877","","false","201","0.2260370877","","main_expt","0.3006478669","","0.4164542871","","0.2292217674","","","","","","",""
"115","","bandit","277","671795","0.0-239.0-0.0","21382061","wem/bandit_single","APLBF6JY2C1QZ","gain","5","","72","H","0","img/none_selected.jpg","1","0","0","0.2543806879","","false","202","0.2543806879","","main_expt","0.2728804465","","0.4304584766","","0.2458551357","","","","","","",""
"57","","bandit","278","673627","0.0-240.0-0.0","21382061","wem/bandit_single","APLBF6JY2C1QZ","gain","5","","72","H","0","img/none_selected.jpg","1","0","0","0.248330882","","false","203","0.248330882","","main_expt","0.3070028205","","0.4301844238","","0.2388066436","","","","","","",""
"62","","bandit","279","675458","0.0-241.0-0.0","21382061","wem/bandit_single","APLBF6JY2C1QZ","gain","5","","72","H","0","img/none_selected.jpg","0","0","1","0.272777159","","false","204","0.272777159","","main_expt","0.2937269753","","0.3900297032","","0.2087278664","","","","","","",""
"58","","bandit","280","677289","0.0-242.0-0.0","21382061","wem/bandit_single","APLBF6JY2C1QZ","gain","5","","72","H","0","img/none_selected.jpg","0","0","1","0.3434557908","","false","205","0.3434557908","","main_expt","0.2378968556","","0.3928583167","","0.1498191458","","","","","","",""
"78","","bandit","281","679139","0.0-243.0-0.0","21382061","wem/bandit_single","APLBF6JY2C1QZ","gain","5","","72","H","0","img/none_selected.jpg","1","0","0","0.3670462125","","false","206","0.3670462125","","main_expt","0.2621799838","","0.4066069638","","0.1173401749","","","","","","",""
"46","","bandit","282","680963","0.0-244.0-0.0","21382061","wem/bandit_single","APLBF6JY2C1QZ","gain","5","","72","H","0","img/none_selected.jpg","0","0","1","0.3762900352","","false","207","0.3762900352","","main_expt","0.2751860601","","0.3973448409","","0.131911627","","","","","","",""
"42","","bandit","283","682779","0.0-245.0-0.0","21382061","wem/bandit_single","APLBF6JY2C1QZ","gain","5","","72","H","0","img/none_selected.jpg","1","0","0","0.3619644859","","false","208","0.3619644859","","main_expt","0.2449975294","","0.4149937731","","0.121614138","","","","","","",""
"435","","bandit","284","684986","0.0-246.0-0.0","21382061","wem/bandit_single","APLBF6JY2C1QZ","gain","5","","72","H","0","img/none_selected.jpg","0","0","1","0.3487947413","","false","209","0.3487947413","","main_expt","0.2260792918","","0.4174336027","","0.1301565943","","","","","","",""
"76","","bandit","285","686835","0.0-247.0-0.0","21382061","wem/bandit_single","APLBF6JY2C1QZ","gain","5","","72","H","0","img/none_selected.jpg","0","0","1","0.3019817091","","false","210","0.3019817091","","main_expt","0.2506868781","","0.3969791934","","0.09603783024","","","","","","",""
"81","","bandit","286","688690","0.0-248.0-0.0","21382061","wem/bandit_single","APLBF6JY2C1QZ","gain","5","","72","H","0","img/none_selected.jpg","0","0","1","0.3322841588","","false","211","0.3322841588","","main_expt","0.2364470615","","0.4109689779","","0.09853312819","","","","","","",""
"29","","bandit","287","690490","0.0-249.0-0.0","21382061","wem/bandit_single","APLBF6JY2C1QZ","gain","5","","72","H","0","img/none_selected.jpg","1","0","0","0.3257981887","","false","212","0.3257981887","","main_expt","0.2097336517","","0.3870841375","","0.08497623984","","","","","","",""
"330","","bandit","288","692595","0.0-250.0-0.0","21382061","wem/bandit_single","APLBF6JY2C1QZ","gain","5","","72","H","0","img/none_selected.jpg","0","0","1","0.299150427","","false","213","0.299150427","","main_expt","0.223293056","","0.3702451026","","0.0690536233","","","","","","",""
"68","","bandit","289","694435","0.0-251.0-0.0","21382061","wem/bandit_single","APLBF6JY2C1QZ","gain","5","","72","H","0","img/none_selected.jpg","1","0","0","0.2841516905","","false","214","0.2841516905","","main_expt","0.2797804449","","0.4052473305","","0.05607702273","","","","","","",""
"49","","bandit","290","696250","0.0-252.0-0.0","21382061","wem/bandit_single","APLBF6JY2C1QZ","gain","5","","72","H","0","img/none_selected.jpg","0","0","1","0.2421432752","","false","215","0.2421432752","","main_expt","0.3307304153","","0.4003088938","","0.0612243178","","","","","","",""
"316","","bandit","291","698340","0.0-253.0-0.0","21382061","wem/bandit_single","APLBF6JY2C1QZ","gain","5","","72","H","0","img/none_selected.jpg","0","0","1","0.1705338946","","false","216","0.1705338946","","main_expt","0.3341057131","","0.4087675299","","0.03010565971","","","","","","",""
"382","","bandit","292","700499","0.0-254.0-0.0","21382061","wem/bandit_single","APLBF6JY2C1QZ","gain","5","","72","H","0","img/none_selected.jpg","0","0","1","0.219014384","","false","217","0.219014384","","main_expt","0.3086359365","","0.3947963157","","0.05034411961","","","","","","",""
"339","","bandit","293","702612","0.0-255.0-0.0","21382061","wem/bandit_single","APLBF6JY2C1QZ","gain","5","","72","H","0","img/none_selected.jpg","1","0","0","0.2135739311","","false","218","0.2135739311","","main_expt","0.370061562","","0.4200256015","","0.03278593655","","","","","","",""
"115","","bandit","294","704499","0.0-256.0-0.0","21382061","wem/bandit_single","APLBF6JY2C1QZ","gain","5","","72","H","0","img/none_selected.jpg","0","0","1","0.1719688778","","false","219","0.1719688778","","main_expt","0.3425962001","","0.3845181055","","0.02968551415","","","","","","",""
"69","","bandit","295","706340","0.0-257.0-0.0","21382061","wem/bandit_single","APLBF6JY2C1QZ","gain","5","","72","H","0","img/none_selected.jpg","0","0","1","0.1017501311","","false","220","0.1017501311","","main_expt","0.3200162658","","0.3200105211","","0.03392365282","","","","","","",""
"331","","bandit","296","708442","0.0-258.0-0.0","21382061","wem/bandit_single","APLBF6JY2C1QZ","gain","5","","72","H","0","img/none_selected.jpg","0","0","1","0.1121412156","","false","221","0.1121412156","","main_expt","0.3209906652","","0.297673658","","0.03139192041","","","","","","",""
"77","","bandit","297","710292","0.0-259.0-0.0","21382061","wem/bandit_single","APLBF6JY2C1QZ","gain","5","","72","H","0","img/none_selected.jpg","0","0","1","0.1091313961","","false","222","0.1091313961","","main_expt","0.3013890172","","0.2963768597","","0.02842311261","","","","","","",""
"91","","bandit","298","712155","0.0-260.0-0.0","21382061","wem/bandit_single","APLBF6JY2C1QZ","gain","5","","72","H","0","img/none_selected.jpg","0","0","1","0.09983876589","","false","223","0.09983876589","","main_expt","0.2614115174","","0.2927297303","","0.0287580325","","","","","","",""
"32","","bandit","299","713962","0.0-261.0-0.0","21382061","wem/bandit_single","APLBF6JY2C1QZ","gain","5","","72","H","0","img/none_selected.jpg","0","0","1","0.1018501693","","false","224","0.1018501693","","main_expt","0.2490141009","","0.2751498343","","0.02300930076","","","","","","",""
"227","","bandit","300","715961","0.0-262.0-0.0","21382061","wem/bandit_single","APLBF6JY2C1QZ","gain","5","","72","H","0","img/none_selected.jpg","1","0","0","0.1222407881","","false","225","0.1222407881","","main_expt","0.263459589","","0.2377617529","","0.02989568437","","","","","","",""
"116","","bandit","301","717858","0.0-263.0-0.0","21382061","wem/bandit_single","APLBF6JY2C1QZ","gain","5","","72","H","0","img/none_selected.jpg","0","0","1","0.1332846515","","false","226","0.1332846515","","main_expt","0.2828917593","","0.2137681397","","0.04233903912","","","","","","",""
"61","","bandit","302","719692","0.0-264.0-0.0","21382061","wem/bandit_single","APLBF6JY2C1QZ","gain","5","","72","H","0","img/none_selected.jpg","1","0","0","0.1606351014","","false","227","0.1606351014","","main_expt","0.2635957152","","0.1830623781","","0.0317259717","","","","","","",""
"61","","bandit","303","721530","0.0-265.0-0.0","21382061","wem/bandit_single","APLBF6JY2C1QZ","gain","5","","72","H","0","img/none_selected.jpg","1","0","0","0.1292420082","","false","228","0.1292420082","","main_expt","0.259674247","","0.1665925442","","0.04253553249","","","","","","",""
"83","","bandit","304","723387","0.0-266.0-0.0","21382061","wem/bandit_single","APLBF6JY2C1QZ","gain","5","","72","H","0","img/none_selected.jpg","0","0","1","0.1281284096","","false","229","0.1281284096","","main_expt","0.2737318667","","0.2136718414","","0.06761640147","","","","","","",""
"426","","bandit","305","725586","0.0-267.0-0.0","21382061","wem/bandit_single","APLBF6JY2C1QZ","gain","5","","72","H","0","img/none_selected.jpg","0","0","1","0.0791291566","","false","230","0.0791291566","","main_expt","0.3195589589","","0.2435987791","","0.08572380951","","","","","","",""
"28","","bandit","306","727389","0.0-268.0-0.0","21382061","wem/bandit_single","APLBF6JY2C1QZ","gain","5","","72","H","0","img/none_selected.jpg","1","0","0","0.10920453","","false","231","0.10920453","","main_expt","0.3304270948","","0.2566168121","","0.07272236896","","","","","","",""
"127","","bandit","307","729290","0.0-269.0-0.0","21382061","wem/bandit_single","APLBF6JY2C1QZ","gain","5","","72","H","0","img/none_selected.jpg","0","0","1","0.167261158","","false","232","0.167261158","","main_expt","0.2806951239","","0.2152843379","","0.0735724775","","","","","","",""
"42","","bandit","308","731107","0.0-270.0-0.0","21382061","wem/bandit_single","APLBF6JY2C1QZ","gain","5","","72","H","0","img/none_selected.jpg","0","0","1","0.1078973024","","false","233","0.1078973024","","main_expt","0.3115261247","","0.2361400262","","0.06465645962","","","","","","",""
"26","","bandit","309","732905","0.0-271.0-0.0","21382061","wem/bandit_single","APLBF6JY2C1QZ","gain","5","","72","H","0","img/none_selected.jpg","0","0","1","0.2366146445","","false","234","0.2366146445","","main_expt","0.3001083946","","0.2575526348","","0.04279198238","","","","","","",""
"73","","bandit","310","734755","0.0-272.0-0.0","21382061","wem/bandit_single","APLBF6JY2C1QZ","gain","5","","72","H","0","img/none_selected.jpg","0","0","1","0.2393051992","","false","235","0.2393051992","","main_expt","0.2768541542","","0.2828430508","","0.06672803397","","","","","","",""
"484","","bandit","311","737002","0.0-273.0-0.0","21382061","wem/bandit_single","APLBF6JY2C1QZ","gain","5","","76","L","3","","0","0","1","0.07100342573","","false","236","0.2976693115","","main_expt","0.332362789","","0.2860482958","","0.07100342573","","","","","","",""
"61","","bandit","312","738828","0.0-274.0-0.0","21382061","wem/bandit_single","APLBF6JY2C1QZ","gain","5","","76","L","3","","0","0","1","0.03680589181","","false","237","0.2674299269","","main_expt","0.3408832027","","0.2783023894","","0.03680589181","","","","","","",""
"54","","bandit","313","740658","0.0-275.0-0.0","21382061","wem/bandit_single","APLBF6JY2C1QZ","gain","5","","76","L","3","","0","0","1","0.02733344458","","false","238","0.2647207175","","main_expt","0.362117859","","0.2644861187","","0.02733344458","","","","","","",""
"27","","bandit","314","742458","0.0-276.0-0.0","21382061","wem/bandit_single","APLBF6JY2C1QZ","gain","5","","75","K","2","","1","0","0","0.3186717024","","false","239","0.1936342125","","main_expt","0.3574250999","","0.3186717024","","0.01831396817","","","","","","",""
"73","","bandit","315","744306","0.0-277.0-0.0","21382061","wem/bandit_single","APLBF6JY2C1QZ","gain","5","","75","K","2","","0","0","1","0.3360375491","","false","240","0.2382432393","","main_expt","0.290436356","","0.3360375491","","0.01383764992","","","","","","",""
"52","","bandit","316","746130","0.0-278.0-0.0","21382061","wem/bandit_single","APLBF6JY2C1QZ","gain","5","","75","K","2","","1","0","0","0.3386213473","","false","241","0.2984572788","","main_expt","0.3414967811","","0.3386213473","","0.0277662638","","","","","","",""
"40","","bandit","317","747947","0.0-279.0-0.0","21382061","wem/bandit_single","APLBF6JY2C1QZ","gain","5","","75","K","2","","1","0","0","0.3523037021","","false","242","0.2927867707","","main_expt","0.3778608287","","0.3523037021","","0.04064120638","","","","","","",""
"107","","bandit","318","749836","0.0-280.0-0.0","21382061","wem/bandit_single","APLBF6JY2C1QZ","gain","5","","75","K","2","","0","0","1","0.360543067","","false","243","0.2870713985","","main_expt","0.3552630766","","0.360543067","","0.04640587852","","","","","","",""
"65","","bandit","319","751676","0.0-281.0-0.0","21382061","wem/bandit_single","APLBF6JY2C1QZ","gain","5","","75","K","2","","0","0","1","0.3728786331","","false","244","0.2882437102","","main_expt","0.3538674815","","0.3728786331","","0.06567084485","","","","","","",""
"33","","bandit","320","753490","0.0-282.0-0.0","21382061","wem/bandit_single","APLBF6JY2C1QZ","gain","5","","75","K","2","","1","0","0","0.3736501537","","false","245","0.3125457984","","main_expt","0.3592745223","","0.3736501537","","0.1069305933","","","","","","",""
"1480","","bandit","321","756746","0.0-283.0-0.0","21382061","wem/bandit_single","APLBF6JY2C1QZ","gain","5","","75","K","2","","0","0","1","0.3880614915","","false","246","0.2949331023","","main_expt","0.3784559109","","0.3880614915","","0.07318543846","","","","","","",""
"156","","bandit","322","758665","0.0-284.0-0.0","21382061","wem/bandit_single","APLBF6JY2C1QZ","gain","5","","75","K","2","","1","0","0","0.3906355486","","false","247","0.3557375168","","main_expt","0.3871101473","","0.3906355486","","0.06866628372","","","","","","",""
"178","","bandit","323","760619","0.0-285.0-0.0","21382061","wem/bandit_single","APLBF6JY2C1QZ","gain","5","","75","K","2","","0","0","1","0.3713177951","","false","248","0.3190142928","","main_expt","0.366594806","","0.3713177951","","0.06101724449","","","","","","",""
"250","","bandit","324","762642","0.0-286.0-0.0","21382061","wem/bandit_single","APLBF6JY2C1QZ","gain","5","","75","K","2","","0","0","1","0.2887643678","","false","249","0.2946857214","","main_expt","0.35265903","","0.2887643678","","0.07132197128","","","","","","",""
"27","","bandit","325","764443","0.0-287.0-0.0","21382061","wem/bandit_single","APLBF6JY2C1QZ","gain","5","","75","K","2","","1","0","0","0.3503459773","","false","250","0.285145352","","main_expt","0.3725690128","","0.3503459773","","0.04991986053","","","","","","",""
"422","","bandit","326","766641","0.0-288.0-0.0","21382061","wem/bandit_single","APLBF6JY2C1QZ","gain","5","","75","K","2","","0","0","1","0.3900307368","","false","251","0.2572530626","","main_expt","0.3516217444","","0.3900307368","","0.087584861","","","","","","",""
"89","","bandit","327","768504","0.0-289.0-0.0","21382061","wem/bandit_single","APLBF6JY2C1QZ","gain","5","","75","K","2","","0","0","1","0.3998204568","","false","252","0.206609756","","main_expt","0.3478664427","","0.3998204568","","0.1089760904","","","","","","",""
"75","","bandit","328","770353","0.0-290.0-0.0","21382061","wem/bandit_single","APLBF6JY2C1QZ","gain","5","","75","K","2","","1","0","0","0.4062214202","","false","253","0.2526850855","","main_expt","0.2845216812","","0.4062214202","","0.1389783028","","","","","","",""
"96","","bandit","329","772226","0.0-291.0-0.0","21382061","wem/bandit_single","APLBF6JY2C1QZ","gain","5","","75","K","2","","0","0","1","0.434330363","","false","254","0.2143143283","","main_expt","0.3395138109","","0.434330363","","0.1438582992","","","","","","",""
"313","","bandit","330","774314","0.0-292.0-0.0","21382061","wem/bandit_single","APLBF6JY2C1QZ","gain","5","","75","K","2","","1","0","0","0.463361135","","false","255","0.2330346229","","main_expt","0.284072963","","0.463361135","","0.1341592381","","","","","","",""
"123","","bandit","331","776211","0.0-293.0-0.0","21382061","wem/bandit_single","APLBF6JY2C1QZ","gain","5","","75","K","2","","0","0","1","0.4513325925","","false","256","0.1707848091","","main_expt","0.2791977035","","0.4513325925","","0.1539827047","","","","","","",""
"230","","bandit","332","778220","0.0-294.0-0.0","21382061","wem/bandit_single","APLBF6JY2C1QZ","gain","5","","75","K","2","","1","0","0","0.4493477618","","false","257","0.204762461","","main_expt","0.2827618753","","0.4493477618","","0.1067893116","","","","","","",""
"105","","bandit","333","780097","0.0-295.0-0.0","21382061","wem/bandit_single","APLBF6JY2C1QZ","gain","5","","75","K","2","","0","0","1","0.4586876348","","false","258","0.1678630312","","main_expt","0.2367173663","","0.4586876348","","0.05021154971","","","","","","",""
"369","","bandit","334","782242","0.0-296.0-0.0","21382061","wem/bandit_single","APLBF6JY2C1QZ","gain","5","","75","K","2","","0","0","1","0.45931789","","false","259","0.1739170557","","main_expt","0.2715647874","","0.45931789","","0.04357518244","","","","","","",""
"372","","bandit","335","784394","0.0-297.0-0.0","21382061","wem/bandit_single","APLBF6JY2C1QZ","gain","5","","75","K","2","","1","0","0","0.4583289396","","false","260","0.1848885371","","main_expt","0.2310951927","","0.4583289396","","0.05606835832","","","","","","",""
"304","","bandit","336","786473","0.0-298.0-0.0","21382061","wem/bandit_single","APLBF6JY2C1QZ","gain","5","","75","K","2","","0","0","1","0.4470277171","","false","261","0.2258440324","","main_expt","0.2297288133","","0.4470277171","","0.05035703518","","","","","","",""
"321","","bandit","337","788571","0.0-299.0-0.0","21382061","wem/bandit_single","APLBF6JY2C1QZ","gain","5","","75","K","2","","0","0","1","0.457772586","","false","262","0.2167220908","","main_expt","0.2072969611","","0.457772586","","0.04352905051","","","","","","",""
"385","","bandit","338","790730","0.0-300.0-0.0","21382061","wem/bandit_single","APLBF6JY2C1QZ","gain","5","","75","K","2","","1","0","0","0.417694616","","false","263","0.2118780444","","main_expt","0.2427077321","","0.417694616","","0.0373968872","","","","","","",""
"326","","bandit","339","792817","0.0-301.0-0.0","21382061","wem/bandit_single","APLBF6JY2C1QZ","gain","5","","75","K","2","","0","0","1","0.4214939516","","false","264","0.1870566281","","main_expt","0.3052561595","","0.4214939516","","0.04440415955","","","","","","",""
"176","","bandit","340","794769","0.0-302.0-0.0","21382061","wem/bandit_single","APLBF6JY2C1QZ","gain","5","","75","K","2","","0","0","1","0.413465883","","false","265","0.1706127143","","main_expt","0.3000319327","","0.413465883","","0.0139225964","","","","","","",""
"282","","bandit","341","796826","0.0-303.0-0.0","21382061","wem/bandit_single","APLBF6JY2C1QZ","gain","5","","75","K","2","","0","0","1","0.4116424673","","false","266","0.1693140566","","main_expt","0.3134404232","","0.4116424673","","0.01259799349","","","","","","",""
"121","","bandit","342","798722","0.0-304.0-0.0","21382061","wem/bandit_single","APLBF6JY2C1QZ","gain","5","","75","K","2","","0","0","1","0.3863145418","","false","267","0.1753800763","","main_expt","0.3066387991","","0.3863145418","","0.00740451457","","","","","","",""
"13","","bandit","343","800515","0.0-305.0-0.0","21382061","wem/bandit_single","APLBF6JY2C1QZ","gain","5","","74","J","1","","0","0","1","0.3058482798","","false","268","0.1918786918","","main_expt","0.3058482798","","0.4265221664","","0.004693585052","","","","","","",""
"272","","bandit","344","802564","0.0-306.0-0.0","21382061","wem/bandit_single","APLBF6JY2C1QZ","gain","5","","74","J","1","","0","0","1","0.2523051309","","false","269","0.1999989265","","main_expt","0.2523051309","","0.4515898034","","0.004824061053","","","","","","",""
"128","","bandit","345","804466","0.0-307.0-0.0","21382061","wem/bandit_single","APLBF6JY2C1QZ","gain","5","","74","J","1","","1","0","0","0.2663701485","","false","270","0.2211747839","","main_expt","0.2663701485","","0.4467147125","","0.006174480496","","","","","","",""
"226","","bandit","346","806466","0.0-308.0-0.0","21382061","wem/bandit_single","APLBF6JY2C1QZ","gain","5","","74","J","1","","1","0","0","0.2485798686","","false","271","0.2404792593","","main_expt","0.2485798686","","0.4582909467","","0.00832103917","","","","","","",""
"208","","bandit","347","808450","0.0-309.0-0.0","21382061","wem/bandit_single","APLBF6JY2C1QZ","gain","5","","74","J","1","","1","0","0","0.2345495347","","false","272","0.2558589782","","main_expt","0.2345495347","","0.4709209778","","0.00728594366","","","","","","",""
"250","","bandit","348","810475","0.0-310.0-0.0","21382061","wem/bandit_single","APLBF6JY2C1QZ","gain","5","","74","J","1","","0","0","1","0.2137032991","","false","273","0.1700432942","","main_expt","0.2137032991","","0.4660917397","","0.01114453755","","","","","","",""
"176","","bandit","349","812426","0.0-311.0-0.0","21382061","wem/bandit_single","APLBF6JY2C1QZ","gain","5","","74","J","1","","0","0","1","0.2108512091","","false","274","0.2452429789","","main_expt","0.2108512091","","0.4639522763","","0.01390500062","","","","","","",""
"247","","bandit","350","814449","0.0-312.0-0.0","21382061","wem/bandit_single","APLBF6JY2C1QZ","gain","5","","74","J","1","","0","0","1","0.1817434844","","false","275","0.2540496776","","main_expt","0.1817434844","","0.4559735555","","0.01307999715","","","","","","",""
"298","","bandit","351","816523","0.0-313.0-0.0","21382061","wem/bandit_single","APLBF6JY2C1QZ","gain","5","","74","J","1","","0","0","1","0.2037179719","","false","276","0.2816965905","","main_expt","0.2037179719","","0.4246507461","","0.01650166306","","","","","","",""
"232","","bandit","352","818529","0.0-314.0-0.0","21382061","wem/bandit_single","APLBF6JY2C1QZ","gain","5","","74","J","1","","0","0","1","0.211691867","","false","277","0.2757967379","","main_expt","0.211691867","","0.4061878557","","0.02228120093","","","","","","",""
"211","","bandit","353","820507","0.0-315.0-0.0","21382061","wem/bandit_single","APLBF6JY2C1QZ","gain","5","","72","H","0","img/none_selected.jpg","1","0","0","0.3233086266","","false","278","0.3233086266","","main_expt","0.1725584367","","0.4185559707","","0.01609054627","","","","","","",""
"283","","bandit","354","822571","0.0-316.0-0.0","21382061","wem/bandit_single","APLBF6JY2C1QZ","gain","5","","72","H","0","img/none_selected.jpg","1","0","0","0.3447853064","","false","279","0.3447853064","","main_expt","0.1976152383","","0.4048416859","","0.03276024715","","","","","","",""
"136","","bandit","355","824481","0.0-317.0-0.0","21382061","wem/bandit_single","APLBF6JY2C1QZ","gain","5","","72","H","0","img/none_selected.jpg","0","0","1","0.2944080033","","false","280","0.2944080033","","main_expt","0.2245419331","","0.3930733378","","0.045813934","","","","","","",""
"74","","bandit","356","826330","0.0-318.0-0.0","21382061","wem/bandit_single","APLBF6JY2C1QZ","gain","5","","72","H","0","img/none_selected.jpg","0","0","1","0.3455536282","","false","281","0.3455536282","","main_expt","0.2649095144","","0.3722539572","","0.07680660156","","","","","","",""
"103","","bandit","357","828210","0.0-319.0-0.0","21382061","wem/bandit_single","APLBF6JY2C1QZ","gain","5","","72","H","0","img/none_selected.jpg","1","0","0","0.3002636441","","false","282","0.3002636441","","main_expt","0.2440542309","","0.392640689","","0.08989395926","","","","","","",""
"141","","bandit","358","830130","0.0-320.0-0.0","21382061","wem/bandit_single","APLBF6JY2C1QZ","gain","5","","72","H","0","img/none_selected.jpg","0","0","1","0.2433385189","","false","283","0.2433385189","","main_expt","0.3074658718","","0.3657249804","","0.1096048843","","","","","","",""
"223","","bandit","359","832132","0.0-321.0-0.0","21382061","wem/bandit_single","APLBF6JY2C1QZ","gain","5","","72","H","0","img/none_selected.jpg","0","0","1","0.2108667552","","false","284","0.2108667552","","main_expt","0.3224089974","","0.3625644972","","0.1082817284","","","","","","",""
"255","","bandit","360","834161","0.0-322.0-0.0","21382061","wem/bandit_single","APLBF6JY2C1QZ","gain","5","","72","H","0","img/none_selected.jpg","0","0","1","0.2340218901","","false","285","0.2340218901","","main_expt","0.3022873968","","0.3054288932","","0.1629804938","","","","","","",""
"159","","bandit","361","836097","0.0-323.0-0.0","21382061","wem/bandit_single","APLBF6JY2C1QZ","gain","5","","72","H","0","img/none_selected.jpg","0","0","1","0.2499238339","","false","286","0.2499238339","","main_expt","0.2889410052","","0.3391155559","","0.1852598429","","","","","","",""
"168","","bandit","362","838043","0.0-324.0-0.0","21382061","wem/bandit_single","APLBF6JY2C1QZ","gain","5","","72","H","0","img/none_selected.jpg","0","0","1","0.2334780882","","false","287","0.2334780882","","main_expt","0.3151816804","","0.3328791194","","0.2065414002","","","","","","",""
"950","","bandit","363","840769","0.0-325.0-0.0","21382061","wem/bandit_single","APLBF6JY2C1QZ","gain","5","","75","K","2","","0","0","1","0.3011075564","","false","288","0.2784320663","","main_expt","0.3489654206","","0.3011075564","","0.1811366591","","","","","","",""
"214","","bandit","364","842746","0.0-326.0-0.0","21382061","wem/bandit_single","APLBF6JY2C1QZ","gain","5","","75","K","2","","1","0","0","0.3326814497","","false","289","0.2751214951","","main_expt","0.3673528387","","0.3326814497","","0.1202209304","","","","","","",""
"271","","bandit","365","844795","0.0-327.0-0.0","21382061","wem/bandit_single","APLBF6JY2C1QZ","gain","5","","75","K","2","","1","0","0","0.3289320066","","false","290","0.304381699","","main_expt","0.3156989172","","0.3289320066","","0.1453470377","","","","","","",""
"260","","bandit","366","846835","0.0-328.0-0.0","21382061","wem/bandit_single","APLBF6JY2C1QZ","gain","5","","75","K","2","","0","0","1","0.3074380044","","false","291","0.2447169523","","main_expt","0.3731423443","","0.3074380044","","0.1477070836","","","","","","",""
"341","","bandit","367","848952","0.0-329.0-0.0","21382061","wem/bandit_single","APLBF6JY2C1QZ","gain","5","","75","K","2","","1","0","0","0.247625386","","false","292","0.2422140582","","main_expt","0.3819638953","","0.247625386","","0.1442574827","","","","","","",""
"341","","bandit","368","851058","0.0-330.0-0.0","21382061","wem/bandit_single","APLBF6JY2C1QZ","gain","5","","75","K","2","","1","0","0","0.2438381571","","false","293","0.1480972705","","main_expt","0.3709780048","","0.2438381571","","0.1219757373","","","","","","",""
"256","","bandit","369","853090","0.0-331.0-0.0","21382061","wem/bandit_single","APLBF6JY2C1QZ","gain","5","","75","K","2","","1","0","0","0.2772308066","","false","294","0.1338078997","","main_expt","0.4013541824","","0.2772308066","","0.149249144","","","","","","",""
"157","","bandit","370","855026","0.0-332.0-0.0","21382061","wem/bandit_single","APLBF6JY2C1QZ","gain","5","","75","K","2","","0","0","1","0.2386370059","","false","295","0.1452417655","","main_expt","0.4203470877","","0.2386370059","","0.1066825056","","","","","","",""
"245","","bandit","371","857050","0.0-333.0-0.0","21382061","wem/bandit_single","APLBF6JY2C1QZ","gain","5","","75","K","2","","0","0","1","0.2322267342","","false","296","0.12995508","","main_expt","0.4006598815","","0.2322267342","","0.06692503618","","","","","","",""
"215","","bandit","372","859042","0.0-334.0-0.0","21382061","wem/bandit_single","APLBF6JY2C1QZ","gain","5","","75","K","2","","0","0","1","0.2930795043","","false","297","0.1079814357","","main_expt","0.4189250697","","0.2930795043","","0.08806334149","","","","","","",""
"112","","bandit","373","860930","0.0-335.0-0.0","21382061","wem/bandit_single","APLBF6JY2C1QZ","gain","5","","75","K","2","","1","0","0","0.3168190842","","false","298","0.08396844466","","main_expt","0.4204303011","","0.3168190842","","0.0708541643","","","","","","",""
"90","","bandit","374","862796","0.0-336.0-0.0","21382061","wem/bandit_single","APLBF6JY2C1QZ","gain","5","","75","K","2","","1","0","0","0.3251331367","","false","299","0.08942466987","","main_expt","0.3955170021","","0.3251331367","","0.07807128628","","","","","","",""
"96","","bandit","375","864672","0.0-337.0-0.0","21382061","wem/bandit_single","APLBF6JY2C1QZ","gain","5","","75","K","2","","1","0","0","0.3253714703","","false","300","0.09399158568","","main_expt","0.3580479124","","0.3253714703","","0.09051803512","","","","","","",""
