"rt","responses","trial_type","trial_index","time_elapsed","internal_node_id","subjID","study","MID","cond","drift","key_press","respCharCode","respKey","respChoiceNum","respChoice","gems","bombs","no_reward","GemPrChosen","BombPrChosen","practice","trial_counter","WinPr_0","LosePr_0","trial_label","WinPr_1","LosePr_1","WinPr_2","LosePr_2","WinPr_3","LosePr_3","Q0","Q1","Q2","gender","age","ethnicity"
"8207","{""Q0"":""A1FLNAFLLO3UPK""}","survey-text","0","8217","0.0-0.0","22308927","wem/bandit_single","A1FLNAFLLO3UPK","pain","6","","","","","","","","","","","","","","","","","","","","","","","","","","",""
"1990","","text","1","11210","0.0-1.0","22308927","wem/bandit_single","A1FLNAFLLO3UPK","pain","6","32","","","","","","","","","","","","","","","","","","","","","","","","","",""
"3178","","text","2","14391","0.0-2.0","22308927","wem/bandit_single","A1FLNAFLLO3UPK","pain","6","32","","","","","","","","","","","","","","","","","","","","","","","","","",""
"14477","","text","3","28873","0.0-3.0","22308927","wem/bandit_single","A1FLNAFLLO3UPK","pain","6","32","","","","","","","","","","","","","","","","","","","","","","","","","",""
"10206","","text","4","39081","0.0-4.0","22308927","wem/bandit_single","A1FLNAFLLO3UPK","pain","6","32","","","","","","","","","","","","","","","","","","","","","","","","","",""
"7575","","text","5","46659","0.0-5.0","22308927","wem/bandit_single","A1FLNAFLLO3UPK","pain","6","32","","","","","","","","","","","","","","","","","","","","","","","","","",""
"5399","","text","6","52062","0.0-6.0","22308927","wem/bandit_single","A1FLNAFLLO3UPK","pain","6","32","","","","","","","","","","","","","","","","","","","","","","","","","",""
"4463","","text","7","56529","0.0-7.0","22308927","wem/bandit_single","A1FLNAFLLO3UPK","pain","6","32","","","","","","","","","","","","","","","","","","","","","","","","","",""
"3352","","text","8","59883","0.0-8.0","22308927","wem/bandit_single","A1FLNAFLLO3UPK","pain","6","32","","","","","","","","","","","","","","","","","","","","","","","","","",""
"2555","","text","9","62442","0.0-9.0","22308927","wem/bandit_single","A1FLNAFLLO3UPK","pain","6","32","","","","","","","","","","","","","","","","","","","","","","","","","",""
"10349","","text","10","72793","0.0-10.0","22308927","wem/bandit_single","A1FLNAFLLO3UPK","pain","6","32","","","","","","","","","","","","","","","","","","","","","","","","","",""
"5679","","text","11","78475","0.0-11.0","22308927","wem/bandit_single","A1FLNAFLLO3UPK","pain","6","32","","","","","","","","","","","","","","","","","","","","","","","","","",""
"1496","","bandit","12","81493","0.0-12.0-0.0","22308927","wem/bandit_single","A1FLNAFLLO3UPK","pain","6","","74","J","0","img/none_selected_demo.jpg","0","0","1","0","0","true","0","0","0","","","","","","","","","","","","",""
"1153","","bandit","13","84405","0.0-13.0-0.0","22308927","wem/bandit_single","A1FLNAFLLO3UPK","pain","6","","75","K","0","img/none_selected_demo.jpg","0","0","1","0","0","true","0","0","0","","","","","","","","","","","","",""
"2334","","text","14","86997","0.0-14.0","22308927","wem/bandit_single","A1FLNAFLLO3UPK","pain","6","32","","","","","","","","","","","","","","","","","","","","","","","","","",""
"1875","","text","15","88875","0.0-15.0","22308927","wem/bandit_single","A1FLNAFLLO3UPK","pain","6","32","","","","","","","","","","","","","","","","","","","","","","","","","",""
"3179","","text","16","92058","0.0-16.0","22308927","wem/bandit_single","A1FLNAFLLO3UPK","pain","6","32","","","","","","","","","","","","","","","","","","","","","","","","","",""
"3689","","text","17","95752","0.0-17.0","22308927","wem/bandit_single","A1FLNAFLLO3UPK","pain","6","32","","","","","","","","","","","","","","","","","","","","","","","","","",""
"1766","","bandit","18","99026","0.0-18.0-0.0","22308927","wem/bandit_single","A1FLNAFLLO3UPK","pain","6","","74","J","0","img/none_selected_demo.jpg","0","1","0","0","0.8","true","0","0","0.8","80_20_practice","0","0.2","","","","","","","","","",""
"333","","bandit","19","101122","0.0-18.0-1.0","22308927","wem/bandit_single","A1FLNAFLLO3UPK","pain","6","","74","J","0","img/none_selected_demo.jpg","0","0","1","0","0.8","true","0","0","0.8","80_20_practice","0","0.2","","","","","","","","","",""
"117","","bandit","20","103000","0.0-18.0-2.0","22308927","wem/bandit_single","A1FLNAFLLO3UPK","pain","6","","74","J","0","img/none_selected_demo.jpg","0","1","0","0","0.8","true","0","0","0.8","80_20_practice","0","0.2","","","","","","","","","",""
"156","","bandit","21","104911","0.0-18.0-3.0","22308927","wem/bandit_single","A1FLNAFLLO3UPK","pain","6","","74","J","0","img/none_selected_demo.jpg","0","1","0","0","0.8","true","0","0","0.8","80_20_practice","0","0.2","","","","","","","","","",""
"176","","bandit","22","106856","0.0-18.0-4.0","22308927","wem/bandit_single","A1FLNAFLLO3UPK","pain","6","","74","J","0","img/none_selected_demo.jpg","0","0","1","0","0.8","true","0","0","0.8","80_20_practice","0","0.2","","","","","","","","","",""
"123","","bandit","23","108738","0.0-18.0-5.0","22308927","wem/bandit_single","A1FLNAFLLO3UPK","pain","6","","74","J","0","img/none_selected_demo.jpg","0","0","1","0","0.8","true","0","0","0.8","80_20_practice","0","0.2","","","","","","","","","",""
"2285","","bandit","24","112783","0.0-18.0-6.0","22308927","wem/bandit_single","A1FLNAFLLO3UPK","pain","6","","74","J","0","img/none_selected_demo.jpg","0","1","0","0","0.8","true","0","0","0.8","80_20_practice","0","0.2","","","","","","","","","",""
"429","","bandit","25","114979","0.0-18.0-7.0","22308927","wem/bandit_single","A1FLNAFLLO3UPK","pain","6","","74","J","0","img/none_selected_demo.jpg","0","0","1","0","0.8","true","0","0","0.8","80_20_practice","0","0.2","","","","","","","","","",""
"2364","","bandit","26","119103","0.0-18.0-8.0","22308927","wem/bandit_single","A1FLNAFLLO3UPK","pain","6","","75","K","1","","0","1","0","0","0.2","true","0","0","0.8","80_20_practice","0","0.2","","","","","","","","","",""
"91","","bandit","27","120954","0.0-18.0-9.0","22308927","wem/bandit_single","A1FLNAFLLO3UPK","pain","6","","75","K","1","","0","0","1","0","0.2","true","0","0","0.8","80_20_practice","0","0.2","","","","","","","","","",""
"714","","bandit","28","123436","0.0-18.0-10.0","22308927","wem/bandit_single","A1FLNAFLLO3UPK","pain","6","","75","K","1","","0","1","0","0","0.2","true","0","0","0.8","80_20_practice","0","0.2","","","","","","","","","",""
"87","","bandit","29","125281","0.0-18.0-11.0","22308927","wem/bandit_single","A1FLNAFLLO3UPK","pain","6","","75","K","1","","0","1","0","0","0.2","true","0","0","0.8","80_20_practice","0","0.2","","","","","","","","","",""
"76","","bandit","30","127119","0.0-18.0-12.0","22308927","wem/bandit_single","A1FLNAFLLO3UPK","pain","6","","75","K","1","","0","0","1","0","0.2","true","0","0","0.8","80_20_practice","0","0.2","","","","","","","","","",""
"1232","","bandit","31","130114","0.0-18.0-13.0","22308927","wem/bandit_single","A1FLNAFLLO3UPK","pain","6","","75","K","1","","0","0","1","0","0.2","true","0","0","0.8","80_20_practice","0","0.2","","","","","","","","","",""
"449","","bandit","32","132327","0.0-18.0-14.0","22308927","wem/bandit_single","A1FLNAFLLO3UPK","pain","6","","75","K","1","","0","0","1","0","0.2","true","0","0","0.8","80_20_practice","0","0.2","","","","","","","","","",""
"140","","bandit","33","134224","0.0-18.0-15.0","22308927","wem/bandit_single","A1FLNAFLLO3UPK","pain","6","","75","K","1","","0","0","1","0","0.2","true","0","0","0.8","80_20_practice","0","0.2","","","","","","","","","",""
"116","","bandit","34","136106","0.0-18.0-16.0","22308927","wem/bandit_single","A1FLNAFLLO3UPK","pain","6","","75","K","1","","0","0","1","0","0.2","true","0","0","0.8","80_20_practice","0","0.2","","","","","","","","","",""
"4","","bandit","35","137887","0.0-18.0-17.0","22308927","wem/bandit_single","A1FLNAFLLO3UPK","pain","6","","75","K","1","","0","0","1","0","0.2","true","0","0","0.8","80_20_practice","0","0.2","","","","","","","","","",""
"2297","","bandit","36","141942","0.0-18.0-18.0","22308927","wem/bandit_single","A1FLNAFLLO3UPK","pain","6","","75","K","1","","0","0","1","0","0.2","true","0","0","0.8","80_20_practice","0","0.2","","","","","","","","","",""
"2648","","bandit","37","146348","0.0-18.0-19.0","22308927","wem/bandit_single","A1FLNAFLLO3UPK","pain","6","","74","J","0","img/none_selected_demo.jpg","0","1","0","0","0.8","true","0","0","0.8","80_20_practice","0","0.2","","","","","","","","","",""
"5517","","text","38","152121","0.0-19.0","22308927","wem/bandit_single","A1FLNAFLLO3UPK","pain","6","32","","","","","","","","","","","","","","","","","","","","","","","","","",""
"1821","","bandit","39","155449","0.0-20.0-0.0","22308927","wem/bandit_single","A1FLNAFLLO3UPK","pain","6","","74","J","0","img/none_selected_demo.jpg","0","0","1","0","0","true","0","0","0","","0","0","","","","","","","","","",""
"4888","","text","40","160595","0.0-21.0","22308927","wem/bandit_single","A1FLNAFLLO3UPK","pain","6","32","","","","","","","","","","","","","","","","","","","","","","","","","",""
"3350","","text","41","163951","0.0-22.0","22308927","wem/bandit_single","A1FLNAFLLO3UPK","pain","6","32","","","","","","","","","","","","","","","","","","","","","","","","","",""
"2085","","text","42","166041","0.0-23.0","22308927","wem/bandit_single","A1FLNAFLLO3UPK","pain","6","32","","","","","","","","","","","","","","","","","","","","","","","","","",""
"2183","","text","43","168227","0.0-24.0","22308927","wem/bandit_single","A1FLNAFLLO3UPK","pain","6","32","","","","","","","","","","","","","","","","","","","","","","","","","",""
"3113","","text","44","171346","0.0-25.0","22308927","wem/bandit_single","A1FLNAFLLO3UPK","pain","6","32","","","","","","","","","","","","","","","","","","","","","","","","","",""
"3383","","text","45","174738","0.0-26.0","22308927","wem/bandit_single","A1FLNAFLLO3UPK","pain","6","32","","","","","","","","","","","","","","","","","","","","","","","","","",""
"2748","","text","46","177491","0.0-27.0","22308927","wem/bandit_single","A1FLNAFLLO3UPK","pain","6","32","","","","","","","","","","","","","","","","","","","","","","","","","",""
"2760","","text","47","180257","0.0-28.0","22308927","wem/bandit_single","A1FLNAFLLO3UPK","pain","6","32","","","","","","","","","","","","","","","","","","","","","","","","","",""
"2617","","text","48","182881","0.0-29.0","22308927","wem/bandit_single","A1FLNAFLLO3UPK","pain","6","32","","","","","","","","","","","","","","","","","","","","","","","","","",""
"1722","","text","49","184610","0.0-30.0","22308927","wem/bandit_single","A1FLNAFLLO3UPK","pain","6","32","","","","","","","","","","","","","","","","","","","","","","","","","",""
"4389","","text","50","189006","0.0-31.0","22308927","wem/bandit_single","A1FLNAFLLO3UPK","pain","6","32","","","","","","","","","","","","","","","","","","","","","","","","","",""
"1503","","bandit","51","192026","0.0-32.0-0.0","22308927","wem/bandit_single","A1FLNAFLLO3UPK","pain","6","","72","H","0","img/none_selected.jpg","0","1","0","0","0.8","true","0","0","0.8","full_practice","0","0.2","0","0.6","0","0.2","","","","","",""
"124","","bandit","52","193913","0.0-32.0-1.0","22308927","wem/bandit_single","A1FLNAFLLO3UPK","pain","6","","72","H","0","img/none_selected.jpg","0","1","0","0","0.8","true","0","0","0.8","full_practice","0","0.2","0","0.6","0","0.2","","","","","",""
"141","","bandit","53","195815","0.0-32.0-2.0","22308927","wem/bandit_single","A1FLNAFLLO3UPK","pain","6","","72","H","0","img/none_selected.jpg","0","1","0","0","0.8","true","0","0","0.8","full_practice","0","0.2","0","0.6","0","0.2","","","","","",""
"165","","bandit","54","197743","0.0-32.0-3.0","22308927","wem/bandit_single","A1FLNAFLLO3UPK","pain","6","","72","H","0","img/none_selected.jpg","0","0","1","0","0.8","true","0","0","0.8","full_practice","0","0.2","0","0.6","0","0.2","","","","","",""
"189","","bandit","55","199695","0.0-32.0-4.0","22308927","wem/bandit_single","A1FLNAFLLO3UPK","pain","6","","74","J","1","","0","0","1","0","0.2","true","0","0","0.8","full_practice","0","0.2","0","0.6","0","0.2","","","","","",""
"100","","bandit","56","201556","0.0-32.0-5.0","22308927","wem/bandit_single","A1FLNAFLLO3UPK","pain","6","","74","J","1","","0","0","1","0","0.2","true","0","0","0.8","full_practice","0","0.2","0","0.6","0","0.2","","","","","",""
"118","","bandit","57","203434","0.0-32.0-6.0","22308927","wem/bandit_single","A1FLNAFLLO3UPK","pain","6","","74","J","1","","0","0","1","0","0.2","true","0","0","0.8","full_practice","0","0.2","0","0.6","0","0.2","","","","","",""
"130","","bandit","58","205334","0.0-32.0-7.0","22308927","wem/bandit_single","A1FLNAFLLO3UPK","pain","6","","74","J","1","","0","0","1","0","0.2","true","0","0","0.8","full_practice","0","0.2","0","0.6","0","0.2","","","","","",""
"476","","bandit","59","207567","0.0-32.0-8.0","22308927","wem/bandit_single","A1FLNAFLLO3UPK","pain","6","","75","K","2","","0","0","1","0","0.6","true","0","0","0.8","full_practice","0","0.2","0","0.6","0","0.2","","","","","",""
"105","","bandit","60","209432","0.0-32.0-9.0","22308927","wem/bandit_single","A1FLNAFLLO3UPK","pain","6","","75","K","2","","0","0","1","0","0.6","true","0","0","0.8","full_practice","0","0.2","0","0.6","0","0.2","","","","","",""
"97","","bandit","61","211295","0.0-32.0-10.0","22308927","wem/bandit_single","A1FLNAFLLO3UPK","pain","6","","75","K","2","","0","0","1","0","0.6","true","0","0","0.8","full_practice","0","0.2","0","0.6","0","0.2","","","","","",""
"63","","bandit","62","213119","0.0-32.0-11.0","22308927","wem/bandit_single","A1FLNAFLLO3UPK","pain","6","","75","K","2","","0","1","0","0","0.6","true","0","0","0.8","full_practice","0","0.2","0","0.6","0","0.2","","","","","",""
"142","","bandit","63","215052","0.0-32.0-12.0","22308927","wem/bandit_single","A1FLNAFLLO3UPK","pain","6","","76","L","3","","0","0","1","0","0.2","true","0","0","0.8","full_practice","0","0.2","0","0.6","0","0.2","","","","","",""
"506","","bandit","64","217321","0.0-32.0-13.0","22308927","wem/bandit_single","A1FLNAFLLO3UPK","pain","6","","76","L","3","","0","0","1","0","0.2","true","0","0","0.8","full_practice","0","0.2","0","0.6","0","0.2","","","","","",""
"268","","bandit","65","219351","0.0-32.0-14.0","22308927","wem/bandit_single","A1FLNAFLLO3UPK","pain","6","","76","L","3","","0","0","1","0","0.2","true","0","0","0.8","full_practice","0","0.2","0","0.6","0","0.2","","","","","",""
"91","","bandit","66","221199","0.0-32.0-15.0","22308927","wem/bandit_single","A1FLNAFLLO3UPK","pain","6","","76","L","3","","0","1","0","0","0.2","true","0","0","0.8","full_practice","0","0.2","0","0.6","0","0.2","","","","","",""
"159","","bandit","67","223120","0.0-32.0-16.0","22308927","wem/bandit_single","A1FLNAFLLO3UPK","pain","6","","76","L","3","","0","0","1","0","0.2","true","0","0","0.8","full_practice","0","0.2","0","0.6","0","0.2","","","","","",""
"104","","bandit","68","224989","0.0-32.0-17.0","22308927","wem/bandit_single","A1FLNAFLLO3UPK","pain","6","","72","H","0","img/none_selected.jpg","0","1","0","0","0.8","true","0","0","0.8","full_practice","0","0.2","0","0.6","0","0.2","","","","","",""
"507","","bandit","69","227263","0.0-32.0-18.0","22308927","wem/bandit_single","A1FLNAFLLO3UPK","pain","6","","72","H","0","img/none_selected.jpg","0","1","0","0","0.8","true","0","0","0.8","full_practice","0","0.2","0","0.6","0","0.2","","","","","",""
"2334","","bandit","70","231358","0.0-32.0-19.0","22308927","wem/bandit_single","A1FLNAFLLO3UPK","pain","6","","72","H","0","img/none_selected.jpg","0","1","0","0","0.8","true","0","0","0.8","full_practice","0","0.2","0","0.6","0","0.2","","","","","",""
"4901","","text","71","236518","0.0-33.0","22308927","wem/bandit_single","A1FLNAFLLO3UPK","pain","6","32","","","","","","","","","","","","","","","","","","","","","","","","","",""
"12199","","text","72","249727","0.0-34.0","22308927","wem/bandit_single","A1FLNAFLLO3UPK","pain","6","32","","","","","","","","","","","","","","","","","","","","","","","","","",""
"4890","","text","73","254627","0.0-35.0","22308927","wem/bandit_single","A1FLNAFLLO3UPK","pain","6","32","","","","","","","","","","","","","","","","","","","","","","","","","",""
"5962","","text","74","260597","0.0-36.0","22308927","wem/bandit_single","A1FLNAFLLO3UPK","pain","6","32","","","","","","","","","","","","","","","","","","","","","","","","","",""
"6017","","text","75","266621","0.0-37.0","22308927","wem/bandit_single","A1FLNAFLLO3UPK","pain","6","32","","","","","","","","","","","","","","","","","","","","","","","","","",""
"1181","","bandit","76","269316","0.0-38.0-0.0","22308927","wem/bandit_single","A1FLNAFLLO3UPK","pain","6","","72","H","0","img/none_selected.jpg","0","0","1","","0.1940838181","false","1","","0.1940838181","main_expt","","0.1142009487","","0.3785571591","","0.1623639982","","","","","",""
"311","","bandit","77","271391","0.0-39.0-0.0","22308927","wem/bandit_single","A1FLNAFLLO3UPK","pain","6","","72","H","0","img/none_selected.jpg","0","1","0","","0.2410489397","false","2","","0.2410489397","main_expt","","0.09165924831","","0.3894156921","","0.1864124343","","","","","",""
"364","","bandit","78","273513","0.0-40.0-0.0","22308927","wem/bandit_single","A1FLNAFLLO3UPK","pain","6","","72","H","0","img/none_selected.jpg","0","0","1","","0.2645422736","false","3","","0.2645422736","main_expt","","0.1174954382","","0.4125386255","","0.1494323563","","","","","",""
"154","","bandit","79","275425","0.0-41.0-0.0","22308927","wem/bandit_single","A1FLNAFLLO3UPK","pain","6","","72","H","0","img/none_selected.jpg","0","0","1","","0.1984909652","false","4","","0.1984909652","main_expt","","0.1426329369","","0.3990363537","","0.1266436655","","","","","",""
"114","","bandit","80","277303","0.0-42.0-0.0","22308927","wem/bandit_single","A1FLNAFLLO3UPK","pain","6","","74","J","1","","0","0","1","","0.1503595054","false","5","","0.1239860826","main_expt","","0.1503595054","","0.454435597","","0.1476492511","","","","","",""
"145","","bandit","81","279209","0.0-43.0-0.0","22308927","wem/bandit_single","A1FLNAFLLO3UPK","pain","6","","74","J","1","","0","0","1","","0.1646450236","false","6","","0.06805906468","main_expt","","0.1646450236","","0.4583077461","","0.1525625276","","","","","",""
"84","","bandit","82","281058","0.0-44.0-0.0","22308927","wem/bandit_single","A1FLNAFLLO3UPK","pain","6","","74","J","1","","0","0","1","","0.2031930874","false","7","","0.05890971721","main_expt","","0.2031930874","","0.4617786505","","0.1856713893","","","","","",""
"119","","bandit","83","282946","0.0-45.0-0.0","22308927","wem/bandit_single","A1FLNAFLLO3UPK","pain","6","","74","J","1","","0","0","1","","0.181996894","false","8","","0.0832196585","main_expt","","0.181996894","","0.475168559","","0.2108076934","","","","","",""
"168","","bandit","84","284876","0.0-46.0-0.0","22308927","wem/bandit_single","A1FLNAFLLO3UPK","pain","6","","75","K","2","","0","1","0","","0.458325554","false","9","","0.1325638406","main_expt","","0.1673845292","","0.458325554","","0.1956497028","","","","","",""
"117","","bandit","85","286757","0.0-47.0-0.0","22308927","wem/bandit_single","A1FLNAFLLO3UPK","pain","6","","75","K","2","","0","0","1","","0.4316924572","false","10","","0.1196898321","main_expt","","0.2328473308","","0.4316924572","","0.1582923175","","","","","",""
"81","","bandit","86","288602","0.0-48.0-0.0","22308927","wem/bandit_single","A1FLNAFLLO3UPK","pain","6","","75","K","2","","0","0","1","","0.3756511011","false","11","","0.1103103944","main_expt","","0.20589494","","0.3756511011","","0.167734997","","","","","",""
"86","","bandit","87","290457","0.0-49.0-0.0","22308927","wem/bandit_single","A1FLNAFLLO3UPK","pain","6","","75","K","2","","0","0","1","","0.3549088727","false","12","","0.06819125589","main_expt","","0.2246944015","","0.3549088727","","0.2150601968","","","","","",""
"97","","bandit","88","292327","0.0-50.0-0.0","22308927","wem/bandit_single","A1FLNAFLLO3UPK","pain","6","","76","L","3","","0","0","1","","0.252216208","false","13","","0.07076675629","main_expt","","0.2613447163","","0.3455803359","","0.252216208","","","","","",""
"71","","bandit","89","294159","0.0-51.0-0.0","22308927","wem/bandit_single","A1FLNAFLLO3UPK","pain","6","","76","L","3","","0","1","0","","0.2184022087","false","14","","0.09241451512","main_expt","","0.212655478","","0.3809937316","","0.2184022087","","","","","",""
"151","","bandit","90","296078","0.0-52.0-0.0","22308927","wem/bandit_single","A1FLNAFLLO3UPK","pain","6","","76","L","3","","0","0","1","","0.210005203","false","15","","0.07205700739","main_expt","","0.1679070286","","0.3479508526","","0.210005203","","","","","",""
"134","","bandit","91","297979","0.0-53.0-0.0","22308927","wem/bandit_single","A1FLNAFLLO3UPK","pain","6","","76","L","3","","0","0","1","","0.2402495983","false","16","","0.04760190598","main_expt","","0.1774383452","","0.3287514515","","0.2402495983","","","","","",""
"139","","bandit","92","299880","0.0-54.0-0.0","22308927","wem/bandit_single","A1FLNAFLLO3UPK","pain","6","","76","L","3","","0","0","1","","0.2766196603","false","17","","0.03958098904","main_expt","","0.1562672395","","0.4008698656","","0.2766196603","","","","","",""
"118","","bandit","93","301765","0.0-55.0-0.0","22308927","wem/bandit_single","A1FLNAFLLO3UPK","pain","6","","76","L","3","","0","0","1","","0.3193638145","false","18","","0.03128671198","main_expt","","0.1407597156","","0.3845126264","","0.3193638145","","","","","",""
"115","","bandit","94","303640","0.0-56.0-0.0","22308927","wem/bandit_single","A1FLNAFLLO3UPK","pain","6","","75","K","2","","0","0","1","","0.3979941068","false","19","","0.04453616628","main_expt","","0.1310890834","","0.3979941068","","0.2953318626","","","","","",""
"111","","bandit","95","305521","0.0-57.0-0.0","22308927","wem/bandit_single","A1FLNAFLLO3UPK","pain","6","","75","K","2","","0","0","1","","0.3920029867","false","20","","0.04596917346","main_expt","","0.1317163977","","0.3920029867","","0.3007143328","","","","","",""
"123","","bandit","96","307409","0.0-58.0-0.0","22308927","wem/bandit_single","A1FLNAFLLO3UPK","pain","6","","75","K","2","","0","1","0","","0.4057752261","false","21","","0.04297504417","main_expt","","0.1752537558","","0.4057752261","","0.3105995928","","","","","",""
"133","","bandit","97","309305","0.0-59.0-0.0","22308927","wem/bandit_single","A1FLNAFLLO3UPK","pain","6","","75","K","2","","0","0","1","","0.4072420822","false","22","","0.04739698515","main_expt","","0.2064983175","","0.4072420822","","0.3742057862","","","","","",""
"67","","bandit","98","311144","0.0-60.0-0.0","22308927","wem/bandit_single","A1FLNAFLLO3UPK","pain","6","","75","K","2","","0","0","1","","0.3798298113","false","23","","0.08003173613","main_expt","","0.216691321","","0.3798298113","","0.3439758112","","","","","",""
"99","","bandit","99","313009","0.0-61.0-0.0","22308927","wem/bandit_single","A1FLNAFLLO3UPK","pain","6","","75","K","2","","0","1","0","","0.3329856024","false","24","","0.09868307827","main_expt","","0.2342773894","","0.3329856024","","0.3549138733","","","","","",""
"210","","bandit","100","314986","0.0-62.0-0.0","22308927","wem/bandit_single","A1FLNAFLLO3UPK","pain","6","","75","K","2","","0","0","1","","0.3337381726","false","25","","0.07950464875","main_expt","","0.2378870173","","0.3337381726","","0.3811330683","","","","","",""
"1082","","bandit","101","317837","0.0-63.0-0.0","22308927","wem/bandit_single","A1FLNAFLLO3UPK","pain","6","","75","K","2","","0","1","0","","0.3650510818","false","26","","0.09697268327","main_expt","","0.2555438901","","0.3650510818","","0.3131907418","","","","","",""
"88","","bandit","102","319689","0.0-64.0-0.0","22308927","wem/bandit_single","A1FLNAFLLO3UPK","pain","6","","75","K","2","","0","0","1","","0.3930286133","false","27","","0.09831328215","main_expt","","0.2487754609","","0.3930286133","","0.3210571327","","","","","",""
"757","","bandit","103","322219","0.0-65.0-0.0","22308927","wem/bandit_single","A1FLNAFLLO3UPK","pain","6","","75","K","2","","0","0","1","","0.3849328395","false","28","","0.08798585883","main_expt","","0.2023297646","","0.3849328395","","0.3350138966","","","","","",""
"1964","","bandit","104","325944","0.0-66.0-0.0","22308927","wem/bandit_single","A1FLNAFLLO3UPK","pain","6","","75","K","2","","0","0","1","","0.3635333449","false","29","","0.1001400419","main_expt","","0.1824385616","","0.3635333449","","0.3491704597","","","","","",""
"90","","bandit","105","327791","0.0-67.0-0.0","22308927","wem/bandit_single","A1FLNAFLLO3UPK","pain","6","","74","J","1","","0","0","1","","0.2108935763","false","30","","0.100360092","main_expt","","0.2108935763","","0.3870800473","","0.3515390533","","","","","",""
"145","","bandit","106","329701","0.0-68.0-0.0","22308927","wem/bandit_single","A1FLNAFLLO3UPK","pain","6","","74","J","1","","0","0","1","","0.2212072473","false","31","","0.1235489826","main_expt","","0.2212072473","","0.407818568","","0.3116189274","","","","","",""
"135","","bandit","107","331610","0.0-69.0-0.0","22308927","wem/bandit_single","A1FLNAFLLO3UPK","pain","6","","74","J","1","","0","0","1","","0.2349080289","false","32","","0.0999088058","main_expt","","0.2349080289","","0.4365503818","","0.2923613921","","","","","",""
"60","","bandit","108","333430","0.0-70.0-0.0","22308927","wem/bandit_single","A1FLNAFLLO3UPK","pain","6","","72","H","0","img/none_selected.jpg","0","0","1","","0.1229353218","false","33","","0.1229353218","main_expt","","0.2233211346","","0.438397095","","0.2833872006","","","","","",""
"88","","bandit","109","335279","0.0-71.0-0.0","22308927","wem/bandit_single","A1FLNAFLLO3UPK","pain","6","","72","H","0","img/none_selected.jpg","0","0","1","","0.1174339591","false","34","","0.1174339591","main_expt","","0.2328620384","","0.4225996483","","0.251012165","","","","","",""
"373","","bandit","110","337424","0.0-72.0-0.0","22308927","wem/bandit_single","A1FLNAFLLO3UPK","pain","6","","72","H","0","img/none_selected.jpg","0","0","1","","0.08922948311","false","35","","0.08922948311","main_expt","","0.2442853791","","0.3719427837","","0.2150204629","","","","","",""
"119","","bandit","111","339312","0.0-73.0-0.0","22308927","wem/bandit_single","A1FLNAFLLO3UPK","pain","6","","75","K","2","","0","0","1","","0.3643608465","false","36","","0.1065429935","main_expt","","0.2536962779","","0.3643608465","","0.2003821391","","","","","",""
"67","","bandit","112","341137","0.0-74.0-0.0","22308927","wem/bandit_single","A1FLNAFLLO3UPK","pain","6","","75","K","2","","0","0","1","","0.3951734682","false","37","","0.119331244","main_expt","","0.1968410568","","0.3951734682","","0.1584744983","","","","","",""
"157","","bandit","113","343054","0.0-75.0-0.0","22308927","wem/bandit_single","A1FLNAFLLO3UPK","pain","6","","75","K","2","","0","0","1","","0.4106313244","false","38","","0.1140529394","main_expt","","0.1903576104","","0.4106313244","","0.1107345946","","","","","",""
"148","","bandit","114","344960","0.0-76.0-0.0","22308927","wem/bandit_single","A1FLNAFLLO3UPK","pain","6","","76","L","3","","0","0","1","","0.1922112034","false","39","","0.1377706652","main_expt","","0.2094560733","","0.385877281","","0.1922112034","","","","","",""
"107","","bandit","115","346865","0.0-77.0-0.0","22308927","wem/bandit_single","A1FLNAFLLO3UPK","pain","6","","76","L","3","","0","0","1","","0.202991566","false","40","","0.1686011578","main_expt","","0.2157952434","","0.3814638094","","0.202991566","","","","","",""
"130","","bandit","116","348759","0.0-78.0-0.0","22308927","wem/bandit_single","A1FLNAFLLO3UPK","pain","6","","76","L","3","","0","1","0","","0.257249123","false","41","","0.1640814413","main_expt","","0.1982376225","","0.3569976603","","0.257249123","","","","","",""
"206","","bandit","117","350732","0.0-79.0-0.0","22308927","wem/bandit_single","A1FLNAFLLO3UPK","pain","6","","76","L","3","","0","1","0","","0.3139605103","false","42","","0.1444461896","main_expt","","0.1815133425","","0.3254656301","","0.3139605103","","","","","",""
"115","","bandit","118","352611","0.0-80.0-0.0","22308927","wem/bandit_single","A1FLNAFLLO3UPK","pain","6","","76","L","3","","0","1","0","","0.2859416922","false","43","","0.1466097136","main_expt","","0.1804658283","","0.3061667188","","0.2859416922","","","","","",""
"101","","bandit","119","354472","0.0-81.0-0.0","22308927","wem/bandit_single","A1FLNAFLLO3UPK","pain","6","","76","L","3","","0","1","0","","0.2344477797","false","44","","0.1701376127","main_expt","","0.1453808853","","0.3247162798","","0.2344477797","","","","","",""
"70","","bandit","120","356311","0.0-82.0-0.0","22308927","wem/bandit_single","A1FLNAFLLO3UPK","pain","6","","76","L","3","","0","0","1","","0.25278305","false","45","","0.2382164817","main_expt","","0.1975985391","","0.3464274235","","0.25278305","","","","","",""
"973","","bandit","121","359050","0.0-83.0-0.0","22308927","wem/bandit_single","A1FLNAFLLO3UPK","pain","6","","76","L","3","","0","1","0","","0.2447001663","false","46","","0.2817064876","main_expt","","0.2099331931","","0.2853596265","","0.2447001663","","","","","",""
"116","","bandit","122","360936","0.0-84.0-0.0","22308927","wem/bandit_single","A1FLNAFLLO3UPK","pain","6","","76","L","3","","0","0","1","","0.2439886488","false","47","","0.3449614965","main_expt","","0.2373708448","","0.2781892211","","0.2439886488","","","","","",""
"228","","bandit","123","362933","0.0-85.0-0.0","22308927","wem/bandit_single","A1FLNAFLLO3UPK","pain","6","","76","L","3","","0","1","0","","0.3453423138","false","48","","0.2846403666","main_expt","","0.2929879582","","0.2802769371","","0.3453423138","","","","","",""
"147","","bandit","124","364849","0.0-86.0-0.0","22308927","wem/bandit_single","A1FLNAFLLO3UPK","pain","6","","76","L","3","","0","0","1","","0.3208634608","false","49","","0.3292227521","main_expt","","0.2643709298","","0.3162769287","","0.3208634608","","","","","",""
"128","","bandit","125","366758","0.0-87.0-0.0","22308927","wem/bandit_single","A1FLNAFLLO3UPK","pain","6","","76","L","3","","0","0","1","","0.2600740437","false","50","","0.270904054","main_expt","","0.2666646559","","0.2524095143","","0.2600740437","","","","","",""
"82","","bandit","126","368599","0.0-88.0-0.0","22308927","wem/bandit_single","A1FLNAFLLO3UPK","pain","6","","76","L","3","","0","0","1","","0.2451527442","false","51","","0.2503066232","main_expt","","0.2550538978","","0.2630113652","","0.2451527442","","","","","",""
"102","","bandit","127","370471","0.0-89.0-0.0","22308927","wem/bandit_single","A1FLNAFLLO3UPK","pain","6","","76","L","3","","0","0","1","","0.1882651979","false","52","","0.2405173112","main_expt","","0.3235330097","","0.2707742251","","0.1882651979","","","","","",""
"75","","bandit","128","372310","0.0-90.0-0.0","22308927","wem/bandit_single","A1FLNAFLLO3UPK","pain","6","","75","K","2","","0","0","1","","0.2150274285","false","53","","0.2966352861","main_expt","","0.347433539","","0.2150274285","","0.1930778153","","","","","",""
"81","","bandit","129","374157","0.0-91.0-0.0","22308927","wem/bandit_single","A1FLNAFLLO3UPK","pain","6","","75","K","2","","0","0","1","","0.2326572497","false","54","","0.2887198369","main_expt","","0.3368202787","","0.2326572497","","0.2216955806","","","","","",""
"92","","bandit","130","376018","0.0-92.0-0.0","22308927","wem/bandit_single","A1FLNAFLLO3UPK","pain","6","","75","K","2","","0","0","1","","0.2134399586","false","55","","0.2801160178","main_expt","","0.3503124627","","0.2134399586","","0.2422165651","","","","","",""
"57","","bandit","131","377847","0.0-93.0-0.0","22308927","wem/bandit_single","A1FLNAFLLO3UPK","pain","6","","75","K","2","","0","0","1","","0.2394891912","false","56","","0.3022415889","main_expt","","0.368841946","","0.2394891912","","0.228979269","","","","","",""
"114","","bandit","132","379735","0.0-94.0-0.0","22308927","wem/bandit_single","A1FLNAFLLO3UPK","pain","6","","74","J","1","","0","0","1","","0.3883837061","false","57","","0.3300995428","main_expt","","0.3883837061","","0.2942469327","","0.243325051","","","","","",""
"526","","bandit","133","382023","0.0-95.0-0.0","22308927","wem/bandit_single","A1FLNAFLLO3UPK","pain","6","","74","J","1","","0","0","1","","0.4116863428","false","58","","0.3393984951","main_expt","","0.4116863428","","0.369295693","","0.2326991071","","","","","",""
"763","","bandit","134","384557","0.0-96.0-0.0","22308927","wem/bandit_single","A1FLNAFLLO3UPK","pain","6","","74","J","1","","0","1","0","","0.3980375199","false","59","","0.3592245678","main_expt","","0.3980375199","","0.3663837161","","0.2480349675","","","","","",""
"115","","bandit","135","386439","0.0-97.0-0.0","22308927","wem/bandit_single","A1FLNAFLLO3UPK","pain","6","","74","J","1","","0","0","1","","0.3849919156","false","60","","0.3431938453","main_expt","","0.3849919156","","0.3578669063","","0.2591134247","","","","","",""
"74","","bandit","136","388270","0.0-98.0-0.0","22308927","wem/bandit_single","A1FLNAFLLO3UPK","pain","6","","72","H","0","img/none_selected.jpg","0","0","1","","0.3622980041","false","61","","0.3622980041","main_expt","","0.3822359719","","0.3901807011","","0.2828027123","","","","","",""
"95","","bandit","137","390130","0.0-99.0-0.0","22308927","wem/bandit_single","A1FLNAFLLO3UPK","pain","6","","72","H","0","img/none_selected.jpg","0","1","0","","0.3898917795","false","62","","0.3898917795","main_expt","","0.3356955782","","0.4199484271","","0.2645717152","","","","","",""
"76","","bandit","138","391976","0.0-100.0-0.0","22308927","wem/bandit_single","A1FLNAFLLO3UPK","pain","6","","72","H","0","img/none_selected.jpg","0","1","0","","0.3730814422","false","63","","0.3730814422","main_expt","","0.2961333539","","0.431710707","","0.3164731366","","","","","",""
"115","","bandit","139","393854","0.0-101.0-0.0","22308927","wem/bandit_single","A1FLNAFLLO3UPK","pain","6","","72","H","0","img/none_selected.jpg","0","0","1","","0.359514794","false","64","","0.359514794","main_expt","","0.3332154777","","0.4302834116","","0.3549458842","","","","","",""
"129","","bandit","140","395765","0.0-102.0-0.0","22308927","wem/bandit_single","A1FLNAFLLO3UPK","pain","6","","72","H","0","img/none_selected.jpg","0","1","0","","0.3114607296","false","65","","0.3114607296","main_expt","","0.35785358","","0.3985691748","","0.288515421","","","","","",""
"151","","bandit","141","397676","0.0-103.0-0.0","22308927","wem/bandit_single","A1FLNAFLLO3UPK","pain","6","","72","H","0","img/none_selected.jpg","0","1","0","","0.2942291023","false","66","","0.2942291023","main_expt","","0.406057841","","0.4041176093","","0.3011993237","","","","","",""
"77","","bandit","142","399511","0.0-104.0-0.0","22308927","wem/bandit_single","A1FLNAFLLO3UPK","pain","6","","72","H","0","img/none_selected.jpg","0","0","1","","0.3320533568","false","67","","0.3320533568","main_expt","","0.4196038874","","0.4007812862","","0.345072876","","","","","",""
"42","","bandit","143","401311","0.0-105.0-0.0","22308927","wem/bandit_single","A1FLNAFLLO3UPK","pain","6","","72","H","0","img/none_selected.jpg","0","0","1","","0.3600975808","false","68","","0.3600975808","main_expt","","0.3890604874","","0.4294162969","","0.3196529892","","","","","",""
"69","","bandit","144","403153","0.0-106.0-0.0","22308927","wem/bandit_single","A1FLNAFLLO3UPK","pain","6","","72","H","0","img/none_selected.jpg","0","0","1","","0.2872110667","false","69","","0.2872110667","main_expt","","0.4084138829","","0.3767619451","","0.3649702463","","","","","",""
"75","","bandit","145","404998","0.0-107.0-0.0","22308927","wem/bandit_single","A1FLNAFLLO3UPK","pain","6","","72","H","0","img/none_selected.jpg","0","0","1","","0.295141158","false","70","","0.295141158","main_expt","","0.3468887804","","0.3777248691","","0.356932825","","","","","",""
"138","","bandit","146","406894","0.0-108.0-0.0","22308927","wem/bandit_single","A1FLNAFLLO3UPK","pain","6","","72","H","0","img/none_selected.jpg","0","0","1","","0.3206647592","false","71","","0.3206647592","main_expt","","0.341524862","","0.3795242786","","0.3835678776","","","","","",""
"765","","bandit","147","409430","0.0-109.0-0.0","22308927","wem/bandit_single","A1FLNAFLLO3UPK","pain","6","","74","J","1","","0","0","1","","0.3749246652","false","72","","0.3264000429","main_expt","","0.3749246652","","0.3665841139","","0.4212385026","","","","","",""
"86","","bandit","148","411288","0.0-110.0-0.0","22308927","wem/bandit_single","A1FLNAFLLO3UPK","pain","6","","74","J","1","","0","1","0","","0.3871824506","false","73","","0.333972891","main_expt","","0.3871824506","","0.3651794524","","0.4261424303","","","","","",""
"84","","bandit","149","413151","0.0-111.0-0.0","22308927","wem/bandit_single","A1FLNAFLLO3UPK","pain","6","","74","J","1","","0","1","0","","0.3721906724","false","74","","0.3616968722","main_expt","","0.3721906724","","0.3550305672","","0.3977974162","","","","","",""
"23","","bandit","150","414968","0.0-112.0-0.0","22308927","wem/bandit_single","A1FLNAFLLO3UPK","pain","6","","74","J","1","","0","1","0","","0.3111946895","false","75","","0.3975057441","main_expt","","0.3111946895","","0.2927321298","","0.4267201321","","","","","",""
"56","","bandit","151","416791","0.0-113.0-0.0","22308927","wem/bandit_single","A1FLNAFLLO3UPK","pain","6","","74","J","1","","0","0","1","","0.3336428477","false","76","","0.3807363423","main_expt","","0.3336428477","","0.2842047713","","0.4263250047","","","","","",""
"942","","bandit","152","419496","0.0-114.0-0.0","22308927","wem/bandit_single","A1FLNAFLLO3UPK","pain","6","","74","J","1","","0","0","1","","0.2972108807","false","77","","0.394346207","main_expt","","0.2972108807","","0.291961298","","0.4081139898","","","","","",""
"66","","bandit","153","421337","0.0-115.0-0.0","22308927","wem/bandit_single","A1FLNAFLLO3UPK","pain","6","","74","J","1","","0","0","1","","0.3500338334","false","78","","0.4130135997","main_expt","","0.3500338334","","0.2772504781","","0.4081745619","","","","","",""
"16","","bandit","154","423120","0.0-116.0-0.0","22308927","wem/bandit_single","A1FLNAFLLO3UPK","pain","6","","74","J","1","","0","0","1","","0.3382579744","false","79","","0.388257836","main_expt","","0.3382579744","","0.2910266255","","0.4210543479","","","","","",""
"80","","bandit","155","424968","0.0-117.0-0.0","22308927","wem/bandit_single","A1FLNAFLLO3UPK","pain","6","","75","K","2","","0","0","1","","0.3236474027","false","80","","0.402189785","main_expt","","0.2848378437","","0.3236474027","","0.4173400146","","","","","",""
"54","","bandit","156","426789","0.0-118.0-0.0","22308927","wem/bandit_single","A1FLNAFLLO3UPK","pain","6","","75","K","2","","0","0","1","","0.3171491255","false","81","","0.4188164015","main_expt","","0.2824957966","","0.3171491255","","0.3876294662","","","","","",""
"83","","bandit","157","428637","0.0-119.0-0.0","22308927","wem/bandit_single","A1FLNAFLLO3UPK","pain","6","","75","K","2","","0","0","1","","0.3253049084","false","82","","0.3923487362","main_expt","","0.2921189703","","0.3253049084","","0.3960397656","","","","","",""
"56","","bandit","158","430458","0.0-120.0-0.0","22308927","wem/bandit_single","A1FLNAFLLO3UPK","pain","6","","75","K","2","","0","0","1","","0.2650825447","false","83","","0.3765831671","main_expt","","0.346808059","","0.2650825447","","0.4048972575","","","","","",""
"128","","bandit","159","432360","0.0-121.0-0.0","22308927","wem/bandit_single","A1FLNAFLLO3UPK","pain","6","","76","L","3","","0","0","1","","0.4261464595","false","84","","0.3744655151","main_expt","","0.3142369957","","0.2860936523","","0.4261464595","","","","","",""
"92","","bandit","160","434226","0.0-122.0-0.0","22308927","wem/bandit_single","A1FLNAFLLO3UPK","pain","6","","76","L","3","","0","1","0","","0.4252889048","false","85","","0.4097897279","main_expt","","0.3336664699","","0.2965161573","","0.4252889048","","","","","",""
"148","","bandit","161","436143","0.0-123.0-0.0","22308927","wem/bandit_single","A1FLNAFLLO3UPK","pain","6","","76","L","3","","0","1","0","","0.4234238012","false","86","","0.4365994201","main_expt","","0.3487181938","","0.2718920201","","0.4234238012","","","","","",""
"47","","bandit","162","437964","0.0-124.0-0.0","22308927","wem/bandit_single","A1FLNAFLLO3UPK","pain","6","","76","L","3","","0","0","1","","0.4493325849","false","87","","0.4485753971","main_expt","","0.3595256023","","0.2663647104","","0.4493325849","","","","","",""
"117","","bandit","163","439866","0.0-125.0-0.0","22308927","wem/bandit_single","A1FLNAFLLO3UPK","pain","6","","76","L","3","","0","1","0","","0.4618336953","false","88","","0.4682155013","main_expt","","0.3633435887","","0.2505207396","","0.4618336953","","","","","",""
"94","","bandit","164","441729","0.0-126.0-0.0","22308927","wem/bandit_single","A1FLNAFLLO3UPK","pain","6","","76","L","3","","0","1","0","","0.470357169","false","89","","0.455546077","main_expt","","0.3301577903","","0.2380326514","","0.470357169","","","","","",""
"60","","bandit","165","443552","0.0-127.0-0.0","22308927","wem/bandit_single","A1FLNAFLLO3UPK","pain","6","","76","L","3","","0","0","1","","0.4756012524","false","90","","0.4648286352","main_expt","","0.2983975746","","0.2825572521","","0.4756012524","","","","","",""
"1124","","bandit","166","446456","0.0-128.0-0.0","22308927","wem/bandit_single","A1FLNAFLLO3UPK","pain","6","","76","L","3","","0","1","0","","0.4661355378","false","91","","0.4597569826","main_expt","","0.2708507867","","0.3629334232","","0.4661355378","","","","","",""
"82","","bandit","167","448311","0.0-129.0-0.0","22308927","wem/bandit_single","A1FLNAFLLO3UPK","pain","6","","76","L","3","","0","0","1","","0.4640816948","false","92","","0.4636055165","main_expt","","0.2025174094","","0.4318733099","","0.4640816948","","","","","",""
"406","","bandit","168","450480","0.0-130.0-0.0","22308927","wem/bandit_single","A1FLNAFLLO3UPK","pain","6","","76","L","3","","0","0","1","","0.4745032584","false","93","","0.4344757896","main_expt","","0.1991535532","","0.4354989634","","0.4745032584","","","","","",""
"69","","bandit","169","452318","0.0-131.0-0.0","22308927","wem/bandit_single","A1FLNAFLLO3UPK","pain","6","","76","L","3","","0","0","1","","0.4713826624","false","94","","0.4540573516","main_expt","","0.2072674268","","0.4569950804","","0.4713826624","","","","","",""
"650","","bandit","170","454728","0.0-132.0-0.0","22308927","wem/bandit_single","A1FLNAFLLO3UPK","pain","6","","76","L","3","","0","1","0","","0.4518091014","false","95","","0.467393544","main_expt","","0.2139910976","","0.4626037768","","0.4518091014","","","","","",""
"103","","bandit","171","456597","0.0-133.0-0.0","22308927","wem/bandit_single","A1FLNAFLLO3UPK","pain","6","","76","L","3","","0","0","1","","0.4610288074","false","96","","0.4523779492","main_expt","","0.1714021876","","0.4632162831","","0.4610288074","","","","","",""
"110","","bandit","172","458480","0.0-134.0-0.0","22308927","wem/bandit_single","A1FLNAFLLO3UPK","pain","6","","76","L","3","","0","0","1","","0.4610411697","false","97","","0.4734298584","main_expt","","0.1776734449","","0.4574348148","","0.4610411697","","","","","",""
"108","","bandit","173","460358","0.0-135.0-0.0","22308927","wem/bandit_single","A1FLNAFLLO3UPK","pain","6","","76","L","3","","0","1","0","","0.4658458747","false","98","","0.4822123269","main_expt","","0.2143852757","","0.4551488225","","0.4658458747","","","","","",""
"85","","bandit","174","462220","0.0-136.0-0.0","22308927","wem/bandit_single","A1FLNAFLLO3UPK","pain","6","","76","L","3","","0","1","0","","0.4372748216","false","99","","0.4829706494","main_expt","","0.2341872784","","0.4604873832","","0.4372748216","","","","","",""
"94","","bandit","175","464089","0.0-137.0-0.0","22308927","wem/bandit_single","A1FLNAFLLO3UPK","pain","6","","76","L","3","","0","0","1","","0.4237986198","false","100","","0.4918551361","main_expt","","0.2835639283","","0.4364445071","","0.4237986198","","","","","",""
"13","","bandit","176","465871","0.0-138.0-0.0","22308927","wem/bandit_single","A1FLNAFLLO3UPK","pain","6","","76","L","3","","0","0","1","","0.4239408107","false","101","","0.4891782125","main_expt","","0.3342764243","","0.4152010141","","0.4239408107","","","","","",""
"88","","bandit","177","467753","0.0-139.0-0.0","22308927","wem/bandit_single","A1FLNAFLLO3UPK","pain","6","","76","L","3","","0","0","1","","0.4482877494","false","102","","0.484620563","main_expt","","0.3693598309","","0.4463558977","","0.4482877494","","","","","",""
"1099","","bandit","178","470619","0.0-140.0-0.0","22308927","wem/bandit_single","A1FLNAFLLO3UPK","pain","6","","74","J","1","","0","0","1","","0.3465782007","false","103","","0.4880888492","main_expt","","0.3465782007","","0.4519222506","","0.4319618448","","","","","",""
"13","","bandit","179","472390","0.0-141.0-0.0","22308927","wem/bandit_single","A1FLNAFLLO3UPK","pain","6","","74","J","1","","0","0","1","","0.356437927","false","104","","0.4862983338","main_expt","","0.356437927","","0.44950272","","0.3989131432","","","","","",""
"125","","bandit","180","474279","0.0-142.0-0.0","22308927","wem/bandit_single","A1FLNAFLLO3UPK","pain","6","","74","J","1","","0","1","0","","0.349556789","false","105","","0.4761426531","main_expt","","0.349556789","","0.4631277203","","0.3718051273","","","","","",""
"107","","bandit","181","476162","0.0-143.0-0.0","22308927","wem/bandit_single","A1FLNAFLLO3UPK","pain","6","","74","J","1","","0","0","1","","0.3368343046","false","106","","0.4724420891","main_expt","","0.3368343046","","0.4761070442","","0.3820213715","","","","","",""
"114","","bandit","182","478046","0.0-144.0-0.0","22308927","wem/bandit_single","A1FLNAFLLO3UPK","pain","6","","74","J","1","","0","0","1","","0.3492990444","false","107","","0.4544285192","main_expt","","0.3492990444","","0.4574049266","","0.3903902173","","","","","",""
"123","","bandit","183","479933","0.0-145.0-0.0","22308927","wem/bandit_single","A1FLNAFLLO3UPK","pain","6","","74","J","1","","0","1","0","","0.3657086014","false","108","","0.4489506099","main_expt","","0.3657086014","","0.4342229458","","0.424383047","","","","","",""
"230","","bandit","184","481925","0.0-146.0-0.0","22308927","wem/bandit_single","A1FLNAFLLO3UPK","pain","6","","74","J","1","","0","0","1","","0.3473329542","false","109","","0.4357570441","main_expt","","0.3473329542","","0.4437976733","","0.3732822228","","","","","",""
"15","","bandit","185","483722","0.0-147.0-0.0","22308927","wem/bandit_single","A1FLNAFLLO3UPK","pain","6","","74","J","1","","0","0","1","","0.3937482981","false","110","","0.4243789051","main_expt","","0.3937482981","","0.4131704669","","0.3545846445","","","","","",""
"65","","bandit","186","485562","0.0-148.0-0.0","22308927","wem/bandit_single","A1FLNAFLLO3UPK","pain","6","","74","J","1","","0","1","0","","0.4067223002","false","111","","0.4235572131","main_expt","","0.4067223002","","0.3849612216","","0.2861948885","","","","","",""
"148","","bandit","187","487479","0.0-149.0-0.0","22308927","wem/bandit_single","A1FLNAFLLO3UPK","pain","6","","74","J","1","","0","0","1","","0.3791461054","false","112","","0.4216330179","main_expt","","0.3791461054","","0.4197473064","","0.3148935151","","","","","",""
"56","","bandit","188","489310","0.0-150.0-0.0","22308927","wem/bandit_single","A1FLNAFLLO3UPK","pain","6","","74","J","1","","0","0","1","","0.3697872407","false","113","","0.3981229654","main_expt","","0.3697872407","","0.4477672952","","0.310891148","","","","","",""
"1691","","bandit","189","492766","0.0-151.0-0.0","22308927","wem/bandit_single","A1FLNAFLLO3UPK","pain","6","","74","J","1","","0","0","1","","0.3542284497","false","114","","0.4051483532","main_expt","","0.3542284497","","0.4347577032","","0.3312817134","","","","","",""
"1734","","bandit","190","496263","0.0-152.0-0.0","22308927","wem/bandit_single","A1FLNAFLLO3UPK","pain","6","","75","K","2","","0","1","0","","0.4123529648","false","115","","0.3664587937","main_expt","","0.3424252445","","0.4123529648","","0.3328181623","","","","","",""
"65","","bandit","191","498104","0.0-153.0-0.0","22308927","wem/bandit_single","A1FLNAFLLO3UPK","pain","6","","75","K","2","","0","0","1","","0.4374051313","false","116","","0.3815824605","main_expt","","0.3364913945","","0.4374051313","","0.282168926","","","","","",""
"167","","bandit","192","500046","0.0-154.0-0.0","22308927","wem/bandit_single","A1FLNAFLLO3UPK","pain","6","","75","K","2","","0","0","1","","0.4336999329","false","117","","0.3718524962","main_expt","","0.3607093693","","0.4336999329","","0.3282440564","","","","","",""
"53","","bandit","193","501865","0.0-155.0-0.0","22308927","wem/bandit_single","A1FLNAFLLO3UPK","pain","6","","75","K","2","","0","0","1","","0.4609057125","false","118","","0.3228128462","main_expt","","0.3651530194","","0.4609057125","","0.3735758205","","","","","",""
"88","","bandit","194","503729","0.0-156.0-0.0","22308927","wem/bandit_single","A1FLNAFLLO3UPK","pain","6","","75","K","2","","0","0","1","","0.4644995027","false","119","","0.3303119184","main_expt","","0.391691743","","0.4644995027","","0.4085136599","","","","","",""
"35","","bandit","195","505535","0.0-157.0-0.0","22308927","wem/bandit_single","A1FLNAFLLO3UPK","pain","6","","75","K","2","","0","0","1","","0.4699288035","false","120","","0.3566896217","main_expt","","0.3892352466","","0.4699288035","","0.4152109264","","","","","",""
"123","","bandit","196","507427","0.0-158.0-0.0","22308927","wem/bandit_single","A1FLNAFLLO3UPK","pain","6","","75","K","2","","0","1","0","","0.48416914","false","121","","0.3938610898","main_expt","","0.4119078466","","0.48416914","","0.4362055741","","","","","",""
"120","","bandit","197","509345","0.0-159.0-0.0","22308927","wem/bandit_single","A1FLNAFLLO3UPK","pain","6","","75","K","2","","0","0","1","","0.4744752566","false","122","","0.3846692282","main_expt","","0.3864510994","","0.4744752566","","0.4381361327","","","","","",""
"431","","bandit","198","511552","0.0-160.0-0.0","22308927","wem/bandit_single","A1FLNAFLLO3UPK","pain","6","","72","H","0","img/none_selected.jpg","0","0","1","","0.3479888462","false","123","","0.3479888462","main_expt","","0.3206095238","","0.4770694964","","0.4266523018","","","","","",""
"137","","bandit","199","513464","0.0-161.0-0.0","22308927","wem/bandit_single","A1FLNAFLLO3UPK","pain","6","","72","H","0","img/none_selected.jpg","0","1","0","","0.3446564944","false","124","","0.3446564944","main_expt","","0.3004639257","","0.4882663864","","0.3976500929","","","","","",""
"167","","bandit","200","515406","0.0-162.0-0.0","22308927","wem/bandit_single","A1FLNAFLLO3UPK","pain","6","","72","H","0","img/none_selected.jpg","0","0","1","","0.3742116014","false","125","","0.3742116014","main_expt","","0.2718713493","","0.4867438878","","0.4004048686","","","","","",""
"72","","bandit","201","517254","0.0-163.0-0.0","22308927","wem/bandit_single","A1FLNAFLLO3UPK","pain","6","","72","H","0","img/none_selected.jpg","0","0","1","","0.3522130289","false","126","","0.3522130289","main_expt","","0.312825386","","0.4859509926","","0.3978852423","","","","","",""
"162","","bandit","202","519191","0.0-164.0-0.0","22308927","wem/bandit_single","A1FLNAFLLO3UPK","pain","6","","72","H","0","img/none_selected.jpg","0","0","1","","0.4136983804","false","127","","0.4136983804","main_expt","","0.2929193121","","0.4910312391","","0.4164913371","","","","","",""
"100","","bandit","203","521056","0.0-165.0-0.0","22308927","wem/bandit_single","A1FLNAFLLO3UPK","pain","6","","72","H","0","img/none_selected.jpg","0","0","1","","0.3740150402","false","128","","0.3740150402","main_expt","","0.3483635392","","0.4916106826","","0.4273270633","","","","","",""
"106","","bandit","204","522929","0.0-166.0-0.0","22308927","wem/bandit_single","A1FLNAFLLO3UPK","pain","6","","74","J","1","","0","1","0","","0.3180783589","false","129","","0.3561584853","main_expt","","0.3180783589","","0.4774596984","","0.4403517336","","","","","",""
"96","","bandit","205","524801","0.0-167.0-0.0","22308927","wem/bandit_single","A1FLNAFLLO3UPK","pain","6","","74","J","1","","0","1","0","","0.332672873","false","130","","0.3781611856","main_expt","","0.332672873","","0.4792113904","","0.436469863","","","","","",""
"69","","bandit","206","526634","0.0-168.0-0.0","22308927","wem/bandit_single","A1FLNAFLLO3UPK","pain","6","","74","J","1","","0","0","1","","0.3172252399","false","131","","0.3972118802","main_expt","","0.3172252399","","0.4761250173","","0.467157068","","","","","",""
"69","","bandit","207","528479","0.0-169.0-0.0","22308927","wem/bandit_single","A1FLNAFLLO3UPK","pain","6","","74","J","1","","0","0","1","","0.2808852702","false","132","","0.3951630556","main_expt","","0.2808852702","","0.4782449011","","0.4747764211","","","","","",""
"108","","bandit","208","530359","0.0-170.0-0.0","22308927","wem/bandit_single","A1FLNAFLLO3UPK","pain","6","","74","J","1","","0","0","1","","0.2846237695","false","133","","0.3918056992","main_expt","","0.2846237695","","0.4789501527","","0.4662147581","","","","","",""
"75","","bandit","209","532198","0.0-171.0-0.0","22308927","wem/bandit_single","A1FLNAFLLO3UPK","pain","6","","74","J","1","","0","0","1","","0.3115497245","false","134","","0.395342783","main_expt","","0.3115497245","","0.4821877595","","0.4711951182","","","","","",""
"189","","bandit","210","534153","0.0-172.0-0.0","22308927","wem/bandit_single","A1FLNAFLLO3UPK","pain","6","","76","L","3","","0","1","0","","0.4540730246","false","135","","0.3867762939","main_expt","","0.3413582918","","0.4863767518","","0.4540730246","","","","","",""
"80","","bandit","211","536007","0.0-173.0-0.0","22308927","wem/bandit_single","A1FLNAFLLO3UPK","pain","6","","76","L","3","","0","1","0","","0.4412688847","false","136","","0.3929594686","main_expt","","0.316763081","","0.4887786445","","0.4412688847","","","","","",""
"162","","bandit","212","537928","0.0-174.0-0.0","22308927","wem/bandit_single","A1FLNAFLLO3UPK","pain","6","","76","L","3","","0","0","1","","0.4585130214","false","137","","0.3067223256","main_expt","","0.2585559296","","0.4896902137","","0.4585130214","","","","","",""
"1299","","bandit","213","541008","0.0-175.0-0.0","22308927","wem/bandit_single","A1FLNAFLLO3UPK","pain","6","","76","L","3","","0","1","0","","0.4413786145","false","138","","0.3444805877","main_expt","","0.2320291273","","0.4754525561","","0.4413786145","","","","","",""
"673","","bandit","214","543446","0.0-176.0-0.0","22308927","wem/bandit_single","A1FLNAFLLO3UPK","pain","6","","76","L","3","","0","0","1","","0.4235974169","false","139","","0.4025185773","main_expt","","0.2705305451","","0.4525902595","","0.4235974169","","","","","",""
"84","","bandit","215","545297","0.0-177.0-0.0","22308927","wem/bandit_single","A1FLNAFLLO3UPK","pain","6","","76","L","3","","0","1","0","","0.3993595144","false","140","","0.4000290511","main_expt","","0.2115164241","","0.474141966","","0.3993595144","","","","","",""
"116","","bandit","216","547190","0.0-178.0-0.0","22308927","wem/bandit_single","A1FLNAFLLO3UPK","pain","6","","76","L","3","","0","0","1","","0.3845482665","false","141","","0.4052231698","main_expt","","0.2166269704","","0.4642583801","","0.3845482665","","","","","",""
"1435","","bandit","217","550392","0.0-179.0-0.0","22308927","wem/bandit_single","A1FLNAFLLO3UPK","pain","6","","76","L","3","","0","1","0","","0.3636407915","false","142","","0.3881257509","main_expt","","0.2477117994","","0.4713728632","","0.3636407915","","","","","",""
"124","","bandit","218","552280","0.0-180.0-0.0","22308927","wem/bandit_single","A1FLNAFLLO3UPK","pain","6","","76","L","3","","0","0","1","","0.3360879677","false","143","","0.4101759482","main_expt","","0.2347168821","","0.4714731714","","0.3360879677","","","","","",""
"93","","bandit","219","554167","0.0-181.0-0.0","22308927","wem/bandit_single","A1FLNAFLLO3UPK","pain","6","","76","L","3","","0","1","0","","0.2886719504","false","144","","0.4100488723","main_expt","","0.190213181","","0.4777196865","","0.2886719504","","","","","",""
"111","","bandit","220","556055","0.0-182.0-0.0","22308927","wem/bandit_single","A1FLNAFLLO3UPK","pain","6","","76","L","3","","0","0","1","","0.2607344777","false","145","","0.4294240464","main_expt","","0.2873677543","","0.467438704","","0.2607344777","","","","","",""
"108","","bandit","221","557926","0.0-183.0-0.0","22308927","wem/bandit_single","A1FLNAFLLO3UPK","pain","6","","76","L","3","","0","0","1","","0.261523257","false","146","","0.4447984025","main_expt","","0.3434581746","","0.4764572222","","0.261523257","","","","","",""
"108","","bandit","222","559811","0.0-184.0-0.0","22308927","wem/bandit_single","A1FLNAFLLO3UPK","pain","6","","76","L","3","","0","1","0","","0.2768268543","false","147","","0.4339083406","main_expt","","0.3677167414","","0.4670163239","","0.2768268543","","","","","",""
"120","","bandit","223","561701","0.0-185.0-0.0","22308927","wem/bandit_single","A1FLNAFLLO3UPK","pain","6","","76","L","3","","0","0","1","","0.2822793125","false","148","","0.4200875786","main_expt","","0.378672096","","0.4762727371","","0.2822793125","","","","","",""
"1","","bandit","224","563465","0.0-186.0-0.0","22308927","wem/bandit_single","A1FLNAFLLO3UPK","pain","6","","76","L","3","","0","1","0","","0.3100291085","false","149","","0.4370731276","main_expt","","0.3447579657","","0.4763998188","","0.3100291085","","","","","",""
"167","","bandit","225","565410","0.0-187.0-0.0","22308927","wem/bandit_single","A1FLNAFLLO3UPK","pain","6","","76","L","3","","0","0","1","","0.3473977335","false","150","","0.4606741766","main_expt","","0.3225325285","","0.4534074178","","0.3473977335","","","","","",""
"112","","bandit","226","567303","0.0-188.0-0.0","22308927","wem/bandit_single","A1FLNAFLLO3UPK","pain","6","","76","L","3","","0","1","0","","0.3755194153","false","151","","0.4831185644","main_expt","","0.2971371866","","0.4518750411","","0.3755194153","","","","","",""
"102","","bandit","227","569185","0.0-189.0-0.0","22308927","wem/bandit_single","A1FLNAFLLO3UPK","pain","6","","76","L","3","","0","0","1","","0.3931135366","false","152","","0.489350082","main_expt","","0.2436525959","","0.4724220712","","0.3931135366","","","","","",""
"298","","bandit","228","571264","0.0-190.0-0.0","22308927","wem/bandit_single","A1FLNAFLLO3UPK","pain","6","","76","L","3","","0","0","1","","0.3704791656","false","153","","0.4874668037","main_expt","","0.2745817176","","0.4655138208","","0.3704791656","","","","","",""
"119","","bandit","229","573166","0.0-191.0-0.0","22308927","wem/bandit_single","A1FLNAFLLO3UPK","pain","6","","76","L","3","","0","0","1","","0.3918087328","false","154","","0.4906252114","main_expt","","0.2354012901","","0.466892577","","0.3918087328","","","","","",""
"317","","bandit","230","575247","0.0-192.0-0.0","22308927","wem/bandit_single","A1FLNAFLLO3UPK","pain","6","","76","L","3","","0","0","1","","0.3629162862","false","155","","0.4807331657","main_expt","","0.2125693007","","0.4696525674","","0.3629162862","","","","","",""
"80","","bandit","231","577105","0.0-193.0-0.0","22308927","wem/bandit_single","A1FLNAFLLO3UPK","pain","6","","76","L","3","","0","0","1","","0.3329402669","false","156","","0.4886913858","main_expt","","0.2344806361","","0.4798639378","","0.3329402669","","","","","",""
"52","","bandit","232","578936","0.0-194.0-0.0","22308927","wem/bandit_single","A1FLNAFLLO3UPK","pain","6","","76","L","3","","0","1","0","","0.2681960896","false","157","","0.4791259403","main_expt","","0.1314384861","","0.4706110477","","0.2681960896","","","","","",""
"136","","bandit","233","580849","0.0-195.0-0.0","22308927","wem/bandit_single","A1FLNAFLLO3UPK","pain","6","","76","L","3","","0","0","1","","0.2540197996","false","158","","0.4733263956","main_expt","","0.181857365","","0.4469873257","","0.2540197996","","","","","",""
"16","","bandit","234","582639","0.0-196.0-0.0","22308927","wem/bandit_single","A1FLNAFLLO3UPK","pain","6","","76","L","3","","0","0","1","","0.2609952623","false","159","","0.4815819336","main_expt","","0.158015958","","0.4239904196","","0.2609952623","","","","","",""
"94","","bandit","235","584520","0.0-197.0-0.0","22308927","wem/bandit_single","A1FLNAFLLO3UPK","pain","6","","75","K","2","","0","1","0","","0.4459131135","false","160","","0.4721468952","main_expt","","0.141078422","","0.4459131135","","0.2023108268","","","","","",""
"272","","bandit","236","586567","0.0-198.0-0.0","22308927","wem/bandit_single","A1FLNAFLLO3UPK","pain","6","","75","K","2","","0","1","0","","0.4186734055","false","161","","0.4711146003","main_expt","","0.1347361735","","0.4186734055","","0.2500661268","","","","","",""
"284","","bandit","237","588630","0.0-199.0-0.0","22308927","wem/bandit_single","A1FLNAFLLO3UPK","pain","6","","75","K","2","","0","0","1","","0.3857154427","false","162","","0.4712261849","main_expt","","0.09535719087","","0.3857154427","","0.2540596089","","","","","",""
"62","","bandit","238","590456","0.0-200.0-0.0","22308927","wem/bandit_single","A1FLNAFLLO3UPK","pain","6","","75","K","2","","0","1","0","","0.4174701589","false","163","","0.4845321786","main_expt","","0.08326456225","","0.4174701589","","0.2601053227","","","","","",""
"71","","bandit","239","592306","0.0-201.0-0.0","22308927","wem/bandit_single","A1FLNAFLLO3UPK","pain","6","","75","K","2","","0","0","1","","0.3890878976","false","164","","0.4759389929","main_expt","","0.09053498257","","0.3890878976","","0.2541421927","","","","","",""
"73","","bandit","240","594157","0.0-202.0-0.0","22308927","wem/bandit_single","A1FLNAFLLO3UPK","pain","6","","75","K","2","","0","0","1","","0.4138915172","false","165","","0.4720948066","main_expt","","0.08506048778","","0.4138915172","","0.2481661974","","","","","",""
"89","","bandit","241","596007","0.0-203.0-0.0","22308927","wem/bandit_single","A1FLNAFLLO3UPK","pain","6","","75","K","2","","0","0","1","","0.3965001983","false","166","","0.4785392204","main_expt","","0.1313511463","","0.3965001983","","0.2774316831","","","","","",""
"63","","bandit","242","597830","0.0-204.0-0.0","22308927","wem/bandit_single","A1FLNAFLLO3UPK","pain","6","","75","K","2","","0","1","0","","0.3565429409","false","167","","0.4807372421","main_expt","","0.1176964862","","0.3565429409","","0.2487678046","","","","","",""
"137","","bandit","243","599729","0.0-205.0-0.0","22308927","wem/bandit_single","A1FLNAFLLO3UPK","pain","6","","75","K","2","","0","1","0","","0.3697134737","false","168","","0.4679921472","main_expt","","0.08442850793","","0.3697134737","","0.3058486258","","","","","",""
"315","","bandit","244","601818","0.0-206.0-0.0","22308927","wem/bandit_single","A1FLNAFLLO3UPK","pain","6","","75","K","2","","0","0","1","","0.3754926497","false","169","","0.4504326489","main_expt","","0.08508452716","","0.3754926497","","0.3196595105","","","","","",""
"138","","bandit","245","603738","0.0-207.0-0.0","22308927","wem/bandit_single","A1FLNAFLLO3UPK","pain","6","","75","K","2","","0","0","1","","0.3688606114","false","170","","0.4575738232","main_expt","","0.06647736925","","0.3688606114","","0.2675331271","","","","","",""
"56","","bandit","246","605558","0.0-208.0-0.0","22308927","wem/bandit_single","A1FLNAFLLO3UPK","pain","6","","75","K","2","","0","0","1","","0.3548436987","false","171","","0.4515033555","main_expt","","0.05048422731","","0.3548436987","","0.2898788388","","","","","",""
"468","","bandit","247","607791","0.0-209.0-0.0","22308927","wem/bandit_single","A1FLNAFLLO3UPK","pain","6","","72","H","0","img/none_selected.jpg","0","0","1","","0.4804896953","false","172","","0.4804896953","main_expt","","0.05782489063","","0.3789739593","","0.3066863737","","","","","",""
"63","","bandit","248","609626","0.0-210.0-0.0","22308927","wem/bandit_single","A1FLNAFLLO3UPK","pain","6","","74","J","1","","0","0","1","","0.05297704283","false","173","","0.4915792717","main_expt","","0.05297704283","","0.361488512","","0.2694007619","","","","","",""
"68","","bandit","249","611474","0.0-211.0-0.0","22308927","wem/bandit_single","A1FLNAFLLO3UPK","pain","6","","72","H","0","img/none_selected.jpg","0","1","0","","0.4861742571","false","174","","0.4861742571","main_expt","","0.05353397103","","0.3460135238","","0.2754062015","","","","","",""
"149","","bandit","250","613400","0.0-212.0-0.0","22308927","wem/bandit_single","A1FLNAFLLO3UPK","pain","6","","72","H","0","img/none_selected.jpg","0","0","1","","0.4817940596","false","175","","0.4817940596","main_expt","","0.03778759003","","0.3522158256","","0.296446081","","","","","",""
"157","","bandit","251","615332","0.0-213.0-0.0","22308927","wem/bandit_single","A1FLNAFLLO3UPK","pain","6","","72","H","0","img/none_selected.jpg","0","0","1","","0.4757066075","false","176","","0.4757066075","main_expt","","0.02527008277","","0.2998164985","","0.3058710094","","","","","",""
"288","","bandit","252","617414","0.0-214.0-0.0","22308927","wem/bandit_single","A1FLNAFLLO3UPK","pain","6","","72","H","0","img/none_selected.jpg","0","1","0","","0.4781570811","false","177","","0.4781570811","main_expt","","0.03305249037","","0.2523084086","","0.2349503117","","","","","",""
"303","","bandit","253","619489","0.0-215.0-0.0","22308927","wem/bandit_single","A1FLNAFLLO3UPK","pain","6","","72","H","0","img/none_selected.jpg","0","1","0","","0.4800614517","false","178","","0.4800614517","main_expt","","0.03386287722","","0.304071788","","0.2619038699","","","","","",""
"147","","bandit","254","621422","0.0-216.0-0.0","22308927","wem/bandit_single","A1FLNAFLLO3UPK","pain","6","","72","H","0","img/none_selected.jpg","0","0","1","","0.4829502963","false","179","","0.4829502963","main_expt","","0.04065763291","","0.2871062198","","0.2830684205","","","","","",""
"123","","bandit","255","623317","0.0-217.0-0.0","22308927","wem/bandit_single","A1FLNAFLLO3UPK","pain","6","","72","H","0","img/none_selected.jpg","0","0","1","","0.4858173281","false","180","","0.4858173281","main_expt","","0.05743716857","","0.2266659288","","0.3534450431","","","","","",""
"49","","bandit","256","625140","0.0-218.0-0.0","22308927","wem/bandit_single","A1FLNAFLLO3UPK","pain","6","","72","H","0","img/none_selected.jpg","0","0","1","","0.4744777914","false","181","","0.4744777914","main_expt","","0.04418568229","","0.221928096","","0.3212605574","","","","","",""
"194","","bandit","257","627109","0.0-219.0-0.0","22308927","wem/bandit_single","A1FLNAFLLO3UPK","pain","6","","72","H","0","img/none_selected.jpg","0","1","0","","0.4845259409","false","182","","0.4845259409","main_expt","","0.08176319179","","0.2300829386","","0.3315430587","","","","","",""
"69","","bandit","258","628944","0.0-220.0-0.0","22308927","wem/bandit_single","A1FLNAFLLO3UPK","pain","6","","72","H","0","img/none_selected.jpg","0","0","1","","0.481953826","false","183","","0.481953826","main_expt","","0.127405614","","0.236046558","","0.3284942609","","","","","",""
"116","","bandit","259","630848","0.0-221.0-0.0","22308927","wem/bandit_single","A1FLNAFLLO3UPK","pain","6","","72","H","0","img/none_selected.jpg","0","0","1","","0.4855041368","false","184","","0.4855041368","main_expt","","0.08615736955","","0.2923178249","","0.3122619856","","","","","",""
"143","","bandit","260","632759","0.0-222.0-0.0","22308927","wem/bandit_single","A1FLNAFLLO3UPK","pain","6","","72","H","0","img/none_selected.jpg","0","1","0","","0.4698046591","false","185","","0.4698046591","main_expt","","0.1184297318","","0.2808840613","","0.2923416166","","","","","",""
"132","","bandit","261","634656","0.0-223.0-0.0","22308927","wem/bandit_single","A1FLNAFLLO3UPK","pain","6","","72","H","0","img/none_selected.jpg","0","1","0","","0.4595088788","false","186","","0.4595088788","main_expt","","0.1909222977","","0.2016881086","","0.2743414945","","","","","",""
"96","","bandit","262","636519","0.0-224.0-0.0","22308927","wem/bandit_single","A1FLNAFLLO3UPK","pain","6","","72","H","0","img/none_selected.jpg","0","1","0","","0.4646501277","false","187","","0.4646501277","main_expt","","0.156943311","","0.2403842116","","0.3313242874","","","","","",""
"279","","bandit","263","638560","0.0-225.0-0.0","22308927","wem/bandit_single","A1FLNAFLLO3UPK","pain","6","","72","H","0","img/none_selected.jpg","0","0","1","","0.4587354039","false","188","","0.4587354039","main_expt","","0.139104156","","0.2559443775","","0.3665806697","","","","","",""
"103","","bandit","264","640447","0.0-226.0-0.0","22308927","wem/bandit_single","A1FLNAFLLO3UPK","pain","6","","72","H","0","img/none_selected.jpg","0","1","0","","0.4433819168","false","189","","0.4433819168","main_expt","","0.1984961232","","0.2450962267","","0.3982105691","","","","","",""
"115","","bandit","265","642328","0.0-227.0-0.0","22308927","wem/bandit_single","A1FLNAFLLO3UPK","pain","6","","72","H","0","img/none_selected.jpg","0","1","0","","0.441597313","false","190","","0.441597313","main_expt","","0.3152507924","","0.2520413598","","0.4063069195","","","","","",""
"143","","bandit","266","644247","0.0-228.0-0.0","22308927","wem/bandit_single","A1FLNAFLLO3UPK","pain","6","","72","H","0","img/none_selected.jpg","0","1","0","","0.4447050695","false","191","","0.4447050695","main_expt","","0.34868685","","0.3069822625","","0.4073058099","","","","","",""
"87","","bandit","267","646110","0.0-229.0-0.0","22308927","wem/bandit_single","A1FLNAFLLO3UPK","pain","6","","72","H","0","img/none_selected.jpg","0","0","1","","0.3903647542","false","192","","0.3903647542","main_expt","","0.3244392246","","0.269658105","","0.3597632315","","","","","",""
"45","","bandit","268","647925","0.0-230.0-0.0","22308927","wem/bandit_single","A1FLNAFLLO3UPK","pain","6","","72","H","0","img/none_selected.jpg","0","0","1","","0.37796371","false","193","","0.37796371","main_expt","","0.3077199203","","0.2337652902","","0.3512918873","","","","","",""
"119","","bandit","269","649811","0.0-231.0-0.0","22308927","wem/bandit_single","A1FLNAFLLO3UPK","pain","6","","72","H","0","img/none_selected.jpg","0","0","1","","0.4130200877","false","194","","0.4130200877","main_expt","","0.3089314305","","0.232364398","","0.2959519196","","","","","",""
"59","","bandit","270","651631","0.0-232.0-0.0","22308927","wem/bandit_single","A1FLNAFLLO3UPK","pain","6","","72","H","0","img/none_selected.jpg","0","0","1","","0.4247195967","false","195","","0.4247195967","main_expt","","0.2747286701","","0.3001816851","","0.335494982","","","","","",""
"113","","bandit","271","653530","0.0-233.0-0.0","22308927","wem/bandit_single","A1FLNAFLLO3UPK","pain","6","","72","H","0","img/none_selected.jpg","0","0","1","","0.4243543636","false","196","","0.4243543636","main_expt","","0.234477082","","0.3408234979","","0.349715921","","","","","",""
"617","","bandit","272","655920","0.0-234.0-0.0","22308927","wem/bandit_single","A1FLNAFLLO3UPK","pain","6","","74","J","1","","0","1","0","","0.2134381397","false","197","","0.3856928417","main_expt","","0.2134381397","","0.3048500693","","0.301359959","","","","","",""
"326","","bandit","273","658025","0.0-235.0-0.0","22308927","wem/bandit_single","A1FLNAFLLO3UPK","pain","6","","74","J","1","","0","0","1","","0.1732682886","false","198","","0.3619593125","main_expt","","0.1732682886","","0.320222978","","0.2948231879","","","","","",""
"89","","bandit","274","659892","0.0-236.0-0.0","22308927","wem/bandit_single","A1FLNAFLLO3UPK","pain","6","","74","J","1","","0","0","1","","0.1702760897","false","199","","0.367752629","main_expt","","0.1702760897","","0.3267381451","","0.2739130918","","","","","",""
"106","","bandit","275","661758","0.0-237.0-0.0","22308927","wem/bandit_single","A1FLNAFLLO3UPK","pain","6","","74","J","1","","0","0","1","","0.1149890083","false","200","","0.3243939248","main_expt","","0.1149890083","","0.3471124056","","0.2519174554","","","","","",""
"120","","bandit","276","663637","0.0-238.0-0.0","22308927","wem/bandit_single","A1FLNAFLLO3UPK","pain","6","","74","J","1","","0","0","1","","0.1378425817","false","201","","0.309205964","main_expt","","0.1378425817","","0.377370495","","0.2607800984","","","","","",""
"103","","bandit","277","665504","0.0-239.0-0.0","22308927","wem/bandit_single","A1FLNAFLLO3UPK","pain","6","","74","J","1","","0","0","1","","0.1351165101","false","202","","0.2762714965","main_expt","","0.1351165101","","0.4118986778","","0.2144757733","","","","","",""
"480","","bandit","278","667759","0.0-240.0-0.0","22308927","wem/bandit_single","A1FLNAFLLO3UPK","pain","6","","76","L","3","","0","0","1","","0.3006883459","false","203","","0.296808735","main_expt","","0.105254576","","0.4232074982","","0.3006883459","","","","","",""
"874","","bandit","279","670395","0.0-241.0-0.0","22308927","wem/bandit_single","A1FLNAFLLO3UPK","pain","6","","74","J","1","","0","0","1","","0.09939331469","false","204","","0.3198559136","main_expt","","0.09939331469","","0.422672589","","0.3059688055","","","","","",""
"208","","bandit","280","672368","0.0-242.0-0.0","22308927","wem/bandit_single","A1FLNAFLLO3UPK","pain","6","","75","K","2","","0","0","1","","0.4290364806","false","205","","0.3814451683","main_expt","","0.1099723927","","0.4290364806","","0.2810212056","","","","","",""
"161","","bandit","281","674312","0.0-243.0-0.0","22308927","wem/bandit_single","A1FLNAFLLO3UPK","pain","6","","75","K","2","","0","1","0","","0.4412489094","false","206","","0.3836436308","main_expt","","0.1203356594","","0.4412489094","","0.2427537705","","","","","",""
"83","","bandit","282","676168","0.0-244.0-0.0","22308927","wem/bandit_single","A1FLNAFLLO3UPK","pain","6","","75","K","2","","0","0","1","","0.461161346","false","207","","0.3943212714","main_expt","","0.1887874267","","0.461161346","","0.2312113295","","","","","",""
"42","","bandit","283","677976","0.0-245.0-0.0","22308927","wem/bandit_single","A1FLNAFLLO3UPK","pain","6","","75","K","2","","0","0","1","","0.4749000037","false","208","","0.4100076043","main_expt","","0.1570662604","","0.4749000037","","0.2502246517","","","","","",""
"490","","bandit","284","680240","0.0-246.0-0.0","22308927","wem/bandit_single","A1FLNAFLLO3UPK","pain","6","","75","K","2","","0","0","1","","0.4677638209","false","209","","0.4207901851","main_expt","","0.2050570797","","0.4677638209","","0.2378747501","","","","","",""
"61","","bandit","285","682080","0.0-247.0-0.0","22308927","wem/bandit_single","A1FLNAFLLO3UPK","pain","6","","75","K","2","","0","1","0","","0.4507398287","false","210","","0.4261573075","main_expt","","0.1803355731","","0.4507398287","","0.2323826376","","","","","",""
"175","","bandit","286","684031","0.0-248.0-0.0","22308927","wem/bandit_single","A1FLNAFLLO3UPK","pain","6","","75","K","2","","0","1","0","","0.4275102647","false","211","","0.3677002177","main_expt","","0.2066302241","","0.4275102647","","0.2346446126","","","","","",""
"86","","bandit","287","685904","0.0-249.0-0.0","22308927","wem/bandit_single","A1FLNAFLLO3UPK","pain","6","","75","K","2","","0","1","0","","0.4147803006","false","212","","0.4030871251","main_expt","","0.2190460355","","0.4147803006","","0.2017096022","","","","","",""
"395","","bandit","288","688082","0.0-250.0-0.0","22308927","wem/bandit_single","A1FLNAFLLO3UPK","pain","6","","75","K","2","","0","0","1","","0.4119553225","false","213","","0.3616850983","main_expt","","0.2433731683","","0.4119553225","","0.2149770465","","","","","",""
"47","","bandit","289","689913","0.0-251.0-0.0","22308927","wem/bandit_single","A1FLNAFLLO3UPK","pain","6","","75","K","2","","0","1","0","","0.4097086646","false","214","","0.3380837625","main_expt","","0.2355486522","","0.4097086646","","0.2323699387","","","","","",""
"27","","bandit","290","691700","0.0-252.0-0.0","22308927","wem/bandit_single","A1FLNAFLLO3UPK","pain","6","","75","K","2","","0","0","1","","0.4553079268","false","215","","0.3788103814","main_expt","","0.2493822419","","0.4553079268","","0.1880023584","","","","","",""
"1166","","bandit","291","694648","0.0-253.0-0.0","22308927","wem/bandit_single","A1FLNAFLLO3UPK","pain","6","","75","K","2","","0","1","0","","0.4360341733","false","216","","0.3844600678","main_expt","","0.2455091026","","0.4360341733","","0.2305078945","","","","","",""
"269","","bandit","292","696680","0.0-254.0-0.0","22308927","wem/bandit_single","A1FLNAFLLO3UPK","pain","6","","75","K","2","","0","0","1","","0.4337093526","false","217","","0.3747540642","main_expt","","0.193913996","","0.4337093526","","0.2042922501","","","","","",""
"409","","bandit","293","698870","0.0-255.0-0.0","22308927","wem/bandit_single","A1FLNAFLLO3UPK","pain","6","","76","L","3","","0","0","1","","0.1827914188","false","218","","0.373903774","main_expt","","0.2375794361","","0.4646024675","","0.1827914188","","","","","",""
"776","","bandit","294","701409","0.0-256.0-0.0","22308927","wem/bandit_single","A1FLNAFLLO3UPK","pain","6","","76","L","3","","0","0","1","","0.2630445196","false","219","","0.3735380413","main_expt","","0.2477723709","","0.4630893692","","0.2630445196","","","","","",""
"269","","bandit","295","703455","0.0-257.0-0.0","22308927","wem/bandit_single","A1FLNAFLLO3UPK","pain","6","","72","H","0","img/none_selected.jpg","0","0","1","","0.383917491","false","220","","0.383917491","main_expt","","0.2543503475","","0.4683356487","","0.311946342","","","","","",""
"363","","bandit","296","705599","0.0-258.0-0.0","22308927","wem/bandit_single","A1FLNAFLLO3UPK","pain","6","","72","H","0","img/none_selected.jpg","0","0","1","","0.3479973737","false","221","","0.3479973737","main_expt","","0.2776519347","","0.4682635517","","0.2972788283","","","","","",""
"88","","bandit","297","707467","0.0-259.0-0.0","22308927","wem/bandit_single","A1FLNAFLLO3UPK","pain","6","","72","H","0","img/none_selected.jpg","0","0","1","","0.3845595158","false","222","","0.3845595158","main_expt","","0.2291835432","","0.4771668828","","0.3550400804","","","","","",""
"4","","bandit","298","709252","0.0-260.0-0.0","22308927","wem/bandit_single","A1FLNAFLLO3UPK","pain","6","","72","H","0","img/none_selected.jpg","0","1","0","","0.368723436","false","223","","0.368723436","main_expt","","0.2266132179","","0.4773959318","","0.3246239653","","","","","",""
"126","","bandit","299","711160","0.0-261.0-0.0","22308927","wem/bandit_single","A1FLNAFLLO3UPK","pain","6","","72","H","0","img/none_selected.jpg","0","0","1","","0.3566991655","false","224","","0.3566991655","main_expt","","0.2124948974","","0.4567335023","","0.351266899","","","","","",""
"102","","bandit","300","713026","0.0-262.0-0.0","22308927","wem/bandit_single","A1FLNAFLLO3UPK","pain","6","","72","H","0","img/none_selected.jpg","0","0","1","","0.3557331736","false","225","","0.3557331736","main_expt","","0.2168010387","","0.4545703871","","0.3617362435","","","","","",""
"179","","bandit","301","714988","0.0-263.0-0.0","22308927","wem/bandit_single","A1FLNAFLLO3UPK","pain","6","","74","J","1","","0","0","1","","0.2286352314","false","226","","0.3620904828","main_expt","","0.2286352314","","0.4563055184","","0.3625162538","","","","","",""
"83","","bandit","302","716835","0.0-264.0-0.0","22308927","wem/bandit_single","A1FLNAFLLO3UPK","pain","6","","74","J","1","","0","0","1","","0.2349833204","false","227","","0.3794330306","main_expt","","0.2349833204","","0.4414344485","","0.3638477037","","","","","",""
"116","","bandit","303","718725","0.0-265.0-0.0","22308927","wem/bandit_single","A1FLNAFLLO3UPK","pain","6","","74","J","1","","0","0","1","","0.2376541641","false","228","","0.3480060926","main_expt","","0.2376541641","","0.4509897562","","0.321865515","","","","","",""
"89","","bandit","304","720583","0.0-266.0-0.0","22308927","wem/bandit_single","A1FLNAFLLO3UPK","pain","6","","74","J","1","","0","0","1","","0.2141250471","false","229","","0.3197951212","main_expt","","0.2141250471","","0.4355264455","","0.2574970425","","","","","",""
"101","","bandit","305","722462","0.0-267.0-0.0","22308927","wem/bandit_single","A1FLNAFLLO3UPK","pain","6","","75","K","2","","0","1","0","","0.4393215817","false","230","","0.2360623461","main_expt","","0.1986478114","","0.4393215817","","0.3167366343","","","","","",""
"79","","bandit","306","724327","0.0-268.0-0.0","22308927","wem/bandit_single","A1FLNAFLLO3UPK","pain","6","","75","K","2","","0","1","0","","0.426442838","false","231","","0.228441671","main_expt","","0.1632677176","","0.426442838","","0.359889087","","","","","",""
"103","","bandit","307","726211","0.0-269.0-0.0","22308927","wem/bandit_single","A1FLNAFLLO3UPK","pain","6","","75","K","2","","0","1","0","","0.4455015341","false","232","","0.2233622879","main_expt","","0.1437929512","","0.4455015341","","0.3765691143","","","","","",""
"167","","bandit","308","728159","0.0-270.0-0.0","22308927","wem/bandit_single","A1FLNAFLLO3UPK","pain","6","","75","K","2","","0","1","0","","0.4370113712","false","233","","0.1782647691","main_expt","","0.2490618922","","0.4370113712","","0.351320345","","","","","",""
"83","","bandit","309","730007","0.0-271.0-0.0","22308927","wem/bandit_single","A1FLNAFLLO3UPK","pain","6","","75","K","2","","0","0","1","","0.4228056097","false","234","","0.1971530904","main_expt","","0.2811602772","","0.4228056097","","0.2997083133","","","","","",""
"87","","bandit","310","731859","0.0-272.0-0.0","22308927","wem/bandit_single","A1FLNAFLLO3UPK","pain","6","","75","K","2","","0","0","1","","0.4176536857","false","235","","0.2109348075","main_expt","","0.332316849","","0.4176536857","","0.3526624454","","","","","",""
"88","","bandit","311","733732","0.0-273.0-0.0","22308927","wem/bandit_single","A1FLNAFLLO3UPK","pain","6","","75","K","2","","0","0","1","","0.419442654","false","236","","0.1891579582","main_expt","","0.3059905229","","0.419442654","","0.3050627859","","","","","",""
"140","","bandit","312","735640","0.0-274.0-0.0","22308927","wem/bandit_single","A1FLNAFLLO3UPK","pain","6","","76","L","3","","0","1","0","","0.312969263","false","237","","0.1278978542","main_expt","","0.3058344165","","0.4082659589","","0.312969263","","","","","",""
"84","","bandit","313","737513","0.0-275.0-0.0","22308927","wem/bandit_single","A1FLNAFLLO3UPK","pain","6","","76","L","3","","0","0","1","","0.380225341","false","238","","0.1509653188","main_expt","","0.2931512536","","0.4108407801","","0.380225341","","","","","",""
"1125","","bandit","314","740417","0.0-276.0-0.0","22308927","wem/bandit_single","A1FLNAFLLO3UPK","pain","6","","76","L","3","","0","0","1","","0.3657076542","false","239","","0.1919733462","main_expt","","0.2922133777","","0.4378360478","","0.3657076542","","","","","",""
"128","","bandit","315","742327","0.0-277.0-0.0","22308927","wem/bandit_single","A1FLNAFLLO3UPK","pain","6","","76","L","3","","0","0","1","","0.3815359164","false","240","","0.1751407906","main_expt","","0.3452033359","","0.4467030129","","0.3815359164","","","","","",""
"138","","bandit","316","744248","0.0-278.0-0.0","22308927","wem/bandit_single","A1FLNAFLLO3UPK","pain","6","","76","L","3","","0","0","1","","0.3251101936","false","241","","0.1759125222","main_expt","","0.3682897549","","0.4705393647","","0.3251101936","","","","","",""
"286","","bandit","317","746318","0.0-279.0-0.0","22308927","wem/bandit_single","A1FLNAFLLO3UPK","pain","6","","74","J","1","","0","0","1","","0.3628947189","false","242","","0.2137068054","main_expt","","0.3628947189","","0.4610792938","","0.3212185421","","","","","",""
"75","","bandit","318","748161","0.0-280.0-0.0","22308927","wem/bandit_single","A1FLNAFLLO3UPK","pain","6","","74","J","1","","0","0","1","","0.3766569032","false","243","","0.2179170348","main_expt","","0.3766569032","","0.4437729889","","0.3270030252","","","","","",""
"173","","bandit","319","750103","0.0-281.0-0.0","22308927","wem/bandit_single","A1FLNAFLLO3UPK","pain","6","","74","J","1","","0","1","0","","0.377991886","false","244","","0.2426329099","main_expt","","0.377991886","","0.4199869792","","0.309973419","","","","","",""
"281","","bandit","320","752150","0.0-282.0-0.0","22308927","wem/bandit_single","A1FLNAFLLO3UPK","pain","6","","74","J","1","","0","1","0","","0.304751896","false","245","","0.2351694379","main_expt","","0.304751896","","0.4183767379","","0.3342881273","","","","","",""
"111","","bandit","321","754024","0.0-283.0-0.0","22308927","wem/bandit_single","A1FLNAFLLO3UPK","pain","6","","74","J","1","","0","0","1","","0.3348187262","false","246","","0.2111663312","main_expt","","0.3348187262","","0.4292136751","","0.3149240913","","","","","",""
"119","","bandit","322","755913","0.0-284.0-0.0","22308927","wem/bandit_single","A1FLNAFLLO3UPK","pain","6","","74","J","1","","0","1","0","","0.3307987246","false","247","","0.1899020887","main_expt","","0.3307987246","","0.4577956797","","0.296458043","","","","","",""
"35","","bandit","323","757736","0.0-285.0-0.0","22308927","wem/bandit_single","A1FLNAFLLO3UPK","pain","6","","74","J","1","","0","1","0","","0.3774544282","false","248","","0.2151484255","main_expt","","0.3774544282","","0.4586239927","","0.3038576119","","","","","",""
"84","","bandit","324","759606","0.0-286.0-0.0","22308927","wem/bandit_single","A1FLNAFLLO3UPK","pain","6","","74","J","1","","0","1","0","","0.3553688181","false","249","","0.2454548658","main_expt","","0.3553688181","","0.4709187109","","0.3383832125","","","","","",""
"21","","bandit","325","761392","0.0-287.0-0.0","22308927","wem/bandit_single","A1FLNAFLLO3UPK","pain","6","","74","J","1","","0","0","1","","0.3209961504","false","250","","0.1973527755","main_expt","","0.3209961504","","0.4742496359","","0.3505221498","","","","","",""
"537","","bandit","326","763719","0.0-288.0-0.0","22308927","wem/bandit_single","A1FLNAFLLO3UPK","pain","6","","74","J","1","","0","0","1","","0.2938420796","false","251","","0.2459600056","main_expt","","0.2938420796","","0.4684276702","","0.3439557404","","","","","",""
"94","","bandit","327","765583","0.0-289.0-0.0","22308927","wem/bandit_single","A1FLNAFLLO3UPK","pain","6","","74","J","1","","0","0","1","","0.2377141092","false","252","","0.2361341643","main_expt","","0.2377141092","","0.465775704","","0.3394881367","","","","","",""
"196","","bandit","328","767566","0.0-290.0-0.0","22308927","wem/bandit_single","A1FLNAFLLO3UPK","pain","6","","74","J","1","","0","0","1","","0.28098189","false","253","","0.2263014677","main_expt","","0.28098189","","0.4739398589","","0.3195186677","","","","","",""
"219","","bandit","329","769570","0.0-291.0-0.0","22308927","wem/bandit_single","A1FLNAFLLO3UPK","pain","6","","74","J","1","","0","0","1","","0.36168886","false","254","","0.2384195691","main_expt","","0.36168886","","0.4709597483","","0.3607388593","","","","","",""
"13","","bandit","330","771372","0.0-292.0-0.0","22308927","wem/bandit_single","A1FLNAFLLO3UPK","pain","6","","72","H","0","img/none_selected.jpg","0","0","1","","0.2186709452","false","255","","0.2186709452","main_expt","","0.3196270919","","0.468651231","","0.3801942793","","","","","",""
"178","","bandit","331","773342","0.0-293.0-0.0","22308927","wem/bandit_single","A1FLNAFLLO3UPK","pain","6","","72","H","0","img/none_selected.jpg","0","0","1","","0.1625458568","false","256","","0.1625458568","main_expt","","0.3201998045","","0.4837462493","","0.2987962353","","","","","",""
"30","","bandit","332","775133","0.0-294.0-0.0","22308927","wem/bandit_single","A1FLNAFLLO3UPK","pain","6","","72","H","0","img/none_selected.jpg","0","0","1","","0.159361747","false","257","","0.159361747","main_expt","","0.3576002339","","0.4842399178","","0.272571782","","","","","",""
"233","","bandit","333","777136","0.0-295.0-0.0","22308927","wem/bandit_single","A1FLNAFLLO3UPK","pain","6","","72","H","0","img/none_selected.jpg","0","0","1","","0.1556255119","false","258","","0.1556255119","main_expt","","0.3715220428","","0.4878873921","","0.2593204486","","","","","",""
"583","","bandit","334","779503","0.0-296.0-0.0","22308927","wem/bandit_single","A1FLNAFLLO3UPK","pain","6","","75","K","2","","0","0","1","","0.4869160663","false","259","","0.1256368346","main_expt","","0.3730860303","","0.4869160663","","0.2951424317","","","","","",""
"322","","bandit","335","781606","0.0-297.0-0.0","22308927","wem/bandit_single","A1FLNAFLLO3UPK","pain","6","","75","K","2","","0","0","1","","0.4912834456","false","260","","0.1449854444","main_expt","","0.3724964978","","0.4912834456","","0.2369093976","","","","","",""
"47","","bandit","336","783416","0.0-298.0-0.0","22308927","wem/bandit_single","A1FLNAFLLO3UPK","pain","6","","75","K","2","","0","0","1","","0.4907072989","false","261","","0.1647157085","main_expt","","0.3574286068","","0.4907072989","","0.2234433316","","","","","",""
"62","","bandit","337","785278","0.0-299.0-0.0","22308927","wem/bandit_single","A1FLNAFLLO3UPK","pain","6","","75","K","2","","0","0","1","","0.4904114062","false","262","","0.1586541082","main_expt","","0.4204463107","","0.4904114062","","0.215626833","","","","","",""
"510","","bandit","338","787550","0.0-300.0-0.0","22308927","wem/bandit_single","A1FLNAFLLO3UPK","pain","6","","76","L","3","","0","0","1","","0.2227197798","false","263","","0.1683870388","main_expt","","0.4244263348","","0.4900075499","","0.2227197798","","","","","",""
"213","","bandit","339","789527","0.0-301.0-0.0","22308927","wem/bandit_single","A1FLNAFLLO3UPK","pain","6","","76","L","3","","0","1","0","","0.2113558788","false","264","","0.2205087037","main_expt","","0.4217668892","","0.4922230388","","0.2113558788","","","","","",""
"114","","bandit","340","791409","0.0-302.0-0.0","22308927","wem/bandit_single","A1FLNAFLLO3UPK","pain","6","","76","L","3","","0","0","1","","0.1814287308","false","265","","0.1554736059","main_expt","","0.3908218086","","0.4892111554","","0.1814287308","","","","","",""
"159","","bandit","341","793360","0.0-303.0-0.0","22308927","wem/bandit_single","A1FLNAFLLO3UPK","pain","6","","76","L","3","","0","0","1","","0.2579261203","false","266","","0.1556775797","main_expt","","0.350583855","","0.4894097466","","0.2579261203","","","","","",""
"158","","bandit","342","795296","0.0-304.0-0.0","22308927","wem/bandit_single","A1FLNAFLLO3UPK","pain","6","","76","L","3","","0","0","1","","0.3033521226","false","267","","0.1732223335","main_expt","","0.2971845499","","0.4898547377","","0.3033521226","","","","","",""
"82","","bandit","343","797160","0.0-305.0-0.0","22308927","wem/bandit_single","A1FLNAFLLO3UPK","pain","6","","76","L","3","","0","1","0","","0.2697057224","false","268","","0.1670192172","main_expt","","0.3271935382","","0.4960714099","","0.2697057224","","","","","",""
"198","","bandit","344","799147","0.0-306.0-0.0","22308927","wem/bandit_single","A1FLNAFLLO3UPK","pain","6","","76","L","3","","0","1","0","","0.3075876552","false","269","","0.1666577124","main_expt","","0.2912245063","","0.4951393121","","0.3075876552","","","","","",""
"41","","bandit","345","800981","0.0-307.0-0.0","22308927","wem/bandit_single","A1FLNAFLLO3UPK","pain","6","","76","L","3","","0","0","1","","0.3437361696","false","270","","0.1133531577","main_expt","","0.3007980493","","0.4903783272","","0.3437361696","","","","","",""
"126","","bandit","346","802896","0.0-308.0-0.0","22308927","wem/bandit_single","A1FLNAFLLO3UPK","pain","6","","76","L","3","","0","0","1","","0.2596534978","false","271","","0.1453503833","main_expt","","0.3025875308","","0.4932948231","","0.2596534978","","","","","",""
"98","","bandit","347","804767","0.0-309.0-0.0","22308927","wem/bandit_single","A1FLNAFLLO3UPK","pain","6","","76","L","3","","0","0","1","","0.2680739133","false","272","","0.1542373291","main_expt","","0.2608882705","","0.4950636705","","0.2680739133","","","","","",""
"445","","bandit","348","806973","0.0-310.0-0.0","22308927","wem/bandit_single","A1FLNAFLLO3UPK","pain","6","","76","L","3","","0","0","1","","0.2287209558","false","273","","0.1312836042","main_expt","","0.2985246063","","0.4866982898","","0.2287209558","","","","","",""
"128","","bandit","349","808870","0.0-311.0-0.0","22308927","wem/bandit_single","A1FLNAFLLO3UPK","pain","6","","76","L","3","","0","0","1","","0.2659047846","false","274","","0.1616535947","main_expt","","0.296104213","","0.4654226264","","0.2659047846","","","","","",""
"91","","bandit","350","810780","0.0-312.0-0.0","22308927","wem/bandit_single","A1FLNAFLLO3UPK","pain","6","","74","J","1","","0","0","1","","0.2897414639","false","275","","0.163822666","main_expt","","0.2897414639","","0.4633702838","","0.2303642271","","","","","",""
"7","","bandit","351","812550","0.0-313.0-0.0","22308927","wem/bandit_single","A1FLNAFLLO3UPK","pain","6","","74","J","1","","0","0","1","","0.296822441","false","276","","0.1500588852","main_expt","","0.296822441","","0.4741710053","","0.2631654739","","","","","",""
"97","","bandit","352","814439","0.0-314.0-0.0","22308927","wem/bandit_single","A1FLNAFLLO3UPK","pain","6","","74","J","1","","0","1","0","","0.2769528726","false","277","","0.1975700973","main_expt","","0.2769528726","","0.4821206929","","0.2660527836","","","","","",""
"330","","bandit","353","816561","0.0-315.0-0.0","22308927","wem/bandit_single","A1FLNAFLLO3UPK","pain","6","","74","J","1","","0","0","1","","0.3356585436","false","278","","0.1355298524","main_expt","","0.3356585436","","0.4704549119","","0.2869547209","","","","","",""
"120","","bandit","354","818464","0.0-316.0-0.0","22308927","wem/bandit_single","A1FLNAFLLO3UPK","pain","6","","74","J","1","","0","0","1","","0.3222384225","false","279","","0.1437345226","main_expt","","0.3222384225","","0.4749598821","","0.3594721793","","","","","",""
"107","","bandit","355","820360","0.0-317.0-0.0","22308927","wem/bandit_single","A1FLNAFLLO3UPK","pain","6","","74","J","1","","0","1","0","","0.27346357","false","280","","0.126787642","main_expt","","0.27346357","","0.4385317488","","0.3903699723","","","","","",""
"60","","bandit","356","822206","0.0-318.0-0.0","22308927","wem/bandit_single","A1FLNAFLLO3UPK","pain","6","","74","J","1","","0","0","1","","0.3633072925","false","281","","0.1765789866","main_expt","","0.3633072925","","0.4397970497","","0.4583904318","","","","","",""
"159","","bandit","357","824153","0.0-319.0-0.0","22308927","wem/bandit_single","A1FLNAFLLO3UPK","pain","6","","74","J","1","","0","1","0","","0.3269934488","false","282","","0.1659157347","main_expt","","0.3269934488","","0.4485424667","","0.4689346609","","","","","",""
"39","","bandit","358","825975","0.0-320.0-0.0","22308927","wem/bandit_single","A1FLNAFLLO3UPK","pain","6","","74","J","1","","0","0","1","","0.324321327","false","283","","0.1876778028","main_expt","","0.324321327","","0.4460930912","","0.460541741","","","","","",""
"71","","bandit","359","827837","0.0-321.0-0.0","22308927","wem/bandit_single","A1FLNAFLLO3UPK","pain","6","","74","J","1","","0","1","0","","0.2677217275","false","284","","0.2072959333","main_expt","","0.2677217275","","0.46041158","","0.4485703909","","","","","",""
"138","","bandit","360","829743","0.0-322.0-0.0","22308927","wem/bandit_single","A1FLNAFLLO3UPK","pain","6","","74","J","1","","0","1","0","","0.2832280908","false","285","","0.2171876524","main_expt","","0.2832280908","","0.4722631388","","0.4493749552","","","","","",""
"85","","bandit","361","831602","0.0-323.0-0.0","22308927","wem/bandit_single","A1FLNAFLLO3UPK","pain","6","","74","J","1","","0","0","1","","0.3338799161","false","286","","0.224404947","main_expt","","0.3338799161","","0.4710864859","","0.4223312446","","","","","",""
"29","","bandit","362","833424","0.0-324.0-0.0","22308927","wem/bandit_single","A1FLNAFLLO3UPK","pain","6","","74","J","1","","0","1","0","","0.3484096991","false","287","","0.2249093708","main_expt","","0.3484096991","","0.4400158941","","0.457140216","","","","","",""
"75","","bandit","363","835312","0.0-325.0-0.0","22308927","wem/bandit_single","A1FLNAFLLO3UPK","pain","6","","74","J","1","","0","0","1","","0.3215301514","false","288","","0.2219747159","main_expt","","0.3215301514","","0.4036546776","","0.4411377771","","","","","",""
"293","","bandit","364","837391","0.0-326.0-0.0","22308927","wem/bandit_single","A1FLNAFLLO3UPK","pain","6","","74","J","1","","0","0","1","","0.2965974011","false","289","","0.2183007497","main_expt","","0.2965974011","","0.4324218596","","0.4501271696","","","","","",""
"58","","bandit","365","839241","0.0-327.0-0.0","22308927","wem/bandit_single","A1FLNAFLLO3UPK","pain","6","","74","J","1","","0","0","1","","0.2926361454","false","290","","0.2481136515","main_expt","","0.2926361454","","0.4536473803","","0.4436507911","","","","","",""
"160","","bandit","366","841182","0.0-328.0-0.0","22308927","wem/bandit_single","A1FLNAFLLO3UPK","pain","6","","72","H","0","img/none_selected.jpg","0","0","1","","0.2972088317","false","291","","0.2972088317","main_expt","","0.243163711","","0.4634661847","","0.4381939672","","","","","",""
"417","","bandit","367","843367","0.0-329.0-0.0","22308927","wem/bandit_single","A1FLNAFLLO3UPK","pain","6","","72","H","0","img/none_selected.jpg","0","0","1","","0.2998647236","false","292","","0.2998647236","main_expt","","0.2064952975","","0.4609966616","","0.4101305143","","","","","",""
"124","","bandit","368","845279","0.0-330.0-0.0","22308927","wem/bandit_single","A1FLNAFLLO3UPK","pain","6","","72","H","0","img/none_selected.jpg","0","0","1","","0.2861810992","false","293","","0.2861810992","main_expt","","0.2099334792","","0.4648618971","","0.4297915702","","","","","",""
"14","","bandit","369","847065","0.0-331.0-0.0","22308927","wem/bandit_single","A1FLNAFLLO3UPK","pain","6","","75","K","2","","0","0","1","","0.4582487824","false","294","","0.345484004","main_expt","","0.2507358833","","0.4582487824","","0.4537219743","","","","","",""
"126","","bandit","370","848960","0.0-332.0-0.0","22308927","wem/bandit_single","A1FLNAFLLO3UPK","pain","6","","75","K","2","","0","0","1","","0.4482247061","false","295","","0.3251772281","main_expt","","0.2494268831","","0.4482247061","","0.4694953972","","","","","",""
"77","","bandit","371","850825","0.0-333.0-0.0","22308927","wem/bandit_single","A1FLNAFLLO3UPK","pain","6","","75","K","2","","0","0","1","","0.42326912","false","296","","0.2953905587","main_expt","","0.2867080039","","0.42326912","","0.4880383038","","","","","",""
"162","","bandit","372","852774","0.0-334.0-0.0","22308927","wem/bandit_single","A1FLNAFLLO3UPK","pain","6","","76","L","3","","0","0","1","","0.4916251568","false","297","","0.2717848064","main_expt","","0.2983387387","","0.4151021773","","0.4916251568","","","","","",""
"702","","bandit","373","855247","0.0-335.0-0.0","22308927","wem/bandit_single","A1FLNAFLLO3UPK","pain","6","","76","L","3","","0","0","1","","0.4921476303","false","298","","0.2682571213","main_expt","","0.2982690602","","0.4270228344","","0.4921476303","","","","","",""
"68","","bandit","374","857078","0.0-336.0-0.0","22308927","wem/bandit_single","A1FLNAFLLO3UPK","pain","6","","76","L","3","","0","1","0","","0.4800884689","false","299","","0.2400439073","main_expt","","0.2955511463","","0.4168509428","","0.4800884689","","","","","",""
"105","","bandit","375","858952","0.0-337.0-0.0","22308927","wem/bandit_single","A1FLNAFLLO3UPK","pain","6","","76","L","3","","0","1","0","","0.4882901572","false","300","","0.2494994512","main_expt","","0.3236523504","","0.414464059","","0.4882901572","","","","","",""
