"rt","responses","trial_type","trial_index","time_elapsed","internal_node_id","subjID","study","MID","cond","drift","key_press","respCharCode","respKey","respChoiceNum","respChoice","gems","bombs","no_reward","GemPrChosen","BombPrChosen","practice","trial_counter","WinPr_0","LosePr_0","trial_label","WinPr_1","LosePr_1","WinPr_2","LosePr_2","WinPr_3","LosePr_3","Q0","Q1","Q2","gender","age","ethnicity"
"16352","{""Q0"":""A1Z0O5MC9DAE8C""}","survey-text","0","16357","0.0-0.0","22634985","wem/bandit_single","A1Z0O5MC9DAE8C","pain","8","","","","","","","","","","","","","","","","","","","","","","","","","","",""
"2775","","text","1","20135","0.0-1.0","22634985","wem/bandit_single","A1Z0O5MC9DAE8C","pain","8","32","","","","","","","","","","","","","","","","","","","","","","","","","",""
"4876","","text","2","25012","0.0-2.0","22634985","wem/bandit_single","A1Z0O5MC9DAE8C","pain","8","32","","","","","","","","","","","","","","","","","","","","","","","","","",""
"25119","","text","3","50132","0.0-3.0","22634985","wem/bandit_single","A1Z0O5MC9DAE8C","pain","8","32","","","","","","","","","","","","","","","","","","","","","","","","","",""
"25421","","text","4","75555","0.0-4.0","22634985","wem/bandit_single","A1Z0O5MC9DAE8C","pain","8","32","","","","","","","","","","","","","","","","","","","","","","","","","",""
"12458","","text","5","88015","0.0-5.0","22634985","wem/bandit_single","A1Z0O5MC9DAE8C","pain","8","32","","","","","","","","","","","","","","","","","","","","","","","","","",""
"8144","","text","6","96160","0.0-6.0","22634985","wem/bandit_single","A1Z0O5MC9DAE8C","pain","8","32","","","","","","","","","","","","","","","","","","","","","","","","","",""
"4087","","text","7","100249","0.0-7.0","22634985","wem/bandit_single","A1Z0O5MC9DAE8C","pain","8","32","","","","","","","","","","","","","","","","","","","","","","","","","",""
"3712","","text","8","103962","0.0-8.0","22634985","wem/bandit_single","A1Z0O5MC9DAE8C","pain","8","32","","","","","","","","","","","","","","","","","","","","","","","","","",""
"3146","","text","9","107109","0.0-9.0","22634985","wem/bandit_single","A1Z0O5MC9DAE8C","pain","8","32","","","","","","","","","","","","","","","","","","","","","","","","","",""
"6710","","text","10","113820","0.0-10.0","22634985","wem/bandit_single","A1Z0O5MC9DAE8C","pain","8","32","","","","","","","","","","","","","","","","","","","","","","","","","",""
"2915","","text","11","116736","0.0-11.0","22634985","wem/bandit_single","A1Z0O5MC9DAE8C","pain","8","32","","","","","","","","","","","","","","","","","","","","","","","","","",""
"1773","","bandit","12","120016","0.0-12.0-0.0","22634985","wem/bandit_single","A1Z0O5MC9DAE8C","pain","8","","74","J","0","img/none_selected_demo.jpg","0","0","1","0","0","true","0","0","0","","","","","","","","","","","","",""
"952","","bandit","13","122726","0.0-13.0-0.0","22634985","wem/bandit_single","A1Z0O5MC9DAE8C","pain","8","","75","K","0","img/none_selected_demo.jpg","0","0","1","0","0","true","0","0","0","","","","","","","","","","","","",""
"2076","","text","14","125054","0.0-14.0","22634985","wem/bandit_single","A1Z0O5MC9DAE8C","pain","8","32","","","","","","","","","","","","","","","","","","","","","","","","","",""
"1378","","text","15","126434","0.0-15.0","22634985","wem/bandit_single","A1Z0O5MC9DAE8C","pain","8","32","","","","","","","","","","","","","","","","","","","","","","","","","",""
"2562","","text","16","128998","0.0-16.0","22634985","wem/bandit_single","A1Z0O5MC9DAE8C","pain","8","32","","","","","","","","","","","","","","","","","","","","","","","","","",""
"2833","","text","17","131832","0.0-17.0","22634985","wem/bandit_single","A1Z0O5MC9DAE8C","pain","8","32","","","","","","","","","","","","","","","","","","","","","","","","","",""
"1082","","bandit","18","134418","0.0-18.0-0.0","22634985","wem/bandit_single","A1Z0O5MC9DAE8C","pain","8","","74","J","0","img/none_selected_demo.jpg","0","0","1","0","0.8","true","0","0","0.8","80_20_practice","0","0.2","","","","","","","","","",""
"6","","bandit","19","136182","0.0-18.0-1.0","22634985","wem/bandit_single","A1Z0O5MC9DAE8C","pain","8","","75","K","1","","0","0","1","0","0.2","true","0","0","0.8","80_20_practice","0","0.2","","","","","","","","","",""
"1668","","bandit","20","139608","0.0-18.0-2.0","22634985","wem/bandit_single","A1Z0O5MC9DAE8C","pain","8","","74","J","0","img/none_selected_demo.jpg","0","1","0","0","0.8","true","0","0","0.8","80_20_practice","0","0.2","","","","","","","","","",""
"595","","bandit","21","141961","0.0-18.0-3.0","22634985","wem/bandit_single","A1Z0O5MC9DAE8C","pain","8","","74","J","0","img/none_selected_demo.jpg","0","1","0","0","0.8","true","0","0","0.8","80_20_practice","0","0.2","","","","","","","","","",""
"7","","bandit","22","143723","0.0-18.0-4.0","22634985","wem/bandit_single","A1Z0O5MC9DAE8C","pain","8","","74","J","0","img/none_selected_demo.jpg","0","1","0","0","0.8","true","0","0","0.8","80_20_practice","0","0.2","","","","","","","","","",""
"619","","bandit","23","146096","0.0-18.0-5.0","22634985","wem/bandit_single","A1Z0O5MC9DAE8C","pain","8","","74","J","0","img/none_selected_demo.jpg","0","1","0","0","0.8","true","0","0","0.8","80_20_practice","0","0.2","","","","","","","","","",""
"404","","bandit","24","148255","0.0-18.0-6.0","22634985","wem/bandit_single","A1Z0O5MC9DAE8C","pain","8","","74","J","0","img/none_selected_demo.jpg","0","0","1","0","0.8","true","0","0","0.8","80_20_practice","0","0.2","","","","","","","","","",""
"124","","bandit","25","150133","0.0-18.0-7.0","22634985","wem/bandit_single","A1Z0O5MC9DAE8C","pain","8","","74","J","0","img/none_selected_demo.jpg","0","0","1","0","0.8","true","0","0","0.8","80_20_practice","0","0.2","","","","","","","","","",""
"18","","bandit","26","151905","0.0-18.0-8.0","22634985","wem/bandit_single","A1Z0O5MC9DAE8C","pain","8","","74","J","0","img/none_selected_demo.jpg","0","0","1","0","0.8","true","0","0","0.8","80_20_practice","0","0.2","","","","","","","","","",""
"409","","bandit","27","154070","0.0-18.0-9.0","22634985","wem/bandit_single","A1Z0O5MC9DAE8C","pain","8","","75","K","1","","0","1","0","0","0.2","true","0","0","0.8","80_20_practice","0","0.2","","","","","","","","","",""
"28","","bandit","28","155853","0.0-18.0-10.0","22634985","wem/bandit_single","A1Z0O5MC9DAE8C","pain","8","","75","K","1","","0","0","1","0","0.2","true","0","0","0.8","80_20_practice","0","0.2","","","","","","","","","",""
"17","","bandit","29","157625","0.0-18.0-11.0","22634985","wem/bandit_single","A1Z0O5MC9DAE8C","pain","8","","75","K","1","","0","0","1","0","0.2","true","0","0","0.8","80_20_practice","0","0.2","","","","","","","","","",""
"506","","bandit","30","159888","0.0-18.0-12.0","22634985","wem/bandit_single","A1Z0O5MC9DAE8C","pain","8","","74","J","0","img/none_selected_demo.jpg","0","0","1","0","0.8","true","0","0","0.8","80_20_practice","0","0.2","","","","","","","","","",""
"44","","bandit","31","161689","0.0-18.0-13.0","22634985","wem/bandit_single","A1Z0O5MC9DAE8C","pain","8","","74","J","0","img/none_selected_demo.jpg","0","1","0","0","0.8","true","0","0","0.8","80_20_practice","0","0.2","","","","","","","","","",""
"24","","bandit","32","163469","0.0-18.0-14.0","22634985","wem/bandit_single","A1Z0O5MC9DAE8C","pain","8","","74","J","0","img/none_selected_demo.jpg","0","0","1","0","0.8","true","0","0","0.8","80_20_practice","0","0.2","","","","","","","","","",""
"20","","bandit","33","165244","0.0-18.0-15.0","22634985","wem/bandit_single","A1Z0O5MC9DAE8C","pain","8","","74","J","0","img/none_selected_demo.jpg","0","1","0","0","0.8","true","0","0","0.8","80_20_practice","0","0.2","","","","","","","","","",""
"968","","bandit","34","167966","0.0-18.0-16.0","22634985","wem/bandit_single","A1Z0O5MC9DAE8C","pain","8","","74","J","0","img/none_selected_demo.jpg","0","1","0","0","0.8","true","0","0","0.8","80_20_practice","0","0.2","","","","","","","","","",""
"11","","bandit","35","169730","0.0-18.0-17.0","22634985","wem/bandit_single","A1Z0O5MC9DAE8C","pain","8","","74","J","0","img/none_selected_demo.jpg","0","1","0","0","0.8","true","0","0","0.8","80_20_practice","0","0.2","","","","","","","","","",""
"173","","bandit","36","171658","0.0-18.0-18.0","22634985","wem/bandit_single","A1Z0O5MC9DAE8C","pain","8","","74","J","0","img/none_selected_demo.jpg","0","1","0","0","0.8","true","0","0","0.8","80_20_practice","0","0.2","","","","","","","","","",""
"460","","bandit","37","173873","0.0-18.0-19.0","22634985","wem/bandit_single","A1Z0O5MC9DAE8C","pain","8","","74","J","0","img/none_selected_demo.jpg","0","1","0","0","0.8","true","0","0","0.8","80_20_practice","0","0.2","","","","","","","","","",""
"2020","","text","38","176146","0.0-19.0","22634985","wem/bandit_single","A1Z0O5MC9DAE8C","pain","8","32","","","","","","","","","","","","","","","","","","","","","","","","","",""
"1510","","bandit","39","179160","0.0-20.0-0.0","22634985","wem/bandit_single","A1Z0O5MC9DAE8C","pain","8","","74","J","0","img/none_selected_demo.jpg","0","0","1","0","0","true","0","0","0","","0","0","","","","","","","","","",""
"9932","","text","40","189344","0.0-21.0","22634985","wem/bandit_single","A1Z0O5MC9DAE8C","pain","8","32","","","","","","","","","","","","","","","","","","","","","","","","","",""
"3376","","text","41","192722","0.0-22.0","22634985","wem/bandit_single","A1Z0O5MC9DAE8C","pain","8","32","","","","","","","","","","","","","","","","","","","","","","","","","",""
"3650","","text","42","196374","0.0-23.0","22634985","wem/bandit_single","A1Z0O5MC9DAE8C","pain","8","32","","","","","","","","","","","","","","","","","","","","","","","","","",""
"4326","","text","43","200703","0.0-24.0","22634985","wem/bandit_single","A1Z0O5MC9DAE8C","pain","8","32","","","","","","","","","","","","","","","","","","","","","","","","","",""
"16117","","text","44","216822","0.0-25.0","22634985","wem/bandit_single","A1Z0O5MC9DAE8C","pain","8","32","","","","","","","","","","","","","","","","","","","","","","","","","",""
"3932","","text","45","220755","0.0-26.0","22634985","wem/bandit_single","A1Z0O5MC9DAE8C","pain","8","32","","","","","","","","","","","","","","","","","","","","","","","","","",""
"5787","","text","46","226544","0.0-27.0","22634985","wem/bandit_single","A1Z0O5MC9DAE8C","pain","8","32","","","","","","","","","","","","","","","","","","","","","","","","","",""
"3914","","text","47","230458","0.0-28.0","22634985","wem/bandit_single","A1Z0O5MC9DAE8C","pain","8","32","","","","","","","","","","","","","","","","","","","","","","","","","",""
"9100","","text","48","239559","0.0-29.0","22634985","wem/bandit_single","A1Z0O5MC9DAE8C","pain","8","32","","","","","","","","","","","","","","","","","","","","","","","","","",""
"3504","","text","49","243065","0.0-30.0","22634985","wem/bandit_single","A1Z0O5MC9DAE8C","pain","8","32","","","","","","","","","","","","","","","","","","","","","","","","","",""
"4835","","text","50","247903","0.0-31.0","22634985","wem/bandit_single","A1Z0O5MC9DAE8C","pain","8","32","","","","","","","","","","","","","","","","","","","","","","","","","",""
"1955","","bandit","51","251363","0.0-32.0-0.0","22634985","wem/bandit_single","A1Z0O5MC9DAE8C","pain","8","","72","H","0","img/none_selected.jpg","0","1","0","0","0.8","true","0","0","0.8","full_practice","0","0.2","0","0.6","0","0.2","","","","","",""
"682","","bandit","52","253801","0.0-32.0-1.0","22634985","wem/bandit_single","A1Z0O5MC9DAE8C","pain","8","","72","H","0","img/none_selected.jpg","0","1","0","0","0.8","true","0","0","0.8","full_practice","0","0.2","0","0.6","0","0.2","","","","","",""
"429","","bandit","53","255985","0.0-32.0-2.0","22634985","wem/bandit_single","A1Z0O5MC9DAE8C","pain","8","","72","H","0","img/none_selected.jpg","0","1","0","0","0.8","true","0","0","0.8","full_practice","0","0.2","0","0.6","0","0.2","","","","","",""
"314","","bandit","54","258053","0.0-32.0-3.0","22634985","wem/bandit_single","A1Z0O5MC9DAE8C","pain","8","","72","H","0","img/none_selected.jpg","0","1","0","0","0.8","true","0","0","0.8","full_practice","0","0.2","0","0.6","0","0.2","","","","","",""
"506","","bandit","55","260313","0.0-32.0-4.0","22634985","wem/bandit_single","A1Z0O5MC9DAE8C","pain","8","","72","H","0","img/none_selected.jpg","0","1","0","0","0.8","true","0","0","0.8","full_practice","0","0.2","0","0.6","0","0.2","","","","","",""
"567","","bandit","56","262637","0.0-32.0-5.0","22634985","wem/bandit_single","A1Z0O5MC9DAE8C","pain","8","","72","H","0","img/none_selected.jpg","0","0","1","0","0.8","true","0","0","0.8","full_practice","0","0.2","0","0.6","0","0.2","","","","","",""
"348","","bandit","57","264740","0.0-32.0-6.0","22634985","wem/bandit_single","A1Z0O5MC9DAE8C","pain","8","","72","H","0","img/none_selected.jpg","0","1","0","0","0.8","true","0","0","0.8","full_practice","0","0.2","0","0.6","0","0.2","","","","","",""
"14","","bandit","58","266509","0.0-32.0-7.0","22634985","wem/bandit_single","A1Z0O5MC9DAE8C","pain","8","","72","H","0","img/none_selected.jpg","0","1","0","0","0.8","true","0","0","0.8","full_practice","0","0.2","0","0.6","0","0.2","","","","","",""
"404","","bandit","59","268668","0.0-32.0-8.0","22634985","wem/bandit_single","A1Z0O5MC9DAE8C","pain","8","","72","H","0","img/none_selected.jpg","0","0","1","0","0.8","true","0","0","0.8","full_practice","0","0.2","0","0.6","0","0.2","","","","","",""
"268","","bandit","60","270691","0.0-32.0-9.0","22634985","wem/bandit_single","A1Z0O5MC9DAE8C","pain","8","","72","H","0","img/none_selected.jpg","0","1","0","0","0.8","true","0","0","0.8","full_practice","0","0.2","0","0.6","0","0.2","","","","","",""
"86","","bandit","61","272534","0.0-32.0-10.0","22634985","wem/bandit_single","A1Z0O5MC9DAE8C","pain","8","","72","H","0","img/none_selected.jpg","0","1","0","0","0.8","true","0","0","0.8","full_practice","0","0.2","0","0.6","0","0.2","","","","","",""
"104","","bandit","62","274394","0.0-32.0-11.0","22634985","wem/bandit_single","A1Z0O5MC9DAE8C","pain","8","","72","H","0","img/none_selected.jpg","0","1","0","0","0.8","true","0","0","0.8","full_practice","0","0.2","0","0.6","0","0.2","","","","","",""
"304","","bandit","63","276454","0.0-32.0-12.0","22634985","wem/bandit_single","A1Z0O5MC9DAE8C","pain","8","","72","H","0","img/none_selected.jpg","0","1","0","0","0.8","true","0","0","0.8","full_practice","0","0.2","0","0.6","0","0.2","","","","","",""
"65","","bandit","64","278273","0.0-32.0-13.0","22634985","wem/bandit_single","A1Z0O5MC9DAE8C","pain","8","","72","H","0","img/none_selected.jpg","0","1","0","0","0.8","true","0","0","0.8","full_practice","0","0.2","0","0.6","0","0.2","","","","","",""
"175","","bandit","65","280201","0.0-32.0-14.0","22634985","wem/bandit_single","A1Z0O5MC9DAE8C","pain","8","","72","H","0","img/none_selected.jpg","0","0","1","0","0.8","true","0","0","0.8","full_practice","0","0.2","0","0.6","0","0.2","","","","","",""
"108","","bandit","66","282066","0.0-32.0-15.0","22634985","wem/bandit_single","A1Z0O5MC9DAE8C","pain","8","","72","H","0","img/none_selected.jpg","0","1","0","0","0.8","true","0","0","0.8","full_practice","0","0.2","0","0.6","0","0.2","","","","","",""
"266","","bandit","67","284087","0.0-32.0-16.0","22634985","wem/bandit_single","A1Z0O5MC9DAE8C","pain","8","","72","H","0","img/none_selected.jpg","0","1","0","0","0.8","true","0","0","0.8","full_practice","0","0.2","0","0.6","0","0.2","","","","","",""
"168","","bandit","68","286009","0.0-32.0-17.0","22634985","wem/bandit_single","A1Z0O5MC9DAE8C","pain","8","","72","H","0","img/none_selected.jpg","0","1","0","0","0.8","true","0","0","0.8","full_practice","0","0.2","0","0.6","0","0.2","","","","","",""
"217","","bandit","69","287980","0.0-32.0-18.0","22634985","wem/bandit_single","A1Z0O5MC9DAE8C","pain","8","","72","H","0","img/none_selected.jpg","0","0","1","0","0.8","true","0","0","0.8","full_practice","0","0.2","0","0.6","0","0.2","","","","","",""
"148","","bandit","70","289885","0.0-32.0-19.0","22634985","wem/bandit_single","A1Z0O5MC9DAE8C","pain","8","","72","H","0","img/none_selected.jpg","0","1","0","0","0.8","true","0","0","0.8","full_practice","0","0.2","0","0.6","0","0.2","","","","","",""
"2277","","text","71","292415","0.0-33.0","22634985","wem/bandit_single","A1Z0O5MC9DAE8C","pain","8","32","","","","","","","","","","","","","","","","","","","","","","","","","",""
"11389","","text","72","304808","0.0-34.0","22634985","wem/bandit_single","A1Z0O5MC9DAE8C","pain","8","32","","","","","","","","","","","","","","","","","","","","","","","","","",""
"5440","","text","73","310252","0.0-35.0","22634985","wem/bandit_single","A1Z0O5MC9DAE8C","pain","8","32","","","","","","","","","","","","","","","","","","","","","","","","","",""
"7241","","text","74","317495","0.0-36.0","22634985","wem/bandit_single","A1Z0O5MC9DAE8C","pain","8","32","","","","","","","","","","","","","","","","","","","","","","","","","",""
"4732","","text","75","322230","0.0-37.0","22634985","wem/bandit_single","A1Z0O5MC9DAE8C","pain","8","32","","","","","","","","","","","","","","","","","","","","","","","","","",""
"1013","","bandit","76","324748","0.0-38.0-0.0","22634985","wem/bandit_single","A1Z0O5MC9DAE8C","pain","8","","72","H","0","img/none_selected.jpg","0","0","1","","0.4519399214","false","1","","0.4519399214","main_expt","","0.2895646149","","0.461186604","","0.2726752288","","","","","",""
"35","","bandit","77","326541","0.0-39.0-0.0","22634985","wem/bandit_single","A1Z0O5MC9DAE8C","pain","8","","74","J","1","","0","0","1","","0.3162770887","false","2","","0.4414774062","main_expt","","0.3162770887","","0.4745384616","","0.2373300031","","","","","",""
"0","","bandit","78","328300","0.0-40.0-0.0","22634985","wem/bandit_single","A1Z0O5MC9DAE8C","pain","8","","75","K","2","","0","1","0","","0.476270309","false","3","","0.4248782664","main_expt","","0.3445892231","","0.476270309","","0.2268539811","","","","","",""
"275","","bandit","79","330334","0.0-41.0-0.0","22634985","wem/bandit_single","A1Z0O5MC9DAE8C","pain","8","","75","K","2","","0","1","0","","0.4750198572","false","4","","0.3797460064","main_expt","","0.318720175","","0.4750198572","","0.2312911009","","","","","",""
"288","","bandit","80","332376","0.0-42.0-0.0","22634985","wem/bandit_single","A1Z0O5MC9DAE8C","pain","8","","75","K","2","","0","0","1","","0.4711191004","false","5","","0.3747955817","main_expt","","0.2768356494","","0.4711191004","","0.1875260819","","","","","",""
"393","","bandit","81","334526","0.0-43.0-0.0","22634985","wem/bandit_single","A1Z0O5MC9DAE8C","pain","8","","75","K","2","","0","1","0","","0.4561500297","false","6","","0.3434652127","main_expt","","0.2660169375","","0.4561500297","","0.190272436","","","","","",""
"12","","bandit","82","336297","0.0-44.0-0.0","22634985","wem/bandit_single","A1Z0O5MC9DAE8C","pain","8","","75","K","2","","0","0","1","","0.4549462182","false","7","","0.3450192323","main_expt","","0.3364590491","","0.4549462182","","0.1912500229","","","","","",""
"453","","bandit","83","338506","0.0-45.0-0.0","22634985","wem/bandit_single","A1Z0O5MC9DAE8C","pain","8","","75","K","2","","0","1","0","","0.4738433377","false","8","","0.3319287687","main_expt","","0.2814314702","","0.4738433377","","0.2317086102","","","","","",""
"316","","bandit","84","340581","0.0-46.0-0.0","22634985","wem/bandit_single","A1Z0O5MC9DAE8C","pain","8","","75","K","2","","0","0","1","","0.4719526371","false","9","","0.3592879842","main_expt","","0.172204453","","0.4719526371","","0.2732709622","","","","","",""
"399","","bandit","85","342735","0.0-47.0-0.0","22634985","wem/bandit_single","A1Z0O5MC9DAE8C","pain","8","","75","K","2","","0","0","1","","0.4102917743","false","10","","0.4119036765","main_expt","","0.1714760066","","0.4102917743","","0.2369361721","","","","","",""
"11","","bandit","86","344502","0.0-48.0-0.0","22634985","wem/bandit_single","A1Z0O5MC9DAE8C","pain","8","","76","L","3","","0","0","1","","0.2428480584","false","11","","0.440335537","main_expt","","0.1477319919","","0.4247485268","","0.2428480584","","","","","",""
"22","","bandit","87","346277","0.0-49.0-0.0","22634985","wem/bandit_single","A1Z0O5MC9DAE8C","pain","8","","75","K","2","","0","0","1","","0.3805001106","false","12","","0.4198069009","main_expt","","0.1195530135","","0.3805001106","","0.3127978045","","","","","",""
"417","","bandit","88","348450","0.0-50.0-0.0","22634985","wem/bandit_single","A1Z0O5MC9DAE8C","pain","8","","74","J","1","","0","0","1","","0.1097065617","false","13","","0.4095272681","main_expt","","0.1097065617","","0.3922463094","","0.3411181312","","","","","",""
"81","","bandit","89","350287","0.0-51.0-0.0","22634985","wem/bandit_single","A1Z0O5MC9DAE8C","pain","8","","72","H","0","img/none_selected.jpg","0","1","0","","0.4393311008","false","14","","0.4393311008","main_expt","","0.1146709003","","0.3385893542","","0.3547490374","","","","","",""
"63","","bandit","90","352106","0.0-52.0-0.0","22634985","wem/bandit_single","A1Z0O5MC9DAE8C","pain","8","","72","H","0","img/none_selected.jpg","0","1","0","","0.4232641195","false","15","","0.4232641195","main_expt","","0.105598426","","0.2580729479","","0.3447780093","","","","","",""
"373","","bandit","91","354235","0.0-53.0-0.0","22634985","wem/bandit_single","A1Z0O5MC9DAE8C","pain","8","","72","H","0","img/none_selected.jpg","0","0","1","","0.408879381","false","16","","0.408879381","main_expt","","0.1085338479","","0.3126944558","","0.3451486401","","","","","",""
"1153","","bandit","92","357145","0.0-54.0-0.0","22634985","wem/bandit_single","A1Z0O5MC9DAE8C","pain","8","","72","H","0","img/none_selected.jpg","0","0","1","","0.376774317","false","17","","0.376774317","main_expt","","0.1267686316","","0.3693960878","","0.3788599072","","","","","",""
"44","","bandit","93","358948","0.0-55.0-0.0","22634985","wem/bandit_single","A1Z0O5MC9DAE8C","pain","8","","74","J","1","","0","0","1","","0.2161611973","false","18","","0.4245824949","main_expt","","0.2161611973","","0.3881723811","","0.3977159439","","","","","",""
"396","","bandit","94","361100","0.0-56.0-0.0","22634985","wem/bandit_single","A1Z0O5MC9DAE8C","pain","8","","75","K","2","","0","0","1","","0.3762380044","false","19","","0.4391895307","main_expt","","0.2028493804","","0.3762380044","","0.3885232362","","","","","",""
"267","","bandit","95","363122","0.0-57.0-0.0","22634985","wem/bandit_single","A1Z0O5MC9DAE8C","pain","8","","76","L","3","","0","1","0","","0.3985462001","false","20","","0.4621127774","main_expt","","0.2258994585","","0.3842023068","","0.3985462001","","","","","",""
"78","","bandit","96","364957","0.0-58.0-0.0","22634985","wem/bandit_single","A1Z0O5MC9DAE8C","pain","8","","76","L","3","","0","0","1","","0.349749023","false","21","","0.4621164646","main_expt","","0.1591174119","","0.3509270449","","0.349749023","","","","","",""
"193","","bandit","97","366906","0.0-59.0-0.0","22634985","wem/bandit_single","A1Z0O5MC9DAE8C","pain","8","","76","L","3","","0","0","1","","0.3437713834","false","22","","0.4347396303","main_expt","","0.1526874152","","0.3777441782","","0.3437713834","","","","","",""
"417","","bandit","98","369078","0.0-60.0-0.0","22634985","wem/bandit_single","A1Z0O5MC9DAE8C","pain","8","","75","K","2","","0","0","1","","0.3799964268","false","23","","0.43496863","main_expt","","0.1461335862","","0.3799964268","","0.3608333873","","","","","",""
"285","","bandit","99","371120","0.0-61.0-0.0","22634985","wem/bandit_single","A1Z0O5MC9DAE8C","pain","8","","74","J","1","","0","0","1","","0.194032511","false","24","","0.43684491","main_expt","","0.194032511","","0.4097073291","","0.3832767268","","","","","",""
"311","","bandit","100","373192","0.0-62.0-0.0","22634985","wem/bandit_single","A1Z0O5MC9DAE8C","pain","8","","72","H","0","img/none_selected.jpg","0","0","1","","0.3785768995","false","25","","0.3785768995","main_expt","","0.1913779305","","0.4196977393","","0.3839685871","","","","","",""
"449","","bandit","101","375396","0.0-63.0-0.0","22634985","wem/bandit_single","A1Z0O5MC9DAE8C","pain","8","","72","H","0","img/none_selected.jpg","0","0","1","","0.3754964585","false","26","","0.3754964585","main_expt","","0.2830828826","","0.3798545817","","0.3871157951","","","","","",""
"108","","bandit","102","377258","0.0-64.0-0.0","22634985","wem/bandit_single","A1Z0O5MC9DAE8C","pain","8","","74","J","1","","0","0","1","","0.3268824087","false","27","","0.3964499655","main_expt","","0.3268824087","","0.3531061786","","0.4093540125","","","","","",""
"11","","bandit","103","379023","0.0-65.0-0.0","22634985","wem/bandit_single","A1Z0O5MC9DAE8C","pain","8","","74","J","1","","0","0","1","","0.3092871108","false","28","","0.4243602908","main_expt","","0.3092871108","","0.3327392046","","0.3781829904","","","","","",""
"351","","bandit","104","381131","0.0-66.0-0.0","22634985","wem/bandit_single","A1Z0O5MC9DAE8C","pain","8","","75","K","2","","0","0","1","","0.2799969064","false","29","","0.4296462108","main_expt","","0.299803321","","0.2799969064","","0.3633234486","","","","","",""
"66","","bandit","105","382954","0.0-67.0-0.0","22634985","wem/bandit_single","A1Z0O5MC9DAE8C","pain","8","","75","K","2","","0","1","0","","0.225268033","false","30","","0.4442153724","main_expt","","0.3318792252","","0.225268033","","0.395486831","","","","","",""
"24","","bandit","106","384733","0.0-68.0-0.0","22634985","wem/bandit_single","A1Z0O5MC9DAE8C","pain","8","","75","K","2","","0","0","1","","0.2195205817","false","31","","0.4425075274","main_expt","","0.3274080626","","0.2195205817","","0.353932484","","","","","",""
"77","","bandit","107","386566","0.0-69.0-0.0","22634985","wem/bandit_single","A1Z0O5MC9DAE8C","pain","8","","75","K","2","","0","0","1","","0.2569702332","false","32","","0.4038806219","main_expt","","0.3233555863","","0.2569702332","","0.3902442546","","","","","",""
"426","","bandit","108","388747","0.0-70.0-0.0","22634985","wem/bandit_single","A1Z0O5MC9DAE8C","pain","8","","76","L","3","","0","1","0","","0.3727342875","false","33","","0.4283701542","main_expt","","0.3836123675","","0.2914027765","","0.3727342875","","","","","",""
"1","","bandit","109","390503","0.0-71.0-0.0","22634985","wem/bandit_single","A1Z0O5MC9DAE8C","pain","8","","76","L","3","","0","0","1","","0.3940120807","false","34","","0.4332078231","main_expt","","0.4200589335","","0.2667004126","","0.3940120807","","","","","",""
"92","","bandit","110","392350","0.0-72.0-0.0","22634985","wem/bandit_single","A1Z0O5MC9DAE8C","pain","8","","76","L","3","","0","1","0","","0.3682756201","false","35","","0.3861361583","main_expt","","0.4280145355","","0.3112773703","","0.3682756201","","","","","",""
"41","","bandit","111","394148","0.0-73.0-0.0","22634985","wem/bandit_single","A1Z0O5MC9DAE8C","pain","8","","76","L","3","","0","0","1","","0.4136743311","false","36","","0.3176889815","main_expt","","0.3696194815","","0.3158013471","","0.4136743311","","","","","",""
"336","","bandit","112","396240","0.0-74.0-0.0","22634985","wem/bandit_single","A1Z0O5MC9DAE8C","pain","8","","76","L","3","","0","0","1","","0.449594317","false","37","","0.3333355096","main_expt","","0.3567242832","","0.3348696363","","0.449594317","","","","","",""
"63","","bandit","113","398057","0.0-75.0-0.0","22634985","wem/bandit_single","A1Z0O5MC9DAE8C","pain","8","","75","K","2","","0","0","1","","0.2967031697","false","38","","0.3613286773","main_expt","","0.3139752797","","0.2967031697","","0.4427192246","","","","","",""
"341","","bandit","114","400154","0.0-76.0-0.0","22634985","wem/bandit_single","A1Z0O5MC9DAE8C","pain","8","","74","J","1","","0","0","1","","0.2884672813","false","39","","0.3354588101","main_expt","","0.2884672813","","0.2816090282","","0.4375360897","","","","","",""
"136","","bandit","115","402045","0.0-77.0-0.0","22634985","wem/bandit_single","A1Z0O5MC9DAE8C","pain","8","","72","H","0","img/none_selected.jpg","0","0","1","","0.4044898685","false","40","","0.4044898685","main_expt","","0.3253538103","","0.2900329111","","0.452648821","","","","","",""
"379","","bandit","116","404181","0.0-78.0-0.0","22634985","wem/bandit_single","A1Z0O5MC9DAE8C","pain","8","","76","L","3","","0","1","0","","0.4689255384","false","41","","0.3615903795","main_expt","","0.2782289032","","0.3160732104","","0.4689255384","","","","","",""
"387","","bandit","117","406323","0.0-79.0-0.0","22634985","wem/bandit_single","A1Z0O5MC9DAE8C","pain","8","","76","L","3","","0","1","0","","0.470096522","false","42","","0.3239257876","main_expt","","0.2378060085","","0.370849222","","0.470096522","","","","","",""
"67","","bandit","118","408148","0.0-80.0-0.0","22634985","wem/bandit_single","A1Z0O5MC9DAE8C","pain","8","","76","L","3","","0","1","0","","0.4349244256","false","43","","0.2907144625","main_expt","","0.2250536993","","0.385301305","","0.4349244256","","","","","",""
"229","","bandit","119","410134","0.0-81.0-0.0","22634985","wem/bandit_single","A1Z0O5MC9DAE8C","pain","8","","76","L","3","","0","0","1","","0.4316966947","false","44","","0.2937558929","main_expt","","0.2132249492","","0.416838688","","0.4316966947","","","","","",""
"252","","bandit","120","412143","0.0-82.0-0.0","22634985","wem/bandit_single","A1Z0O5MC9DAE8C","pain","8","","76","L","3","","0","0","1","","0.4526201082","false","45","","0.3667346614","main_expt","","0.2669052982","","0.3927526088","","0.4526201082","","","","","",""
"271","","bandit","121","414168","0.0-83.0-0.0","22634985","wem/bandit_single","A1Z0O5MC9DAE8C","pain","8","","76","L","3","","0","1","0","","0.4696962879","false","46","","0.4084803937","main_expt","","0.259601005","","0.3789336214","","0.4696962879","","","","","",""
"25","","bandit","122","415949","0.0-84.0-0.0","22634985","wem/bandit_single","A1Z0O5MC9DAE8C","pain","8","","76","L","3","","0","0","1","","0.4591824552","false","47","","0.3956447052","main_expt","","0.2442503122","","0.3994803113","","0.4591824552","","","","","",""
"385","","bandit","123","418090","0.0-85.0-0.0","22634985","wem/bandit_single","A1Z0O5MC9DAE8C","pain","8","","76","L","3","","0","0","1","","0.4548607847","false","48","","0.3859230678","main_expt","","0.2427668164","","0.3570668153","","0.4548607847","","","","","",""
"1929","","bandit","124","421773","0.0-86.0-0.0","22634985","wem/bandit_single","A1Z0O5MC9DAE8C","pain","8","","75","K","2","","0","1","0","","0.3500417472","false","49","","0.394993817","main_expt","","0.218731525","","0.3500417472","","0.4625410341","","","","","",""
"141","","bandit","125","423670","0.0-87.0-0.0","22634985","wem/bandit_single","A1Z0O5MC9DAE8C","pain","8","","75","K","2","","0","1","0","","0.3110114061","false","50","","0.4358915385","main_expt","","0.2187604329","","0.3110114061","","0.4620574215","","","","","",""
"253","","bandit","126","425682","0.0-88.0-0.0","22634985","wem/bandit_single","A1Z0O5MC9DAE8C","pain","8","","75","K","2","","0","1","0","","0.3165374422","false","51","","0.4437026926","main_expt","","0.2764450854","","0.3165374422","","0.4573118055","","","","","",""
"143","","bandit","127","427585","0.0-89.0-0.0","22634985","wem/bandit_single","A1Z0O5MC9DAE8C","pain","8","","75","K","2","","0","0","1","","0.3212783944","false","52","","0.4357441266","main_expt","","0.2735561336","","0.3212783944","","0.4577170033","","","","","",""
"566","","bandit","128","429907","0.0-90.0-0.0","22634985","wem/bandit_single","A1Z0O5MC9DAE8C","pain","8","","75","K","2","","0","0","1","","0.3079714244","false","53","","0.3926545571","main_expt","","0.2558353256","","0.3079714244","","0.4599667981","","","","","",""
"220","","bandit","129","431884","0.0-91.0-0.0","22634985","wem/bandit_single","A1Z0O5MC9DAE8C","pain","8","","74","J","1","","0","0","1","","0.2856473895","false","54","","0.3841940555","main_expt","","0.2856473895","","0.3538619638","","0.4598989899","","","","","",""
"92","","bandit","130","433733","0.0-92.0-0.0","22634985","wem/bandit_single","A1Z0O5MC9DAE8C","pain","8","","75","K","2","","0","0","1","","0.3390258849","false","55","","0.3733442546","main_expt","","0.3110799389","","0.3390258849","","0.4371040197","","","","","",""
"364","","bandit","131","435854","0.0-93.0-0.0","22634985","wem/bandit_single","A1Z0O5MC9DAE8C","pain","8","","76","L","3","","0","0","1","","0.3889704242","false","56","","0.3500738246","main_expt","","0.2862995849","","0.3282580673","","0.3889704242","","","","","",""
"451","","bandit","132","438061","0.0-94.0-0.0","22634985","wem/bandit_single","A1Z0O5MC9DAE8C","pain","8","","72","H","0","img/none_selected.jpg","0","1","0","","0.3265916347","false","57","","0.3265916347","main_expt","","0.3029349154","","0.3014999451","","0.4089883961","","","","","",""
"57","","bandit","133","439873","0.0-95.0-0.0","22634985","wem/bandit_single","A1Z0O5MC9DAE8C","pain","8","","72","H","0","img/none_selected.jpg","0","1","0","","0.3203483638","false","58","","0.3203483638","main_expt","","0.282602966","","0.2895525025","","0.3682078294","","","","","",""
"274","","bandit","134","441905","0.0-96.0-0.0","22634985","wem/bandit_single","A1Z0O5MC9DAE8C","pain","8","","72","H","0","img/none_selected.jpg","0","0","1","","0.258324817","false","59","","0.258324817","main_expt","","0.3271218703","","0.2538740387","","0.426053772","","","","","",""
"100","","bandit","135","443766","0.0-97.0-0.0","22634985","wem/bandit_single","A1Z0O5MC9DAE8C","pain","8","","72","H","0","img/none_selected.jpg","0","1","0","","0.2527557167","false","60","","0.2527557167","main_expt","","0.2978757068","","0.2509640494","","0.4175969639","","","","","",""
"41","","bandit","136","445564","0.0-98.0-0.0","22634985","wem/bandit_single","A1Z0O5MC9DAE8C","pain","8","","72","H","0","img/none_selected.jpg","0","0","1","","0.2925705146","false","61","","0.2925705146","main_expt","","0.1922553384","","0.1930295055","","0.4124946444","","","","","",""
"91","","bandit","137","447411","0.0-99.0-0.0","22634985","wem/bandit_single","A1Z0O5MC9DAE8C","pain","8","","72","H","0","img/none_selected.jpg","0","0","1","","0.310648962","false","62","","0.310648962","main_expt","","0.1408400783","","0.1259826115","","0.4077217862","","","","","",""
"92","","bandit","138","449259","0.0-100.0-0.0","22634985","wem/bandit_single","A1Z0O5MC9DAE8C","pain","8","","74","J","1","","0","0","1","","0.1779610645","false","63","","0.3175489896","main_expt","","0.1779610645","","0.1388804293","","0.4258821936","","","","","",""
"72","","bandit","139","451085","0.0-101.0-0.0","22634985","wem/bandit_single","A1Z0O5MC9DAE8C","pain","8","","76","L","3","","0","1","0","","0.4314195329","false","64","","0.2756852574","main_expt","","0.1733040919","","0.1412297375","","0.4314195329","","","","","",""
"333","","bandit","140","453175","0.0-102.0-0.0","22634985","wem/bandit_single","A1Z0O5MC9DAE8C","pain","8","","76","L","3","","0","1","0","","0.4174082156","false","65","","0.2798966648","main_expt","","0.1669650696","","0.07856201072","","0.4174082156","","","","","",""
"27","","bandit","141","454957","0.0-103.0-0.0","22634985","wem/bandit_single","A1Z0O5MC9DAE8C","pain","8","","76","L","3","","0","0","1","","0.4396479182","false","66","","0.2440426105","main_expt","","0.1439674443","","0.04493535693","","0.4396479182","","","","","",""
"77","","bandit","142","456788","0.0-104.0-0.0","22634985","wem/bandit_single","A1Z0O5MC9DAE8C","pain","8","","76","L","3","","0","0","1","","0.4080198752","false","67","","0.2630461485","main_expt","","0.1892066175","","0.06268984171","","0.4080198752","","","","","",""
"104","","bandit","143","458651","0.0-105.0-0.0","22634985","wem/bandit_single","A1Z0O5MC9DAE8C","pain","8","","75","K","2","","0","1","0","","0.0976634122","false","68","","0.2456224984","main_expt","","0.1994174399","","0.0976634122","","0.4137299856","","","","","",""
"211","","bandit","144","460621","0.0-106.0-0.0","22634985","wem/bandit_single","A1Z0O5MC9DAE8C","pain","8","","75","K","2","","0","0","1","","0.1303859095","false","69","","0.328759159","main_expt","","0.1624567358","","0.1303859095","","0.3938947582","","","","","",""
"9","","bandit","145","462391","0.0-107.0-0.0","22634985","wem/bandit_single","A1Z0O5MC9DAE8C","pain","8","","75","K","2","","0","0","1","","0.09159795462","false","70","","0.3063762308","main_expt","","0.203142037","","0.09159795462","","0.3876621225","","","","","",""
"245","","bandit","146","464392","0.0-108.0-0.0","22634985","wem/bandit_single","A1Z0O5MC9DAE8C","pain","8","","74","J","1","","0","1","0","","0.218187973","false","71","","0.3509026903","main_expt","","0.218187973","","0.07422050438","","0.3788053019","","","","","",""
"333","","bandit","147","466481","0.0-109.0-0.0","22634985","wem/bandit_single","A1Z0O5MC9DAE8C","pain","8","","74","J","1","","0","0","1","","0.2357875668","false","72","","0.3695940198","main_expt","","0.2357875668","","0.05420033029","","0.3632611749","","","","","",""
"8","","bandit","148","468246","0.0-110.0-0.0","22634985","wem/bandit_single","A1Z0O5MC9DAE8C","pain","8","","74","J","1","","0","0","1","","0.1951490082","false","73","","0.3532210052","main_expt","","0.1951490082","","0.04794676006","","0.3121818875","","","","","",""
"884","","bandit","149","470885","0.0-111.0-0.0","22634985","wem/bandit_single","A1Z0O5MC9DAE8C","pain","8","","74","J","1","","0","0","1","","0.208621177","false","74","","0.3780170277","main_expt","","0.208621177","","0.03645121522","","0.3385624816","","","","","",""
"32","","bandit","150","472677","0.0-112.0-0.0","22634985","wem/bandit_single","A1Z0O5MC9DAE8C","pain","8","","72","H","0","img/none_selected.jpg","0","1","0","","0.3141643986","false","75","","0.3141643986","main_expt","","0.2016482668","","0.04346784694","","0.3393964734","","","","","",""
"71","","bandit","151","474505","0.0-113.0-0.0","22634985","wem/bandit_single","A1Z0O5MC9DAE8C","pain","8","","72","H","0","img/none_selected.jpg","0","0","1","","0.3520496016","false","76","","0.3520496016","main_expt","","0.2495615647","","0.05697420644","","0.3489067358","","","","","",""
"356","","bandit","152","476617","0.0-114.0-0.0","22634985","wem/bandit_single","A1Z0O5MC9DAE8C","pain","8","","72","H","0","img/none_selected.jpg","0","1","0","","0.2628688268","false","77","","0.2628688268","main_expt","","0.2225386599","","0.05831686642","","0.3502211764","","","","","",""
"399","","bandit","153","478778","0.0-115.0-0.0","22634985","wem/bandit_single","A1Z0O5MC9DAE8C","pain","8","","72","H","0","img/none_selected.jpg","0","0","1","","0.2856335909","false","78","","0.2856335909","main_expt","","0.2525784454","","0.0396837938","","0.2979424841","","","","","",""
"131","","bandit","154","480669","0.0-116.0-0.0","22634985","wem/bandit_single","A1Z0O5MC9DAE8C","pain","8","","72","H","0","img/none_selected.jpg","0","0","1","","0.3052483479","false","79","","0.3052483479","main_expt","","0.2691825077","","0.03651397352","","0.2779986596","","","","","",""
"58","","bandit","155","482484","0.0-117.0-0.0","22634985","wem/bandit_single","A1Z0O5MC9DAE8C","pain","8","","74","J","1","","0","0","1","","0.2749696362","false","80","","0.2809417262","main_expt","","0.2749696362","","0.0570793957","","0.2681941829","","","","","",""
"767","","bandit","156","485008","0.0-118.0-0.0","22634985","wem/bandit_single","A1Z0O5MC9DAE8C","pain","8","","75","K","2","","0","0","1","","0.05597964966","false","81","","0.2639407754","main_expt","","0.291945729","","0.05597964966","","0.2536714586","","","","","",""
"340","","bandit","157","487106","0.0-119.0-0.0","22634985","wem/bandit_single","A1Z0O5MC9DAE8C","pain","8","","76","L","3","","0","0","1","","0.1904528106","false","82","","0.3352417475","main_expt","","0.2804178179","","0.0589745046","","0.1904528106","","","","","",""
"23","","bandit","158","488885","0.0-120.0-0.0","22634985","wem/bandit_single","A1Z0O5MC9DAE8C","pain","8","","72","H","0","img/none_selected.jpg","0","0","1","","0.3246721101","false","83","","0.3246721101","main_expt","","0.2253075454","","0.04461225985","","0.2497062266","","","","","",""
"348","","bandit","159","490990","0.0-121.0-0.0","22634985","wem/bandit_single","A1Z0O5MC9DAE8C","pain","8","","74","J","1","","0","0","1","","0.2475548924","false","84","","0.3082112656","main_expt","","0.2475548924","","0.04600221485","","0.2960017758","","","","","",""
"128","","bandit","160","492874","0.0-122.0-0.0","22634985","wem/bandit_single","A1Z0O5MC9DAE8C","pain","8","","75","K","2","","0","0","1","","0.04782026086","false","85","","0.2733186338","main_expt","","0.2443994903","","0.04782026086","","0.2677312645","","","","","",""
"42","","bandit","161","494672","0.0-123.0-0.0","22634985","wem/bandit_single","A1Z0O5MC9DAE8C","pain","8","","76","L","3","","0","0","1","","0.2764415163","false","86","","0.2595222796","main_expt","","0.2112262296","","0.05551660222","","0.2764415163","","","","","",""
"15","","bandit","162","496443","0.0-124.0-0.0","22634985","wem/bandit_single","A1Z0O5MC9DAE8C","pain","8","","72","H","0","img/none_selected.jpg","0","0","1","","0.2256999028","false","87","","0.2256999028","main_expt","","0.2188998383","","0.04708869331","","0.324022149","","","","","",""
"289","","bandit","163","498488","0.0-125.0-0.0","22634985","wem/bandit_single","A1Z0O5MC9DAE8C","pain","8","","74","J","1","","0","0","1","","0.2197891412","false","88","","0.1990670624","main_expt","","0.2197891412","","0.02844544313","","0.3109963835","","","","","",""
"11","","bandit","164","500255","0.0-126.0-0.0","22634985","wem/bandit_single","A1Z0O5MC9DAE8C","pain","8","","75","K","2","","0","0","1","","0.02947982339","false","89","","0.2125628639","main_expt","","0.1264972534","","0.02947982339","","0.324941543","","","","","",""
"297","","bandit","165","502308","0.0-127.0-0.0","22634985","wem/bandit_single","A1Z0O5MC9DAE8C","pain","8","","76","L","3","","0","0","1","","0.3309337967","false","90","","0.2335475446","main_expt","","0.09492746395","","0.01544371513","","0.3309337967","","","","","",""
"215","","bandit","166","504277","0.0-128.0-0.0","22634985","wem/bandit_single","A1Z0O5MC9DAE8C","pain","8","","72","H","0","img/none_selected.jpg","0","1","0","","0.2803997126","false","91","","0.2803997126","main_expt","","0.0779798764","","0.02662688154","","0.2419508287","","","","","",""
"69","","bandit","167","506101","0.0-129.0-0.0","22634985","wem/bandit_single","A1Z0O5MC9DAE8C","pain","8","","72","H","0","img/none_selected.jpg","0","0","1","","0.2771315147","false","92","","0.2771315147","main_expt","","0.1178574791","","0.03471523835","","0.2040869203","","","","","",""
"128","","bandit","168","507986","0.0-130.0-0.0","22634985","wem/bandit_single","A1Z0O5MC9DAE8C","pain","8","","72","H","0","img/none_selected.jpg","0","0","1","","0.3069544445","false","93","","0.3069544445","main_expt","","0.1199697814","","0.0252433293","","0.1936143615","","","","","",""
"135","","bandit","169","509877","0.0-131.0-0.0","22634985","wem/bandit_single","A1Z0O5MC9DAE8C","pain","8","","74","J","1","","0","0","1","","0.1351842626","false","94","","0.2585327286","main_expt","","0.1351842626","","0.02873343753","","0.2296452841","","","","","",""
"193","","bandit","170","511826","0.0-132.0-0.0","22634985","wem/bandit_single","A1Z0O5MC9DAE8C","pain","8","","74","J","1","","0","0","1","","0.1229387465","false","95","","0.2043747222","main_expt","","0.1229387465","","0.03754278977","","0.3009770616","","","","","",""
"426","","bandit","171","514008","0.0-133.0-0.0","22634985","wem/bandit_single","A1Z0O5MC9DAE8C","pain","8","","75","K","2","","0","0","1","","0.02045008397","false","96","","0.2149370614","main_expt","","0.1341504272","","0.02045008397","","0.3664634414","","","","","",""
"284","","bandit","172","516047","0.0-134.0-0.0","22634985","wem/bandit_single","A1Z0O5MC9DAE8C","pain","8","","76","L","3","","0","0","1","","0.3476641925","false","97","","0.1294523689","main_expt","","0.08646330057","","0.01282395838","","0.3476641925","","","","","",""
"379","","bandit","173","518185","0.0-135.0-0.0","22634985","wem/bandit_single","A1Z0O5MC9DAE8C","pain","8","","75","K","2","","0","0","1","","0.02206163243","false","98","","0.1653870254","main_expt","","0.07731746448","","0.02206163243","","0.3885632826","","","","","",""
"103","","bandit","174","520053","0.0-136.0-0.0","22634985","wem/bandit_single","A1Z0O5MC9DAE8C","pain","8","","76","L","3","","0","0","1","","0.3222143249","false","99","","0.187235433","main_expt","","0.05048608161","","0.03016500256","","0.3222143249","","","","","",""
"168","","bandit","175","521978","0.0-137.0-0.0","22634985","wem/bandit_single","A1Z0O5MC9DAE8C","pain","8","","72","H","0","img/none_selected.jpg","0","0","1","","0.1583251777","false","100","","0.1583251777","main_expt","","0.03970728334","","0.03237578522","","0.3386714995","","","","","",""
"268","","bandit","176","524002","0.0-138.0-0.0","22634985","wem/bandit_single","A1Z0O5MC9DAE8C","pain","8","","72","H","0","img/none_selected.jpg","0","0","1","","0.1337381207","false","101","","0.1337381207","main_expt","","0.02108340439","","0.03241037075","","0.3131396166","","","","","",""
"434","","bandit","177","526192","0.0-139.0-0.0","22634985","wem/bandit_single","A1Z0O5MC9DAE8C","pain","8","","74","J","1","","0","0","1","","0.05244648731","false","102","","0.1163639012","main_expt","","0.05244648731","","0.06000215667","","0.3417288757","","","","","",""
"142","","bandit","178","528089","0.0-140.0-0.0","22634985","wem/bandit_single","A1Z0O5MC9DAE8C","pain","8","","74","J","1","","0","0","1","","0.04574159302","false","103","","0.1118657557","main_expt","","0.04574159302","","0.08726741307","","0.3582654759","","","","","",""
"96","","bandit","179","529941","0.0-141.0-0.0","22634985","wem/bandit_single","A1Z0O5MC9DAE8C","pain","8","","74","J","1","","0","0","1","","0.05033190662","false","104","","0.1501499683","main_expt","","0.05033190662","","0.1067467257","","0.3409136392","","","","","",""
"195","","bandit","180","531891","0.0-142.0-0.0","22634985","wem/bandit_single","A1Z0O5MC9DAE8C","pain","8","","75","K","2","","0","0","1","","0.1004566838","false","105","","0.1354733374","main_expt","","0.1076128494","","0.1004566838","","0.3532992837","","","","","",""
"221","","bandit","181","533868","0.0-143.0-0.0","22634985","wem/bandit_single","A1Z0O5MC9DAE8C","pain","8","","75","K","2","","0","0","1","","0.1055318719","false","106","","0.1727398631","main_expt","","0.06740855405","","0.1055318719","","0.335683565","","","","","",""
"215","","bandit","182","535840","0.0-144.0-0.0","22634985","wem/bandit_single","A1Z0O5MC9DAE8C","pain","8","","75","K","2","","0","0","1","","0.1236328269","false","107","","0.1474174257","main_expt","","0.06658027063","","0.1236328269","","0.3924059951","","","","","",""
"163","","bandit","183","537760","0.0-145.0-0.0","22634985","wem/bandit_single","A1Z0O5MC9DAE8C","pain","8","","76","L","3","","0","1","0","","0.3626054341","false","108","","0.1683059408","main_expt","","0.0777756245","","0.1301170461","","0.3626054341","","","","","",""
"186","","bandit","184","539706","0.0-146.0-0.0","22634985","wem/bandit_single","A1Z0O5MC9DAE8C","pain","8","","76","L","3","","0","1","0","","0.3806857721","false","109","","0.1972223025","main_expt","","0.1117823495","","0.1507941036","","0.3806857721","","","","","",""
"87","","bandit","185","541548","0.0-147.0-0.0","22634985","wem/bandit_single","A1Z0O5MC9DAE8C","pain","8","","76","L","3","","0","1","0","","0.3452619283","false","110","","0.2085186414","main_expt","","0.08710900622","","0.1647590848","","0.3452619283","","","","","",""
"233","","bandit","186","543539","0.0-148.0-0.0","22634985","wem/bandit_single","A1Z0O5MC9DAE8C","pain","8","","76","L","3","","0","0","1","","0.3653509784","false","111","","0.1811180602","main_expt","","0.107183683","","0.1574612326","","0.3653509784","","","","","",""
"4","","bandit","187","545302","0.0-149.0-0.0","22634985","wem/bandit_single","A1Z0O5MC9DAE8C","pain","8","","76","L","3","","0","0","1","","0.3435522482","false","112","","0.222295219","main_expt","","0.1099425133","","0.1406493921","","0.3435522482","","","","","",""
"6744","","bandit","188","553804","0.0-150.0-0.0","22634985","wem/bandit_single","A1Z0O5MC9DAE8C","pain","8","","74","J","1","","0","0","1","","0.1457634924","false","113","","0.254178783","main_expt","","0.1457634924","","0.1367300214","","0.3424956272","","","","","",""
"451","","bandit","189","556011","0.0-151.0-0.0","22634985","wem/bandit_single","A1Z0O5MC9DAE8C","pain","8","","75","K","2","","0","1","0","","0.1534665218","false","114","","0.2315882939","main_expt","","0.09824844824","","0.1534665218","","0.3353894863","","","","","",""
"158","","bandit","190","557925","0.0-152.0-0.0","22634985","wem/bandit_single","A1Z0O5MC9DAE8C","pain","8","","75","K","2","","0","0","1","","0.1890238391","false","115","","0.2079629003","main_expt","","0.07202874502","","0.1890238391","","0.3965113255","","","","","",""
"115","","bandit","191","559797","0.0-153.0-0.0","22634985","wem/bandit_single","A1Z0O5MC9DAE8C","pain","8","","75","K","2","","0","0","1","","0.1480670238","false","116","","0.2117584369","main_expt","","0.08386797302","","0.1480670238","","0.3889101716","","","","","",""
"1085","","bandit","192","562639","0.0-154.0-0.0","22634985","wem/bandit_single","A1Z0O5MC9DAE8C","pain","8","","75","K","2","","0","0","1","","0.1450369027","false","117","","0.1897465023","main_expt","","0.1223406282","","0.1450369027","","0.412290601","","","","","",""
"189","","bandit","193","564590","0.0-155.0-0.0","22634985","wem/bandit_single","A1Z0O5MC9DAE8C","pain","8","","76","L","3","","0","1","0","","0.4090296977","false","118","","0.2162179109","main_expt","","0.1131974311","","0.1525061225","","0.4090296977","","","","","",""
"252","","bandit","194","566599","0.0-156.0-0.0","22634985","wem/bandit_single","A1Z0O5MC9DAE8C","pain","8","","76","L","3","","0","0","1","","0.3900906375","false","119","","0.1954464435","main_expt","","0.1214903214","","0.1327940691","","0.3900906375","","","","","",""
"39","","bandit","195","568395","0.0-157.0-0.0","22634985","wem/bandit_single","A1Z0O5MC9DAE8C","pain","8","","76","L","3","","0","1","0","","0.3722828095","false","120","","0.2433439763","main_expt","","0.1379734046","","0.1517026744","","0.3722828095","","","","","",""
"98","","bandit","196","570251","0.0-158.0-0.0","22634985","wem/bandit_single","A1Z0O5MC9DAE8C","pain","8","","76","L","3","","0","0","1","","0.3593952677","false","121","","0.2093375247","main_expt","","0.1537473387","","0.09770447215","","0.3593952677","","","","","",""
"55","","bandit","197","572063","0.0-159.0-0.0","22634985","wem/bandit_single","A1Z0O5MC9DAE8C","pain","8","","76","L","3","","0","0","1","","0.3670381393","false","122","","0.2030857612","main_expt","","0.1654199468","","0.1084092314","","0.3670381393","","","","","",""
"48","","bandit","198","573867","0.0-160.0-0.0","22634985","wem/bandit_single","A1Z0O5MC9DAE8C","pain","8","","76","L","3","","0","1","0","","0.3587286137","false","123","","0.1810532848","main_expt","","0.1908187881","","0.1828660492","","0.3587286137","","","","","",""
"150","","bandit","199","575777","0.0-161.0-0.0","22634985","wem/bandit_single","A1Z0O5MC9DAE8C","pain","8","","76","L","3","","0","1","0","","0.3492740793","false","124","","0.1582229448","main_expt","","0.2229551501","","0.1743556658","","0.3492740793","","","","","",""
"212","","bandit","200","577746","0.0-162.0-0.0","22634985","wem/bandit_single","A1Z0O5MC9DAE8C","pain","8","","76","L","3","","0","0","1","","0.3031262708","false","125","","0.1223239468","main_expt","","0.2354127912","","0.2091647646","","0.3031262708","","","","","",""
"197","","bandit","201","579701","0.0-163.0-0.0","22634985","wem/bandit_single","A1Z0O5MC9DAE8C","pain","8","","76","L","3","","0","0","1","","0.3272336491","false","126","","0.08912034734","main_expt","","0.25119817","","0.2089783764","","0.3272336491","","","","","",""
"182","","bandit","202","581643","0.0-164.0-0.0","22634985","wem/bandit_single","A1Z0O5MC9DAE8C","pain","8","","76","L","3","","0","0","1","","0.3153677968","false","127","","0.05948163","main_expt","","0.2312690923","","0.21334071","","0.3153677968","","","","","",""
"216","","bandit","203","583617","0.0-165.0-0.0","22634985","wem/bandit_single","A1Z0O5MC9DAE8C","pain","8","","75","K","2","","0","1","0","","0.1916283041","false","128","","0.06525821595","main_expt","","0.2741150261","","0.1916283041","","0.3317710332","","","","","",""
"213","","bandit","204","585587","0.0-166.0-0.0","22634985","wem/bandit_single","A1Z0O5MC9DAE8C","pain","8","","75","K","2","","0","0","1","","0.1810604207","false","129","","0.04677418535","main_expt","","0.2804264122","","0.1810604207","","0.3818586719","","","","","",""
"128","","bandit","205","587472","0.0-167.0-0.0","22634985","wem/bandit_single","A1Z0O5MC9DAE8C","pain","8","","75","K","2","","0","0","1","","0.1492319935","false","130","","0.04931785787","main_expt","","0.2746384559","","0.1492319935","","0.3778611376","","","","","",""
"71","","bandit","206","589299","0.0-168.0-0.0","22634985","wem/bandit_single","A1Z0O5MC9DAE8C","pain","8","","74","J","1","","0","1","0","","0.3052944487","false","131","","0.03231589458","main_expt","","0.3052944487","","0.129351286","","0.3745485054","","","","","",""
"75","","bandit","207","591132","0.0-169.0-0.0","22634985","wem/bandit_single","A1Z0O5MC9DAE8C","pain","8","","74","J","1","","0","1","0","","0.2871604017","false","132","","0.0374336399","main_expt","","0.2871604017","","0.1020216346","","0.3901944836","","","","","",""
"6","","bandit","208","592897","0.0-170.0-0.0","22634985","wem/bandit_single","A1Z0O5MC9DAE8C","pain","8","","74","J","1","","0","0","1","","0.2262434135","false","133","","0.04583961862","main_expt","","0.2262434135","","0.1100395313","","0.3245875462","","","","","",""
"80","","bandit","209","594737","0.0-171.0-0.0","22634985","wem/bandit_single","A1Z0O5MC9DAE8C","pain","8","","74","J","1","","0","0","1","","0.2020687113","false","134","","0.04150300199","main_expt","","0.2020687113","","0.1078381017","","0.2794858075","","","","","",""
"169","","bandit","210","596662","0.0-172.0-0.0","22634985","wem/bandit_single","A1Z0O5MC9DAE8C","pain","8","","72","H","0","img/none_selected.jpg","0","0","1","","0.04663842542","false","135","","0.04663842542","main_expt","","0.2168620662","","0.1093486249","","0.2867414221","","","","","",""
"177","","bandit","211","598596","0.0-173.0-0.0","22634985","wem/bandit_single","A1Z0O5MC9DAE8C","pain","8","","74","J","1","","0","0","1","","0.151139006","false","136","","0.06291357963","main_expt","","0.151139006","","0.1246456113","","0.2388941587","","","","","",""
"206","","bandit","212","600563","0.0-174.0-0.0","22634985","wem/bandit_single","A1Z0O5MC9DAE8C","pain","8","","72","H","0","img/none_selected.jpg","0","0","1","","0.0848669819","false","137","","0.0848669819","main_expt","","0.1452995234","","0.1167447495","","0.2301747732","","","","","",""
"215","","bandit","213","602536","0.0-175.0-0.0","22634985","wem/bandit_single","A1Z0O5MC9DAE8C","pain","8","","75","K","2","","0","0","1","","0.1357570265","false","138","","0.1250360552","main_expt","","0.1599176777","","0.1357570265","","0.2344721482","","","","","",""
"753","","bandit","214","605047","0.0-176.0-0.0","22634985","wem/bandit_single","A1Z0O5MC9DAE8C","pain","8","","76","L","3","","0","0","1","","0.2351335283","false","139","","0.122190115","main_expt","","0.1704699841","","0.1616689495","","0.2351335283","","","","","",""
"611","","bandit","215","607415","0.0-177.0-0.0","22634985","wem/bandit_single","A1Z0O5MC9DAE8C","pain","8","","75","K","2","","0","0","1","","0.1979747013","false","140","","0.08666030548","main_expt","","0.1142956015","","0.1979747013","","0.2876903143","","","","","",""
"214","","bandit","216","609388","0.0-178.0-0.0","22634985","wem/bandit_single","A1Z0O5MC9DAE8C","pain","8","","74","J","1","","0","0","1","","0.1206890816","false","141","","0.09967801986","main_expt","","0.1206890816","","0.1708965128","","0.2865732071","","","","","",""
"37","","bandit","217","611181","0.0-179.0-0.0","22634985","wem/bandit_single","A1Z0O5MC9DAE8C","pain","8","","76","L","3","","0","1","0","","0.248943806","false","142","","0.1125289611","main_expt","","0.1324259923","","0.204481367","","0.248943806","","","","","",""
"47","","bandit","218","612986","0.0-180.0-0.0","22634985","wem/bandit_single","A1Z0O5MC9DAE8C","pain","8","","76","L","3","","0","0","1","","0.2839045407","false","143","","0.1467602081","main_expt","","0.09892217097","","0.1861099789","","0.2839045407","","","","","",""
"66","","bandit","219","614809","0.0-181.0-0.0","22634985","wem/bandit_single","A1Z0O5MC9DAE8C","pain","8","","76","L","3","","0","0","1","","0.3150250783","false","144","","0.1467522766","main_expt","","0.1577744197","","0.1956465744","","0.3150250783","","","","","",""
"128","","bandit","220","616693","0.0-182.0-0.0","22634985","wem/bandit_single","A1Z0O5MC9DAE8C","pain","8","","75","K","2","","0","0","1","","0.2622876922","false","145","","0.118212248","main_expt","","0.1392006829","","0.2622876922","","0.3090395899","","","","","",""
"54","","bandit","221","618504","0.0-183.0-0.0","22634985","wem/bandit_single","A1Z0O5MC9DAE8C","pain","8","","74","J","1","","0","0","1","","0.1262993523","false","146","","0.1089879874","main_expt","","0.1262993523","","0.304745079","","0.3122039877","","","","","",""
"57","","bandit","222","620320","0.0-184.0-0.0","22634985","wem/bandit_single","A1Z0O5MC9DAE8C","pain","8","","72","H","0","img/none_selected.jpg","0","0","1","","0.1200469816","false","147","","0.1200469816","main_expt","","0.1970652478","","0.2888799162","","0.2959619691","","","","","",""
"111","","bandit","223","622191","0.0-185.0-0.0","22634985","wem/bandit_single","A1Z0O5MC9DAE8C","pain","8","","76","L","3","","0","0","1","","0.2395536641","false","148","","0.1276189258","main_expt","","0.2502259542","","0.2290209364","","0.2395536641","","","","","",""
"7","","bandit","224","623956","0.0-186.0-0.0","22634985","wem/bandit_single","A1Z0O5MC9DAE8C","pain","8","","76","L","3","","0","1","0","","0.2650868272","false","149","","0.1280703092","main_expt","","0.264890558","","0.1626908122","","0.2650868272","","","","","",""
"47","","bandit","225","625759","0.0-187.0-0.0","22634985","wem/bandit_single","A1Z0O5MC9DAE8C","pain","8","","76","L","3","","0","0","1","","0.2986082654","false","150","","0.1260403861","main_expt","","0.2458403893","","0.1958031623","","0.2986082654","","","","","",""
"230","","bandit","226","627745","0.0-188.0-0.0","22634985","wem/bandit_single","A1Z0O5MC9DAE8C","pain","8","","76","L","3","","0","0","1","","0.2843767109","false","151","","0.1472493067","main_expt","","0.3021038309","","0.2110526716","","0.2843767109","","","","","",""
"76","","bandit","227","629578","0.0-189.0-0.0","22634985","wem/bandit_single","A1Z0O5MC9DAE8C","pain","8","","76","L","3","","0","0","1","","0.2910803031","false","152","","0.1256460397","main_expt","","0.2863751765","","0.239542308","","0.2910803031","","","","","",""
"170","","bandit","228","631504","0.0-190.0-0.0","22634985","wem/bandit_single","A1Z0O5MC9DAE8C","pain","8","","75","K","2","","0","0","1","","0.2781725502","false","153","","0.1567097088","main_expt","","0.250244768","","0.2781725502","","0.2910028656","","","","","",""
"104","","bandit","229","633366","0.0-191.0-0.0","22634985","wem/bandit_single","A1Z0O5MC9DAE8C","pain","8","","74","J","1","","0","0","1","","0.2127808211","false","154","","0.1473662378","main_expt","","0.2127808211","","0.228047793","","0.2845613835","","","","","",""
"73","","bandit","230","635196","0.0-192.0-0.0","22634985","wem/bandit_single","A1Z0O5MC9DAE8C","pain","8","","72","H","0","img/none_selected.jpg","0","0","1","","0.1466549972","false","155","","0.1466549972","main_expt","","0.205053704","","0.2683949018","","0.2707345723","","","","","",""
"7","","bandit","231","636960","0.0-193.0-0.0","22634985","wem/bandit_single","A1Z0O5MC9DAE8C","pain","8","","75","K","2","","0","0","1","","0.3192141369","false","156","","0.1127453184","main_expt","","0.1648482415","","0.3192141369","","0.3156720475","","","","","",""
"375","","bandit","232","639092","0.0-194.0-0.0","22634985","wem/bandit_single","A1Z0O5MC9DAE8C","pain","8","","74","J","1","","0","0","1","","0.1888047422","false","157","","0.1577506677","main_expt","","0.1888047422","","0.3402823895","","0.3101066834","","","","","",""
"124","","bandit","233","640975","0.0-195.0-0.0","22634985","wem/bandit_single","A1Z0O5MC9DAE8C","pain","8","","72","H","0","img/none_selected.jpg","0","0","1","","0.177177298","false","158","","0.177177298","main_expt","","0.1759444775","","0.2944958958","","0.3236654942","","","","","",""
"132","","bandit","234","642863","0.0-196.0-0.0","22634985","wem/bandit_single","A1Z0O5MC9DAE8C","pain","8","","76","L","3","","0","0","1","","0.2735657487","false","159","","0.1693510486","main_expt","","0.2066832709","","0.3007248388","","0.2735657487","","","","","",""
"7","","bandit","235","644627","0.0-197.0-0.0","22634985","wem/bandit_single","A1Z0O5MC9DAE8C","pain","8","","76","L","3","","0","1","0","","0.2384912546","false","160","","0.1230292859","main_expt","","0.2570817279","","0.3179332055","","0.2384912546","","","","","",""
"178","","bandit","236","646561","0.0-198.0-0.0","22634985","wem/bandit_single","A1Z0O5MC9DAE8C","pain","8","","76","L","3","","0","0","1","","0.2615252743","false","161","","0.07903667538","main_expt","","0.2244749933","","0.2506164635","","0.2615252743","","","","","",""
"395","","bandit","237","648714","0.0-199.0-0.0","22634985","wem/bandit_single","A1Z0O5MC9DAE8C","pain","8","","76","L","3","","0","0","1","","0.2187643747","false","162","","0.1136507332","main_expt","","0.23263707","","0.2858836385","","0.2187643747","","","","","",""
"361","","bandit","238","650835","0.0-200.0-0.0","22634985","wem/bandit_single","A1Z0O5MC9DAE8C","pain","8","","76","L","3","","0","0","1","","0.1909081127","false","163","","0.1137116213","main_expt","","0.2287127565","","0.2848163613","","0.1909081127","","","","","",""
"271","","bandit","239","652873","0.0-201.0-0.0","22634985","wem/bandit_single","A1Z0O5MC9DAE8C","pain","8","","75","K","2","","0","0","1","","0.2688566635","false","164","","0.1254102563","main_expt","","0.2303253206","","0.2688566635","","0.1808716434","","","","","",""
"346","","bandit","240","654976","0.0-202.0-0.0","22634985","wem/bandit_single","A1Z0O5MC9DAE8C","pain","8","","74","J","1","","0","1","0","","0.2771057403","false","165","","0.1216805934","main_expt","","0.2771057403","","0.2921202554","","0.2118073572","","","","","",""
"267","","bandit","241","656999","0.0-203.0-0.0","22634985","wem/bandit_single","A1Z0O5MC9DAE8C","pain","8","","74","J","1","","0","1","0","","0.2371810998","false","166","","0.1291529517","main_expt","","0.2371810998","","0.3143591269","","0.2410554973","","","","","",""
"299","","bandit","242","659060","0.0-204.0-0.0","22634985","wem/bandit_single","A1Z0O5MC9DAE8C","pain","8","","74","J","1","","0","0","1","","0.2349122652","false","167","","0.1535345887","main_expt","","0.2349122652","","0.2892924204","","0.2574005288","","","","","",""
"323","","bandit","243","661144","0.0-205.0-0.0","22634985","wem/bandit_single","A1Z0O5MC9DAE8C","pain","8","","74","J","1","","0","1","0","","0.1959020284","false","168","","0.1435034989","main_expt","","0.1959020284","","0.2786305655","","0.2729884233","","","","","",""
"81","","bandit","244","662982","0.0-206.0-0.0","22634985","wem/bandit_single","A1Z0O5MC9DAE8C","pain","8","","74","J","1","","0","0","1","","0.1899859579","false","169","","0.1957458285","main_expt","","0.1899859579","","0.246803054","","0.2625821735","","","","","",""
"373","","bandit","245","665115","0.0-207.0-0.0","22634985","wem/bandit_single","A1Z0O5MC9DAE8C","pain","8","","74","J","1","","0","1","0","","0.2213833812","false","170","","0.1308867566","main_expt","","0.2213833812","","0.2375021307","","0.3100542845","","","","","",""
"353","","bandit","246","667225","0.0-208.0-0.0","22634985","wem/bandit_single","A1Z0O5MC9DAE8C","pain","8","","74","J","1","","0","1","0","","0.1589997081","false","171","","0.1422271972","main_expt","","0.1589997081","","0.2965678991","","0.3083945368","","","","","",""
"94","","bandit","247","669076","0.0-209.0-0.0","22634985","wem/bandit_single","A1Z0O5MC9DAE8C","pain","8","","74","J","1","","0","0","1","","0.1669714507","false","172","","0.1541925874","main_expt","","0.1669714507","","0.2696718616","","0.3929186772","","","","","",""
"50","","bandit","248","670887","0.0-210.0-0.0","22634985","wem/bandit_single","A1Z0O5MC9DAE8C","pain","8","","74","J","1","","0","0","1","","0.1699847696","false","173","","0.1416394444","main_expt","","0.1699847696","","0.2576521005","","0.4107736206","","","","","",""
"151","","bandit","249","672794","0.0-211.0-0.0","22634985","wem/bandit_single","A1Z0O5MC9DAE8C","pain","8","","74","J","1","","0","0","1","","0.202136981","false","174","","0.1207830423","main_expt","","0.202136981","","0.2839516933","","0.4267170337","","","","","",""
"86","","bandit","250","674640","0.0-212.0-0.0","22634985","wem/bandit_single","A1Z0O5MC9DAE8C","pain","8","","72","H","0","img/none_selected.jpg","0","1","0","","0.1636312712","false","175","","0.1636312712","main_expt","","0.1863880777","","0.2932452363","","0.420504823","","","","","",""
"12","","bandit","251","676412","0.0-213.0-0.0","22634985","wem/bandit_single","A1Z0O5MC9DAE8C","pain","8","","72","H","0","img/none_selected.jpg","0","0","1","","0.186569684","false","176","","0.186569684","main_expt","","0.1426909825","","0.3118313574","","0.3956962169","","","","","",""
"47","","bandit","252","678220","0.0-214.0-0.0","22634985","wem/bandit_single","A1Z0O5MC9DAE8C","pain","8","","72","H","0","img/none_selected.jpg","0","1","0","","0.1089038478","false","177","","0.1089038478","main_expt","","0.1335645184","","0.3378695823","","0.3834761318","","","","","",""
"127","","bandit","253","680107","0.0-215.0-0.0","22634985","wem/bandit_single","A1Z0O5MC9DAE8C","pain","8","","72","H","0","img/none_selected.jpg","0","0","1","","0.08465244813","false","178","","0.08465244813","main_expt","","0.09719791569","","0.3234122319","","0.4167112469","","","","","",""
"174","","bandit","254","682038","0.0-216.0-0.0","22634985","wem/bandit_single","A1Z0O5MC9DAE8C","pain","8","","72","H","0","img/none_selected.jpg","0","0","1","","0.1015747644","false","179","","0.1015747644","main_expt","","0.07123289457","","0.3281528324","","0.4370197561","","","","","",""
"72","","bandit","255","683869","0.0-217.0-0.0","22634985","wem/bandit_single","A1Z0O5MC9DAE8C","pain","8","","75","K","2","","0","0","1","","0.340497037","false","180","","0.1277953302","main_expt","","0.05555663239","","0.340497037","","0.3776598584","","","","","",""
"342","","bandit","256","685974","0.0-218.0-0.0","22634985","wem/bandit_single","A1Z0O5MC9DAE8C","pain","8","","76","L","3","","0","0","1","","0.3636519722","false","181","","0.1854921141","main_expt","","0.04396828199","","0.3007371283","","0.3636519722","","","","","",""
"190","","bandit","257","687925","0.0-219.0-0.0","22634985","wem/bandit_single","A1Z0O5MC9DAE8C","pain","8","","74","J","1","","0","0","1","","0.02691259782","false","182","","0.2273529654","main_expt","","0.02691259782","","0.3190136055","","0.3246411676","","","","","",""
"29","","bandit","258","689711","0.0-220.0-0.0","22634985","wem/bandit_single","A1Z0O5MC9DAE8C","pain","8","","75","K","2","","0","0","1","","0.322323442","false","183","","0.2600234541","main_expt","","0.04807599522","","0.322323442","","0.3187018958","","","","","",""
"219","","bandit","259","691689","0.0-221.0-0.0","22634985","wem/bandit_single","A1Z0O5MC9DAE8C","pain","8","","76","L","3","","0","0","1","","0.3497063737","false","184","","0.2689652485","main_expt","","0.05076165442","","0.3086696071","","0.3497063737","","","","","",""
"146","","bandit","260","693591","0.0-222.0-0.0","22634985","wem/bandit_single","A1Z0O5MC9DAE8C","pain","8","","74","J","1","","0","0","1","","0.1128087831","false","185","","0.2646203852","main_expt","","0.1128087831","","0.3146814862","","0.3334532315","","","","","",""
"112","","bandit","261","695459","0.0-223.0-0.0","22634985","wem/bandit_single","A1Z0O5MC9DAE8C","pain","8","","72","H","0","img/none_selected.jpg","0","0","1","","0.2038557162","false","186","","0.2038557162","main_expt","","0.1592260056","","0.3353274036","","0.3511592443","","","","","",""
"41","","bandit","262","697260","0.0-224.0-0.0","22634985","wem/bandit_single","A1Z0O5MC9DAE8C","pain","8","","72","H","0","img/none_selected.jpg","0","1","0","","0.2643634763","false","187","","0.2643634763","main_expt","","0.2195828404","","0.331036234","","0.3758503369","","","","","",""
"26","","bandit","263","699047","0.0-225.0-0.0","22634985","wem/bandit_single","A1Z0O5MC9DAE8C","pain","8","","72","H","0","img/none_selected.jpg","0","0","1","","0.2137054787","false","188","","0.2137054787","main_expt","","0.214856838","","0.3061178756","","0.3951098987","","","","","",""
"134","","bandit","264","700942","0.0-226.0-0.0","22634985","wem/bandit_single","A1Z0O5MC9DAE8C","pain","8","","72","H","0","img/none_selected.jpg","0","0","1","","0.2349639762","false","189","","0.2349639762","main_expt","","0.2103369464","","0.3455914038","","0.3766733461","","","","","",""
"190","","bandit","265","702891","0.0-227.0-0.0","22634985","wem/bandit_single","A1Z0O5MC9DAE8C","pain","8","","72","H","0","img/none_selected.jpg","0","0","1","","0.2067261929","false","190","","0.2067261929","main_expt","","0.1932940482","","0.3734842368","","0.3974997784","","","","","",""
"138","","bandit","266","704786","0.0-228.0-0.0","22634985","wem/bandit_single","A1Z0O5MC9DAE8C","pain","8","","74","J","1","","0","0","1","","0.2285646161","false","191","","0.275245882","main_expt","","0.2285646161","","0.3648323685","","0.4174686418","","","","","",""
"225","","bandit","267","706769","0.0-229.0-0.0","22634985","wem/bandit_single","A1Z0O5MC9DAE8C","pain","8","","75","K","2","","0","1","0","","0.3339781981","false","192","","0.306220044","main_expt","","0.2589031043","","0.3339781981","","0.3963748123","","","","","",""
"204","","bandit","268","708731","0.0-230.0-0.0","22634985","wem/bandit_single","A1Z0O5MC9DAE8C","pain","8","","75","K","2","","0","0","1","","0.3342714415","false","193","","0.3035773814","main_expt","","0.2195537535","","0.3342714415","","0.3921748604","","","","","",""
"224","","bandit","269","710712","0.0-231.0-0.0","22634985","wem/bandit_single","A1Z0O5MC9DAE8C","pain","8","","75","K","2","","0","0","1","","0.3241295504","false","194","","0.2510827831","main_expt","","0.2027550427","","0.3241295504","","0.3580841109","","","","","",""
"234","","bandit","270","712704","0.0-232.0-0.0","22634985","wem/bandit_single","A1Z0O5MC9DAE8C","pain","8","","75","K","2","","0","0","1","","0.3116310431","false","195","","0.2455858858","main_expt","","0.1862287394","","0.3116310431","","0.3508589263","","","","","",""
"33","","bandit","271","714495","0.0-233.0-0.0","22634985","wem/bandit_single","A1Z0O5MC9DAE8C","pain","8","","76","L","3","","0","0","1","","0.3580593089","false","196","","0.2514601016","main_expt","","0.1892299528","","0.3757707762","","0.3580593089","","","","","",""
"158","","bandit","272","716411","0.0-234.0-0.0","22634985","wem/bandit_single","A1Z0O5MC9DAE8C","pain","8","","74","J","1","","0","0","1","","0.2217707201","false","197","","0.2735270373","main_expt","","0.2217707201","","0.3510132286","","0.325214339","","","","","",""
"105","","bandit","273","718286","0.0-235.0-0.0","22634985","wem/bandit_single","A1Z0O5MC9DAE8C","pain","8","","72","H","0","img/none_selected.jpg","0","0","1","","0.1856542716","false","198","","0.1856542716","main_expt","","0.2622368769","","0.3775824693","","0.3214736551","","","","","",""
"786","","bandit","274","720829","0.0-236.0-0.0","22634985","wem/bandit_single","A1Z0O5MC9DAE8C","pain","8","","76","L","3","","0","0","1","","0.3134841864","false","199","","0.1439471636","main_expt","","0.2566369559","","0.3591355879","","0.3134841864","","","","","",""
"87","","bandit","275","722674","0.0-237.0-0.0","22634985","wem/bandit_single","A1Z0O5MC9DAE8C","pain","8","","75","K","2","","0","0","1","","0.4329566742","false","200","","0.1920673188","main_expt","","0.2405232655","","0.4329566742","","0.3484934822","","","","","",""
"76","","bandit","276","724512","0.0-238.0-0.0","22634985","wem/bandit_single","A1Z0O5MC9DAE8C","pain","8","","74","J","1","","0","0","1","","0.191632201","false","201","","0.2139557707","main_expt","","0.191632201","","0.4316294991","","0.3509587021","","","","","",""
"133","","bandit","277","726405","0.0-239.0-0.0","22634985","wem/bandit_single","A1Z0O5MC9DAE8C","pain","8","","72","H","0","img/none_selected.jpg","0","0","1","","0.2411081829","false","202","","0.2411081829","main_expt","","0.1860277461","","0.4446061493","","0.3472711197","","","","","",""
"114","","bandit","278","728276","0.0-240.0-0.0","22634985","wem/bandit_single","A1Z0O5MC9DAE8C","pain","8","","76","L","3","","0","1","0","","0.3501901851","false","203","","0.2229679022","main_expt","","0.1959395152","","0.4350640844","","0.3501901851","","","","","",""
"64","","bandit","279","730104","0.0-241.0-0.0","22634985","wem/bandit_single","A1Z0O5MC9DAE8C","pain","8","","76","L","3","","0","1","0","","0.4021923856","false","204","","0.2094072873","main_expt","","0.1909798814","","0.4511953558","","0.4021923856","","","","","",""
"262","","bandit","280","732126","0.0-242.0-0.0","22634985","wem/bandit_single","A1Z0O5MC9DAE8C","pain","8","","76","L","3","","0","1","0","","0.4103624794","false","205","","0.2061243076","main_expt","","0.1952925147","","0.4444608137","","0.4103624794","","","","","",""
"337","","bandit","281","734226","0.0-243.0-0.0","22634985","wem/bandit_single","A1Z0O5MC9DAE8C","pain","8","","76","L","3","","0","0","1","","0.3884407208","false","206","","0.1830656651","main_expt","","0.2333477628","","0.4174874576","","0.3884407208","","","","","",""
"259","","bandit","282","736244","0.0-244.0-0.0","22634985","wem/bandit_single","A1Z0O5MC9DAE8C","pain","8","","76","L","3","","0","0","1","","0.4205181933","false","207","","0.1806213093","main_expt","","0.2366383375","","0.4473837798","","0.4205181933","","","","","",""
"0","","bandit","283","738003","0.0-245.0-0.0","22634985","wem/bandit_single","A1Z0O5MC9DAE8C","pain","8","","76","L","3","","0","0","1","","0.39705837","false","208","","0.1547428587","main_expt","","0.2588239296","","0.4423282801","","0.39705837","","","","","",""
"219","","bandit","284","739980","0.0-246.0-0.0","22634985","wem/bandit_single","A1Z0O5MC9DAE8C","pain","8","","76","L","3","","0","0","1","","0.3763678409","false","209","","0.1633509089","main_expt","","0.2109346514","","0.4495798672","","0.3763678409","","","","","",""
"195","","bandit","285","741932","0.0-247.0-0.0","22634985","wem/bandit_single","A1Z0O5MC9DAE8C","pain","8","","75","K","2","","0","0","1","","0.4604116181","false","210","","0.194224154","main_expt","","0.2352346414","","0.4604116181","","0.329669689","","","","","",""
"170","","bandit","286","743860","0.0-248.0-0.0","22634985","wem/bandit_single","A1Z0O5MC9DAE8C","pain","8","","74","J","1","","0","1","0","","0.1919095989","false","211","","0.1428536625","main_expt","","0.1919095989","","0.4515605979","","0.3234151823","","","","","",""
"91","","bandit","287","745708","0.0-249.0-0.0","22634985","wem/bandit_single","A1Z0O5MC9DAE8C","pain","8","","74","J","1","","0","0","1","","0.2511997366","false","212","","0.1876263767","main_expt","","0.2511997366","","0.3796359761","","0.346289724","","","","","",""
"384","","bandit","288","747863","0.0-250.0-0.0","22634985","wem/bandit_single","A1Z0O5MC9DAE8C","pain","8","","74","J","1","","0","0","1","","0.2247602752","false","213","","0.1767426991","main_expt","","0.2247602752","","0.4098311692","","0.3579646626","","","","","",""
"232","","bandit","289","749856","0.0-251.0-0.0","22634985","wem/bandit_single","A1Z0O5MC9DAE8C","pain","8","","72","H","0","img/none_selected.jpg","0","0","1","","0.1997003326","false","214","","0.1997003326","main_expt","","0.2078026042","","0.3758430492","","0.3871938136","","","","","",""
"116","","bandit","290","751731","0.0-252.0-0.0","22634985","wem/bandit_single","A1Z0O5MC9DAE8C","pain","8","","74","J","1","","0","0","1","","0.2000367883","false","215","","0.1753208105","main_expt","","0.2000367883","","0.3391734167","","0.4072701047","","","","","",""
"446","","bandit","291","753937","0.0-253.0-0.0","22634985","wem/bandit_single","A1Z0O5MC9DAE8C","pain","8","","75","K","2","","0","0","1","","0.3292806148","false","216","","0.1526073348","main_expt","","0.1850279066","","0.3292806148","","0.4139997029","","","","","",""
"21","","bandit","292","755718","0.0-254.0-0.0","22634985","wem/bandit_single","A1Z0O5MC9DAE8C","pain","8","","76","L","3","","0","0","1","","0.4058129166","false","217","","0.1885901152","main_expt","","0.1862329662","","0.3672552775","","0.4058129166","","","","","",""
"806","","bandit","293","758281","0.0-255.0-0.0","22634985","wem/bandit_single","A1Z0O5MC9DAE8C","pain","8","","75","K","2","","0","0","1","","0.3540988412","false","218","","0.2068683321","main_expt","","0.2076422808","","0.3540988412","","0.3831507141","","","","","",""
"73","","bandit","294","760115","0.0-256.0-0.0","22634985","wem/bandit_single","A1Z0O5MC9DAE8C","pain","8","","74","J","1","","0","0","1","","0.1693095695","false","219","","0.1830460615","main_expt","","0.1693095695","","0.3705907093","","0.3975704748","","","","","",""
"32","","bandit","295","761908","0.0-257.0-0.0","22634985","wem/bandit_single","A1Z0O5MC9DAE8C","pain","8","","72","H","0","img/none_selected.jpg","0","0","1","","0.1510464272","false","220","","0.1510464272","main_expt","","0.1643321708","","0.4071767116","","0.420208779","","","","","",""
"202","","bandit","296","763868","0.0-258.0-0.0","22634985","wem/bandit_single","A1Z0O5MC9DAE8C","pain","8","","74","J","1","","0","0","1","","0.1755642267","false","221","","0.1195154075","main_expt","","0.1755642267","","0.4000591573","","0.4277126104","","","","","",""
"229","","bandit","297","765856","0.0-259.0-0.0","22634985","wem/bandit_single","A1Z0O5MC9DAE8C","pain","8","","75","K","2","","0","1","0","","0.4257242725","false","222","","0.1322821073","main_expt","","0.2047466037","","0.4257242725","","0.4098861052","","","","","",""
"231","","bandit","298","767843","0.0-260.0-0.0","22634985","wem/bandit_single","A1Z0O5MC9DAE8C","pain","8","","75","K","2","","0","1","0","","0.4084538547","false","223","","0.1634864242","main_expt","","0.1261696039","","0.4084538547","","0.3865692481","","","","","",""
"21","","bandit","299","769622","0.0-261.0-0.0","22634985","wem/bandit_single","A1Z0O5MC9DAE8C","pain","8","","75","K","2","","0","0","1","","0.3756333804","false","224","","0.1927622759","main_expt","","0.1671605087","","0.3756333804","","0.3942994903","","","","","",""
"174","","bandit","300","771556","0.0-262.0-0.0","22634985","wem/bandit_single","A1Z0O5MC9DAE8C","pain","8","","75","K","2","","0","0","1","","0.3977261909","false","225","","0.1949177646","main_expt","","0.1498322393","","0.3977261909","","0.3444994861","","","","","",""
"516","","bandit","301","773831","0.0-263.0-0.0","22634985","wem/bandit_single","A1Z0O5MC9DAE8C","pain","8","","76","L","3","","0","0","1","","0.4042132592","false","226","","0.1675301724","main_expt","","0.106170416","","0.3876796808","","0.4042132592","","","","","",""
"398","","bandit","302","775986","0.0-264.0-0.0","22634985","wem/bandit_single","A1Z0O5MC9DAE8C","pain","8","","74","J","1","","0","0","1","","0.0897934899","false","227","","0.163375113","main_expt","","0.0897934899","","0.3213858912","","0.3906229402","","","","","",""
"28","","bandit","303","777772","0.0-265.0-0.0","22634985","wem/bandit_single","A1Z0O5MC9DAE8C","pain","8","","72","H","0","img/none_selected.jpg","0","0","1","","0.195474145","false","228","","0.195474145","main_expt","","0.09443294629","","0.3331191915","","0.3417164876","","","","","",""
"153","","bandit","304","779686","0.0-266.0-0.0","22634985","wem/bandit_single","A1Z0O5MC9DAE8C","pain","8","","76","L","3","","0","1","0","","0.3222205624","false","229","","0.2410354958","main_expt","","0.0848669953","","0.308496805","","0.3222205624","","","","","",""
"388","","bandit","305","781836","0.0-267.0-0.0","22634985","wem/bandit_single","A1Z0O5MC9DAE8C","pain","8","","76","L","3","","0","1","0","","0.3442672336","false","230","","0.2567648542","main_expt","","0.0701458292","","0.2734654059","","0.3442672336","","","","","",""
"417","","bandit","306","784011","0.0-268.0-0.0","22634985","wem/bandit_single","A1Z0O5MC9DAE8C","pain","8","","76","L","3","","0","0","1","","0.3164459362","false","231","","0.2304241664","main_expt","","0.1251282835","","0.292212981","","0.3164459362","","","","","",""
"207","","bandit","307","785975","0.0-269.0-0.0","22634985","wem/bandit_single","A1Z0O5MC9DAE8C","pain","8","","76","L","3","","0","1","0","","0.3396906789","false","232","","0.2264886823","main_expt","","0.1124912266","","0.2516656152","","0.3396906789","","","","","",""
"117","","bandit","308","787851","0.0-270.0-0.0","22634985","wem/bandit_single","A1Z0O5MC9DAE8C","pain","8","","76","L","3","","0","0","1","","0.3008540409","false","233","","0.1892320941","main_expt","","0.1535494164","","0.2563877418","","0.3008540409","","","","","",""
"100","","bandit","309","789720","0.0-271.0-0.0","22634985","wem/bandit_single","A1Z0O5MC9DAE8C","pain","8","","76","L","3","","0","0","1","","0.2767988229","false","234","","0.1556895318","main_expt","","0.1389628654","","0.283882603","","0.2767988229","","","","","",""
"252","","bandit","310","791735","0.0-272.0-0.0","22634985","wem/bandit_single","A1Z0O5MC9DAE8C","pain","8","","76","L","3","","0","0","1","","0.2507781603","false","235","","0.1976044491","main_expt","","0.1680793718","","0.2758852766","","0.2507781603","","","","","",""
"89","","bandit","311","793582","0.0-273.0-0.0","22634985","wem/bandit_single","A1Z0O5MC9DAE8C","pain","8","","75","K","2","","0","0","1","","0.2434452049","false","236","","0.1468950029","main_expt","","0.2037097706","","0.2434452049","","0.3091667607","","","","","",""
"195","","bandit","312","795537","0.0-274.0-0.0","22634985","wem/bandit_single","A1Z0O5MC9DAE8C","pain","8","","74","J","1","","0","0","1","","0.1897176974","false","237","","0.1365515699","main_expt","","0.1897176974","","0.2405517979","","0.2883211118","","","","","",""
"32","","bandit","313","797328","0.0-275.0-0.0","22634985","wem/bandit_single","A1Z0O5MC9DAE8C","pain","8","","72","H","0","img/none_selected.jpg","0","1","0","","0.1527077476","false","238","","0.1527077476","main_expt","","0.2317710791","","0.2260832521","","0.2756444762","","","","","",""
"129","","bandit","314","799215","0.0-276.0-0.0","22634985","wem/bandit_single","A1Z0O5MC9DAE8C","pain","8","","72","H","0","img/none_selected.jpg","0","0","1","","0.1315224722","false","239","","0.1315224722","main_expt","","0.2206906913","","0.2061693665","","0.3061346513","","","","","",""
"37","","bandit","315","801017","0.0-277.0-0.0","22634985","wem/bandit_single","A1Z0O5MC9DAE8C","pain","8","","72","H","0","img/none_selected.jpg","0","0","1","","0.1398926963","false","240","","0.1398926963","main_expt","","0.2155283076","","0.2203195159","","0.3274201615","","","","","",""
"113","","bandit","316","802888","0.0-278.0-0.0","22634985","wem/bandit_single","A1Z0O5MC9DAE8C","pain","8","","72","H","0","img/none_selected.jpg","0","0","1","","0.1698873683","false","241","","0.1698873683","main_expt","","0.2386015387","","0.2230507071","","0.2838770346","","","","","",""
"57","","bandit","317","804700","0.0-279.0-0.0","22634985","wem/bandit_single","A1Z0O5MC9DAE8C","pain","8","","74","J","1","","0","1","0","","0.2178179326","false","242","","0.1693915972","main_expt","","0.2178179326","","0.1834748297","","0.261873528","","","","","",""
"94","","bandit","318","806553","0.0-280.0-0.0","22634985","wem/bandit_single","A1Z0O5MC9DAE8C","pain","8","","74","J","1","","0","0","1","","0.2209910316","false","243","","0.2011280514","main_expt","","0.2209910316","","0.1450766806","","0.2346518895","","","","","",""
"754","","bandit","319","809066","0.0-281.0-0.0","22634985","wem/bandit_single","A1Z0O5MC9DAE8C","pain","8","","75","K","2","","0","0","1","","0.1407015906","false","244","","0.283074141","main_expt","","0.2202366047","","0.1407015906","","0.2253303202","","","","","",""
"226","","bandit","320","811050","0.0-282.0-0.0","22634985","wem/bandit_single","A1Z0O5MC9DAE8C","pain","8","","76","L","3","","0","1","0","","0.2379184421","false","245","","0.2960363525","main_expt","","0.2369425358","","0.1386250556","","0.2379184421","","","","","",""
"582","","bandit","321","813388","0.0-283.0-0.0","22634985","wem/bandit_single","A1Z0O5MC9DAE8C","pain","8","","76","L","3","","0","0","1","","0.1704118475","false","246","","0.2985154159","main_expt","","0.2437218948","","0.1561911267","","0.1704118475","","","","","",""
"351","","bandit","322","815495","0.0-284.0-0.0","22634985","wem/bandit_single","A1Z0O5MC9DAE8C","pain","8","","76","L","3","","0","1","0","","0.1520093858","false","247","","0.3159682012","main_expt","","0.2573167276","","0.251644506","","0.1520093858","","","","","",""
"409","","bandit","323","817663","0.0-285.0-0.0","22634985","wem/bandit_single","A1Z0O5MC9DAE8C","pain","8","","76","L","3","","0","0","1","","0.1246217458","false","248","","0.2937445921","main_expt","","0.255349996","","0.2541276422","","0.1246217458","","","","","",""
"25","","bandit","324","819448","0.0-286.0-0.0","22634985","wem/bandit_single","A1Z0O5MC9DAE8C","pain","8","","76","L","3","","0","0","1","","0.1525969556","false","249","","0.2794909668","main_expt","","0.2866877344","","0.1924412691","","0.1525969556","","","","","",""
"253","","bandit","325","821459","0.0-287.0-0.0","22634985","wem/bandit_single","A1Z0O5MC9DAE8C","pain","8","","75","K","2","","0","0","1","","0.1397358892","false","250","","0.2327966623","main_expt","","0.2330780591","","0.1397358892","","0.1500628479","","","","","",""
"128","","bandit","326","823346","0.0-288.0-0.0","22634985","wem/bandit_single","A1Z0O5MC9DAE8C","pain","8","","74","J","1","","0","0","1","","0.2580196572","false","251","","0.2595602212","main_expt","","0.2580196572","","0.1362233376","","0.1141396938","","","","","",""
"243","","bandit","327","825353","0.0-289.0-0.0","22634985","wem/bandit_single","A1Z0O5MC9DAE8C","pain","8","","72","H","0","img/none_selected.jpg","0","0","1","","0.2715763176","false","252","","0.2715763176","main_expt","","0.2003146692","","0.1796418735","","0.1476089834","","","","","",""
"182","","bandit","328","827293","0.0-290.0-0.0","22634985","wem/bandit_single","A1Z0O5MC9DAE8C","pain","8","","74","J","1","","0","0","1","","0.1651092288","false","253","","0.3146654463","main_expt","","0.1651092288","","0.1833608075","","0.175183139","","","","","",""
"126","","bandit","329","829178","0.0-291.0-0.0","22634985","wem/bandit_single","A1Z0O5MC9DAE8C","pain","8","","75","K","2","","0","0","1","","0.1983034343","false","254","","0.3037610447","main_expt","","0.1413675546","","0.1983034343","","0.1916323123","","","","","",""
"36","","bandit","330","830972","0.0-292.0-0.0","22634985","wem/bandit_single","A1Z0O5MC9DAE8C","pain","8","","76","L","3","","0","0","1","","0.1888714334","false","255","","0.287825992","main_expt","","0.1801919014","","0.2286544637","","0.1888714334","","","","","",""
"619","","bandit","331","833353","0.0-293.0-0.0","22634985","wem/bandit_single","A1Z0O5MC9DAE8C","pain","8","","72","H","0","img/none_selected.jpg","0","0","1","","0.2673332977","false","256","","0.2673332977","main_expt","","0.1883387327","","0.2502735072","","0.2338577058","","","","","",""
"117","","bandit","332","835228","0.0-294.0-0.0","22634985","wem/bandit_single","A1Z0O5MC9DAE8C","pain","8","","74","J","1","","0","0","1","","0.1757220287","false","257","","0.2867614738","main_expt","","0.1757220287","","0.2657937058","","0.2235288738","","","","","",""
"102","","bandit","333","837087","0.0-295.0-0.0","22634985","wem/bandit_single","A1Z0O5MC9DAE8C","pain","8","","75","K","2","","0","0","1","","0.2326681124","false","258","","0.2432485896","main_expt","","0.1817694486","","0.2326681124","","0.2256298632","","","","","",""
"286","","bandit","334","839131","0.0-296.0-0.0","22634985","wem/bandit_single","A1Z0O5MC9DAE8C","pain","8","","76","L","3","","0","0","1","","0.229367941","false","259","","0.2433124215","main_expt","","0.1938363466","","0.2128848171","","0.229367941","","","","","",""
"247","","bandit","335","841143","0.0-297.0-0.0","22634985","wem/bandit_single","A1Z0O5MC9DAE8C","pain","8","","72","H","0","img/none_selected.jpg","0","0","1","","0.202057327","false","260","","0.202057327","main_expt","","0.2129025296","","0.261065439","","0.2585863351","","","","","",""
"131","","bandit","336","843045","0.0-298.0-0.0","22634985","wem/bandit_single","A1Z0O5MC9DAE8C","pain","8","","74","J","1","","0","1","0","","0.1931457884","false","261","","0.163702413","main_expt","","0.1931457884","","0.2693274395","","0.2748644017","","","","","",""
"307","","bandit","337","845115","0.0-299.0-0.0","22634985","wem/bandit_single","A1Z0O5MC9DAE8C","pain","8","","74","J","1","","0","0","1","","0.183306516","false","262","","0.1317961998","main_expt","","0.183306516","","0.3386888623","","0.288340978","","","","","",""
"103","","bandit","338","846977","0.0-300.0-0.0","22634985","wem/bandit_single","A1Z0O5MC9DAE8C","pain","8","","74","J","1","","0","0","1","","0.1293037787","false","263","","0.09680570831","main_expt","","0.1293037787","","0.3645909238","","0.3151532186","","","","","",""
"73","","bandit","339","848808","0.0-301.0-0.0","22634985","wem/bandit_single","A1Z0O5MC9DAE8C","pain","8","","75","K","2","","0","0","1","","0.3437159196","false","264","","0.08846786375","main_expt","","0.1386072774","","0.3437159196","","0.2931268787","","","","","",""
"1106","","bandit","340","851683","0.0-302.0-0.0","22634985","wem/bandit_single","A1Z0O5MC9DAE8C","pain","8","","76","L","3","","0","0","1","","0.3131275506","false","265","","0.08556864258","main_expt","","0.1511252148","","0.3644358952","","0.3131275506","","","","","",""
"106","","bandit","341","853547","0.0-303.0-0.0","22634985","wem/bandit_single","A1Z0O5MC9DAE8C","pain","8","","75","K","2","","0","0","1","","0.3904852039","false","266","","0.0706515048","main_expt","","0.2186772706","","0.3904852039","","0.336523231","","","","","",""
"117","","bandit","342","855425","0.0-304.0-0.0","22634985","wem/bandit_single","A1Z0O5MC9DAE8C","pain","8","","74","J","1","","0","0","1","","0.2625163009","false","267","","0.0747424838","main_expt","","0.2625163009","","0.3896615427","","0.2850369317","","","","","",""
"91","","bandit","343","857276","0.0-305.0-0.0","22634985","wem/bandit_single","A1Z0O5MC9DAE8C","pain","8","","72","H","0","img/none_selected.jpg","0","0","1","","0.112617448","false","268","","0.112617448","main_expt","","0.3140442454","","0.4017278216","","0.3163307124","","","","","",""
"386","","bandit","344","859421","0.0-306.0-0.0","22634985","wem/bandit_single","A1Z0O5MC9DAE8C","pain","8","","74","J","1","","0","0","1","","0.3069084364","false","269","","0.1406639307","main_expt","","0.3069084364","","0.370996795","","0.2956683275","","","","","",""
"110","","bandit","345","861290","0.0-307.0-0.0","22634985","wem/bandit_single","A1Z0O5MC9DAE8C","pain","8","","75","K","2","","0","1","0","","0.4255483526","false","270","","0.1398727949","main_expt","","0.2814908846","","0.4255483526","","0.3574655381","","","","","",""
"36","","bandit","346","863081","0.0-308.0-0.0","22634985","wem/bandit_single","A1Z0O5MC9DAE8C","pain","8","","75","K","2","","0","0","1","","0.3948114384","false","271","","0.1430486157","main_expt","","0.3060786573","","0.3948114384","","0.3969117111","","","","","",""
"70","","bandit","347","864912","0.0-309.0-0.0","22634985","wem/bandit_single","A1Z0O5MC9DAE8C","pain","8","","75","K","2","","0","0","1","","0.3713372483","false","272","","0.1872928851","main_expt","","0.3555003363","","0.3713372483","","0.3938657786","","","","","",""
"2103","","bandit","348","868776","0.0-310.0-0.0","22634985","wem/bandit_single","A1Z0O5MC9DAE8C","pain","8","","75","K","2","","0","0","1","","0.3650537767","false","273","","0.1769074474","main_expt","","0.3980140183","","0.3650537767","","0.3903330825","","","","","",""
"68","","bandit","349","870603","0.0-311.0-0.0","22634985","wem/bandit_single","A1Z0O5MC9DAE8C","pain","8","","75","K","2","","0","0","1","","0.3414565802","false","274","","0.1820324592","main_expt","","0.4077181827","","0.3414565802","","0.4236793781","","","","","",""
"249","","bandit","350","872611","0.0-312.0-0.0","22634985","wem/bandit_single","A1Z0O5MC9DAE8C","pain","8","","76","L","3","","0","1","0","","0.4320968281","false","275","","0.1923133529","main_expt","","0.4142369189","","0.3027622838","","0.4320968281","","","","","",""
"351","","bandit","351","874720","0.0-313.0-0.0","22634985","wem/bandit_single","A1Z0O5MC9DAE8C","pain","8","","76","L","3","","0","0","1","","0.4017915655","false","276","","0.1917589367","main_expt","","0.4250096067","","0.3125082267","","0.4017915655","","","","","",""
"183","","bandit","352","876662","0.0-314.0-0.0","22634985","wem/bandit_single","A1Z0O5MC9DAE8C","pain","8","","76","L","3","","0","1","0","","0.3548215972","false","277","","0.1667093518","main_expt","","0.4378988515","","0.348890663","","0.3548215972","","","","","",""
"24","","bandit","353","878446","0.0-315.0-0.0","22634985","wem/bandit_single","A1Z0O5MC9DAE8C","pain","8","","76","L","3","","0","1","0","","0.3683165275","false","278","","0.1695638059","main_expt","","0.4323676568","","0.3341457036","","0.3683165275","","","","","",""
"33","","bandit","354","880237","0.0-316.0-0.0","22634985","wem/bandit_single","A1Z0O5MC9DAE8C","pain","8","","76","L","3","","0","0","1","","0.3750953637","false","279","","0.1696283439","main_expt","","0.4391545144","","0.2341959149","","0.3750953637","","","","","",""
"102","","bandit","355","882097","0.0-317.0-0.0","22634985","wem/bandit_single","A1Z0O5MC9DAE8C","pain","8","","76","L","3","","0","0","1","","0.3557095414","false","280","","0.09227733008","main_expt","","0.4467207207","","0.1839622844","","0.3557095414","","","","","",""
"152","","bandit","356","884006","0.0-318.0-0.0","22634985","wem/bandit_single","A1Z0O5MC9DAE8C","pain","8","","75","K","2","","0","0","1","","0.1303375237","false","281","","0.08059064446","main_expt","","0.3922333676","","0.1303375237","","0.374333358","","","","","",""
"6153","","bandit","357","891921","0.0-319.0-0.0","22634985","wem/bandit_single","A1Z0O5MC9DAE8C","pain","8","","75","K","2","","0","0","1","","0.07449941097","false","282","","0.06236597977","main_expt","","0.4243132136","","0.07449941097","","0.3786855632","","","","","",""
"309","","bandit","358","893989","0.0-320.0-0.0","22634985","wem/bandit_single","A1Z0O5MC9DAE8C","pain","8","","74","J","1","","0","1","0","","0.4187362854","false","283","","0.07782340279","main_expt","","0.4187362854","","0.08783129911","","0.437514669","","","","","",""
"211","","bandit","359","895958","0.0-321.0-0.0","22634985","wem/bandit_single","A1Z0O5MC9DAE8C","pain","8","","74","J","1","","0","0","1","","0.422543139","false","284","","0.07564660971","main_expt","","0.422543139","","0.08228152097","","0.410198323","","","","","",""
"134","","bandit","360","897856","0.0-322.0-0.0","22634985","wem/bandit_single","A1Z0O5MC9DAE8C","pain","8","","74","J","1","","0","0","1","","0.434302279","false","285","","0.08237135124","main_expt","","0.434302279","","0.09246744832","","0.3777139522","","","","","",""
"156","","bandit","361","899774","0.0-323.0-0.0","22634985","wem/bandit_single","A1Z0O5MC9DAE8C","pain","8","","72","H","0","img/none_selected.jpg","0","1","0","","0.05670298638","false","286","","0.05670298638","main_expt","","0.4094725029","","0.08394792075","","0.3841171753","","","","","",""
"303","","bandit","362","901837","0.0-324.0-0.0","22634985","wem/bandit_single","A1Z0O5MC9DAE8C","pain","8","","72","H","0","img/none_selected.jpg","0","1","0","","0.06647452785","false","287","","0.06647452785","main_expt","","0.3778080042","","0.1021913287","","0.3641862554","","","","","",""
"58572","","bandit","363","962170","0.0-325.0-0.0","22634985","wem/bandit_single","A1Z0O5MC9DAE8C","pain","8","","74","J","1","","0","0","1","","0.3671495563","false","288","","0.04859701272","main_expt","","0.3671495563","","0.1188664616","","0.3192590496","","","","","",""
"178","","bandit","364","964109","0.0-326.0-0.0","22634985","wem/bandit_single","A1Z0O5MC9DAE8C","pain","8","","75","K","2","","0","0","1","","0.1050513492","false","289","","0.04246321062","main_expt","","0.3622055636","","0.1050513492","","0.3384054944","","","","","",""
"145","","bandit","365","966013","0.0-327.0-0.0","22634985","wem/bandit_single","A1Z0O5MC9DAE8C","pain","8","","76","L","3","","0","0","1","","0.329366118","false","290","","0.08307379137","main_expt","","0.3616647964","","0.1304324694","","0.329366118","","","","","",""
"87","","bandit","366","967860","0.0-328.0-0.0","22634985","wem/bandit_single","A1Z0O5MC9DAE8C","pain","8","","72","H","0","img/none_selected.jpg","0","0","1","","0.09664054691","false","291","","0.09664054691","main_expt","","0.3521760992","","0.09707891459","","0.38061917","","","","","",""
"518","","bandit","367","970141","0.0-329.0-0.0","22634985","wem/bandit_single","A1Z0O5MC9DAE8C","pain","8","","74","J","1","","0","0","1","","0.3062989856","false","292","","0.1089287446","main_expt","","0.3062989856","","0.1166693976","","0.3703624541","","","","","",""
"95","","bandit","368","971995","0.0-330.0-0.0","22634985","wem/bandit_single","A1Z0O5MC9DAE8C","pain","8","","75","K","2","","0","0","1","","0.1448282665","false","293","","0.1426967363","main_expt","","0.2594623792","","0.1448282665","","0.3554666564","","","","","",""
"190","","bandit","369","973945","0.0-331.0-0.0","22634985","wem/bandit_single","A1Z0O5MC9DAE8C","pain","8","","76","L","3","","0","1","0","","0.3976604504","false","294","","0.08295656842","main_expt","","0.2666401727","","0.1486412875","","0.3976604504","","","","","",""
"140","","bandit","370","975849","0.0-332.0-0.0","22634985","wem/bandit_single","A1Z0O5MC9DAE8C","pain","8","","76","L","3","","0","0","1","","0.3567340825","false","295","","0.07441347029","main_expt","","0.2160621863","","0.1266024918","","0.3567340825","","","","","",""
"412","","bandit","371","978030","0.0-333.0-0.0","22634985","wem/bandit_single","A1Z0O5MC9DAE8C","pain","8","","76","L","3","","0","0","1","","0.3802278382","false","296","","0.08167080543","main_expt","","0.1924669582","","0.1499702932","","0.3802278382","","","","","",""
"168","","bandit","372","979960","0.0-334.0-0.0","22634985","wem/bandit_single","A1Z0O5MC9DAE8C","pain","8","","76","L","3","","0","0","1","","0.3764104085","false","297","","0.06721412472","main_expt","","0.2572135825","","0.1124444021","","0.3764104085","","","","","",""
"11","","bandit","373","981750","0.0-335.0-0.0","22634985","wem/bandit_single","A1Z0O5MC9DAE8C","pain","8","","72","H","0","img/none_selected.jpg","0","0","1","","0.1106754059","false","298","","0.1106754059","main_expt","","0.2660288188","","0.122133656","","0.3801851674","","","","","",""
