"rt","responses","trial_type","trial_index","time_elapsed","internal_node_id","subjID","study","MID","cond","drift","key_press","respCharCode","respKey","respChoiceNum","respChoice","gems","bombs","no_reward","GemPrChosen","BombPrChosen","practice","trial_counter","WinPr_0","LosePr_0","trial_label","WinPr_1","LosePr_1","WinPr_2","LosePr_2","WinPr_3","LosePr_3","Q0","Q1","Q2","gender","age","ethnicity"
"13444","{""Q0"":""A3D3NEQ158WUB0""}","survey-text","0","13449","0.0-0.0","23435061","wem/bandit_single","A3D3NEQ158WUB0","pain","1","","","","","","","","","","","","","","","","","","","","","","","","","","",""
"1966","","text","1","16419","0.0-1.0","23435061","wem/bandit_single","A3D3NEQ158WUB0","pain","1","32","","","","","","","","","","","","","","","","","","","","","","","","","",""
"4832","","text","2","21252","0.0-2.0","23435061","wem/bandit_single","A3D3NEQ158WUB0","pain","1","32","","","","","","","","","","","","","","","","","","","","","","","","","",""
"23949","","text","3","45205","0.0-3.0","23435061","wem/bandit_single","A3D3NEQ158WUB0","pain","1","32","","","","","","","","","","","","","","","","","","","","","","","","","",""
"12701","","text","4","57908","0.0-4.0","23435061","wem/bandit_single","A3D3NEQ158WUB0","pain","1","32","","","","","","","","","","","","","","","","","","","","","","","","","",""
"8029","","text","5","65938","0.0-5.0","23435061","wem/bandit_single","A3D3NEQ158WUB0","pain","1","32","","","","","","","","","","","","","","","","","","","","","","","","","",""
"7729","","text","6","73668","0.0-6.0","23435061","wem/bandit_single","A3D3NEQ158WUB0","pain","1","32","","","","","","","","","","","","","","","","","","","","","","","","","",""
"3165","","text","7","76834","0.0-7.0","23435061","wem/bandit_single","A3D3NEQ158WUB0","pain","1","32","","","","","","","","","","","","","","","","","","","","","","","","","",""
"2958","","text","8","79794","0.0-8.0","23435061","wem/bandit_single","A3D3NEQ158WUB0","pain","1","32","","","","","","","","","","","","","","","","","","","","","","","","","",""
"2302","","text","9","82098","0.0-9.0","23435061","wem/bandit_single","A3D3NEQ158WUB0","pain","1","32","","","","","","","","","","","","","","","","","","","","","","","","","",""
"3409","","text","10","85508","0.0-10.0","23435061","wem/bandit_single","A3D3NEQ158WUB0","pain","1","32","","","","","","","","","","","","","","","","","","","","","","","","","",""
"3517","","text","11","89026","0.0-11.0","23435061","wem/bandit_single","A3D3NEQ158WUB0","pain","1","32","","","","","","","","","","","","","","","","","","","","","","","","","",""
"876","","bandit","12","91407","0.0-12.0-0.0","23435061","wem/bandit_single","A3D3NEQ158WUB0","pain","1","","74","J","0","img/none_selected_demo.jpg","0","0","1","0","0","true","0","0","0","","","","","","","","","","","","",""
"646","","bandit","13","93809","0.0-13.0-0.0","23435061","wem/bandit_single","A3D3NEQ158WUB0","pain","1","","75","K","0","img/none_selected_demo.jpg","0","0","1","0","0","true","0","0","0","","","","","","","","","","","","",""
"2008","","text","14","96068","0.0-14.0","23435061","wem/bandit_single","A3D3NEQ158WUB0","pain","1","32","","","","","","","","","","","","","","","","","","","","","","","","","",""
"1451","","text","15","97522","0.0-15.0","23435061","wem/bandit_single","A3D3NEQ158WUB0","pain","1","32","","","","","","","","","","","","","","","","","","","","","","","","","",""
"3566","","text","16","101090","0.0-16.0","23435061","wem/bandit_single","A3D3NEQ158WUB0","pain","1","32","","","","","","","","","","","","","","","","","","","","","","","","","",""
"2415","","text","17","103506","0.0-17.0","23435061","wem/bandit_single","A3D3NEQ158WUB0","pain","1","32","","","","","","","","","","","","","","","","","","","","","","","","","",""
"718","","bandit","18","105727","0.0-18.0-0.0","23435061","wem/bandit_single","A3D3NEQ158WUB0","pain","1","","74","J","0","img/none_selected_demo.jpg","0","0","1","0","0.8","true","0","0","0.8","80_20_practice","0","0.2","","","","","","","","","",""
"2121","","bandit","19","109601","0.0-18.0-1.0","23435061","wem/bandit_single","A3D3NEQ158WUB0","pain","1","","75","K","1","","0","0","1","0","0.2","true","0","0","0.8","80_20_practice","0","0.2","","","","","","","","","",""
"146","","bandit","20","111502","0.0-18.0-2.0","23435061","wem/bandit_single","A3D3NEQ158WUB0","pain","1","","74","J","0","img/none_selected_demo.jpg","0","1","0","0","0.8","true","0","0","0.8","80_20_practice","0","0.2","","","","","","","","","",""
"294","","bandit","21","113551","0.0-18.0-3.0","23435061","wem/bandit_single","A3D3NEQ158WUB0","pain","1","","75","K","1","","0","0","1","0","0.2","true","0","0","0.8","80_20_practice","0","0.2","","","","","","","","","",""
"310","","bandit","22","115613","0.0-18.0-4.0","23435061","wem/bandit_single","A3D3NEQ158WUB0","pain","1","","74","J","0","img/none_selected_demo.jpg","0","0","1","0","0.8","true","0","0","0.8","80_20_practice","0","0.2","","","","","","","","","",""
"136","","bandit","23","117502","0.0-18.0-5.0","23435061","wem/bandit_single","A3D3NEQ158WUB0","pain","1","","75","K","1","","0","0","1","0","0.2","true","0","0","0.8","80_20_practice","0","0.2","","","","","","","","","",""
"6","","bandit","24","119263","0.0-18.0-6.0","23435061","wem/bandit_single","A3D3NEQ158WUB0","pain","1","","74","J","0","img/none_selected_demo.jpg","0","0","1","0","0.8","true","0","0","0.8","80_20_practice","0","0.2","","","","","","","","","",""
"8","","bandit","25","121026","0.0-18.0-7.0","23435061","wem/bandit_single","A3D3NEQ158WUB0","pain","1","","74","J","0","img/none_selected_demo.jpg","0","1","0","0","0.8","true","0","0","0.8","80_20_practice","0","0.2","","","","","","","","","",""
"34","","bandit","26","122815","0.0-18.0-8.0","23435061","wem/bandit_single","A3D3NEQ158WUB0","pain","1","","75","K","1","","0","0","1","0","0.2","true","0","0","0.8","80_20_practice","0","0.2","","","","","","","","","",""
"38","","bandit","27","124607","0.0-18.0-9.0","23435061","wem/bandit_single","A3D3NEQ158WUB0","pain","1","","74","J","0","img/none_selected_demo.jpg","0","1","0","0","0.8","true","0","0","0.8","80_20_practice","0","0.2","","","","","","","","","",""
"181","","bandit","28","126543","0.0-18.0-10.0","23435061","wem/bandit_single","A3D3NEQ158WUB0","pain","1","","74","J","0","img/none_selected_demo.jpg","0","0","1","0","0.8","true","0","0","0.8","80_20_practice","0","0.2","","","","","","","","","",""
"165","","bandit","29","128464","0.0-18.0-11.0","23435061","wem/bandit_single","A3D3NEQ158WUB0","pain","1","","74","J","0","img/none_selected_demo.jpg","0","1","0","0","0.8","true","0","0","0.8","80_20_practice","0","0.2","","","","","","","","","",""
"84","","bandit","30","130302","0.0-18.0-12.0","23435061","wem/bandit_single","A3D3NEQ158WUB0","pain","1","","74","J","0","img/none_selected_demo.jpg","0","1","0","0","0.8","true","0","0","0.8","80_20_practice","0","0.2","","","","","","","","","",""
"85","","bandit","31","132143","0.0-18.0-13.0","23435061","wem/bandit_single","A3D3NEQ158WUB0","pain","1","","74","J","0","img/none_selected_demo.jpg","0","1","0","0","0.8","true","0","0","0.8","80_20_practice","0","0.2","","","","","","","","","",""
"22","","bandit","32","133920","0.0-18.0-14.0","23435061","wem/bandit_single","A3D3NEQ158WUB0","pain","1","","74","J","0","img/none_selected_demo.jpg","0","1","0","0","0.8","true","0","0","0.8","80_20_practice","0","0.2","","","","","","","","","",""
"84","","bandit","33","135759","0.0-18.0-15.0","23435061","wem/bandit_single","A3D3NEQ158WUB0","pain","1","","74","J","0","img/none_selected_demo.jpg","0","1","0","0","0.8","true","0","0","0.8","80_20_practice","0","0.2","","","","","","","","","",""
"166","","bandit","34","137681","0.0-18.0-16.0","23435061","wem/bandit_single","A3D3NEQ158WUB0","pain","1","","74","J","0","img/none_selected_demo.jpg","0","1","0","0","0.8","true","0","0","0.8","80_20_practice","0","0.2","","","","","","","","","",""
"130","","bandit","35","139566","0.0-18.0-17.0","23435061","wem/bandit_single","A3D3NEQ158WUB0","pain","1","","74","J","0","img/none_selected_demo.jpg","0","1","0","0","0.8","true","0","0","0.8","80_20_practice","0","0.2","","","","","","","","","",""
"9","","bandit","36","141328","0.0-18.0-18.0","23435061","wem/bandit_single","A3D3NEQ158WUB0","pain","1","","74","J","0","img/none_selected_demo.jpg","0","1","0","0","0.8","true","0","0","0.8","80_20_practice","0","0.2","","","","","","","","","",""
"212","","bandit","37","143294","0.0-18.0-19.0","23435061","wem/bandit_single","A3D3NEQ158WUB0","pain","1","","74","J","0","img/none_selected_demo.jpg","0","1","0","0","0.8","true","0","0","0.8","80_20_practice","0","0.2","","","","","","","","","",""
"88","","text","38","143634","0.0-19.0","23435061","wem/bandit_single","A3D3NEQ158WUB0","pain","1","32","","","","","","","","","","","","","","","","","","","","","","","","","",""
"4173","","bandit","39","149310","0.0-20.0-0.0","23435061","wem/bandit_single","A3D3NEQ158WUB0","pain","1","","74","J","0","img/none_selected_demo.jpg","0","0","1","0","0","true","0","0","0","","0","0","","","","","","","","","",""
"150","","text","40","149714","0.0-21.0","23435061","wem/bandit_single","A3D3NEQ158WUB0","pain","1","74","","","","","","","","","","","","","","","","","","","","","","","","","",""
"6240","","text","41","155956","0.0-22.0","23435061","wem/bandit_single","A3D3NEQ158WUB0","pain","1","32","","","","","","","","","","","","","","","","","","","","","","","","","",""
"2428","","text","42","158386","0.0-23.0","23435061","wem/bandit_single","A3D3NEQ158WUB0","pain","1","32","","","","","","","","","","","","","","","","","","","","","","","","","",""
"2909","","text","43","161298","0.0-24.0","23435061","wem/bandit_single","A3D3NEQ158WUB0","pain","1","32","","","","","","","","","","","","","","","","","","","","","","","","","",""
"10545","","text","44","171844","0.0-25.0","23435061","wem/bandit_single","A3D3NEQ158WUB0","pain","1","32","","","","","","","","","","","","","","","","","","","","","","","","","",""
"3211","","text","45","175058","0.0-26.0","23435061","wem/bandit_single","A3D3NEQ158WUB0","pain","1","32","","","","","","","","","","","","","","","","","","","","","","","","","",""
"7728","","text","46","182788","0.0-27.0","23435061","wem/bandit_single","A3D3NEQ158WUB0","pain","1","32","","","","","","","","","","","","","","","","","","","","","","","","","",""
"4556","","text","47","187346","0.0-28.0","23435061","wem/bandit_single","A3D3NEQ158WUB0","pain","1","32","","","","","","","","","","","","","","","","","","","","","","","","","",""
"5840","","text","48","193188","0.0-29.0","23435061","wem/bandit_single","A3D3NEQ158WUB0","pain","1","32","","","","","","","","","","","","","","","","","","","","","","","","","",""
"1516","","text","49","194706","0.0-30.0","23435061","wem/bandit_single","A3D3NEQ158WUB0","pain","1","32","","","","","","","","","","","","","","","","","","","","","","","","","",""
"4990","","text","50","199698","0.0-31.0","23435061","wem/bandit_single","A3D3NEQ158WUB0","pain","1","32","","","","","","","","","","","","","","","","","","","","","","","","","",""
"541","","bandit","51","201742","0.0-32.0-0.0","23435061","wem/bandit_single","A3D3NEQ158WUB0","pain","1","","72","H","0","img/none_selected.jpg","0","1","0","0","0.8","true","0","0","0.8","full_practice","0","0.2","0","0.6","0","0.2","","","","","",""
"1351","","bandit","52","204847","0.0-32.0-1.0","23435061","wem/bandit_single","A3D3NEQ158WUB0","pain","1","","74","J","1","","0","0","1","0","0.2","true","0","0","0.8","full_practice","0","0.2","0","0.6","0","0.2","","","","","",""
"4","","bandit","53","206606","0.0-32.0-2.0","23435061","wem/bandit_single","A3D3NEQ158WUB0","pain","1","","75","K","2","","0","1","0","0","0.6","true","0","0","0.8","full_practice","0","0.2","0","0.6","0","0.2","","","","","",""
"197","","bandit","54","208558","0.0-32.0-3.0","23435061","wem/bandit_single","A3D3NEQ158WUB0","pain","1","","76","L","3","","0","0","1","0","0.2","true","0","0","0.8","full_practice","0","0.2","0","0.6","0","0.2","","","","","",""
"134","","bandit","55","210446","0.0-32.0-4.0","23435061","wem/bandit_single","A3D3NEQ158WUB0","pain","1","","75","K","2","","0","1","0","0","0.6","true","0","0","0.8","full_practice","0","0.2","0","0.6","0","0.2","","","","","",""
"7","","bandit","56","212207","0.0-32.0-5.0","23435061","wem/bandit_single","A3D3NEQ158WUB0","pain","1","","72","H","0","img/none_selected.jpg","0","1","0","0","0.8","true","0","0","0.8","full_practice","0","0.2","0","0.6","0","0.2","","","","","",""
"7","","bandit","57","213968","0.0-32.0-6.0","23435061","wem/bandit_single","A3D3NEQ158WUB0","pain","1","","72","H","0","img/none_selected.jpg","0","1","0","0","0.8","true","0","0","0.8","full_practice","0","0.2","0","0.6","0","0.2","","","","","",""
"101","","bandit","58","215822","0.0-32.0-7.0","23435061","wem/bandit_single","A3D3NEQ158WUB0","pain","1","","72","H","0","img/none_selected.jpg","0","1","0","0","0.8","true","0","0","0.8","full_practice","0","0.2","0","0.6","0","0.2","","","","","",""
"39","","bandit","59","217615","0.0-32.0-8.0","23435061","wem/bandit_single","A3D3NEQ158WUB0","pain","1","","72","H","0","img/none_selected.jpg","0","1","0","0","0.8","true","0","0","0.8","full_practice","0","0.2","0","0.6","0","0.2","","","","","",""
"12","","bandit","60","219381","0.0-32.0-9.0","23435061","wem/bandit_single","A3D3NEQ158WUB0","pain","1","","72","H","0","img/none_selected.jpg","0","1","0","0","0.8","true","0","0","0.8","full_practice","0","0.2","0","0.6","0","0.2","","","","","",""
"126","","bandit","61","221262","0.0-32.0-10.0","23435061","wem/bandit_single","A3D3NEQ158WUB0","pain","1","","75","K","2","","0","1","0","0","0.6","true","0","0","0.8","full_practice","0","0.2","0","0.6","0","0.2","","","","","",""
"165","","bandit","62","223182","0.0-32.0-11.0","23435061","wem/bandit_single","A3D3NEQ158WUB0","pain","1","","72","H","0","img/none_selected.jpg","0","1","0","0","0.8","true","0","0","0.8","full_practice","0","0.2","0","0.6","0","0.2","","","","","",""
"197","","bandit","63","225136","0.0-32.0-12.0","23435061","wem/bandit_single","A3D3NEQ158WUB0","pain","1","","72","H","0","img/none_selected.jpg","0","1","0","0","0.8","true","0","0","0.8","full_practice","0","0.2","0","0.6","0","0.2","","","","","",""
"100","","bandit","64","226991","0.0-32.0-13.0","23435061","wem/bandit_single","A3D3NEQ158WUB0","pain","1","","72","H","0","img/none_selected.jpg","0","1","0","0","0.8","true","0","0","0.8","full_practice","0","0.2","0","0.6","0","0.2","","","","","",""
"68","","bandit","65","228815","0.0-32.0-14.0","23435061","wem/bandit_single","A3D3NEQ158WUB0","pain","1","","72","H","0","img/none_selected.jpg","0","1","0","0","0.8","true","0","0","0.8","full_practice","0","0.2","0","0.6","0","0.2","","","","","",""
"50","","bandit","66","230621","0.0-32.0-15.0","23435061","wem/bandit_single","A3D3NEQ158WUB0","pain","1","","72","H","0","img/none_selected.jpg","0","1","0","0","0.8","true","0","0","0.8","full_practice","0","0.2","0","0.6","0","0.2","","","","","",""
"196","","bandit","67","232573","0.0-32.0-16.0","23435061","wem/bandit_single","A3D3NEQ158WUB0","pain","1","","72","H","0","img/none_selected.jpg","0","1","0","0","0.8","true","0","0","0.8","full_practice","0","0.2","0","0.6","0","0.2","","","","","",""
"105","","bandit","68","234434","0.0-32.0-17.0","23435061","wem/bandit_single","A3D3NEQ158WUB0","pain","1","","72","H","0","img/none_selected.jpg","0","1","0","0","0.8","true","0","0","0.8","full_practice","0","0.2","0","0.6","0","0.2","","","","","",""
"751","","bandit","69","236941","0.0-32.0-18.0","23435061","wem/bandit_single","A3D3NEQ158WUB0","pain","1","","72","H","0","img/none_selected.jpg","0","1","0","0","0.8","true","0","0","0.8","full_practice","0","0.2","0","0.6","0","0.2","","","","","",""
"36","","bandit","70","238735","0.0-32.0-19.0","23435061","wem/bandit_single","A3D3NEQ158WUB0","pain","1","","72","H","0","img/none_selected.jpg","0","0","1","0","0.8","true","0","0","0.8","full_practice","0","0.2","0","0.6","0","0.2","","","","","",""
"2818","","text","71","241809","0.0-33.0","23435061","wem/bandit_single","A3D3NEQ158WUB0","pain","1","32","","","","","","","","","","","","","","","","","","","","","","","","","",""
"11000","","text","72","253813","0.0-34.0","23435061","wem/bandit_single","A3D3NEQ158WUB0","pain","1","32","","","","","","","","","","","","","","","","","","","","","","","","","",""
"4505","","text","73","258321","0.0-35.0","23435061","wem/bandit_single","A3D3NEQ158WUB0","pain","1","32","","","","","","","","","","","","","","","","","","","","","","","","","",""
"6352","","text","74","264675","0.0-36.0","23435061","wem/bandit_single","A3D3NEQ158WUB0","pain","1","32","","","","","","","","","","","","","","","","","","","","","","","","","",""
"3627","","text","75","268305","0.0-37.0","23435061","wem/bandit_single","A3D3NEQ158WUB0","pain","1","32","","","","","","","","","","","","","","","","","","","","","","","","","",""
"956","","bandit","76","270766","0.0-38.0-0.0","23435061","wem/bandit_single","A3D3NEQ158WUB0","pain","1","","72","H","0","img/none_selected.jpg","0","1","0","","0.1079408374","false","1","","0.1079408374","main_expt","","0.04371116513","","0.1765468105","","0.433486002","","","","","",""
"294","","bandit","77","272814","0.0-39.0-0.0","23435061","wem/bandit_single","A3D3NEQ158WUB0","pain","1","","74","J","1","","0","0","1","","0.0204546363","false","2","","0.1605706499","main_expt","","0.0204546363","","0.1569258514","","0.4446307222","","","","","",""
"132","","bandit","78","274701","0.0-40.0-0.0","23435061","wem/bandit_single","A3D3NEQ158WUB0","pain","1","","75","K","2","","0","0","1","","0.1639246388","false","3","","0.1829447669","main_expt","","0.02109221713","","0.1639246388","","0.4522438858","","","","","",""
"8","","bandit","79","276464","0.0-41.0-0.0","23435061","wem/bandit_single","A3D3NEQ158WUB0","pain","1","","76","L","3","","0","0","1","","0.4330109471","false","4","","0.1756642407","main_expt","","0.04448829896","","0.2130332657","","0.4330109471","","","","","",""
"178","","bandit","80","278397","0.0-42.0-0.0","23435061","wem/bandit_single","A3D3NEQ158WUB0","pain","1","","72","H","0","img/none_selected.jpg","0","0","1","","0.1349544936","false","5","","0.1349544936","main_expt","","0.03824555068","","0.1939577492","","0.4678508314","","","","","",""
"85","","bandit","81","280239","0.0-43.0-0.0","23435061","wem/bandit_single","A3D3NEQ158WUB0","pain","1","","72","H","0","img/none_selected.jpg","0","0","1","","0.1356037804","false","6","","0.1356037804","main_expt","","0.03028715703","","0.2419857306","","0.4644602632","","","","","",""
"179","","bandit","82","282173","0.0-44.0-0.0","23435061","wem/bandit_single","A3D3NEQ158WUB0","pain","1","","74","J","1","","0","0","1","","0.0280090558","false","7","","0.1731738011","main_expt","","0.0280090558","","0.2437977828","","0.4575746565","","","","","",""
"164","","bandit","83","284094","0.0-45.0-0.0","23435061","wem/bandit_single","A3D3NEQ158WUB0","pain","1","","75","K","2","","0","1","0","","0.2910779813","false","8","","0.1697830552","main_expt","","0.01994926529","","0.2910779813","","0.4508833002","","","","","",""
"68","","bandit","84","285919","0.0-46.0-0.0","23435061","wem/bandit_single","A3D3NEQ158WUB0","pain","1","","76","L","3","","0","1","0","","0.446295775","false","9","","0.1792782501","main_expt","","0.02255652904","","0.3043628405","","0.446295775","","","","","",""
"52","","bandit","85","287726","0.0-47.0-0.0","23435061","wem/bandit_single","A3D3NEQ158WUB0","pain","1","","76","L","3","","0","0","1","","0.4564580261","false","10","","0.1705688187","main_expt","","0.02794315976","","0.3568141906","","0.4564580261","","","","","",""
"84","","bandit","86","289567","0.0-48.0-0.0","23435061","wem/bandit_single","A3D3NEQ158WUB0","pain","1","","76","L","3","","0","1","0","","0.4233437492","false","11","","0.1974022207","main_expt","","0.02289966844","","0.3439843329","","0.4233437492","","","","","",""
"99","","bandit","87","291421","0.0-49.0-0.0","23435061","wem/bandit_single","A3D3NEQ158WUB0","pain","1","","76","L","3","","0","1","0","","0.4129107721","false","12","","0.1753487428","main_expt","","0.01510656417","","0.2959247237","","0.4129107721","","","","","",""
"20","","bandit","88","293200","0.0-50.0-0.0","23435061","wem/bandit_single","A3D3NEQ158WUB0","pain","1","","75","K","2","","0","1","0","","0.2711511111","false","13","","0.1858973774","main_expt","","0.01475809492","","0.2711511111","","0.4188058581","","","","","",""
"113","","bandit","89","295071","0.0-51.0-0.0","23435061","wem/bandit_single","A3D3NEQ158WUB0","pain","1","","75","K","2","","0","0","1","","0.2351285692","false","14","","0.1873997244","main_expt","","0.00909265887","","0.2351285692","","0.4542155744","","","","","",""
"19","","bandit","90","296846","0.0-52.0-0.0","23435061","wem/bandit_single","A3D3NEQ158WUB0","pain","1","","76","L","3","","0","0","1","","0.4436127815","false","15","","0.2079034381","main_expt","","0.004683339805","","0.3299180318","","0.4436127815","","","","","",""
"100","","bandit","91","298701","0.0-53.0-0.0","23435061","wem/bandit_single","A3D3NEQ158WUB0","pain","1","","76","L","3","","0","1","0","","0.4255220112","false","16","","0.2116662278","main_expt","","0.007493295572","","0.3382291528","","0.4255220112","","","","","",""
"6","","bandit","92","300462","0.0-54.0-0.0","23435061","wem/bandit_single","A3D3NEQ158WUB0","pain","1","","76","L","3","","0","1","0","","0.4221090449","false","17","","0.2460799228","main_expt","","0.009835384986","","0.3890963744","","0.4221090449","","","","","",""
"3","","bandit","93","302222","0.0-55.0-0.0","23435061","wem/bandit_single","A3D3NEQ158WUB0","pain","1","","76","L","3","","0","0","1","","0.4157246332","false","18","","0.2725156425","main_expt","","0.01282838009","","0.3102907615","","0.4157246332","","","","","",""
"98","","bandit","94","304080","0.0-56.0-0.0","23435061","wem/bandit_single","A3D3NEQ158WUB0","pain","1","","75","K","2","","0","0","1","","0.2734902963","false","19","","0.319312936","main_expt","","0.03935122736","","0.2734902963","","0.4000612909","","","","","",""
"50","","bandit","95","305887","0.0-57.0-0.0","23435061","wem/bandit_single","A3D3NEQ158WUB0","pain","1","","74","J","1","","0","0","1","","0.03712672215","false","20","","0.3449168397","main_expt","","0.03712672215","","0.2157414593","","0.4116546581","","","","","",""
"131","","bandit","96","307774","0.0-58.0-0.0","23435061","wem/bandit_single","A3D3NEQ158WUB0","pain","1","","72","H","0","img/none_selected.jpg","0","0","1","","0.2668327531","false","21","","0.2668327531","main_expt","","0.02631596187","","0.2148325275","","0.4276829816","","","","","",""
"52","","bandit","97","309583","0.0-59.0-0.0","23435061","wem/bandit_single","A3D3NEQ158WUB0","pain","1","","76","L","3","","0","0","1","","0.3861543943","false","22","","0.2786929748","main_expt","","0.0338100911","","0.1819582271","","0.3861543943","","","","","",""
"85","","bandit","98","311421","0.0-60.0-0.0","23435061","wem/bandit_single","A3D3NEQ158WUB0","pain","1","","76","L","3","","0","1","0","","0.3815006395","false","23","","0.2012253143","main_expt","","0.06132921526","","0.1776669961","","0.3815006395","","","","","",""
"115","","bandit","99","313294","0.0-61.0-0.0","23435061","wem/bandit_single","A3D3NEQ158WUB0","pain","1","","76","L","3","","0","0","1","","0.4063144844","false","24","","0.1363446769","main_expt","","0.06546003458","","0.2595803745","","0.4063144844","","","","","",""
"132","","bandit","100","315181","0.0-62.0-0.0","23435061","wem/bandit_single","A3D3NEQ158WUB0","pain","1","","75","K","2","","0","0","1","","0.2184946748","false","25","","0.1395957504","main_expt","","0.08327489459","","0.2184946748","","0.3218764758","","","","","",""
"181","","bandit","101","317118","0.0-63.0-0.0","23435061","wem/bandit_single","A3D3NEQ158WUB0","pain","1","","75","K","2","","0","0","1","","0.2382025465","false","26","","0.1095431569","main_expt","","0.06117167893","","0.2382025465","","0.3190898414","","","","","",""
"182","","bandit","102","319057","0.0-64.0-0.0","23435061","wem/bandit_single","A3D3NEQ158WUB0","pain","1","","75","K","2","","0","1","0","","0.2249508913","false","27","","0.1290148999","main_expt","","0.03494965278","","0.2249508913","","0.361309168","","","","","",""
"162","","bandit","103","320975","0.0-65.0-0.0","23435061","wem/bandit_single","A3D3NEQ158WUB0","pain","1","","76","L","3","","0","0","1","","0.3247985582","false","28","","0.09304199486","main_expt","","0.02964638986","","0.2388683754","","0.3247985582","","","","","",""
"19","","bandit","104","322749","0.0-66.0-0.0","23435061","wem/bandit_single","A3D3NEQ158WUB0","pain","1","","74","J","1","","0","0","1","","0.03498116837","false","29","","0.1042487788","main_expt","","0.03498116837","","0.238121012","","0.3358989687","","","","","",""
"117","","bandit","105","324623","0.0-67.0-0.0","23435061","wem/bandit_single","A3D3NEQ158WUB0","pain","1","","72","H","0","img/none_selected.jpg","0","0","1","","0.1177759499","false","30","","0.1177759499","main_expt","","0.04244048525","","0.2995264376","","0.3833706669","","","","","",""
"67","","bandit","106","326446","0.0-68.0-0.0","23435061","wem/bandit_single","A3D3NEQ158WUB0","pain","1","","75","K","2","","0","0","1","","0.2738636663","false","31","","0.1177925617","main_expt","","0.06152315655","","0.2738636663","","0.365606812","","","","","",""
"20","","bandit","107","328222","0.0-69.0-0.0","23435061","wem/bandit_single","A3D3NEQ158WUB0","pain","1","","75","K","2","","0","1","0","","0.3185168498","false","32","","0.08495919706","main_expt","","0.04890303061","","0.3185168498","","0.3376656117","","","","","",""
"164","","bandit","108","330140","0.0-70.0-0.0","23435061","wem/bandit_single","A3D3NEQ158WUB0","pain","1","","76","L","3","","0","0","1","","0.3632929272","false","33","","0.09918690981","main_expt","","0.06913310411","","0.3160257618","","0.3632929272","","","","","",""
"83","","bandit","109","331982","0.0-71.0-0.0","23435061","wem/bandit_single","A3D3NEQ158WUB0","pain","1","","76","L","3","","0","0","1","","0.4008603673","false","34","","0.1267106232","main_expt","","0.07311713639","","0.3411570355","","0.4008603673","","","","","",""
"84","","bandit","110","333822","0.0-72.0-0.0","23435061","wem/bandit_single","A3D3NEQ158WUB0","pain","1","","75","K","2","","0","0","1","","0.3190481916","false","35","","0.1076928618","main_expt","","0.08374615962","","0.3190481916","","0.4024879816","","","","","",""
"164","","bandit","111","335743","0.0-73.0-0.0","23435061","wem/bandit_single","A3D3NEQ158WUB0","pain","1","","74","J","1","","0","0","1","","0.08182693844","false","36","","0.1298816773","main_expt","","0.08182693844","","0.3264142162","","0.3740303516","","","","","",""
"162","","bandit","112","337662","0.0-74.0-0.0","23435061","wem/bandit_single","A3D3NEQ158WUB0","pain","1","","72","H","0","img/none_selected.jpg","0","0","1","","0.1459487567","false","37","","0.1459487567","main_expt","","0.1343371601","","0.3198880486","","0.3728306432","","","","","",""
"52","","bandit","113","339471","0.0-75.0-0.0","23435061","wem/bandit_single","A3D3NEQ158WUB0","pain","1","","75","K","2","","0","0","1","","0.3683112265","false","38","","0.1339045699","main_expt","","0.155986589","","0.3683112265","","0.3805434418","","","","","",""
"128","","bandit","114","341358","0.0-76.0-0.0","23435061","wem/bandit_single","A3D3NEQ158WUB0","pain","1","","75","K","2","","0","1","0","","0.3427238384","false","39","","0.1345127174","main_expt","","0.1477757124","","0.3427238384","","0.3969568822","","","","","",""
"181","","bandit","115","343294","0.0-77.0-0.0","23435061","wem/bandit_single","A3D3NEQ158WUB0","pain","1","","75","K","2","","0","1","0","","0.3218453083","false","40","","0.1283460502","main_expt","","0.1673850924","","0.3218453083","","0.3988554294","","","","","",""
"131","","bandit","116","345181","0.0-78.0-0.0","23435061","wem/bandit_single","A3D3NEQ158WUB0","pain","1","","75","K","2","","0","1","0","","0.3085515908","false","41","","0.120913883","main_expt","","0.1798739011","","0.3085515908","","0.4510691137","","","","","",""
"69","","bandit","117","347007","0.0-79.0-0.0","23435061","wem/bandit_single","A3D3NEQ158WUB0","pain","1","","75","K","2","","0","0","1","","0.3072415044","false","42","","0.1045942129","main_expt","","0.1559165864","","0.3072415044","","0.4575220824","","","","","",""
"146","","bandit","118","348910","0.0-80.0-0.0","23435061","wem/bandit_single","A3D3NEQ158WUB0","pain","1","","75","K","2","","0","0","1","","0.272500382","false","43","","0.09432917568","main_expt","","0.1058033922","","0.272500382","","0.4425049573","","","","","",""
"165","","bandit","119","350831","0.0-81.0-0.0","23435061","wem/bandit_single","A3D3NEQ158WUB0","pain","1","","76","L","3","","0","0","1","","0.4232077065","false","44","","0.07221407183","main_expt","","0.08489334424","","0.2865836788","","0.4232077065","","","","","",""
"20","","bandit","120","352608","0.0-82.0-0.0","23435061","wem/bandit_single","A3D3NEQ158WUB0","pain","1","","75","K","2","","0","1","0","","0.2991622886","false","45","","0.05666738762","main_expt","","0.05905190464","","0.2991622886","","0.4098430077","","","","","",""
"20","","bandit","121","354383","0.0-83.0-0.0","23435061","wem/bandit_single","A3D3NEQ158WUB0","pain","1","","75","K","2","","0","0","1","","0.2531917612","false","46","","0.03432969329","main_expt","","0.06331323714","","0.2531917612","","0.4038708701","","","","","",""
"131","","bandit","122","356271","0.0-84.0-0.0","23435061","wem/bandit_single","A3D3NEQ158WUB0","pain","1","","74","J","1","","0","0","1","","0.05657329797","false","47","","0.03955917442","main_expt","","0.05657329797","","0.174020607","","0.4162646915","","","","","",""
"35","","bandit","123","358063","0.0-85.0-0.0","23435061","wem/bandit_single","A3D3NEQ158WUB0","pain","1","","75","K","2","","0","0","1","","0.1890064997","false","48","","0.02792503423","main_expt","","0.04718629669","","0.1890064997","","0.4188900116","","","","","",""
"35","","bandit","124","359856","0.0-86.0-0.0","23435061","wem/bandit_single","A3D3NEQ158WUB0","pain","1","","75","K","2","","0","0","1","","0.218442061","false","49","","0.03726959289","main_expt","","0.03289244517","","0.218442061","","0.4566014176","","","","","",""
"83","","bandit","125","361697","0.0-87.0-0.0","23435061","wem/bandit_single","A3D3NEQ158WUB0","pain","1","","72","H","0","img/none_selected.jpg","0","0","1","","0.03358305353","false","50","","0.03358305353","main_expt","","0.03266450512","","0.1635183119","","0.4447058567","","","","","",""
"114","","bandit","126","363568","0.0-88.0-0.0","23435061","wem/bandit_single","A3D3NEQ158WUB0","pain","1","","75","K","2","","0","0","1","","0.1366577914","false","51","","0.03344521258","main_expt","","0.03026904774","","0.1366577914","","0.4304926469","","","","","",""
"83","","bandit","127","365406","0.0-89.0-0.0","23435061","wem/bandit_single","A3D3NEQ158WUB0","pain","1","","76","L","3","","0","1","0","","0.4221781581","false","52","","0.04269272659","main_expt","","0.03251993274","","0.1797398031","","0.4221781581","","","","","",""
"68","","bandit","128","367233","0.0-90.0-0.0","23435061","wem/bandit_single","A3D3NEQ158WUB0","pain","1","","76","L","3","","0","0","1","","0.3687481665","false","53","","0.023815337","main_expt","","0.03960602941","","0.2893410322","","0.3687481665","","","","","",""
"2","","bandit","129","368990","0.0-91.0-0.0","23435061","wem/bandit_single","A3D3NEQ158WUB0","pain","1","","76","L","3","","0","0","1","","0.3458934235","false","54","","0.02455785224","main_expt","","0.05707063203","","0.2985665456","","0.3458934235","","","","","",""
"133","","bandit","130","370879","0.0-92.0-0.0","23435061","wem/bandit_single","A3D3NEQ158WUB0","pain","1","","76","L","3","","0","0","1","","0.4042580408","false","55","","0.03998391886","main_expt","","0.04044117434","","0.3336948264","","0.4042580408","","","","","",""
"306","","bandit","131","372943","0.0-93.0-0.0","23435061","wem/bandit_single","A3D3NEQ158WUB0","pain","1","","75","K","2","","0","0","1","","0.282194417","false","56","","0.06538112884","main_expt","","0.05627119328","","0.282194417","","0.4471112694","","","","","",""
"163","","bandit","132","374863","0.0-94.0-0.0","23435061","wem/bandit_single","A3D3NEQ158WUB0","pain","1","","74","J","1","","0","0","1","","0.06172895681","false","57","","0.08662171517","main_expt","","0.06172895681","","0.3239389597","","0.4640351361","","","","","",""
"195","","bandit","133","376815","0.0-95.0-0.0","23435061","wem/bandit_single","A3D3NEQ158WUB0","pain","1","","72","H","0","img/none_selected.jpg","0","0","1","","0.08191290536","false","58","","0.08191290536","main_expt","","0.0708730922","","0.3114288274","","0.4654795878","","","","","",""
"132","","bandit","134","378704","0.0-96.0-0.0","23435061","wem/bandit_single","A3D3NEQ158WUB0","pain","1","","72","H","0","img/none_selected.jpg","0","0","1","","0.06359390603","false","59","","0.06359390603","main_expt","","0.06307994893","","0.3090129124","","0.477644797","","","","","",""
"1","","bandit","135","380463","0.0-97.0-0.0","23435061","wem/bandit_single","A3D3NEQ158WUB0","pain","1","","75","K","2","","0","1","0","","0.3273240357","false","60","","0.1113565871","main_expt","","0.06865221942","","0.3273240357","","0.4637057102","","","","","",""
"147","","bandit","136","382368","0.0-98.0-0.0","23435061","wem/bandit_single","A3D3NEQ158WUB0","pain","1","","75","K","2","","0","0","1","","0.333760802","false","61","","0.1224908949","main_expt","","0.04710261487","","0.333760802","","0.4575353452","","","","","",""
"114","","bandit","137","384242","0.0-99.0-0.0","23435061","wem/bandit_single","A3D3NEQ158WUB0","pain","1","","75","K","2","","0","1","0","","0.3721083552","false","62","","0.1011510181","main_expt","","0.04180279512","","0.3721083552","","0.4511824808","","","","","",""
"176","","bandit","138","386175","0.0-100.0-0.0","23435061","wem/bandit_single","A3D3NEQ158WUB0","pain","1","","75","K","2","","0","1","0","","0.3366911892","false","63","","0.1241823521","main_expt","","0.04669584184","","0.3366911892","","0.4522744543","","","","","",""
"19","","bandit","139","387950","0.0-101.0-0.0","23435061","wem/bandit_single","A3D3NEQ158WUB0","pain","1","","75","K","2","","0","1","0","","0.352845708","false","64","","0.1277445844","main_expt","","0.04699929359","","0.352845708","","0.4534383651","","","","","",""
"198","","bandit","140","389905","0.0-102.0-0.0","23435061","wem/bandit_single","A3D3NEQ158WUB0","pain","1","","75","K","2","","0","0","1","","0.3797865956","false","65","","0.1594820305","main_expt","","0.06422912444","","0.3797865956","","0.4578128414","","","","","",""
"321","","bandit","141","391984","0.0-103.0-0.0","23435061","wem/bandit_single","A3D3NEQ158WUB0","pain","1","","75","K","2","","0","0","1","","0.3776123686","false","66","","0.1902728197","main_expt","","0.09107067683","","0.3776123686","","0.4675149648","","","","","",""
"209","","bandit","142","393951","0.0-104.0-0.0","23435061","wem/bandit_single","A3D3NEQ158WUB0","pain","1","","75","K","2","","0","0","1","","0.3520302909","false","67","","0.1915604568","main_expt","","0.1295134299","","0.3520302909","","0.4801185054","","","","","",""
"179","","bandit","143","395889","0.0-105.0-0.0","23435061","wem/bandit_single","A3D3NEQ158WUB0","pain","1","","76","L","3","","0","0","1","","0.4853911876","false","68","","0.2292904293","main_expt","","0.1501953896","","0.3563070861","","0.4853911876","","","","","",""
"34","","bandit","144","397680","0.0-106.0-0.0","23435061","wem/bandit_single","A3D3NEQ158WUB0","pain","1","","76","L","3","","0","0","1","","0.45952887","false","69","","0.2982444272","main_expt","","0.2120393587","","0.3773129781","","0.45952887","","","","","",""
"114","","bandit","145","399551","0.0-107.0-0.0","23435061","wem/bandit_single","A3D3NEQ158WUB0","pain","1","","74","J","1","","0","1","0","","0.2046372205","false","70","","0.2038928517","main_expt","","0.2046372205","","0.3620092878","","0.4519788387","","","","","",""
"149","","bandit","146","401458","0.0-108.0-0.0","23435061","wem/bandit_single","A3D3NEQ158WUB0","pain","1","","74","J","1","","0","0","1","","0.1711657315","false","71","","0.2470144531","main_expt","","0.1711657315","","0.3689610789","","0.4644284496","","","","","",""
"190","","bandit","147","403407","0.0-109.0-0.0","23435061","wem/bandit_single","A3D3NEQ158WUB0","pain","1","","74","J","1","","0","0","1","","0.1804367846","false","72","","0.2339224101","main_expt","","0.1804367846","","0.335535794","","0.4275080271","","","","","",""
"148","","bandit","148","405311","0.0-110.0-0.0","23435061","wem/bandit_single","A3D3NEQ158WUB0","pain","1","","72","H","0","img/none_selected.jpg","0","0","1","","0.198403553","false","73","","0.198403553","main_expt","","0.1582310148","","0.3669127126","","0.4333248441","","","","","",""
"49","","bandit","149","407119","0.0-111.0-0.0","23435061","wem/bandit_single","A3D3NEQ158WUB0","pain","1","","74","J","1","","0","1","0","","0.1300952354","false","74","","0.2162510441","main_expt","","0.1300952354","","0.3360165716","","0.4272577829","","","","","",""
"50","","bandit","150","408927","0.0-112.0-0.0","23435061","wem/bandit_single","A3D3NEQ158WUB0","pain","1","","74","J","1","","0","0","1","","0.1414689969","false","75","","0.2467290531","main_expt","","0.1414689969","","0.3379177146","","0.353629049","","","","","",""
"19","","bandit","151","410703","0.0-113.0-0.0","23435061","wem/bandit_single","A3D3NEQ158WUB0","pain","1","","75","K","2","","0","1","0","","0.3489784935","false","76","","0.2199510863","main_expt","","0.1315789974","","0.3489784935","","0.3526453175","","","","","",""
"371","","bandit","152","412833","0.0-114.0-0.0","23435061","wem/bandit_single","A3D3NEQ158WUB0","pain","1","","75","K","2","","0","1","0","","0.2843927136","false","77","","0.1600424727","main_expt","","0.1054244057","","0.2843927136","","0.397337216","","","","","",""
"80","","bandit","153","414672","0.0-115.0-0.0","23435061","wem/bandit_single","A3D3NEQ158WUB0","pain","1","","74","J","1","","0","0","1","","0.1028875903","false","78","","0.1366877547","main_expt","","0.1028875903","","0.2585585406","","0.3747850168","","","","","",""
"194","","bandit","154","416624","0.0-116.0-0.0","23435061","wem/bandit_single","A3D3NEQ158WUB0","pain","1","","75","K","2","","0","0","1","","0.2211992803","false","79","","0.1608027171","main_expt","","0.1010795136","","0.2211992803","","0.3500135026","","","","","",""
"18","","bandit","155","418400","0.0-117.0-0.0","23435061","wem/bandit_single","A3D3NEQ158WUB0","pain","1","","76","L","3","","0","0","1","","0.3362224365","false","80","","0.2004121585","main_expt","","0.09661145037","","0.1670678668","","0.3362224365","","","","","",""
"145","","bandit","156","420302","0.0-118.0-0.0","23435061","wem/bandit_single","A3D3NEQ158WUB0","pain","1","","74","J","1","","0","0","1","","0.06079528701","false","81","","0.2100463009","main_expt","","0.06079528701","","0.1536487801","","0.3626400229","","","","","",""
"4","","bandit","157","422064","0.0-119.0-0.0","23435061","wem/bandit_single","A3D3NEQ158WUB0","pain","1","","75","K","2","","0","0","1","","0.164055667","false","82","","0.2313995655","main_expt","","0.0561923849","","0.164055667","","0.3433004166","","","","","",""
"129","","bandit","158","423950","0.0-120.0-0.0","23435061","wem/bandit_single","A3D3NEQ158WUB0","pain","1","","72","H","0","img/none_selected.jpg","0","0","1","","0.1805974068","false","83","","0.1805974068","main_expt","","0.05471979201","","0.1795096781","","0.3564809269","","","","","",""
"222","","bandit","159","425935","0.0-121.0-0.0","23435061","wem/bandit_single","A3D3NEQ158WUB0","pain","1","","75","K","2","","0","0","1","","0.1568762326","false","84","","0.1351257884","main_expt","","0.04961315052","","0.1568762326","","0.3403656385","","","","","",""
"162","","bandit","160","427856","0.0-122.0-0.0","23435061","wem/bandit_single","A3D3NEQ158WUB0","pain","1","","75","K","2","","0","0","1","","0.1857208284","false","85","","0.1372280885","main_expt","","0.05195310968","","0.1857208284","","0.3009252634","","","","","",""
"178","","bandit","161","429792","0.0-123.0-0.0","23435061","wem/bandit_single","A3D3NEQ158WUB0","pain","1","","75","K","2","","0","1","0","","0.2180329602","false","86","","0.1685840628","main_expt","","0.05385113756","","0.2180329602","","0.3067316121","","","","","",""
"224","","bandit","162","431777","0.0-124.0-0.0","23435061","wem/bandit_single","A3D3NEQ158WUB0","pain","1","","75","K","2","","0","0","1","","0.1893737279","false","87","","0.1654340797","main_expt","","0.08202519069","","0.1893737279","","0.3073916088","","","","","",""
"65","","bandit","163","433600","0.0-125.0-0.0","23435061","wem/bandit_single","A3D3NEQ158WUB0","pain","1","","74","J","1","","0","0","1","","0.04873944257","false","88","","0.1870328522","main_expt","","0.04873944257","","0.2309201776","","0.301504441","","","","","",""
"49","","bandit","164","435406","0.0-126.0-0.0","23435061","wem/bandit_single","A3D3NEQ158WUB0","pain","1","","76","L","3","","0","0","1","","0.3324072184","false","89","","0.1786415591","main_expt","","0.05553778571","","0.2368651839","","0.3324072184","","","","","",""
"50","","bandit","165","437215","0.0-127.0-0.0","23435061","wem/bandit_single","A3D3NEQ158WUB0","pain","1","","76","L","3","","0","0","1","","0.3245139686","false","90","","0.2293974223","main_expt","","0.04980790846","","0.2459093935","","0.3245139686","","","","","",""
"18","","bandit","166","438993","0.0-128.0-0.0","23435061","wem/bandit_single","A3D3NEQ158WUB0","pain","1","","72","H","0","img/none_selected.jpg","0","0","1","","0.2407797963","false","91","","0.2407797963","main_expt","","0.05804880768","","0.2371609774","","0.3310751299","","","","","",""
"16","","bandit","167","440766","0.0-129.0-0.0","23435061","wem/bandit_single","A3D3NEQ158WUB0","pain","1","","75","K","2","","0","0","1","","0.260478489","false","92","","0.2337544695","main_expt","","0.0614883172","","0.260478489","","0.3717444616","","","","","",""
"130","","bandit","168","442656","0.0-130.0-0.0","23435061","wem/bandit_single","A3D3NEQ158WUB0","pain","1","","75","K","2","","0","1","0","","0.2595992258","false","93","","0.2589688886","main_expt","","0.0764333552","","0.2595992258","","0.3846532122","","","","","",""
"243","","bandit","169","444655","0.0-131.0-0.0","23435061","wem/bandit_single","A3D3NEQ158WUB0","pain","1","","75","K","2","","0","0","1","","0.206568391","false","94","","0.2699529923","main_expt","","0.1280824273","","0.206568391","","0.4017211595","","","","","",""
"19","","bandit","170","446431","0.0-132.0-0.0","23435061","wem/bandit_single","A3D3NEQ158WUB0","pain","1","","75","K","2","","0","1","0","","0.1846794781","false","95","","0.2626559999","main_expt","","0.1191245721","","0.1846794781","","0.3736639641","","","","","",""
"83","","bandit","171","448273","0.0-133.0-0.0","23435061","wem/bandit_single","A3D3NEQ158WUB0","pain","1","","75","K","2","","0","0","1","","0.2484851932","false","96","","0.2196428224","main_expt","","0.08526153109","","0.2484851932","","0.3220453652","","","","","",""
"96","","bandit","172","450127","0.0-134.0-0.0","23435061","wem/bandit_single","A3D3NEQ158WUB0","pain","1","","74","J","1","","0","0","1","","0.0775518538","false","97","","0.1922289922","main_expt","","0.0775518538","","0.198145661","","0.2964534367","","","","","",""
"37","","bandit","173","451921","0.0-135.0-0.0","23435061","wem/bandit_single","A3D3NEQ158WUB0","pain","1","","74","J","1","","0","0","1","","0.08824897118","false","98","","0.2328023708","main_expt","","0.08824897118","","0.1738253929","","0.3388366936","","","","","",""
"31","","bandit","174","453712","0.0-136.0-0.0","23435061","wem/bandit_single","A3D3NEQ158WUB0","pain","1","","75","K","2","","0","0","1","","0.1261523865","false","99","","0.2606341713","main_expt","","0.08912321317","","0.1261523865","","0.4233536788","","","","","",""
"179","","bandit","175","455647","0.0-137.0-0.0","23435061","wem/bandit_single","A3D3NEQ158WUB0","pain","1","","75","K","2","","0","0","1","","0.1368684177","false","100","","0.310387162","main_expt","","0.1217067293","","0.1368684177","","0.3799029244","","","","","",""
"82","","bandit","176","457489","0.0-138.0-0.0","23435061","wem/bandit_single","A3D3NEQ158WUB0","pain","1","","75","K","2","","0","0","1","","0.1262970555","false","101","","0.3802628165","main_expt","","0.08537200695","","0.1262970555","","0.3644029447","","","","","",""
"191","","bandit","177","459439","0.0-139.0-0.0","23435061","wem/bandit_single","A3D3NEQ158WUB0","pain","1","","76","L","3","","0","1","0","","0.3414838768","false","102","","0.4133848668","main_expt","","0.09606980913","","0.1022564356","","0.3414838768","","","","","",""
"226","","bandit","178","461422","0.0-140.0-0.0","23435061","wem/bandit_single","A3D3NEQ158WUB0","pain","1","","76","L","3","","0","1","0","","0.3691073091","false","103","","0.4352089555","main_expt","","0.09968925047","","0.07046703442","","0.3691073091","","","","","",""
"67","","bandit","179","463246","0.0-141.0-0.0","23435061","wem/bandit_single","A3D3NEQ158WUB0","pain","1","","76","L","3","","0","0","1","","0.3386210986","false","104","","0.4248252031","main_expt","","0.1070137741","","0.08582175226","","0.3386210986","","","","","",""
"147","","bandit","180","465151","0.0-142.0-0.0","23435061","wem/bandit_single","A3D3NEQ158WUB0","pain","1","","76","L","3","","0","1","0","","0.3517858304","false","105","","0.4382512542","main_expt","","0.1086060941","","0.08910626196","","0.3517858304","","","","","",""
"56","","bandit","181","466973","0.0-143.0-0.0","23435061","wem/bandit_single","A3D3NEQ158WUB0","pain","1","","76","L","3","","0","1","0","","0.4016578568","false","106","","0.4551412652","main_expt","","0.1006724549","","0.09380004764","","0.4016578568","","","","","",""
"84","","bandit","182","468814","0.0-144.0-0.0","23435061","wem/bandit_single","A3D3NEQ158WUB0","pain","1","","76","L","3","","0","0","1","","0.3951748439","false","107","","0.4481373055","main_expt","","0.07769839914","","0.08916311959","","0.3951748439","","","","","",""
"178","","bandit","183","470751","0.0-145.0-0.0","23435061","wem/bandit_single","A3D3NEQ158WUB0","pain","1","","76","L","3","","0","0","1","","0.3933810371","false","108","","0.4611843773","main_expt","","0.09470950607","","0.1635033392","","0.3933810371","","","","","",""
"19","","bandit","184","472529","0.0-146.0-0.0","23435061","wem/bandit_single","A3D3NEQ158WUB0","pain","1","","76","L","3","","0","0","1","","0.3961603237","false","109","","0.416280782","main_expt","","0.1117426234","","0.1923408453","","0.3961603237","","","","","",""
"111","","bandit","185","474398","0.0-147.0-0.0","23435061","wem/bandit_single","A3D3NEQ158WUB0","pain","1","","74","J","1","","0","0","1","","0.1190643529","false","110","","0.3959176693","main_expt","","0.1190643529","","0.1668397223","","0.3933476799","","","","","",""
"146","","bandit","186","476302","0.0-148.0-0.0","23435061","wem/bandit_single","A3D3NEQ158WUB0","pain","1","","75","K","2","","0","0","1","","0.1254506171","false","111","","0.3881072513","main_expt","","0.1605091549","","0.1254506171","","0.3953313537","","","","","",""
"2","","bandit","187","478062","0.0-149.0-0.0","23435061","wem/bandit_single","A3D3NEQ158WUB0","pain","1","","72","H","0","img/none_selected.jpg","0","1","0","","0.3430735849","false","112","","0.3430735849","main_expt","","0.1531505469","","0.1596839241","","0.3398422341","","","","","",""
"162","","bandit","188","479982","0.0-150.0-0.0","23435061","wem/bandit_single","A3D3NEQ158WUB0","pain","1","","72","H","0","img/none_selected.jpg","0","0","1","","0.3036143476","false","113","","0.3036143476","main_expt","","0.1796188848","","0.1986187203","","0.375538402","","","","","",""
"34","","bandit","189","481775","0.0-151.0-0.0","23435061","wem/bandit_single","A3D3NEQ158WUB0","pain","1","","72","H","0","img/none_selected.jpg","0","1","0","","0.3581708668","false","114","","0.3581708668","main_expt","","0.1820080726","","0.2334514198","","0.3629483147","","","","","",""
"17","","bandit","190","483550","0.0-152.0-0.0","23435061","wem/bandit_single","A3D3NEQ158WUB0","pain","1","","72","H","0","img/none_selected.jpg","0","0","1","","0.2948471219","false","115","","0.2948471219","main_expt","","0.2050936175","","0.1892672839","","0.2969550108","","","","","",""
"97","","bandit","191","485407","0.0-153.0-0.0","23435061","wem/bandit_single","A3D3NEQ158WUB0","pain","1","","72","H","0","img/none_selected.jpg","0","1","0","","0.2711132382","false","116","","0.2711132382","main_expt","","0.2071503316","","0.1507180646","","0.260261953","","","","","",""
"97","","bandit","192","487262","0.0-154.0-0.0","23435061","wem/bandit_single","A3D3NEQ158WUB0","pain","1","","72","H","0","img/none_selected.jpg","0","1","0","","0.3124997295","false","117","","0.3124997295","main_expt","","0.2359882763","","0.1830546279","","0.2626326191","","","","","",""
"97","","bandit","193","489120","0.0-155.0-0.0","23435061","wem/bandit_single","A3D3NEQ158WUB0","pain","1","","72","H","0","img/none_selected.jpg","0","0","1","","0.3888019654","false","118","","0.3888019654","main_expt","","0.2388261631","","0.1415506149","","0.2933310536","","","","","",""
"113","","bandit","194","490991","0.0-156.0-0.0","23435061","wem/bandit_single","A3D3NEQ158WUB0","pain","1","","72","H","0","img/none_selected.jpg","0","1","0","","0.3695751837","false","119","","0.3695751837","main_expt","","0.2470137322","","0.1814909568","","0.2469992957","","","","","",""
"131","","bandit","195","492881","0.0-157.0-0.0","23435061","wem/bandit_single","A3D3NEQ158WUB0","pain","1","","72","H","0","img/none_selected.jpg","0","0","1","","0.3471196364","false","120","","0.3471196364","main_expt","","0.209676098","","0.1900691043","","0.2186909282","","","","","",""
"48","","bandit","196","494684","0.0-158.0-0.0","23435061","wem/bandit_single","A3D3NEQ158WUB0","pain","1","","72","H","0","img/none_selected.jpg","0","0","1","","0.3164400491","false","121","","0.3164400491","main_expt","","0.2058519679","","0.2002257321","","0.1915374776","","","","","",""
"98","","bandit","197","496542","0.0-159.0-0.0","23435061","wem/bandit_single","A3D3NEQ158WUB0","pain","1","","72","H","0","img/none_selected.jpg","0","1","0","","0.3565888941","false","122","","0.3565888941","main_expt","","0.1409467191","","0.2000360786","","0.1666700693","","","","","",""
"178","","bandit","198","498478","0.0-160.0-0.0","23435061","wem/bandit_single","A3D3NEQ158WUB0","pain","1","","72","H","0","img/none_selected.jpg","0","0","1","","0.3293983066","false","123","","0.3293983066","main_expt","","0.08785727187","","0.1656706666","","0.1779758636","","","","","",""
"18","","bandit","199","500253","0.0-161.0-0.0","23435061","wem/bandit_single","A3D3NEQ158WUB0","pain","1","","74","J","1","","0","0","1","","0.1153756664","false","124","","0.3202360925","main_expt","","0.1153756664","","0.2433115295","","0.2483730269","","","","","",""
"129","","bandit","200","502140","0.0-162.0-0.0","23435061","wem/bandit_single","A3D3NEQ158WUB0","pain","1","","75","K","2","","0","1","0","","0.1810024247","false","125","","0.3478690395","main_expt","","0.1211147435","","0.1810024247","","0.2274485556","","","","","",""
"181","","bandit","201","504078","0.0-163.0-0.0","23435061","wem/bandit_single","A3D3NEQ158WUB0","pain","1","","75","K","2","","0","0","1","","0.2138299762","false","126","","0.3312811416","main_expt","","0.1434737457","","0.2138299762","","0.2506805994","","","","","",""
"17","","bandit","202","505854","0.0-164.0-0.0","23435061","wem/bandit_single","A3D3NEQ158WUB0","pain","1","","75","K","2","","0","0","1","","0.1993304114","false","127","","0.2641060438","main_expt","","0.1970801631","","0.1993304114","","0.2520497492","","","","","",""
"211","","bandit","203","507823","0.0-165.0-0.0","23435061","wem/bandit_single","A3D3NEQ158WUB0","pain","1","","75","K","2","","0","0","1","","0.2602773644","false","128","","0.2239657692","main_expt","","0.2891253811","","0.2602773644","","0.1948091286","","","","","",""
"1","","bandit","204","509581","0.0-166.0-0.0","23435061","wem/bandit_single","A3D3NEQ158WUB0","pain","1","","76","L","3","","0","0","1","","0.1749799719","false","129","","0.2243581634","main_expt","","0.2389970352","","0.2960784606","","0.1749799719","","","","","",""
"146","","bandit","205","511486","0.0-167.0-0.0","23435061","wem/bandit_single","A3D3NEQ158WUB0","pain","1","","76","L","3","","0","0","1","","0.1950546205","false","130","","0.2215765871","main_expt","","0.2613596901","","0.2720271615","","0.1950546205","","","","","",""
"129","","bandit","206","513375","0.0-168.0-0.0","23435061","wem/bandit_single","A3D3NEQ158WUB0","pain","1","","72","H","0","img/none_selected.jpg","0","0","1","","0.1796651873","false","131","","0.1796651873","main_expt","","0.2254289723","","0.2403459828","","0.2501377387","","","","","",""
"66","","bandit","207","515200","0.0-169.0-0.0","23435061","wem/bandit_single","A3D3NEQ158WUB0","pain","1","","72","H","0","img/none_selected.jpg","0","0","1","","0.1946412172","false","132","","0.1946412172","main_expt","","0.2759434303","","0.2261584059","","0.2275015869","","","","","",""
"47","","bandit","208","517006","0.0-170.0-0.0","23435061","wem/bandit_single","A3D3NEQ158WUB0","pain","1","","72","H","0","img/none_selected.jpg","0","0","1","","0.2390261597","false","133","","0.2390261597","main_expt","","0.3153186182","","0.225512635","","0.1961271051","","","","","",""
"34","","bandit","209","518799","0.0-171.0-0.0","23435061","wem/bandit_single","A3D3NEQ158WUB0","pain","1","","74","J","1","","0","1","0","","0.2950667763","false","134","","0.227958871","main_expt","","0.2950667763","","0.2119287539","","0.2508816485","","","","","",""
"31","","bandit","210","520591","0.0-172.0-0.0","23435061","wem/bandit_single","A3D3NEQ158WUB0","pain","1","","74","J","1","","0","0","1","","0.3307223606","false","135","","0.2312014448","main_expt","","0.3307223606","","0.1980603764","","0.3394706536","","","","","",""
"179","","bandit","211","522525","0.0-173.0-0.0","23435061","wem/bandit_single","A3D3NEQ158WUB0","pain","1","","74","J","1","","0","0","1","","0.3298223854","false","136","","0.27599984","main_expt","","0.3298223854","","0.2325476757","","0.2837829406","","","","","",""
"211","","bandit","212","524494","0.0-174.0-0.0","23435061","wem/bandit_single","A3D3NEQ158WUB0","pain","1","","74","J","1","","0","0","1","","0.3330531331","false","137","","0.2313694212","main_expt","","0.3330531331","","0.2334264213","","0.3024244849","","","","","",""
"82","","bandit","213","526334","0.0-175.0-0.0","23435061","wem/bandit_single","A3D3NEQ158WUB0","pain","1","","75","K","2","","0","0","1","","0.3107735177","false","138","","0.1816115857","main_expt","","0.292929501","","0.3107735177","","0.3473265679","","","","","",""
"33","","bandit","214","528126","0.0-176.0-0.0","23435061","wem/bandit_single","A3D3NEQ158WUB0","pain","1","","75","K","2","","0","0","1","","0.3374098654","false","139","","0.1658496667","main_expt","","0.2849421758","","0.3374098654","","0.2828336224","","","","","",""
"97","","bandit","215","529982","0.0-177.0-0.0","23435061","wem/bandit_single","A3D3NEQ158WUB0","pain","1","","76","L","3","","0","0","1","","0.3238397914","false","140","","0.1644365985","main_expt","","0.3149573531","","0.3401298673","","0.3238397914","","","","","",""
"129","","bandit","216","531871","0.0-178.0-0.0","23435061","wem/bandit_single","A3D3NEQ158WUB0","pain","1","","76","L","3","","0","0","1","","0.3490905252","false","141","","0.16055167","main_expt","","0.2937847178","","0.363539884","","0.3490905252","","","","","",""
"64","","bandit","217","533694","0.0-179.0-0.0","23435061","wem/bandit_single","A3D3NEQ158WUB0","pain","1","","76","L","3","","0","1","0","","0.337853111","false","142","","0.1426499966","main_expt","","0.2695919138","","0.3207651517","","0.337853111","","","","","",""
"162","","bandit","218","535615","0.0-180.0-0.0","23435061","wem/bandit_single","A3D3NEQ158WUB0","pain","1","","76","L","3","","0","1","0","","0.3475703167","false","143","","0.1133276474","main_expt","","0.206179854","","0.2976941359","","0.3475703167","","","","","",""
"192","","bandit","219","537566","0.0-181.0-0.0","23435061","wem/bandit_single","A3D3NEQ158WUB0","pain","1","","76","L","3","","0","0","1","","0.3809945211","false","144","","0.1351054788","main_expt","","0.2123329462","","0.2405576463","","0.3809945211","","","","","",""
"16","","bandit","220","539342","0.0-182.0-0.0","23435061","wem/bandit_single","A3D3NEQ158WUB0","pain","1","","76","L","3","","0","1","0","","0.3842622547","false","145","","0.1703546958","main_expt","","0.2144195617","","0.2513929943","","0.3842622547","","","","","",""
"145","","bandit","221","541245","0.0-183.0-0.0","23435061","wem/bandit_single","A3D3NEQ158WUB0","pain","1","","76","L","3","","0","0","1","","0.4068715463","false","146","","0.1382352341","main_expt","","0.2264269311","","0.2665850657","","0.4068715463","","","","","",""
"17","","bandit","222","543023","0.0-184.0-0.0","23435061","wem/bandit_single","A3D3NEQ158WUB0","pain","1","","76","L","3","","0","1","0","","0.3690267696","false","147","","0.1111211324","main_expt","","0.2458089499","","0.2742171136","","0.3690267696","","","","","",""
"94","","bandit","223","544878","0.0-185.0-0.0","23435061","wem/bandit_single","A3D3NEQ158WUB0","pain","1","","76","L","3","","0","0","1","","0.3999465919","false","148","","0.1046256567","main_expt","","0.2581131455","","0.2504516377","","0.3999465919","","","","","",""
"128","","bandit","224","546766","0.0-186.0-0.0","23435061","wem/bandit_single","A3D3NEQ158WUB0","pain","1","","76","L","3","","0","0","1","","0.3823047489","false","149","","0.09450025474","main_expt","","0.2055420423","","0.2749888299","","0.3823047489","","","","","",""
"177","","bandit","225","548702","0.0-187.0-0.0","23435061","wem/bandit_single","A3D3NEQ158WUB0","pain","1","","75","K","2","","0","1","0","","0.2199302859","false","150","","0.08682851814","main_expt","","0.2196547661","","0.2199302859","","0.3970301866","","","","","",""
"243","","bandit","226","550702","0.0-188.0-0.0","23435061","wem/bandit_single","A3D3NEQ158WUB0","pain","1","","75","K","2","","0","0","1","","0.228921305","false","151","","0.0775356828","main_expt","","0.2311854424","","0.228921305","","0.4141828336","","","","","",""
"209","","bandit","227","552670","0.0-189.0-0.0","23435061","wem/bandit_single","A3D3NEQ158WUB0","pain","1","","75","K","2","","0","0","1","","0.1858313389","false","152","","0.08719832593","main_expt","","0.2692750042","","0.1858313389","","0.4233092002","","","","","",""
"81","","bandit","228","554511","0.0-190.0-0.0","23435061","wem/bandit_single","A3D3NEQ158WUB0","pain","1","","75","K","2","","0","0","1","","0.2253380596","false","153","","0.06950392785","main_expt","","0.3209664266","","0.2253380596","","0.3961827626","","","","","",""
"142","","bandit","229","556414","0.0-191.0-0.0","23435061","wem/bandit_single","A3D3NEQ158WUB0","pain","1","","74","J","1","","0","0","1","","0.2633096479","false","154","","0.09734883616","main_expt","","0.2633096479","","0.1787374968","","0.4023640633","","","","","",""
"82","","bandit","230","558255","0.0-192.0-0.0","23435061","wem/bandit_single","A3D3NEQ158WUB0","pain","1","","74","J","1","","0","0","1","","0.2611493198","false","155","","0.1078867986","main_expt","","0.2611493198","","0.1026625787","","0.3927422998","","","","","",""
"144","","bandit","231","560159","0.0-193.0-0.0","23435061","wem/bandit_single","A3D3NEQ158WUB0","pain","1","","72","H","0","img/none_selected.jpg","0","0","1","","0.09294383108","false","156","","0.09294383108","main_expt","","0.2556392324","","0.1201393653","","0.3696188161","","","","","",""
"32","","bandit","232","561951","0.0-194.0-0.0","23435061","wem/bandit_single","A3D3NEQ158WUB0","pain","1","","72","H","0","img/none_selected.jpg","0","0","1","","0.1344904143","false","157","","0.1344904143","main_expt","","0.2237912435","","0.1601810659","","0.3562863837","","","","","",""
"79","","bandit","233","563791","0.0-195.0-0.0","23435061","wem/bandit_single","A3D3NEQ158WUB0","pain","1","","76","L","3","","0","0","1","","0.3891013447","false","158","","0.1682501471","main_expt","","0.2269937079","","0.2178666355","","0.3891013447","","","","","",""
"32","","bandit","234","565582","0.0-196.0-0.0","23435061","wem/bandit_single","A3D3NEQ158WUB0","pain","1","","76","L","3","","0","0","1","","0.3771509201","false","159","","0.1859978291","main_expt","","0.2244600926","","0.2088119712","","0.3771509201","","","","","",""
"1","","bandit","235","567342","0.0-197.0-0.0","23435061","wem/bandit_single","A3D3NEQ158WUB0","pain","1","","75","K","2","","0","0","1","","0.2853399033","false","160","","0.1169857497","main_expt","","0.231654425","","0.2853399033","","0.3677966378","","","","","",""
"129","","bandit","236","569232","0.0-198.0-0.0","23435061","wem/bandit_single","A3D3NEQ158WUB0","pain","1","","74","J","1","","0","1","0","","0.2415747561","false","161","","0.1131976547","main_expt","","0.2415747561","","0.2755093387","","0.3691576932","","","","","",""
"251","","bandit","237","571246","0.0-199.0-0.0","23435061","wem/bandit_single","A3D3NEQ158WUB0","pain","1","","74","J","1","","0","0","1","","0.1807921844","false","162","","0.1560378341","main_expt","","0.1807921844","","0.2706635439","","0.3102253273","","","","","",""
"178","","bandit","238","573182","0.0-200.0-0.0","23435061","wem/bandit_single","A3D3NEQ158WUB0","pain","1","","74","J","1","","0","0","1","","0.1986212186","false","163","","0.1200759877","main_expt","","0.1986212186","","0.2856851073","","0.3361037566","","","","","",""
"177","","bandit","239","575120","0.0-201.0-0.0","23435061","wem/bandit_single","A3D3NEQ158WUB0","pain","1","","75","K","2","","0","0","1","","0.3188827228","false","164","","0.1198838954","main_expt","","0.1799022971","","0.3188827228","","0.3097300036","","","","","",""
"208","","bandit","240","577086","0.0-202.0-0.0","23435061","wem/bandit_single","A3D3NEQ158WUB0","pain","1","","72","H","0","img/none_selected.jpg","0","0","1","","0.1397308529","false","165","","0.1397308529","main_expt","","0.2610149466","","0.3258940933","","0.3234169084","","","","","",""
"129","","bandit","241","578974","0.0-203.0-0.0","23435061","wem/bandit_single","A3D3NEQ158WUB0","pain","1","","76","L","3","","0","0","1","","0.3201458278","false","166","","0.1506282743","main_expt","","0.2673729835","","0.3525092479","","0.3201458278","","","","","",""
"161","","bandit","242","580894","0.0-204.0-0.0","23435061","wem/bandit_single","A3D3NEQ158WUB0","pain","1","","76","L","3","","0","0","1","","0.366643239","false","167","","0.1407574557","main_expt","","0.169486101","","0.3919017073","","0.366643239","","","","","",""
"32","","bandit","243","582686","0.0-205.0-0.0","23435061","wem/bandit_single","A3D3NEQ158WUB0","pain","1","","76","L","3","","0","0","1","","0.3877512758","false","168","","0.1217255528","main_expt","","0.1997030364","","0.3855955566","","0.3877512758","","","","","",""
"17","","bandit","244","584463","0.0-206.0-0.0","23435061","wem/bandit_single","A3D3NEQ158WUB0","pain","1","","75","K","2","","0","0","1","","0.3882436634","false","169","","0.118108524","main_expt","","0.2391799942","","0.3882436634","","0.3733196812","","","","","",""
"192","","bandit","245","586416","0.0-207.0-0.0","23435061","wem/bandit_single","A3D3NEQ158WUB0","pain","1","","75","K","2","","0","0","1","","0.4096789578","false","170","","0.0750780909","main_expt","","0.2239577552","","0.4096789578","","0.3616719183","","","","","",""
"31","","bandit","246","588205","0.0-208.0-0.0","23435061","wem/bandit_single","A3D3NEQ158WUB0","pain","1","","74","J","1","","0","0","1","","0.2175962327","false","171","","0.07048665386","main_expt","","0.2175962327","","0.4326257363","","0.3222484871","","","","","",""
"178","","bandit","247","590143","0.0-209.0-0.0","23435061","wem/bandit_single","A3D3NEQ158WUB0","pain","1","","74","J","1","","0","0","1","","0.2061205584","false","172","","0.09439478605","main_expt","","0.2061205584","","0.4381189537","","0.2849842628","","","","","",""
"192","","bandit","248","592094","0.0-210.0-0.0","23435061","wem/bandit_single","A3D3NEQ158WUB0","pain","1","","72","H","0","img/none_selected.jpg","0","0","1","","0.05932603211","false","173","","0.05932603211","main_expt","","0.1787022686","","0.3823577146","","0.2896949147","","","","","",""
"1","","bandit","249","593855","0.0-211.0-0.0","23435061","wem/bandit_single","A3D3NEQ158WUB0","pain","1","","72","H","0","img/none_selected.jpg","0","0","1","","0.1019229976","false","174","","0.1019229976","main_expt","","0.1782801474","","0.4155511425","","0.260829927","","","","","",""
"17","","bandit","250","595632","0.0-212.0-0.0","23435061","wem/bandit_single","A3D3NEQ158WUB0","pain","1","","75","K","2","","0","0","1","","0.4391025654","false","175","","0.1270031357","main_expt","","0.1723114597","","0.4391025654","","0.1608433896","","","","","",""
"14","","bandit","251","597407","0.0-213.0-0.0","23435061","wem/bandit_single","A3D3NEQ158WUB0","pain","1","","75","K","2","","0","1","0","","0.4654332747","false","176","","0.1519507126","main_expt","","0.1714247165","","0.4654332747","","0.1924323662","","","","","",""
"33","","bandit","252","599201","0.0-214.0-0.0","23435061","wem/bandit_single","A3D3NEQ158WUB0","pain","1","","75","K","2","","0","0","1","","0.4862166952","false","177","","0.2645819263","main_expt","","0.2003569552","","0.4862166952","","0.1942299772","","","","","",""
"31","","bandit","253","600991","0.0-215.0-0.0","23435061","wem/bandit_single","A3D3NEQ158WUB0","pain","1","","75","K","2","","0","1","0","","0.4878504479","false","178","","0.2497033982","main_expt","","0.1848954505","","0.4878504479","","0.2266891382","","","","","",""
"33","","bandit","254","602782","0.0-216.0-0.0","23435061","wem/bandit_single","A3D3NEQ158WUB0","pain","1","","75","K","2","","0","1","0","","0.4925433574","false","179","","0.2464833147","main_expt","","0.120488448","","0.4925433574","","0.193755509","","","","","",""
"49","","bandit","255","604592","0.0-217.0-0.0","23435061","wem/bandit_single","A3D3NEQ158WUB0","pain","1","","75","K","2","","0","0","1","","0.4863546804","false","180","","0.191435525","main_expt","","0.09518531587","","0.4863546804","","0.2143300014","","","","","",""
"158","","bandit","256","606510","0.0-218.0-0.0","23435061","wem/bandit_single","A3D3NEQ158WUB0","pain","1","","75","K","2","","0","0","1","","0.4898831258","false","181","","0.2095150634","main_expt","","0.1110105533","","0.4898831258","","0.1996101457","","","","","",""
"32","","bandit","257","608305","0.0-219.0-0.0","23435061","wem/bandit_single","A3D3NEQ158WUB0","pain","1","","76","L","3","","0","0","1","","0.220362663","false","182","","0.2238619417","main_expt","","0.1321710188","","0.4702328405","","0.220362663","","","","","",""
"31","","bandit","258","610095","0.0-220.0-0.0","23435061","wem/bandit_single","A3D3NEQ158WUB0","pain","1","","76","L","3","","0","0","1","","0.2087999581","false","183","","0.172430875","main_expt","","0.07205074818","","0.4443650637","","0.2087999581","","","","","",""
"113","","bandit","259","611968","0.0-221.0-0.0","23435061","wem/bandit_single","A3D3NEQ158WUB0","pain","1","","75","K","2","","0","1","0","","0.4395551327","false","184","","0.1537152065","main_expt","","0.08140980564","","0.4395551327","","0.2693368533","","","","","",""
"31","","bandit","260","613760","0.0-222.0-0.0","23435061","wem/bandit_single","A3D3NEQ158WUB0","pain","1","","75","K","2","","0","1","0","","0.427498872","false","185","","0.1089078126","main_expt","","0.07005875891","","0.427498872","","0.3177788722","","","","","",""
"223","","bandit","261","615743","0.0-223.0-0.0","23435061","wem/bandit_single","A3D3NEQ158WUB0","pain","1","","75","K","2","","0","0","1","","0.4126395781","false","186","","0.1150542287","main_expt","","0.04712836877","","0.4126395781","","0.3093747324","","","","","",""
"50","","bandit","262","617552","0.0-224.0-0.0","23435061","wem/bandit_single","A3D3NEQ158WUB0","pain","1","","75","K","2","","0","0","1","","0.4059631444","false","187","","0.07877539194","main_expt","","0.07097221374","","0.4059631444","","0.3361469263","","","","","",""
"30","","bandit","263","619344","0.0-225.0-0.0","23435061","wem/bandit_single","A3D3NEQ158WUB0","pain","1","","74","J","1","","0","0","1","","0.04255461481","false","188","","0.06234325246","main_expt","","0.04255461481","","0.4007853126","","0.3096611705","","","","","",""
"33","","bandit","264","621135","0.0-226.0-0.0","23435061","wem/bandit_single","A3D3NEQ158WUB0","pain","1","","74","J","1","","0","0","1","","0.03834091028","false","189","","0.07748383332","main_expt","","0.03834091028","","0.4208201059","","0.298651231","","","","","",""
"159","","bandit","265","623055","0.0-227.0-0.0","23435061","wem/bandit_single","A3D3NEQ158WUB0","pain","1","","72","H","0","img/none_selected.jpg","0","0","1","","0.08864116925","false","190","","0.08864116925","main_expt","","0.03101500858","","0.4249824956","","0.3361123746","","","","","",""
"192","","bandit","266","625007","0.0-228.0-0.0","23435061","wem/bandit_single","A3D3NEQ158WUB0","pain","1","","72","H","0","img/none_selected.jpg","0","0","1","","0.1114019665","false","191","","0.1114019665","main_expt","","0.05137759752","","0.4519194686","","0.3529126189","","","","","",""
"175","","bandit","267","626943","0.0-229.0-0.0","23435061","wem/bandit_single","A3D3NEQ158WUB0","pain","1","","72","H","0","img/none_selected.jpg","0","0","1","","0.0944181321","false","192","","0.0944181321","main_expt","","0.05101019331","","0.449072141","","0.3806900048","","","","","",""
"33","","bandit","268","628735","0.0-230.0-0.0","23435061","wem/bandit_single","A3D3NEQ158WUB0","pain","1","","75","K","2","","0","0","1","","0.4069092802","false","193","","0.09015445577","main_expt","","0.0408087357","","0.4069092802","","0.3191299148","","","","","",""
"223","","bandit","269","630719","0.0-231.0-0.0","23435061","wem/bandit_single","A3D3NEQ158WUB0","pain","1","","75","K","2","","0","1","0","","0.399300076","false","194","","0.09569888082","main_expt","","0.04787233925","","0.399300076","","0.3350705725","","","","","",""
"113","","bandit","270","632591","0.0-232.0-0.0","23435061","wem/bandit_single","A3D3NEQ158WUB0","pain","1","","75","K","2","","0","0","1","","0.4028519225","false","195","","0.1521563302","main_expt","","0.07297342555","","0.4028519225","","0.3579412151","","","","","",""
"126","","bandit","271","634481","0.0-233.0-0.0","23435061","wem/bandit_single","A3D3NEQ158WUB0","pain","1","","75","K","2","","0","0","1","","0.3708283831","false","196","","0.1612876033","main_expt","","0.1090796252","","0.3708283831","","0.4135102269","","","","","",""
"176","","bandit","272","636416","0.0-234.0-0.0","23435061","wem/bandit_single","A3D3NEQ158WUB0","pain","1","","76","L","3","","0","1","0","","0.4368922102","false","197","","0.1818980103","main_expt","","0.1141593934","","0.3992028251","","0.4368922102","","","","","",""
"14","","bandit","273","638192","0.0-235.0-0.0","23435061","wem/bandit_single","A3D3NEQ158WUB0","pain","1","","76","L","3","","0","0","1","","0.4329908538","false","198","","0.1426991491","main_expt","","0.1247063377","","0.3662313723","","0.4329908538","","","","","",""
"174","","bandit","274","640127","0.0-236.0-0.0","23435061","wem/bandit_single","A3D3NEQ158WUB0","pain","1","","76","L","3","","0","1","0","","0.4458308372","false","199","","0.1339470975","main_expt","","0.1324590526","","0.3667285709","","0.4458308372","","","","","",""
"94","","bandit","275","641984","0.0-237.0-0.0","23435061","wem/bandit_single","A3D3NEQ158WUB0","pain","1","","76","L","3","","0","1","0","","0.4535445428","false","200","","0.1615481579","main_expt","","0.1062358191","","0.365396467","","0.4535445428","","","","","",""
"271","","bandit","276","644016","0.0-238.0-0.0","23435061","wem/bandit_single","A3D3NEQ158WUB0","pain","1","","76","L","3","","0","0","1","","0.4258040833","false","201","","0.1889616495","main_expt","","0.1027729413","","0.3413602931","","0.4258040833","","","","","",""
"158","","bandit","277","645935","0.0-239.0-0.0","23435061","wem/bandit_single","A3D3NEQ158WUB0","pain","1","","76","L","3","","0","0","1","","0.413157784","false","202","","0.2043886565","main_expt","","0.09207086273","","0.3655369163","","0.413157784","","","","","",""
"65","","bandit","278","647761","0.0-240.0-0.0","23435061","wem/bandit_single","A3D3NEQ158WUB0","pain","1","","76","L","3","","0","0","1","","0.358983575","false","203","","0.2274570119","main_expt","","0.1409949376","","0.3301706169","","0.358983575","","","","","",""
"205","","bandit","279","649727","0.0-241.0-0.0","23435061","wem/bandit_single","A3D3NEQ158WUB0","pain","1","","76","L","3","","0","1","0","","0.3354839288","false","204","","0.1795680912","main_expt","","0.2067441942","","0.3305557625","","0.3354839288","","","","","",""
"146","","bandit","280","651632","0.0-242.0-0.0","23435061","wem/bandit_single","A3D3NEQ158WUB0","pain","1","","76","L","3","","0","0","1","","0.3814446138","false","205","","0.1823506393","main_expt","","0.2171549514","","0.3332543728","","0.3814446138","","","","","",""
"142","","bandit","281","653535","0.0-243.0-0.0","23435061","wem/bandit_single","A3D3NEQ158WUB0","pain","1","","76","L","3","","0","0","1","","0.4069937863","false","206","","0.1401809595","main_expt","","0.1399251859","","0.270761893","","0.4069937863","","","","","",""
"178","","bandit","282","655470","0.0-244.0-0.0","23435061","wem/bandit_single","A3D3NEQ158WUB0","pain","1","","75","K","2","","0","0","1","","0.2595670132","false","207","","0.1651993972","main_expt","","0.1700254018","","0.2595670132","","0.4261201247","","","","","",""
"33","","bandit","283","657262","0.0-245.0-0.0","23435061","wem/bandit_single","A3D3NEQ158WUB0","pain","1","","75","K","2","","0","0","1","","0.2772442529","false","208","","0.1803987852","main_expt","","0.1831619311","","0.2772442529","","0.4105702951","","","","","",""
"66","","bandit","284","659087","0.0-246.0-0.0","23435061","wem/bandit_single","A3D3NEQ158WUB0","pain","1","","74","J","1","","0","0","1","","0.151215806","false","209","","0.1470434113","main_expt","","0.151215806","","0.2654441326","","0.402481318","","","","","",""
"79","","bandit","285","660928","0.0-247.0-0.0","23435061","wem/bandit_single","A3D3NEQ158WUB0","pain","1","","74","J","1","","0","0","1","","0.1841878728","false","210","","0.1375860563","main_expt","","0.1841878728","","0.2475709295","","0.4378094136","","","","","",""
"177","","bandit","286","662863","0.0-248.0-0.0","23435061","wem/bandit_single","A3D3NEQ158WUB0","pain","1","","72","H","0","img/none_selected.jpg","0","0","1","","0.1181257803","false","211","","0.1181257803","main_expt","","0.190591144","","0.1836637302","","0.4174257438","","","","","",""
"31","","bandit","287","664654","0.0-249.0-0.0","23435061","wem/bandit_single","A3D3NEQ158WUB0","pain","1","","72","H","0","img/none_selected.jpg","0","0","1","","0.1284194295","false","212","","0.1284194295","main_expt","","0.2024219406","","0.2018671691","","0.4235695044","","","","","",""
"114","","bandit","288","666527","0.0-250.0-0.0","23435061","wem/bandit_single","A3D3NEQ158WUB0","pain","1","","76","L","3","","0","0","1","","0.4112054282","false","213","","0.1088774305","main_expt","","0.1985525674","","0.1807811906","","0.4112054282","","","","","",""
"112","","bandit","289","668399","0.0-251.0-0.0","23435061","wem/bandit_single","A3D3NEQ158WUB0","pain","1","","75","K","2","","0","0","1","","0.2432807767","false","214","","0.07230623063","main_expt","","0.1940352924","","0.2432807767","","0.3986702209","","","","","",""
"112","","bandit","290","670271","0.0-252.0-0.0","23435061","wem/bandit_single","A3D3NEQ158WUB0","pain","1","","76","L","3","","0","1","0","","0.4379561577","false","215","","0.07963887701","main_expt","","0.1155678072","","0.2167976264","","0.4379561577","","","","","",""
"95","","bandit","291","672128","0.0-253.0-0.0","23435061","wem/bandit_single","A3D3NEQ158WUB0","pain","1","","76","L","3","","0","0","1","","0.425003275","false","216","","0.0792987172","main_expt","","0.08288275022","","0.2963745884","","0.425003275","","","","","",""
"158","","bandit","292","674047","0.0-254.0-0.0","23435061","wem/bandit_single","A3D3NEQ158WUB0","pain","1","","76","L","3","","0","0","1","","0.4398514333","false","217","","0.07576557353","main_expt","","0.1108164962","","0.2704200786","","0.4398514333","","","","","",""
"65","","bandit","293","675872","0.0-255.0-0.0","23435061","wem/bandit_single","A3D3NEQ158WUB0","pain","1","","76","L","3","","0","0","1","","0.4307107256","false","218","","0.05946619603","main_expt","","0.1166222362","","0.2057322541","","0.4307107256","","","","","",""
"108","","bandit","294","677743","0.0-256.0-0.0","23435061","wem/bandit_single","A3D3NEQ158WUB0","pain","1","","75","K","2","","0","1","0","","0.2143414454","false","219","","0.07419684477","main_expt","","0.1441412427","","0.2143414454","","0.4236121262","","","","","",""
"144","","bandit","295","679647","0.0-257.0-0.0","23435061","wem/bandit_single","A3D3NEQ158WUB0","pain","1","","75","K","2","","0","0","1","","0.1630835619","false","220","","0.09297922461","main_expt","","0.1460318591","","0.1630835619","","0.4020148519","","","","","",""
"0","","bandit","296","681407","0.0-258.0-0.0","23435061","wem/bandit_single","A3D3NEQ158WUB0","pain","1","","75","K","2","","0","0","1","","0.1536312793","false","221","","0.1429286242","main_expt","","0.1068666799","","0.1536312793","","0.4073181559","","","","","",""
"257","","bandit","297","683422","0.0-259.0-0.0","23435061","wem/bandit_single","A3D3NEQ158WUB0","pain","1","","75","K","2","","0","1","0","","0.2214617817","false","222","","0.1708286753","main_expt","","0.1101844092","","0.2214617817","","0.3651123295","","","","","",""
"112","","bandit","298","685294","0.0-260.0-0.0","23435061","wem/bandit_single","A3D3NEQ158WUB0","pain","1","","75","K","2","","0","0","1","","0.2273662723","false","223","","0.1461267001","main_expt","","0.0707480467","","0.2273662723","","0.3836441325","","","","","",""
"114","","bandit","299","687169","0.0-261.0-0.0","23435061","wem/bandit_single","A3D3NEQ158WUB0","pain","1","","75","K","2","","0","1","0","","0.1894352557","false","224","","0.144808321","main_expt","","0.06117493494","","0.1894352557","","0.3982756155","","","","","",""
"174","","bandit","300","689103","0.0-262.0-0.0","23435061","wem/bandit_single","A3D3NEQ158WUB0","pain","1","","75","K","2","","0","0","1","","0.1292085382","false","225","","0.1890777341","main_expt","","0.0615688762","","0.1292085382","","0.3942448394","","","","","",""
"95","","bandit","301","690961","0.0-263.0-0.0","23435061","wem/bandit_single","A3D3NEQ158WUB0","pain","1","","75","K","2","","0","0","1","","0.1530858041","false","226","","0.1442837472","main_expt","","0.05052633559","","0.1530858041","","0.4169515918","","","","","",""
"175","","bandit","302","692895","0.0-264.0-0.0","23435061","wem/bandit_single","A3D3NEQ158WUB0","pain","1","","75","K","2","","0","0","1","","0.1593334253","false","227","","0.1425852804","main_expt","","0.05726050712","","0.1593334253","","0.4204191544","","","","","",""
"145","","bandit","303","694798","0.0-265.0-0.0","23435061","wem/bandit_single","A3D3NEQ158WUB0","pain","1","","76","L","3","","0","0","1","","0.4091886","false","228","","0.1116716659","main_expt","","0.0758768547","","0.1247523642","","0.4091886","","","","","",""
"64","","bandit","304","696623","0.0-266.0-0.0","23435061","wem/bandit_single","A3D3NEQ158WUB0","pain","1","","76","L","3","","0","1","0","","0.407276644","false","229","","0.1206121499","main_expt","","0.07022353505","","0.1463700977","","0.407276644","","","","","",""
"17","","bandit","305","698399","0.0-267.0-0.0","23435061","wem/bandit_single","A3D3NEQ158WUB0","pain","1","","76","L","3","","0","1","0","","0.4254558538","false","230","","0.1168532629","main_expt","","0.06577032649","","0.1402324221","","0.4254558538","","","","","",""
"143","","bandit","306","700303","0.0-268.0-0.0","23435061","wem/bandit_single","A3D3NEQ158WUB0","pain","1","","76","L","3","","0","1","0","","0.4259586803","false","231","","0.0916199044","main_expt","","0.06313303242","","0.1914784592","","0.4259586803","","","","","",""
"48","","bandit","307","702111","0.0-269.0-0.0","23435061","wem/bandit_single","A3D3NEQ158WUB0","pain","1","","76","L","3","","0","0","1","","0.4429649496","false","232","","0.09573807812","main_expt","","0.05490827263","","0.1507361932","","0.4429649496","","","","","",""
"62","","bandit","308","703935","0.0-270.0-0.0","23435061","wem/bandit_single","A3D3NEQ158WUB0","pain","1","","76","L","3","","0","0","1","","0.4456598826","false","233","","0.1246926578","main_expt","","0.04200611561","","0.1902650793","","0.4456598826","","","","","",""
"194","","bandit","309","705892","0.0-271.0-0.0","23435061","wem/bandit_single","A3D3NEQ158WUB0","pain","1","","76","L","3","","0","0","1","","0.4504169918","false","234","","0.122457211","main_expt","","0.0550058871","","0.2663902881","","0.4504169918","","","","","",""
"27","","bandit","310","707681","0.0-272.0-0.0","23435061","wem/bandit_single","A3D3NEQ158WUB0","pain","1","","74","J","1","","0","0","1","","0.06273227262","false","235","","0.1561374187","main_expt","","0.06273227262","","0.257874652","","0.4255816076","","","","","",""
"63","","bandit","311","709502","0.0-273.0-0.0","23435061","wem/bandit_single","A3D3NEQ158WUB0","pain","1","","74","J","1","","0","0","1","","0.09869136657","false","236","","0.1726763947","main_expt","","0.09869136657","","0.2134416149","","0.4262424011","","","","","",""
"15","","bandit","312","711278","0.0-274.0-0.0","23435061","wem/bandit_single","A3D3NEQ158WUB0","pain","1","","74","J","1","","0","0","1","","0.06464195797","false","237","","0.163453789","main_expt","","0.06464195797","","0.1655180868","","0.4314914545","","","","","",""
"63","","bandit","313","713101","0.0-275.0-0.0","23435061","wem/bandit_single","A3D3NEQ158WUB0","pain","1","","72","H","0","img/none_selected.jpg","0","0","1","","0.1511244057","false","238","","0.1511244057","main_expt","","0.1092425733","","0.1528926348","","0.4580147213","","","","","",""
"159","","bandit","314","715022","0.0-276.0-0.0","23435061","wem/bandit_single","A3D3NEQ158WUB0","pain","1","","72","H","0","img/none_selected.jpg","0","0","1","","0.1170855371","false","239","","0.1170855371","main_expt","","0.08920017271","","0.1594670864","","0.4437162142","","","","","",""
"1","","bandit","315","716783","0.0-277.0-0.0","23435061","wem/bandit_single","A3D3NEQ158WUB0","pain","1","","72","H","0","img/none_selected.jpg","0","1","0","","0.1281478965","false","240","","0.1281478965","main_expt","","0.138477068","","0.104293197","","0.4423909474","","","","","",""
"31","","bandit","316","718574","0.0-278.0-0.0","23435061","wem/bandit_single","A3D3NEQ158WUB0","pain","1","","72","H","0","img/none_selected.jpg","0","0","1","","0.1579661802","false","241","","0.1579661802","main_expt","","0.1249513709","","0.07968297136","","0.4542424264","","","","","",""
"15","","bandit","317","720350","0.0-279.0-0.0","23435061","wem/bandit_single","A3D3NEQ158WUB0","pain","1","","72","H","0","img/none_selected.jpg","0","0","1","","0.1345462726","false","242","","0.1345462726","main_expt","","0.09754639251","","0.07079416442","","0.4659063812","","","","","",""
"31","","bandit","318","722142","0.0-280.0-0.0","23435061","wem/bandit_single","A3D3NEQ158WUB0","pain","1","","72","H","0","img/none_selected.jpg","0","0","1","","0.1793426478","false","243","","0.1793426478","main_expt","","0.1223474156","","0.08709770617","","0.4702771719","","","","","",""
"63","","bandit","319","723965","0.0-281.0-0.0","23435061","wem/bandit_single","A3D3NEQ158WUB0","pain","1","","75","K","2","","0","0","1","","0.08252109256","false","244","","0.1623289848","main_expt","","0.1004902073","","0.08252109256","","0.4678480784","","","","","",""
"34","","bandit","320","725758","0.0-282.0-0.0","23435061","wem/bandit_single","A3D3NEQ158WUB0","pain","1","","75","K","2","","0","0","1","","0.07130924754","false","245","","0.1638267454","main_expt","","0.09372717231","","0.07130924754","","0.4608336118","","","","","",""
"95","","bandit","321","727614","0.0-283.0-0.0","23435061","wem/bandit_single","A3D3NEQ158WUB0","pain","1","","75","K","2","","0","0","1","","0.06886742221","false","246","","0.1794660524","main_expt","","0.1004977064","","0.06886742221","","0.4455928316","","","","","",""
"63","","bandit","322","729439","0.0-284.0-0.0","23435061","wem/bandit_single","A3D3NEQ158WUB0","pain","1","","76","L","3","","0","0","1","","0.4322927154","false","247","","0.1751092572","main_expt","","0.09336015453","","0.064138504","","0.4322927154","","","","","",""
"30","","bandit","323","731233","0.0-285.0-0.0","23435061","wem/bandit_single","A3D3NEQ158WUB0","pain","1","","76","L","3","","0","1","0","","0.4293825987","false","248","","0.188480637","main_expt","","0.09552903486","","0.05051083443","","0.4293825987","","","","","",""
"61","","bandit","324","733054","0.0-286.0-0.0","23435061","wem/bandit_single","A3D3NEQ158WUB0","pain","1","","76","L","3","","0","0","1","","0.4338924945","false","249","","0.1718025207","main_expt","","0.1087111068","","0.05514480776","","0.4338924945","","","","","",""
"191","","bandit","325","735008","0.0-287.0-0.0","23435061","wem/bandit_single","A3D3NEQ158WUB0","pain","1","","76","L","3","","0","0","1","","0.4356531551","false","250","","0.1377417152","main_expt","","0.08296073337","","0.02780796002","","0.4356531551","","","","","",""
"174","","bandit","326","736943","0.0-288.0-0.0","23435061","wem/bandit_single","A3D3NEQ158WUB0","pain","1","","76","L","3","","0","0","1","","0.4561881598","false","251","","0.1623098307","main_expt","","0.08988728922","","0.02786711831","","0.4561881598","","","","","",""
"270","","bandit","327","738975","0.0-289.0-0.0","23435061","wem/bandit_single","A3D3NEQ158WUB0","pain","1","","76","L","3","","0","0","1","","0.4517263236","false","252","","0.1702242208","main_expt","","0.07043490844","","0.03881205422","","0.4517263236","","","","","",""
"125","","bandit","328","740862","0.0-290.0-0.0","23435061","wem/bandit_single","A3D3NEQ158WUB0","pain","1","","74","J","1","","0","0","1","","0.06648959932","false","253","","0.1571297736","main_expt","","0.06648959932","","0.03211176865","","0.4280730872","","","","","",""
"80","","bandit","329","742702","0.0-291.0-0.0","23435061","wem/bandit_single","A3D3NEQ158WUB0","pain","1","","74","J","1","","0","0","1","","0.04750248463","false","254","","0.1311762281","main_expt","","0.04750248463","","0.02501863174","","0.3976691957","","","","","",""
"63","","bandit","330","744526","0.0-292.0-0.0","23435061","wem/bandit_single","A3D3NEQ158WUB0","pain","1","","75","K","2","","0","0","1","","0.03845468041","false","255","","0.1262313745","main_expt","","0.0685067328","","0.03845468041","","0.3920211634","","","","","",""
"48","","bandit","331","746336","0.0-293.0-0.0","23435061","wem/bandit_single","A3D3NEQ158WUB0","pain","1","","75","K","2","","0","0","1","","0.03093107714","false","256","","0.08888936201","main_expt","","0.06106940649","","0.03093107714","","0.3802568344","","","","","",""
"140","","bandit","332","748241","0.0-294.0-0.0","23435061","wem/bandit_single","A3D3NEQ158WUB0","pain","1","","75","K","2","","0","0","1","","0.02284381284","false","257","","0.1016624202","main_expt","","0.03925251802","","0.02284381284","","0.4153547565","","","","","",""
"60","","bandit","333","750062","0.0-295.0-0.0","23435061","wem/bandit_single","A3D3NEQ158WUB0","pain","1","","72","H","0","img/none_selected.jpg","0","0","1","","0.1201960749","false","258","","0.1201960749","main_expt","","0.07528758783","","0.01195927332","","0.412770775","","","","","",""
"205","","bandit","334","752030","0.0-296.0-0.0","23435061","wem/bandit_single","A3D3NEQ158WUB0","pain","1","","72","H","0","img/none_selected.jpg","0","0","1","","0.09869940493","false","259","","0.09869940493","main_expt","","0.06168900656","","0.009837890866","","0.4364469878","","","","","",""
"48","","bandit","335","753840","0.0-297.0-0.0","23435061","wem/bandit_single","A3D3NEQ158WUB0","pain","1","","72","H","0","img/none_selected.jpg","0","0","1","","0.140367269","false","260","","0.140367269","main_expt","","0.05358732337","","0.01652501309","","0.4143686848","","","","","",""
"76","","bandit","336","755678","0.0-298.0-0.0","23435061","wem/bandit_single","A3D3NEQ158WUB0","pain","1","","72","H","0","img/none_selected.jpg","0","0","1","","0.107121031","false","261","","0.107121031","main_expt","","0.05974294151","","0.0246934762","","0.3932103286","","","","","",""
"32","","bandit","337","757469","0.0-299.0-0.0","23435061","wem/bandit_single","A3D3NEQ158WUB0","pain","1","","74","J","1","","0","0","1","","0.0656558392","false","262","","0.142880744","main_expt","","0.0656558392","","0.02217338967","","0.4299042069","","","","","",""
"0","","bandit","338","759234","0.0-300.0-0.0","23435061","wem/bandit_single","A3D3NEQ158WUB0","pain","1","","74","J","1","","0","0","1","","0.08006927963","false","263","","0.1398656543","main_expt","","0.08006927963","","0.02538488248","","0.3864913748","","","","","",""
"60","","bandit","339","761054","0.0-301.0-0.0","23435061","wem/bandit_single","A3D3NEQ158WUB0","pain","1","","75","K","2","","0","0","1","","0.03542132602","false","264","","0.185630342","main_expt","","0.07803510261","","0.03542132602","","0.3721946297","","","","","",""
"240","","bandit","340","763055","0.0-302.0-0.0","23435061","wem/bandit_single","A3D3NEQ158WUB0","pain","1","","75","K","2","","0","0","1","","0.03052618628","false","265","","0.1483619715","main_expt","","0.08917846028","","0.03052618628","","0.3326379545","","","","","",""
"125","","bandit","341","764942","0.0-303.0-0.0","23435061","wem/bandit_single","A3D3NEQ158WUB0","pain","1","","76","L","3","","0","1","0","","0.3337002386","false","266","","0.1677753502","main_expt","","0.1562168236","","0.02388326919","","0.3337002386","","","","","",""
"15","","bandit","342","766717","0.0-304.0-0.0","23435061","wem/bandit_single","A3D3NEQ158WUB0","pain","1","","76","L","3","","0","0","1","","0.3044940876","false","267","","0.1748953786","main_expt","","0.1873085091","","0.01496915784","","0.3044940876","","","","","",""
"96","","bandit","343","768575","0.0-305.0-0.0","23435061","wem/bandit_single","A3D3NEQ158WUB0","pain","1","","76","L","3","","0","0","1","","0.2966269971","false","268","","0.152215306","main_expt","","0.1850807086","","0.01735494223","","0.2966269971","","","","","",""
"29","","bandit","344","770368","0.0-306.0-0.0","23435061","wem/bandit_single","A3D3NEQ158WUB0","pain","1","","76","L","3","","0","0","1","","0.2617435325","false","269","","0.1420691147","main_expt","","0.1461958128","","0.01365938384","","0.2617435325","","","","","",""
"48","","bandit","345","772175","0.0-307.0-0.0","23435061","wem/bandit_single","A3D3NEQ158WUB0","pain","1","","76","L","3","","0","0","1","","0.2599280147","false","270","","0.1338049101","main_expt","","0.1348565207","","0.01871615964","","0.2599280147","","","","","",""
"160","","bandit","346","774095","0.0-308.0-0.0","23435061","wem/bandit_single","A3D3NEQ158WUB0","pain","1","","76","L","3","","0","0","1","","0.2499936179","false","271","","0.1178923734","main_expt","","0.1588166083","","0.01663887187","","0.2499936179","","","","","",""
"159","","bandit","347","776015","0.0-309.0-0.0","23435061","wem/bandit_single","A3D3NEQ158WUB0","pain","1","","76","L","3","","0","0","1","","0.2703142459","false","272","","0.1436833609","main_expt","","0.1288650497","","0.01973971225","","0.2703142459","","","","","",""
"208","","bandit","348","777984","0.0-310.0-0.0","23435061","wem/bandit_single","A3D3NEQ158WUB0","pain","1","","74","J","1","","0","0","1","","0.1414039315","false","273","","0.1917782062","main_expt","","0.1414039315","","0.01954424634","","0.2835249431","","","","","",""
"63","","bandit","349","779807","0.0-311.0-0.0","23435061","wem/bandit_single","A3D3NEQ158WUB0","pain","1","","74","J","1","","0","0","1","","0.1132613661","false","274","","0.1657285368","main_expt","","0.1132613661","","0.008862655739","","0.2906451875","","","","","",""
"45","","bandit","350","781616","0.0-312.0-0.0","23435061","wem/bandit_single","A3D3NEQ158WUB0","pain","1","","75","K","2","","0","0","1","","0.0094605031","false","275","","0.1420329436","main_expt","","0.1396690899","","0.0094605031","","0.2670480505","","","","","",""
"13","","bandit","351","783390","0.0-313.0-0.0","23435061","wem/bandit_single","A3D3NEQ158WUB0","pain","1","","75","K","2","","0","0","1","","0.01191149084","false","276","","0.1369756733","main_expt","","0.1109816737","","0.01191149084","","0.2358592403","","","","","",""
"79","","bandit","352","785232","0.0-314.0-0.0","23435061","wem/bandit_single","A3D3NEQ158WUB0","pain","1","","75","K","2","","0","0","1","","0.00904810236","false","277","","0.1781068979","main_expt","","0.08046464388","","0.00904810236","","0.1877967456","","","","","",""
"11","","bandit","353","787006","0.0-315.0-0.0","23435061","wem/bandit_single","A3D3NEQ158WUB0","pain","1","","75","K","2","","0","0","1","","0.007795284796","false","278","","0.248352092","main_expt","","0.07407019324","","0.007795284796","","0.1537245983","","","","","",""
"126","","bandit","354","788896","0.0-316.0-0.0","23435061","wem/bandit_single","A3D3NEQ158WUB0","pain","1","","72","H","0","img/none_selected.jpg","0","1","0","","0.263219496","false","279","","0.263219496","main_expt","","0.06478755197","","0.01747653863","","0.1662011111","","","","","",""
"30","","bandit","355","790687","0.0-317.0-0.0","23435061","wem/bandit_single","A3D3NEQ158WUB0","pain","1","","72","H","0","img/none_selected.jpg","0","0","1","","0.210776847","false","280","","0.210776847","main_expt","","0.04895059186","","0.02326096521","","0.1622625537","","","","","",""
"47","","bandit","356","792495","0.0-318.0-0.0","23435061","wem/bandit_single","A3D3NEQ158WUB0","pain","1","","72","H","0","img/none_selected.jpg","0","0","1","","0.1901401854","false","281","","0.1901401854","main_expt","","0.04598133094","","0.03290281633","","0.2160365104","","","","","",""
"127","","bandit","357","794383","0.0-319.0-0.0","23435061","wem/bandit_single","A3D3NEQ158WUB0","pain","1","","72","H","0","img/none_selected.jpg","0","1","0","","0.1692674388","false","282","","0.1692674388","main_expt","","0.0454431083","","0.03647511751","","0.2031844556","","","","","",""
"239","","bandit","358","796382","0.0-320.0-0.0","23435061","wem/bandit_single","A3D3NEQ158WUB0","pain","1","","72","H","0","img/none_selected.jpg","0","0","1","","0.1697823826","false","283","","0.1697823826","main_expt","","0.0377119091","","0.0381479171","","0.236778666","","","","","",""
"158","","bandit","359","798302","0.0-321.0-0.0","23435061","wem/bandit_single","A3D3NEQ158WUB0","pain","1","","72","H","0","img/none_selected.jpg","0","1","0","","0.1647860582","false","284","","0.1647860582","main_expt","","0.0346676025","","0.04237273713","","0.2082896542","","","","","",""
"193","","bandit","360","800256","0.0-322.0-0.0","23435061","wem/bandit_single","A3D3NEQ158WUB0","pain","1","","72","H","0","img/none_selected.jpg","0","0","1","","0.2346467376","false","285","","0.2346467376","main_expt","","0.03394591187","","0.08736605616","","0.1682052712","","","","","",""
"110","","bandit","361","802127","0.0-323.0-0.0","23435061","wem/bandit_single","A3D3NEQ158WUB0","pain","1","","72","H","0","img/none_selected.jpg","0","0","1","","0.1651037306","false","286","","0.1651037306","main_expt","","0.03437308726","","0.149418319","","0.1287852917","","","","","",""
"47","","bandit","362","803936","0.0-324.0-0.0","23435061","wem/bandit_single","A3D3NEQ158WUB0","pain","1","","72","H","0","img/none_selected.jpg","0","1","0","","0.113933185","false","287","","0.113933185","main_expt","","0.043905831","","0.2149685411","","0.0739145169","","","","","",""
"237","","bandit","363","805936","0.0-325.0-0.0","23435061","wem/bandit_single","A3D3NEQ158WUB0","pain","1","","72","H","0","img/none_selected.jpg","0","0","1","","0.08260993421","false","288","","0.08260993421","main_expt","","0.02064047927","","0.181398065","","0.08295252225","","","","","",""
"28","","bandit","364","807727","0.0-326.0-0.0","23435061","wem/bandit_single","A3D3NEQ158WUB0","pain","1","","72","H","0","img/none_selected.jpg","0","0","1","","0.07260323305","false","289","","0.07260323305","main_expt","","0.0250169619","","0.1523032639","","0.0479508895","","","","","",""
"95","","bandit","365","809585","0.0-327.0-0.0","23435061","wem/bandit_single","A3D3NEQ158WUB0","pain","1","","74","J","1","","0","0","1","","0.04785043425","false","290","","0.06306400378","main_expt","","0.04785043425","","0.1404761367","","0.05498143303","","","","","",""
"78","","bandit","366","811424","0.0-328.0-0.0","23435061","wem/bandit_single","A3D3NEQ158WUB0","pain","1","","72","H","0","img/none_selected.jpg","0","0","1","","0.06173149747","false","291","","0.06173149747","main_expt","","0.05997729544","","0.1639955189","","0.06238518006","","","","","",""
"141","","bandit","367","813328","0.0-329.0-0.0","23435061","wem/bandit_single","A3D3NEQ158WUB0","pain","1","","75","K","2","","0","0","1","","0.1365824739","false","292","","0.049421281","main_expt","","0.08013724224","","0.1365824739","","0.06246846358","","","","","",""
"29","","bandit","368","815120","0.0-330.0-0.0","23435061","wem/bandit_single","A3D3NEQ158WUB0","pain","1","","76","L","3","","0","1","0","","0.0635142122","false","293","","0.04661139695","main_expt","","0.08257915178","","0.2190436779","","0.0635142122","","","","","",""
"30","","bandit","369","816912","0.0-331.0-0.0","23435061","wem/bandit_single","A3D3NEQ158WUB0","pain","1","","76","L","3","","0","0","1","","0.1078883856","false","294","","0.05266196286","main_expt","","0.07979116831","","0.2961987497","","0.1078883856","","","","","",""
"30","","bandit","370","818703","0.0-332.0-0.0","23435061","wem/bandit_single","A3D3NEQ158WUB0","pain","1","","76","L","3","","0","0","1","","0.1065048767","false","295","","0.0541153793","main_expt","","0.1168190604","","0.3422413176","","0.1065048767","","","","","",""
"191","","bandit","371","820655","0.0-333.0-0.0","23435061","wem/bandit_single","A3D3NEQ158WUB0","pain","1","","76","L","3","","0","0","1","","0.1528862056","false","296","","0.03514166697","main_expt","","0.1280513587","","0.3023757447","","0.1528862056","","","","","",""
"77","","bandit","372","822494","0.0-334.0-0.0","23435061","wem/bandit_single","A3D3NEQ158WUB0","pain","1","","75","K","2","","0","1","0","","0.3744966898","false","297","","0.0293008482","main_expt","","0.1545711336","","0.3744966898","","0.1655716118","","","","","",""
"144","","bandit","373","824398","0.0-335.0-0.0","23435061","wem/bandit_single","A3D3NEQ158WUB0","pain","1","","75","K","2","","0","1","0","","0.3702548021","false","298","","0.03311380314","main_expt","","0.1485956324","","0.3702548021","","0.1725180782","","","","","",""
