"rt","responses","trial_type","trial_index","time_elapsed","internal_node_id","subjID","study","MID","cond","drift","key_press","respCharCode","respKey","respChoiceNum","respChoice","gems","bombs","no_reward","GemPrChosen","BombPrChosen","practice","trial_counter","WinPr_0","LosePr_0","trial_label","WinPr_1","LosePr_1","WinPr_2","LosePr_2","WinPr_3","LosePr_3","Q0","Q1","Q2","gender","age","ethnicity"
"7418","{""Q0"":""AAS0V105QISPM""}","survey-text","0","7424","0.0-0.0","24379397","wem/bandit_single","AAS0V105QISPM","pain","3","","","","","","","","","","","","","","","","","","","","","","","","","","",""
"2313","","text","1","10742","0.0-1.0","24379397","wem/bandit_single","AAS0V105QISPM","pain","3","32","","","","","","","","","","","","","","","","","","","","","","","","","",""
"5714","","text","2","16458","0.0-2.0","24379397","wem/bandit_single","AAS0V105QISPM","pain","3","32","","","","","","","","","","","","","","","","","","","","","","","","","",""
"18115","","text","3","34574","0.0-3.0","24379397","wem/bandit_single","AAS0V105QISPM","pain","3","32","","","","","","","","","","","","","","","","","","","","","","","","","",""
"13592","","text","4","48167","0.0-4.0","24379397","wem/bandit_single","AAS0V105QISPM","pain","3","32","","","","","","","","","","","","","","","","","","","","","","","","","",""
"8966","","text","5","57133","0.0-5.0","24379397","wem/bandit_single","AAS0V105QISPM","pain","3","32","","","","","","","","","","","","","","","","","","","","","","","","","",""
"7235","","text","6","64370","0.0-6.0","24379397","wem/bandit_single","AAS0V105QISPM","pain","3","32","","","","","","","","","","","","","","","","","","","","","","","","","",""
"3315","","text","7","67687","0.0-7.0","24379397","wem/bandit_single","AAS0V105QISPM","pain","3","32","","","","","","","","","","","","","","","","","","","","","","","","","",""
"3333","","text","8","71024","0.0-8.0","24379397","wem/bandit_single","AAS0V105QISPM","pain","3","32","","","","","","","","","","","","","","","","","","","","","","","","","",""
"3117","","text","9","74143","0.0-9.0","24379397","wem/bandit_single","AAS0V105QISPM","pain","3","32","","","","","","","","","","","","","","","","","","","","","","","","","",""
"10997","","text","10","85142","0.0-10.0","24379397","wem/bandit_single","AAS0V105QISPM","pain","3","32","","","","","","","","","","","","","","","","","","","","","","","","","",""
"5022","","text","11","90164","0.0-11.0","24379397","wem/bandit_single","AAS0V105QISPM","pain","3","32","","","","","","","","","","","","","","","","","","","","","","","","","",""
"2399","","bandit","12","94070","0.0-12.0-0.0","24379397","wem/bandit_single","AAS0V105QISPM","pain","3","","74","J","0","img/none_selected_demo.jpg","0","0","1","0","0","true","0","0","0","","","","","","","","","","","","",""
"650","","bandit","13","96476","0.0-13.0-0.0","24379397","wem/bandit_single","AAS0V105QISPM","pain","3","","75","K","0","img/none_selected_demo.jpg","0","0","1","0","0","true","0","0","0","","","","","","","","","","","","",""
"1997","","text","14","98726","0.0-14.0","24379397","wem/bandit_single","AAS0V105QISPM","pain","3","32","","","","","","","","","","","","","","","","","","","","","","","","","",""
"1743","","text","15","100471","0.0-15.0","24379397","wem/bandit_single","AAS0V105QISPM","pain","3","32","","","","","","","","","","","","","","","","","","","","","","","","","",""
"3262","","text","16","103735","0.0-16.0","24379397","wem/bandit_single","AAS0V105QISPM","pain","3","32","","","","","","","","","","","","","","","","","","","","","","","","","",""
"2573","","text","17","106310","0.0-17.0","24379397","wem/bandit_single","AAS0V105QISPM","pain","3","32","","","","","","","","","","","","","","","","","","","","","","","","","",""
"1614","","bandit","18","109429","0.0-18.0-0.0","24379397","wem/bandit_single","AAS0V105QISPM","pain","3","","74","J","0","img/none_selected_demo.jpg","0","0","1","0","0.8","true","0","0","0.8","80_20_practice","0","0.2","","","","","","","","","",""
"387","","bandit","19","111572","0.0-18.0-1.0","24379397","wem/bandit_single","AAS0V105QISPM","pain","3","","74","J","0","img/none_selected_demo.jpg","0","1","0","0","0.8","true","0","0","0.8","80_20_practice","0","0.2","","","","","","","","","",""
"277","","bandit","20","113603","0.0-18.0-2.0","24379397","wem/bandit_single","AAS0V105QISPM","pain","3","","74","J","0","img/none_selected_demo.jpg","0","0","1","0","0.8","true","0","0","0.8","80_20_practice","0","0.2","","","","","","","","","",""
"194","","bandit","21","115554","0.0-18.0-3.0","24379397","wem/bandit_single","AAS0V105QISPM","pain","3","","74","J","0","img/none_selected_demo.jpg","0","1","0","0","0.8","true","0","0","0.8","80_20_practice","0","0.2","","","","","","","","","",""
"61","","bandit","22","117373","0.0-18.0-4.0","24379397","wem/bandit_single","AAS0V105QISPM","pain","3","","74","J","0","img/none_selected_demo.jpg","0","1","0","0","0.8","true","0","0","0.8","80_20_practice","0","0.2","","","","","","","","","",""
"175","","bandit","23","119304","0.0-18.0-5.0","24379397","wem/bandit_single","AAS0V105QISPM","pain","3","","74","J","0","img/none_selected_demo.jpg","0","1","0","0","0.8","true","0","0","0.8","80_20_practice","0","0.2","","","","","","","","","",""
"219","","bandit","24","121277","0.0-18.0-6.0","24379397","wem/bandit_single","AAS0V105QISPM","pain","3","","74","J","0","img/none_selected_demo.jpg","0","1","0","0","0.8","true","0","0","0.8","80_20_practice","0","0.2","","","","","","","","","",""
"65","","bandit","25","123100","0.0-18.0-7.0","24379397","wem/bandit_single","AAS0V105QISPM","pain","3","","74","J","0","img/none_selected_demo.jpg","0","1","0","0","0.8","true","0","0","0.8","80_20_practice","0","0.2","","","","","","","","","",""
"3","","bandit","26","124858","0.0-18.0-8.0","24379397","wem/bandit_single","AAS0V105QISPM","pain","3","","74","J","0","img/none_selected_demo.jpg","0","1","0","0","0.8","true","0","0","0.8","80_20_practice","0","0.2","","","","","","","","","",""
"37","","bandit","27","126652","0.0-18.0-9.0","24379397","wem/bandit_single","AAS0V105QISPM","pain","3","","74","J","0","img/none_selected_demo.jpg","0","0","1","0","0.8","true","0","0","0.8","80_20_practice","0","0.2","","","","","","","","","",""
"68","","bandit","28","128476","0.0-18.0-10.0","24379397","wem/bandit_single","AAS0V105QISPM","pain","3","","75","K","1","","0","0","1","0","0.2","true","0","0","0.8","80_20_practice","0","0.2","","","","","","","","","",""
"54","","bandit","29","130287","0.0-18.0-11.0","24379397","wem/bandit_single","AAS0V105QISPM","pain","3","","75","K","1","","0","0","1","0","0.2","true","0","0","0.8","80_20_practice","0","0.2","","","","","","","","","",""
"47","","bandit","30","132092","0.0-18.0-12.0","24379397","wem/bandit_single","AAS0V105QISPM","pain","3","","75","K","1","","0","0","1","0","0.2","true","0","0","0.8","80_20_practice","0","0.2","","","","","","","","","",""
"634","","bandit","31","134487","0.0-18.0-13.0","24379397","wem/bandit_single","AAS0V105QISPM","pain","3","","74","J","0","img/none_selected_demo.jpg","0","0","1","0","0.8","true","0","0","0.8","80_20_practice","0","0.2","","","","","","","","","",""
"118","","bandit","32","136364","0.0-18.0-14.0","24379397","wem/bandit_single","AAS0V105QISPM","pain","3","","74","J","0","img/none_selected_demo.jpg","0","1","0","0","0.8","true","0","0","0.8","80_20_practice","0","0.2","","","","","","","","","",""
"491","","bandit","33","138613","0.0-18.0-15.0","24379397","wem/bandit_single","AAS0V105QISPM","pain","3","","74","J","0","img/none_selected_demo.jpg","0","0","1","0","0.8","true","0","0","0.8","80_20_practice","0","0.2","","","","","","","","","",""
"479","","bandit","34","140849","0.0-18.0-16.0","24379397","wem/bandit_single","AAS0V105QISPM","pain","3","","74","J","0","img/none_selected_demo.jpg","0","1","0","0","0.8","true","0","0","0.8","80_20_practice","0","0.2","","","","","","","","","",""
"1111","","bandit","35","143716","0.0-18.0-17.0","24379397","wem/bandit_single","AAS0V105QISPM","pain","3","","74","J","0","img/none_selected_demo.jpg","0","1","0","0","0.8","true","0","0","0.8","80_20_practice","0","0.2","","","","","","","","","",""
"972","","bandit","36","146445","0.0-18.0-18.0","24379397","wem/bandit_single","AAS0V105QISPM","pain","3","","74","J","0","img/none_selected_demo.jpg","0","1","0","0","0.8","true","0","0","0.8","80_20_practice","0","0.2","","","","","","","","","",""
"3795","","bandit","37","151999","0.0-18.0-19.0","24379397","wem/bandit_single","AAS0V105QISPM","pain","3","","74","J","0","img/none_selected_demo.jpg","0","0","1","0","0.8","true","0","0","0.8","80_20_practice","0","0.2","","","","","","","","","",""
"2939","","text","38","155191","0.0-19.0","24379397","wem/bandit_single","AAS0V105QISPM","pain","3","32","","","","","","","","","","","","","","","","","","","","","","","","","",""
"1228","","bandit","39","157925","0.0-20.0-0.0","24379397","wem/bandit_single","AAS0V105QISPM","pain","3","","74","J","0","img/none_selected_demo.jpg","0","0","1","0","0","true","0","0","0","","0","0","","","","","","","","","",""
"8767","","text","40","166946","0.0-21.0","24379397","wem/bandit_single","AAS0V105QISPM","pain","3","32","","","","","","","","","","","","","","","","","","","","","","","","","",""
"3383","","text","41","170332","0.0-22.0","24379397","wem/bandit_single","AAS0V105QISPM","pain","3","32","","","","","","","","","","","","","","","","","","","","","","","","","",""
"2783","","text","42","173116","0.0-23.0","24379397","wem/bandit_single","AAS0V105QISPM","pain","3","32","","","","","","","","","","","","","","","","","","","","","","","","","",""
"2960","","text","43","176078","0.0-24.0","24379397","wem/bandit_single","AAS0V105QISPM","pain","3","32","","","","","","","","","","","","","","","","","","","","","","","","","",""
"4024","","text","44","180105","0.0-25.0","24379397","wem/bandit_single","AAS0V105QISPM","pain","3","32","","","","","","","","","","","","","","","","","","","","","","","","","",""
"3938","","text","45","184045","0.0-26.0","24379397","wem/bandit_single","AAS0V105QISPM","pain","3","32","","","","","","","","","","","","","","","","","","","","","","","","","",""
"4516","","text","46","188564","0.0-27.0","24379397","wem/bandit_single","AAS0V105QISPM","pain","3","32","","","","","","","","","","","","","","","","","","","","","","","","","",""
"3115","","text","47","191681","0.0-28.0","24379397","wem/bandit_single","AAS0V105QISPM","pain","3","32","","","","","","","","","","","","","","","","","","","","","","","","","",""
"3802","","text","48","195485","0.0-29.0","24379397","wem/bandit_single","AAS0V105QISPM","pain","3","32","","","","","","","","","","","","","","","","","","","","","","","","","",""
"1772","","text","49","197259","0.0-30.0","24379397","wem/bandit_single","AAS0V105QISPM","pain","3","32","","","","","","","","","","","","","","","","","","","","","","","","","",""
"3873","","text","50","201134","0.0-31.0","24379397","wem/bandit_single","AAS0V105QISPM","pain","3","32","","","","","","","","","","","","","","","","","","","","","","","","","",""
"739","","bandit","51","203380","0.0-32.0-0.0","24379397","wem/bandit_single","AAS0V105QISPM","pain","3","","72","H","0","img/none_selected.jpg","0","1","0","0","0.8","true","0","0","0.8","full_practice","0","0.2","0","0.6","0","0.2","","","","","",""
"376","","bandit","52","205516","0.0-32.0-1.0","24379397","wem/bandit_single","AAS0V105QISPM","pain","3","","72","H","0","img/none_selected.jpg","0","1","0","0","0.8","true","0","0","0.8","full_practice","0","0.2","0","0.6","0","0.2","","","","","",""
"79","","bandit","53","207355","0.0-32.0-2.0","24379397","wem/bandit_single","AAS0V105QISPM","pain","3","","72","H","0","img/none_selected.jpg","0","0","1","0","0.8","true","0","0","0.8","full_practice","0","0.2","0","0.6","0","0.2","","","","","",""
"24","","bandit","54","209139","0.0-32.0-3.0","24379397","wem/bandit_single","AAS0V105QISPM","pain","3","","72","H","0","img/none_selected.jpg","0","1","0","0","0.8","true","0","0","0.8","full_practice","0","0.2","0","0.6","0","0.2","","","","","",""
"714","","bandit","55","211612","0.0-32.0-4.0","24379397","wem/bandit_single","AAS0V105QISPM","pain","3","","72","H","0","img/none_selected.jpg","0","1","0","0","0.8","true","0","0","0.8","full_practice","0","0.2","0","0.6","0","0.2","","","","","",""
"18","","bandit","56","213390","0.0-32.0-5.0","24379397","wem/bandit_single","AAS0V105QISPM","pain","3","","72","H","0","img/none_selected.jpg","0","1","0","0","0.8","true","0","0","0.8","full_practice","0","0.2","0","0.6","0","0.2","","","","","",""
"31","","bandit","57","215178","0.0-32.0-6.0","24379397","wem/bandit_single","AAS0V105QISPM","pain","3","","72","H","0","img/none_selected.jpg","0","1","0","0","0.8","true","0","0","0.8","full_practice","0","0.2","0","0.6","0","0.2","","","","","",""
"20","","bandit","58","216955","0.0-32.0-7.0","24379397","wem/bandit_single","AAS0V105QISPM","pain","3","","72","H","0","img/none_selected.jpg","0","1","0","0","0.8","true","0","0","0.8","full_practice","0","0.2","0","0.6","0","0.2","","","","","",""
"99","","bandit","59","218813","0.0-32.0-8.0","24379397","wem/bandit_single","AAS0V105QISPM","pain","3","","72","H","0","img/none_selected.jpg","0","0","1","0","0.8","true","0","0","0.8","full_practice","0","0.2","0","0.6","0","0.2","","","","","",""
"424","","bandit","60","220996","0.0-32.0-9.0","24379397","wem/bandit_single","AAS0V105QISPM","pain","3","","74","J","1","","0","0","1","0","0.2","true","0","0","0.8","full_practice","0","0.2","0","0.6","0","0.2","","","","","",""
"321","","bandit","61","223076","0.0-32.0-10.0","24379397","wem/bandit_single","AAS0V105QISPM","pain","3","","74","J","1","","0","0","1","0","0.2","true","0","0","0.8","full_practice","0","0.2","0","0.6","0","0.2","","","","","",""
"34","","bandit","62","224868","0.0-32.0-11.0","24379397","wem/bandit_single","AAS0V105QISPM","pain","3","","75","K","2","","0","1","0","0","0.6","true","0","0","0.8","full_practice","0","0.2","0","0.6","0","0.2","","","","","",""
"57","","bandit","63","226685","0.0-32.0-12.0","24379397","wem/bandit_single","AAS0V105QISPM","pain","3","","75","K","2","","0","1","0","0","0.6","true","0","0","0.8","full_practice","0","0.2","0","0.6","0","0.2","","","","","",""
"34","","bandit","64","228474","0.0-32.0-13.0","24379397","wem/bandit_single","AAS0V105QISPM","pain","3","","75","K","2","","0","1","0","0","0.6","true","0","0","0.8","full_practice","0","0.2","0","0.6","0","0.2","","","","","",""
"28","","bandit","65","230259","0.0-32.0-14.0","24379397","wem/bandit_single","AAS0V105QISPM","pain","3","","75","K","2","","0","1","0","0","0.6","true","0","0","0.8","full_practice","0","0.2","0","0.6","0","0.2","","","","","",""
"476","","bandit","66","232492","0.0-32.0-15.0","24379397","wem/bandit_single","AAS0V105QISPM","pain","3","","75","K","2","","0","1","0","0","0.6","true","0","0","0.8","full_practice","0","0.2","0","0.6","0","0.2","","","","","",""
"50","","bandit","67","234300","0.0-32.0-16.0","24379397","wem/bandit_single","AAS0V105QISPM","pain","3","","75","K","2","","0","1","0","0","0.6","true","0","0","0.8","full_practice","0","0.2","0","0.6","0","0.2","","","","","",""
"34","","bandit","68","236095","0.0-32.0-17.0","24379397","wem/bandit_single","AAS0V105QISPM","pain","3","","75","K","2","","0","1","0","0","0.6","true","0","0","0.8","full_practice","0","0.2","0","0.6","0","0.2","","","","","",""
"17","","bandit","69","237868","0.0-32.0-18.0","24379397","wem/bandit_single","AAS0V105QISPM","pain","3","","75","K","2","","0","1","0","0","0.6","true","0","0","0.8","full_practice","0","0.2","0","0.6","0","0.2","","","","","",""
"49","","bandit","70","239675","0.0-32.0-19.0","24379397","wem/bandit_single","AAS0V105QISPM","pain","3","","75","K","2","","0","1","0","0","0.6","true","0","0","0.8","full_practice","0","0.2","0","0.6","0","0.2","","","","","",""
"2255","","text","71","242190","0.0-33.0","24379397","wem/bandit_single","AAS0V105QISPM","pain","3","32","","","","","","","","","","","","","","","","","","","","","","","","","",""
"13459","","text","72","256655","0.0-34.0","24379397","wem/bandit_single","AAS0V105QISPM","pain","3","32","","","","","","","","","","","","","","","","","","","","","","","","","",""
"6427","","text","73","263086","0.0-35.0","24379397","wem/bandit_single","AAS0V105QISPM","pain","3","32","","","","","","","","","","","","","","","","","","","","","","","","","",""
"4375","","text","74","267466","0.0-36.0","24379397","wem/bandit_single","AAS0V105QISPM","pain","3","32","","","","","","","","","","","","","","","","","","","","","","","","","",""
"4504","","text","75","271975","0.0-37.0","24379397","wem/bandit_single","AAS0V105QISPM","pain","3","32","","","","","","","","","","","","","","","","","","","","","","","","","",""
"3296","","bandit","76","276780","0.0-38.0-0.0","24379397","wem/bandit_single","AAS0V105QISPM","pain","3","","72","H","0","img/none_selected.jpg","0","0","1","","0.2015711498","false","1","","0.2015711498","main_expt","","0.2211287853","","0.06813583588","","0.3417032333","","","","","",""
"392","","bandit","77","278932","0.0-39.0-0.0","24379397","wem/bandit_single","AAS0V105QISPM","pain","3","","72","H","0","img/none_selected.jpg","0","0","1","","0.1868286341","false","2","","0.1868286341","main_expt","","0.2921894834","","0.08840771113","","0.3935143322","","","","","",""
"456","","bandit","78","281143","0.0-40.0-0.0","24379397","wem/bandit_single","AAS0V105QISPM","pain","3","","72","H","0","img/none_selected.jpg","0","0","1","","0.2285659085","false","3","","0.2285659085","main_expt","","0.2712314767","","0.14311428","","0.3247841161","","","","","",""
"417","","bandit","79","283318","0.0-41.0-0.0","24379397","wem/bandit_single","AAS0V105QISPM","pain","3","","74","J","1","","0","1","0","","0.3501044345","false","4","","0.2587006496","main_expt","","0.3501044345","","0.1389033164","","0.3524809632","","","","","",""
"25","","bandit","80","285102","0.0-42.0-0.0","24379397","wem/bandit_single","AAS0V105QISPM","pain","3","","74","J","1","","0","1","0","","0.3826883046","false","5","","0.2238216231","main_expt","","0.3826883046","","0.1064755534","","0.3243282494","","","","","",""
"33","","bandit","81","286893","0.0-43.0-0.0","24379397","wem/bandit_single","AAS0V105QISPM","pain","3","","74","J","1","","0","0","1","","0.3538977559","false","6","","0.2114086621","main_expt","","0.3538977559","","0.07607549968","","0.3856520047","","","","","",""
"42","","bandit","82","288692","0.0-44.0-0.0","24379397","wem/bandit_single","AAS0V105QISPM","pain","3","","74","J","1","","0","0","1","","0.3911179113","false","7","","0.225256176","main_expt","","0.3911179113","","0.0490522351","","0.3595299576","","","","","",""
"39","","bandit","83","290489","0.0-45.0-0.0","24379397","wem/bandit_single","AAS0V105QISPM","pain","3","","74","J","1","","0","0","1","","0.3378010318","false","8","","0.1920600422","main_expt","","0.3378010318","","0.04564729275","","0.2908809246","","","","","",""
"44","","bandit","84","292292","0.0-46.0-0.0","24379397","wem/bandit_single","AAS0V105QISPM","pain","3","","75","K","2","","0","0","1","","0.05361883364","false","9","","0.222474992","main_expt","","0.3584091786","","0.05361883364","","0.3401169694","","","","","",""
"48","","bandit","85","294099","0.0-47.0-0.0","24379397","wem/bandit_single","AAS0V105QISPM","pain","3","","75","K","2","","0","0","1","","0.05689605437","false","10","","0.1720297318","main_expt","","0.3822252457","","0.05689605437","","0.370347707","","","","","",""
"24","","bandit","86","295882","0.0-48.0-0.0","24379397","wem/bandit_single","AAS0V105QISPM","pain","3","","75","K","2","","0","0","1","","0.05596529361","false","11","","0.1672236423","main_expt","","0.4003480189","","0.05596529361","","0.3385652673","","","","","",""
"66","","bandit","87","297707","0.0-49.0-0.0","24379397","wem/bandit_single","AAS0V105QISPM","pain","3","","76","L","3","","0","1","0","","0.3433253296","false","12","","0.1908353862","main_expt","","0.4035898181","","0.07455145674","","0.3433253296","","","","","",""
"610","","bandit","88","300075","0.0-50.0-0.0","24379397","wem/bandit_single","AAS0V105QISPM","pain","3","","76","L","3","","0","1","0","","0.3306460316","false","13","","0.1373256951","main_expt","","0.3939267589","","0.1061797552","","0.3306460316","","","","","",""
"59","","bandit","89","301892","0.0-51.0-0.0","24379397","wem/bandit_single","AAS0V105QISPM","pain","3","","76","L","3","","0","0","1","","0.3423394156","false","14","","0.1605467602","main_expt","","0.4058751809","","0.09003395111","","0.3423394156","","","","","",""
"157","","bandit","90","303806","0.0-52.0-0.0","24379397","wem/bandit_single","AAS0V105QISPM","pain","3","","76","L","3","","0","0","1","","0.3514631564","false","15","","0.1270826231","main_expt","","0.3784768297","","0.09190110762","","0.3514631564","","","","","",""
"153","","bandit","91","305716","0.0-53.0-0.0","24379397","wem/bandit_single","AAS0V105QISPM","pain","3","","76","L","3","","0","0","1","","0.3763865137","false","16","","0.1659789958","main_expt","","0.3742197382","","0.1119147711","","0.3763865137","","","","","",""
"27","","bandit","92","307499","0.0-54.0-0.0","24379397","wem/bandit_single","AAS0V105QISPM","pain","3","","76","L","3","","0","1","0","","0.3613216018","false","17","","0.1810296119","main_expt","","0.3738750299","","0.1268228496","","0.3613216018","","","","","",""
"35","","bandit","93","309291","0.0-55.0-0.0","24379397","wem/bandit_single","AAS0V105QISPM","pain","3","","76","L","3","","0","0","1","","0.3354311471","false","18","","0.2209588372","main_expt","","0.30878177","","0.160542793","","0.3354311471","","","","","",""
"79","","bandit","94","311131","0.0-56.0-0.0","24379397","wem/bandit_single","AAS0V105QISPM","pain","3","","72","H","0","img/none_selected.jpg","0","0","1","","0.1577150754","false","19","","0.1577150754","main_expt","","0.3257740717","","0.1913020378","","0.3151580681","","","","","",""
"1148","","bandit","95","314040","0.0-57.0-0.0","24379397","wem/bandit_single","AAS0V105QISPM","pain","3","","74","J","1","","0","1","0","","0.2780557495","false","20","","0.2368366468","main_expt","","0.2780557495","","0.2201213849","","0.2633525784","","","","","",""
"124","","bandit","96","315925","0.0-58.0-0.0","24379397","wem/bandit_single","AAS0V105QISPM","pain","3","","74","J","1","","0","0","1","","0.2552615423","false","21","","0.1692925459","main_expt","","0.2552615423","","0.1747441944","","0.2730255539","","","","","",""
"33","","bandit","97","317715","0.0-59.0-0.0","24379397","wem/bandit_single","AAS0V105QISPM","pain","3","","74","J","1","","0","0","1","","0.2862558775","false","22","","0.144462955","main_expt","","0.2862558775","","0.1407764438","","0.2366183143","","","","","",""
"76","","bandit","98","319547","0.0-60.0-0.0","24379397","wem/bandit_single","AAS0V105QISPM","pain","3","","76","L","3","","0","1","0","","0.2193011186","false","23","","0.1928882479","main_expt","","0.290674517","","0.1444197889","","0.2193011186","","","","","",""
"67","","bandit","99","321372","0.0-61.0-0.0","24379397","wem/bandit_single","AAS0V105QISPM","pain","3","","76","L","3","","0","0","1","","0.2058852999","false","24","","0.2077361259","main_expt","","0.2669553567","","0.1898422889","","0.2058852999","","","","","",""
"103","","bandit","100","323235","0.0-62.0-0.0","24379397","wem/bandit_single","AAS0V105QISPM","pain","3","","76","L","3","","0","0","1","","0.2377147794","false","25","","0.2580980749","main_expt","","0.2134469473","","0.2319991336","","0.2377147794","","","","","",""
"69","","bandit","101","325061","0.0-63.0-0.0","24379397","wem/bandit_single","AAS0V105QISPM","pain","3","","72","H","0","img/none_selected.jpg","0","0","1","","0.2593960467","false","26","","0.2593960467","main_expt","","0.2027981442","","0.2140617454","","0.3017638279","","","","","",""
"61","","bandit","102","326883","0.0-64.0-0.0","24379397","wem/bandit_single","AAS0V105QISPM","pain","3","","74","J","1","","0","0","1","","0.1669761534","false","27","","0.2913294918","main_expt","","0.1669761534","","0.2186733942","","0.2647551657","","","","","",""
"60","","bandit","103","328701","0.0-65.0-0.0","24379397","wem/bandit_single","AAS0V105QISPM","pain","3","","74","J","1","","0","0","1","","0.1301617017","false","28","","0.2838721205","main_expt","","0.1301617017","","0.2573772923","","0.2864353885","","","","","",""
"382","","bandit","104","330845","0.0-66.0-0.0","24379397","wem/bandit_single","AAS0V105QISPM","pain","3","","75","K","2","","0","0","1","","0.2563684882","false","29","","0.2225595658","main_expt","","0.1540227795","","0.2563684882","","0.2669447337","","","","","",""
"119","","bandit","105","332724","0.0-67.0-0.0","24379397","wem/bandit_single","AAS0V105QISPM","pain","3","","75","K","2","","0","1","0","","0.3180657859","false","30","","0.2450998207","main_expt","","0.1290956128","","0.3180657859","","0.242519946","","","","","",""
"90","","bandit","106","334570","0.0-68.0-0.0","24379397","wem/bandit_single","AAS0V105QISPM","pain","3","","75","K","2","","0","0","1","","0.3391977199","false","31","","0.2358374841","main_expt","","0.157476084","","0.3391977199","","0.1808952067","","","","","",""
"114","","bandit","107","336444","0.0-69.0-0.0","24379397","wem/bandit_single","AAS0V105QISPM","pain","3","","75","K","2","","0","0","1","","0.3655242212","false","32","","0.2465538883","main_expt","","0.1667461438","","0.3655242212","","0.1490402933","","","","","",""
"43","","bandit","108","338244","0.0-70.0-0.0","24379397","wem/bandit_single","AAS0V105QISPM","pain","3","","76","L","3","","0","0","1","","0.1607825008","false","33","","0.2479029149","main_expt","","0.1698659255","","0.3476833293","","0.1607825008","","","","","",""
"42","","bandit","109","340043","0.0-71.0-0.0","24379397","wem/bandit_single","AAS0V105QISPM","pain","3","","76","L","3","","0","1","0","","0.2019438485","false","34","","0.1813792252","main_expt","","0.1830702822","","0.3287357547","","0.2019438485","","","","","",""
"149","","bandit","110","341947","0.0-72.0-0.0","24379397","wem/bandit_single","AAS0V105QISPM","pain","3","","76","L","3","","0","1","0","","0.1187506792","false","35","","0.1507873856","main_expt","","0.1648441896","","0.3568635533","","0.1187506792","","","","","",""
"11","","bandit","111","343713","0.0-73.0-0.0","24379397","wem/bandit_single","AAS0V105QISPM","pain","3","","76","L","3","","0","0","1","","0.107122158","false","36","","0.185146395","main_expt","","0.1702375356","","0.2559818432","","0.107122158","","","","","",""
"2","","bandit","112","345474","0.0-74.0-0.0","24379397","wem/bandit_single","AAS0V105QISPM","pain","3","","76","L","3","","0","1","0","","0.1462043769","false","37","","0.1995500277","main_expt","","0.1248493821","","0.2095103509","","0.1462043769","","","","","",""
"28","","bandit","113","347260","0.0-75.0-0.0","24379397","wem/bandit_single","AAS0V105QISPM","pain","3","","76","L","3","","0","0","1","","0.1562864446","false","38","","0.2324476024","main_expt","","0.1806095344","","0.1824107212","","0.1562864446","","","","","",""
"9","","bandit","114","349028","0.0-76.0-0.0","24379397","wem/bandit_single","AAS0V105QISPM","pain","3","","76","L","3","","0","0","1","","0.1425148763","false","39","","0.2374336796","main_expt","","0.1636381498","","0.180532013","","0.1425148763","","","","","",""
"8","","bandit","115","350795","0.0-77.0-0.0","24379397","wem/bandit_single","AAS0V105QISPM","pain","3","","76","L","3","","0","0","1","","0.1332413707","false","40","","0.1871034738","main_expt","","0.128328165","","0.209403608","","0.1332413707","","","","","",""
"627","","bandit","116","353179","0.0-78.0-0.0","24379397","wem/bandit_single","AAS0V105QISPM","pain","3","","76","L","3","","0","0","1","","0.170838957","false","41","","0.1923798107","main_expt","","0.1128848486","","0.1790729352","","0.170838957","","","","","",""
"107","","bandit","117","355042","0.0-79.0-0.0","24379397","wem/bandit_single","AAS0V105QISPM","pain","3","","76","L","3","","0","0","1","","0.221577246","false","42","","0.2175202152","main_expt","","0.1024028154","","0.1586268334","","0.221577246","","","","","",""
"115","","bandit","118","356914","0.0-80.0-0.0","24379397","wem/bandit_single","AAS0V105QISPM","pain","3","","74","J","1","","0","0","1","","0.1842117743","false","43","","0.199004634","main_expt","","0.1842117743","","0.1953085145","","0.2937465132","","","","","",""
"73","","bandit","119","358747","0.0-81.0-0.0","24379397","wem/bandit_single","AAS0V105QISPM","pain","3","","74","J","1","","0","0","1","","0.2398699605","false","44","","0.1979694218","main_expt","","0.2398699605","","0.229373846","","0.2473378206","","","","","",""
"3370","","bandit","120","363876","0.0-82.0-0.0","24379397","wem/bandit_single","AAS0V105QISPM","pain","3","","74","J","1","","0","0","1","","0.2666943954","false","45","","0.1992427108","main_expt","","0.2666943954","","0.2387173179","","0.2911711657","","","","","",""
"211","","bandit","121","365852","0.0-83.0-0.0","24379397","wem/bandit_single","AAS0V105QISPM","pain","3","","74","J","1","","0","1","0","","0.3187479261","false","46","","0.2240306516","main_expt","","0.3187479261","","0.2142046797","","0.2520057509","","","","","",""
"758","","bandit","122","368369","0.0-84.0-0.0","24379397","wem/bandit_single","AAS0V105QISPM","pain","3","","74","J","1","","0","1","0","","0.3190608455","false","47","","0.2065012218","main_expt","","0.3190608455","","0.2454335886","","0.2527148282","","","","","",""
"222","","bandit","123","370349","0.0-85.0-0.0","24379397","wem/bandit_single","AAS0V105QISPM","pain","3","","74","J","1","","0","1","0","","0.3135096665","false","48","","0.1926440163","main_expt","","0.3135096665","","0.2810950816","","0.273334487","","","","","",""
"46","","bandit","124","372156","0.0-86.0-0.0","24379397","wem/bandit_single","AAS0V105QISPM","pain","3","","74","J","1","","0","0","1","","0.3341811191","false","49","","0.1670810943","main_expt","","0.3341811191","","0.2547597437","","0.3181736471","","","","","",""
"1652","","bandit","125","375571","0.0-87.0-0.0","24379397","wem/bandit_single","AAS0V105QISPM","pain","3","","74","J","1","","0","0","1","","0.3459923598","false","50","","0.1198069869","main_expt","","0.3459923598","","0.224323175","","0.3806153608","","","","","",""
"1114","","bandit","126","378442","0.0-88.0-0.0","24379397","wem/bandit_single","AAS0V105QISPM","pain","3","","74","J","1","","0","0","1","","0.3331953563","false","51","","0.103394302","main_expt","","0.3331953563","","0.2755477452","","0.3949296296","","","","","",""
"2189","","bandit","127","382390","0.0-89.0-0.0","24379397","wem/bandit_single","AAS0V105QISPM","pain","3","","74","J","1","","0","0","1","","0.3915962888","false","52","","0.1018912343","main_expt","","0.3915962888","","0.3022170302","","0.3544293331","","","","","",""
"1175","","bandit","128","385323","0.0-90.0-0.0","24379397","wem/bandit_single","AAS0V105QISPM","pain","3","","74","J","1","","0","1","0","","0.3984086051","false","53","","0.07233269407","main_expt","","0.3984086051","","0.2886203433","","0.3007967805","","","","","",""
"1706","","bandit","129","388786","0.0-91.0-0.0","24379397","wem/bandit_single","AAS0V105QISPM","pain","3","","74","J","1","","0","0","1","","0.4181407331","false","54","","0.09210147888","main_expt","","0.4181407331","","0.3072524501","","0.3376398899","","","","","",""
"1089","","bandit","130","391634","0.0-92.0-0.0","24379397","wem/bandit_single","AAS0V105QISPM","pain","3","","74","J","1","","0","0","1","","0.3964386999","false","55","","0.08866102842","main_expt","","0.3964386999","","0.3847595325","","0.3625264345","","","","","",""
"44","","bandit","131","393435","0.0-93.0-0.0","24379397","wem/bandit_single","AAS0V105QISPM","pain","3","","74","J","1","","0","1","0","","0.4043277199","false","56","","0.1208391037","main_expt","","0.4043277199","","0.4008313728","","0.313137485","","","","","",""
"246","","bandit","132","395442","0.0-94.0-0.0","24379397","wem/bandit_single","AAS0V105QISPM","pain","3","","74","J","1","","0","0","1","","0.3232173094","false","57","","0.1429525169","main_expt","","0.3232173094","","0.3763680666","","0.3287581384","","","","","",""
"42","","bandit","133","397243","0.0-95.0-0.0","24379397","wem/bandit_single","AAS0V105QISPM","pain","3","","76","L","3","","0","0","1","","0.2891608333","false","58","","0.1800007821","main_expt","","0.3352595409","","0.3630839511","","0.2891608333","","","","","",""
"801","","bandit","134","399804","0.0-96.0-0.0","24379397","wem/bandit_single","AAS0V105QISPM","pain","3","","76","L","3","","0","1","0","","0.2228703537","false","59","","0.1168587732","main_expt","","0.3423270404","","0.3166885591","","0.2228703537","","","","","",""
"272","","bandit","135","401836","0.0-97.0-0.0","24379397","wem/bandit_single","AAS0V105QISPM","pain","3","","76","L","3","","0","0","1","","0.2694349638","false","60","","0.08966050757","main_expt","","0.3326485747","","0.3339947878","","0.2694349638","","","","","",""
"100","","bandit","136","403695","0.0-98.0-0.0","24379397","wem/bandit_single","AAS0V105QISPM","pain","3","","76","L","3","","0","1","0","","0.3291501217","false","61","","0.06827284498","main_expt","","0.3239501662","","0.3559621948","","0.3291501217","","","","","",""
"163","","bandit","137","405619","0.0-99.0-0.0","24379397","wem/bandit_single","AAS0V105QISPM","pain","3","","76","L","3","","0","0","1","","0.3516688484","false","62","","0.0870528816","main_expt","","0.3140158541","","0.3565904981","","0.3516688484","","","","","",""
"2","","bandit","138","407381","0.0-100.0-0.0","24379397","wem/bandit_single","AAS0V105QISPM","pain","3","","76","L","3","","0","1","0","","0.3662001291","false","63","","0.07384780705","main_expt","","0.2896297009","","0.3766945074","","0.3662001291","","","","","",""
"335","","bandit","139","409477","0.0-101.0-0.0","24379397","wem/bandit_single","AAS0V105QISPM","pain","3","","76","L","3","","0","1","0","","0.3986377969","false","64","","0.09386223648","main_expt","","0.2848001348","","0.4038560084","","0.3986377969","","","","","",""
"256","","bandit","140","411492","0.0-102.0-0.0","24379397","wem/bandit_single","AAS0V105QISPM","pain","3","","76","L","3","","0","0","1","","0.4284050928","false","65","","0.08656227431","main_expt","","0.2621939157","","0.4081833366","","0.4284050928","","","","","",""
"423","","bandit","141","413676","0.0-103.0-0.0","24379397","wem/bandit_single","AAS0V105QISPM","pain","3","","76","L","3","","0","0","1","","0.4295130084","false","66","","0.1254260964","main_expt","","0.2218985249","","0.4111507483","","0.4295130084","","","","","",""
"1320","","bandit","142","416756","0.0-104.0-0.0","24379397","wem/bandit_single","AAS0V105QISPM","pain","3","","75","K","2","","0","0","1","","0.3731562577","false","67","","0.0848557225","main_expt","","0.2203007364","","0.3731562577","","0.4192215244","","","","","",""
"111","","bandit","143","418628","0.0-105.0-0.0","24379397","wem/bandit_single","AAS0V105QISPM","pain","3","","75","K","2","","0","0","1","","0.3471707475","false","68","","0.1277621339","main_expt","","0.2163243509","","0.3471707475","","0.4617344849","","","","","",""
"495","","bandit","144","420884","0.0-106.0-0.0","24379397","wem/bandit_single","AAS0V105QISPM","pain","3","","72","H","0","img/none_selected.jpg","0","0","1","","0.1425885083","false","69","","0.1425885083","main_expt","","0.1552451017","","0.3163780081","","0.4496684627","","","","","",""
"0","","bandit","145","422646","0.0-107.0-0.0","24379397","wem/bandit_single","AAS0V105QISPM","pain","3","","72","H","0","img/none_selected.jpg","0","0","1","","0.1765985622","false","70","","0.1765985622","main_expt","","0.144295094","","0.2872849644","","0.4572021165","","","","","",""
"70","","bandit","146","424475","0.0-108.0-0.0","24379397","wem/bandit_single","AAS0V105QISPM","pain","3","","74","J","1","","0","1","0","","0.1823242822","false","71","","0.1520060204","main_expt","","0.1823242822","","0.300298776","","0.457930868","","","","","",""
"450","","bandit","147","426684","0.0-109.0-0.0","24379397","wem/bandit_single","AAS0V105QISPM","pain","3","","74","J","1","","0","0","1","","0.144478384","false","72","","0.09933583891","main_expt","","0.144478384","","0.3280152389","","0.4687468973","","","","","",""
"70","","bandit","148","428516","0.0-110.0-0.0","24379397","wem/bandit_single","AAS0V105QISPM","pain","3","","74","J","1","","0","0","1","","0.1420634247","false","73","","0.1087995109","main_expt","","0.1420634247","","0.2758062481","","0.4707862587","","","","","",""
"56","","bandit","149","430331","0.0-111.0-0.0","24379397","wem/bandit_single","AAS0V105QISPM","pain","3","","76","L","3","","0","1","0","","0.4602293826","false","74","","0.150223613","main_expt","","0.1358649702","","0.3370537031","","0.4602293826","","","","","",""
"110","","bandit","150","432201","0.0-112.0-0.0","24379397","wem/bandit_single","AAS0V105QISPM","pain","3","","74","J","1","","0","0","1","","0.09700523291","false","75","","0.1945690608","main_expt","","0.09700523291","","0.3323795279","","0.439891953","","","","","",""
"436","","bandit","151","434396","0.0-113.0-0.0","24379397","wem/bandit_single","AAS0V105QISPM","pain","3","","76","L","3","","0","1","0","","0.4424180744","false","76","","0.2454913388","main_expt","","0.07829726083","","0.3822428931","","0.4424180744","","","","","",""
"49","","bandit","152","436204","0.0-114.0-0.0","24379397","wem/bandit_single","AAS0V105QISPM","pain","3","","76","L","3","","0","1","0","","0.4066280348","false","77","","0.2181262922","main_expt","","0.08460916486","","0.4136836411","","0.4066280348","","","","","",""
"37","","bandit","153","438003","0.0-115.0-0.0","24379397","wem/bandit_single","AAS0V105QISPM","pain","3","","76","L","3","","0","0","1","","0.3969262671","false","78","","0.2500794828","main_expt","","0.0875988483","","0.4505469687","","0.3969262671","","","","","",""
"809","","bandit","154","440569","0.0-116.0-0.0","24379397","wem/bandit_single","AAS0V105QISPM","pain","3","","76","L","3","","0","0","1","","0.4119020232","false","79","","0.2021405589","main_expt","","0.06491107755","","0.4251749511","","0.4119020232","","","","","",""
"1020","","bandit","155","443346","0.0-117.0-0.0","24379397","wem/bandit_single","AAS0V105QISPM","pain","3","","76","L","3","","0","1","0","","0.3797331509","false","80","","0.1654874554","main_expt","","0.1021818806","","0.3976376265","","0.3797331509","","","","","",""
"203","","bandit","156","445308","0.0-118.0-0.0","24379397","wem/bandit_single","AAS0V105QISPM","pain","3","","76","L","3","","0","0","1","","0.4024270851","false","81","","0.1281487551","main_expt","","0.07175209231","","0.409462467","","0.4024270851","","","","","",""
"47","","bandit","157","447116","0.0-119.0-0.0","24379397","wem/bandit_single","AAS0V105QISPM","pain","3","","74","J","1","","0","0","1","","0.04651379375","false","82","","0.1167166884","main_expt","","0.04651379375","","0.4541942335","","0.3976574516","","","","","",""
"170","","bandit","158","449044","0.0-120.0-0.0","24379397","wem/bandit_single","AAS0V105QISPM","pain","3","","74","J","1","","0","0","1","","0.03148502893","false","83","","0.1426109787","main_expt","","0.03148502893","","0.4452160763","","0.3749492802","","","","","",""
"39","","bandit","159","450843","0.0-121.0-0.0","24379397","wem/bandit_single","AAS0V105QISPM","pain","3","","76","L","3","","0","0","1","","0.4021863709","false","84","","0.121887906","main_expt","","0.05186863446","","0.438985114","","0.4021863709","","","","","",""
"11","","bandit","160","452612","0.0-122.0-0.0","24379397","wem/bandit_single","AAS0V105QISPM","pain","3","","74","J","1","","0","0","1","","0.04986731509","false","85","","0.1361926199","main_expt","","0.04986731509","","0.4331173667","","0.3624574422","","","","","",""
"24","","bandit","161","454395","0.0-123.0-0.0","24379397","wem/bandit_single","AAS0V105QISPM","pain","3","","76","L","3","","0","0","1","","0.387939101","false","86","","0.1287871674","main_expt","","0.05891938772","","0.447547065","","0.387939101","","","","","",""
"72","","bandit","162","456227","0.0-124.0-0.0","24379397","wem/bandit_single","AAS0V105QISPM","pain","3","","74","J","1","","0","0","1","","0.06619539979","false","87","","0.13112728","main_expt","","0.06619539979","","0.4451560311","","0.3949621072","","","","","",""
"24","","bandit","163","458009","0.0-125.0-0.0","24379397","wem/bandit_single","AAS0V105QISPM","pain","3","","72","H","0","img/none_selected.jpg","0","0","1","","0.1385028762","false","88","","0.1385028762","main_expt","","0.03553047297","","0.4010299359","","0.3789082299","","","","","",""
"104","","bandit","164","459871","0.0-126.0-0.0","24379397","wem/bandit_single","AAS0V105QISPM","pain","3","","75","K","2","","0","1","0","","0.430672582","false","89","","0.1377901848","main_expt","","0.03983007571","","0.430672582","","0.3718344374","","","","","",""
"14","","bandit","165","461643","0.0-127.0-0.0","24379397","wem/bandit_single","AAS0V105QISPM","pain","3","","75","K","2","","0","0","1","","0.4063924327","false","90","","0.1642812903","main_expt","","0.02618566652","","0.4063924327","","0.4341719303","","","","","",""
"481","","bandit","166","463883","0.0-128.0-0.0","24379397","wem/bandit_single","AAS0V105QISPM","pain","3","","72","H","0","img/none_selected.jpg","0","0","1","","0.2115922749","false","91","","0.2115922749","main_expt","","0.03325063158","","0.4115689239","","0.4538289377","","","","","",""
"516","","bandit","167","466157","0.0-129.0-0.0","24379397","wem/bandit_single","AAS0V105QISPM","pain","3","","75","K","2","","0","0","1","","0.4195244723","false","92","","0.1819790886","main_expt","","0.02042352937","","0.4195244723","","0.4508501544","","","","","",""
"278","","bandit","168","468195","0.0-130.0-0.0","24379397","wem/bandit_single","AAS0V105QISPM","pain","3","","74","J","1","","0","0","1","","0.01887694535","false","93","","0.2039146085","main_expt","","0.01887694535","","0.3976010387","","0.4548943395","","","","","",""
"5","","bandit","169","469958","0.0-131.0-0.0","24379397","wem/bandit_single","AAS0V105QISPM","pain","3","","74","J","1","","0","0","1","","0.02367451168","false","94","","0.2307813202","main_expt","","0.02367451168","","0.3668479885","","0.4646086811","","","","","",""
"549","","bandit","170","472267","0.0-132.0-0.0","24379397","wem/bandit_single","AAS0V105QISPM","pain","3","","74","J","1","","0","0","1","","0.02723032617","false","95","","0.2213313998","main_expt","","0.02723032617","","0.3332342888","","0.467541367","","","","","",""
"337","","bandit","171","474364","0.0-133.0-0.0","24379397","wem/bandit_single","AAS0V105QISPM","pain","3","","74","J","1","","0","0","1","","0.02648196594","false","96","","0.2568515079","main_expt","","0.02648196594","","0.2884910782","","0.4642351642","","","","","",""
"218","","bandit","172","476339","0.0-134.0-0.0","24379397","wem/bandit_single","AAS0V105QISPM","pain","3","","76","L","3","","0","1","0","","0.4467755515","false","97","","0.2699845376","main_expt","","0.01585024216","","0.2656891479","","0.4467755515","","","","","",""
"231","","bandit","173","478332","0.0-135.0-0.0","24379397","wem/bandit_single","AAS0V105QISPM","pain","3","","76","L","3","","0","1","0","","0.4056350907","false","98","","0.2797451528","main_expt","","0.01169409205","","0.2595300749","","0.4056350907","","","","","",""
"548","","bandit","174","480639","0.0-136.0-0.0","24379397","wem/bandit_single","AAS0V105QISPM","pain","3","","76","L","3","","0","0","1","","0.339742379","false","99","","0.3187705275","main_expt","","0.01197913588","","0.2519900202","","0.339742379","","","","","",""
"257","","bandit","175","482660","0.0-137.0-0.0","24379397","wem/bandit_single","AAS0V105QISPM","pain","3","","76","L","3","","0","1","0","","0.3381167522","false","100","","0.3570824245","main_expt","","0.01759776774","","0.2523409295","","0.3381167522","","","","","",""
"135","","bandit","176","484559","0.0-138.0-0.0","24379397","wem/bandit_single","AAS0V105QISPM","pain","3","","76","L","3","","0","0","1","","0.2803213009","false","101","","0.3489468272","main_expt","","0.04295615511","","0.2146893193","","0.2803213009","","","","","",""
"148","","bandit","177","486466","0.0-139.0-0.0","24379397","wem/bandit_single","AAS0V105QISPM","pain","3","","76","L","3","","0","0","1","","0.317644571","false","102","","0.3015799625","main_expt","","0.06572998715","","0.1843767259","","0.317644571","","","","","",""
"87","","bandit","178","488316","0.0-140.0-0.0","24379397","wem/bandit_single","AAS0V105QISPM","pain","3","","76","L","3","","0","0","1","","0.3024927185","false","103","","0.2656450655","main_expt","","0.1043212589","","0.2108432206","","0.3024927185","","","","","",""
"65","","bandit","179","490139","0.0-141.0-0.0","24379397","wem/bandit_single","AAS0V105QISPM","pain","3","","76","L","3","","0","0","1","","0.3339077782","false","104","","0.261155182","main_expt","","0.07063930719","","0.26792014","","0.3339077782","","","","","",""
"18","","bandit","180","491916","0.0-142.0-0.0","24379397","wem/bandit_single","AAS0V105QISPM","pain","3","","76","L","3","","0","0","1","","0.2966783269","false","105","","0.2794756432","main_expt","","0.09992353171","","0.3302583292","","0.2966783269","","","","","",""
"159","","bandit","181","493835","0.0-143.0-0.0","24379397","wem/bandit_single","AAS0V105QISPM","pain","3","","76","L","3","","0","1","0","","0.3722996478","false","106","","0.2719827923","main_expt","","0.1074399807","","0.3099187861","","0.3722996478","","","","","",""
"67","","bandit","182","495659","0.0-144.0-0.0","24379397","wem/bandit_single","AAS0V105QISPM","pain","3","","76","L","3","","0","1","0","","0.3764369168","false","107","","0.2614179637","main_expt","","0.1398361659","","0.3526315454","","0.3764369168","","","","","",""
"23","","bandit","183","497441","0.0-145.0-0.0","24379397","wem/bandit_single","AAS0V105QISPM","pain","3","","76","L","3","","0","1","0","","0.3221289315","false","108","","0.3154283329","main_expt","","0.1503356919","","0.3741147492","","0.3221289315","","","","","",""
"51","","bandit","184","499251","0.0-146.0-0.0","24379397","wem/bandit_single","AAS0V105QISPM","pain","3","","76","L","3","","0","0","1","","0.3394272446","false","109","","0.3965133924","main_expt","","0.1554773292","","0.3775387023","","0.3394272446","","","","","",""
"64","","bandit","185","501074","0.0-147.0-0.0","24379397","wem/bandit_single","AAS0V105QISPM","pain","3","","75","K","2","","0","0","1","","0.3603169275","false","110","","0.4096679205","main_expt","","0.1862379276","","0.3603169275","","0.3108194313","","","","","",""
"0","","bandit","186","502833","0.0-148.0-0.0","24379397","wem/bandit_single","AAS0V105QISPM","pain","3","","74","J","1","","0","0","1","","0.2096222548","false","111","","0.4107972434","main_expt","","0.2096222548","","0.3492898999","","0.2754643313","","","","","",""
"162","","bandit","187","504756","0.0-149.0-0.0","24379397","wem/bandit_single","AAS0V105QISPM","pain","3","","72","H","0","img/none_selected.jpg","0","1","0","","0.4229867006","false","112","","0.4229867006","main_expt","","0.2432579143","","0.3332089306","","0.2906444469","","","","","",""
"189","","bandit","188","506707","0.0-150.0-0.0","24379397","wem/bandit_single","AAS0V105QISPM","pain","3","","72","H","0","img/none_selected.jpg","0","1","0","","0.4045712819","false","113","","0.4045712819","main_expt","","0.1721880852","","0.3450976056","","0.3006146448","","","","","",""
"87","","bandit","189","508555","0.0-151.0-0.0","24379397","wem/bandit_single","AAS0V105QISPM","pain","3","","72","H","0","img/none_selected.jpg","0","1","0","","0.3821667802","false","114","","0.3821667802","main_expt","","0.2081909003","","0.3725565121","","0.2668468313","","","","","",""
"111","","bandit","190","510428","0.0-152.0-0.0","24379397","wem/bandit_single","AAS0V105QISPM","pain","3","","72","H","0","img/none_selected.jpg","0","1","0","","0.3342096713","false","115","","0.3342096713","main_expt","","0.272711811","","0.3789561431","","0.3032344037","","","","","",""
"138","","bandit","191","512330","0.0-153.0-0.0","24379397","wem/bandit_single","AAS0V105QISPM","pain","3","","72","H","0","img/none_selected.jpg","0","1","0","","0.3475890958","false","116","","0.3475890958","main_expt","","0.2801201945","","0.3829881954","","0.279678247","","","","","",""
"48","","bandit","192","514140","0.0-154.0-0.0","24379397","wem/bandit_single","AAS0V105QISPM","pain","3","","72","H","0","img/none_selected.jpg","0","0","1","","0.3545652452","false","117","","0.3545652452","main_expt","","0.3615324036","","0.3872477479","","0.2762620489","","","","","",""
"46","","bandit","193","515948","0.0-155.0-0.0","24379397","wem/bandit_single","AAS0V105QISPM","pain","3","","72","H","0","img/none_selected.jpg","0","1","0","","0.3542043025","false","118","","0.3542043025","main_expt","","0.3615177178","","0.3952603005","","0.2880572365","","","","","",""
"66","","bandit","194","517772","0.0-156.0-0.0","24379397","wem/bandit_single","AAS0V105QISPM","pain","3","","72","H","0","img/none_selected.jpg","0","0","1","","0.3471352845","false","119","","0.3471352845","main_expt","","0.3875935955","","0.3838673248","","0.2807620685","","","","","",""
"15","","bandit","195","519549","0.0-157.0-0.0","24379397","wem/bandit_single","AAS0V105QISPM","pain","3","","72","H","0","img/none_selected.jpg","0","0","1","","0.3343169965","false","120","","0.3343169965","main_expt","","0.4052723714","","0.4148997213","","0.2811576832","","","","","",""
"836","","bandit","196","522147","0.0-158.0-0.0","24379397","wem/bandit_single","AAS0V105QISPM","pain","3","","72","H","0","img/none_selected.jpg","0","0","1","","0.3595120763","false","121","","0.3595120763","main_expt","","0.44462971","","0.4184259471","","0.3016455194","","","","","",""
"12","","bandit","197","523923","0.0-159.0-0.0","24379397","wem/bandit_single","AAS0V105QISPM","pain","3","","72","H","0","img/none_selected.jpg","0","0","1","","0.3296914373","false","122","","0.3296914373","main_expt","","0.4338931322","","0.4271141924","","0.3161331551","","","","","",""
"41","","bandit","198","525726","0.0-160.0-0.0","24379397","wem/bandit_single","AAS0V105QISPM","pain","3","","72","H","0","img/none_selected.jpg","0","1","0","","0.3369167856","false","123","","0.3369167856","main_expt","","0.4248885798","","0.3994299035","","0.2882518765","","","","","",""
"340","","bandit","199","527828","0.0-161.0-0.0","24379397","wem/bandit_single","AAS0V105QISPM","pain","3","","72","H","0","img/none_selected.jpg","0","0","1","","0.3181772373","false","124","","0.3181772373","main_expt","","0.3773411534","","0.4319292606","","0.3426101702","","","","","",""
"30","","bandit","200","529618","0.0-162.0-0.0","24379397","wem/bandit_single","AAS0V105QISPM","pain","3","","72","H","0","img/none_selected.jpg","0","0","1","","0.3285823626","false","125","","0.3285823626","main_expt","","0.3322500489","","0.4228137624","","0.3623178769","","","","","",""
"41","","bandit","201","531420","0.0-163.0-0.0","24379397","wem/bandit_single","AAS0V105QISPM","pain","3","","76","L","3","","0","1","0","","0.3487147863","false","126","","0.3203566048","main_expt","","0.3742157909","","0.4445824992","","0.3487147863","","","","","",""
"215","","bandit","202","533395","0.0-164.0-0.0","24379397","wem/bandit_single","AAS0V105QISPM","pain","3","","76","L","3","","0","0","1","","0.4137567253","false","127","","0.3852478983","main_expt","","0.3851047317","","0.4525048151","","0.4137567253","","","","","",""
"266","","bandit","203","535421","0.0-165.0-0.0","24379397","wem/bandit_single","AAS0V105QISPM","pain","3","","76","L","3","","0","0","1","","0.3814482247","false","128","","0.3389365807","main_expt","","0.4043255462","","0.4692783601","","0.3814482247","","","","","",""
"220","","bandit","204","537401","0.0-166.0-0.0","24379397","wem/bandit_single","AAS0V105QISPM","pain","3","","75","K","2","","0","1","0","","0.4168961411","false","129","","0.3137404055","main_expt","","0.4123407707","","0.4168961411","","0.4168244781","","","","","",""
"194","","bandit","205","539358","0.0-167.0-0.0","24379397","wem/bandit_single","AAS0V105QISPM","pain","3","","75","K","2","","0","0","1","","0.3790243023","false","130","","0.3258581953","main_expt","","0.4046971735","","0.3790243023","","0.4365918222","","","","","",""
"142","","bandit","206","541261","0.0-168.0-0.0","24379397","wem/bandit_single","AAS0V105QISPM","pain","3","","75","K","2","","0","1","0","","0.4049885765","false","131","","0.2883577813","main_expt","","0.4461276952","","0.4049885765","","0.4389841863","","","","","",""
"65","","bandit","207","543083","0.0-169.0-0.0","24379397","wem/bandit_single","AAS0V105QISPM","pain","3","","75","K","2","","0","0","1","","0.4146365962","false","132","","0.3560589507","main_expt","","0.4611465992","","0.4146365962","","0.4152650591","","","","","",""
"357","","bandit","208","545198","0.0-170.0-0.0","24379397","wem/bandit_single","AAS0V105QISPM","pain","3","","75","K","2","","0","1","0","","0.3895917514","false","133","","0.358394082","main_expt","","0.4798080461","","0.3895917514","","0.4542457407","","","","","",""
"351","","bandit","209","547307","0.0-171.0-0.0","24379397","wem/bandit_single","AAS0V105QISPM","pain","3","","75","K","2","","0","0","1","","0.4031985028","false","134","","0.3605573227","main_expt","","0.4536835414","","0.4031985028","","0.4598844585","","","","","",""
"193","","bandit","210","549260","0.0-172.0-0.0","24379397","wem/bandit_single","AAS0V105QISPM","pain","3","","75","K","2","","0","0","1","","0.3950250086","false","135","","0.3695471057","main_expt","","0.4297718384","","0.3950250086","","0.4690925783","","","","","",""
"190","","bandit","211","551213","0.0-173.0-0.0","24379397","wem/bandit_single","AAS0V105QISPM","pain","3","","75","K","2","","0","1","0","","0.3958408827","false","136","","0.4060603524","main_expt","","0.4047290025","","0.3958408827","","0.4382452635","","","","","",""
"191","","bandit","212","553166","0.0-174.0-0.0","24379397","wem/bandit_single","AAS0V105QISPM","pain","3","","75","K","2","","0","0","1","","0.4025558346","false","137","","0.3977168634","main_expt","","0.4062789173","","0.4025558346","","0.4469583278","","","","","",""
"109","","bandit","213","555035","0.0-175.0-0.0","24379397","wem/bandit_single","AAS0V105QISPM","pain","3","","75","K","2","","0","1","0","","0.3901350715","false","138","","0.3884520433","main_expt","","0.3893267926","","0.3901350715","","0.44739429","","","","","",""
"160","","bandit","214","556955","0.0-176.0-0.0","24379397","wem/bandit_single","AAS0V105QISPM","pain","3","","75","K","2","","0","1","0","","0.4069565875","false","139","","0.3517782966","main_expt","","0.3355070849","","0.4069565875","","0.4329330235","","","","","",""
"27","","bandit","215","558740","0.0-177.0-0.0","24379397","wem/bandit_single","AAS0V105QISPM","pain","3","","75","K","2","","0","0","1","","0.4384632306","false","140","","0.3147433726","main_expt","","0.3033729388","","0.4384632306","","0.4427321083","","","","","",""
"71","","bandit","216","560573","0.0-178.0-0.0","24379397","wem/bandit_single","AAS0V105QISPM","pain","3","","75","K","2","","0","0","1","","0.4513823692","false","141","","0.315874603","main_expt","","0.3495942718","","0.4513823692","","0.4630674526","","","","","",""
"44","","bandit","217","562380","0.0-179.0-0.0","24379397","wem/bandit_single","AAS0V105QISPM","pain","3","","75","K","2","","0","0","1","","0.4477105457","false","142","","0.2660579121","main_expt","","0.373744609","","0.4477105457","","0.4678156034","","","","","",""
"0","","bandit","218","564143","0.0-180.0-0.0","24379397","wem/bandit_single","AAS0V105QISPM","pain","3","","72","H","0","img/none_selected.jpg","0","1","0","","0.2791435274","false","143","","0.2791435274","main_expt","","0.3983109068","","0.4399018081","","0.4556942345","","","","","",""
"1134","","bandit","219","567044","0.0-181.0-0.0","24379397","wem/bandit_single","AAS0V105QISPM","pain","3","","72","H","0","img/none_selected.jpg","0","0","1","","0.3232226047","false","144","","0.3232226047","main_expt","","0.4290647624","","0.3929519584","","0.4606745253","","","","","",""
"527","","bandit","220","569333","0.0-182.0-0.0","24379397","wem/bandit_single","AAS0V105QISPM","pain","3","","72","H","0","img/none_selected.jpg","0","0","1","","0.2863527335","false","145","","0.2863527335","main_expt","","0.4360055891","","0.3638959839","","0.4493721712","","","","","",""
"250","","bandit","221","571342","0.0-183.0-0.0","24379397","wem/bandit_single","AAS0V105QISPM","pain","3","","72","H","0","img/none_selected.jpg","0","0","1","","0.2399582054","false","146","","0.2399582054","main_expt","","0.4408793748","","0.3109408856","","0.411205332","","","","","",""
"248","","bandit","222","573350","0.0-184.0-0.0","24379397","wem/bandit_single","AAS0V105QISPM","pain","3","","72","H","0","img/none_selected.jpg","0","0","1","","0.2186627863","false","147","","0.2186627863","main_expt","","0.4152856751","","0.303790043","","0.4091009254","","","","","",""
"258","","bandit","223","575372","0.0-185.0-0.0","24379397","wem/bandit_single","AAS0V105QISPM","pain","3","","72","H","0","img/none_selected.jpg","0","0","1","","0.233860686","false","148","","0.233860686","main_expt","","0.400149315","","0.2836070719","","0.3878952866","","","","","",""
"130","","bandit","224","577261","0.0-186.0-0.0","24379397","wem/bandit_single","AAS0V105QISPM","pain","3","","72","H","0","img/none_selected.jpg","0","1","0","","0.2752018233","false","149","","0.2752018233","main_expt","","0.4081055764","","0.2132997302","","0.39239053","","","","","",""
"79","","bandit","225","579102","0.0-187.0-0.0","24379397","wem/bandit_single","AAS0V105QISPM","pain","3","","72","H","0","img/none_selected.jpg","0","0","1","","0.2306982087","false","150","","0.2306982087","main_expt","","0.3946041437","","0.1906505553","","0.3869122725","","","","","",""
"202","","bandit","226","581069","0.0-188.0-0.0","24379397","wem/bandit_single","AAS0V105QISPM","pain","3","","72","H","0","img/none_selected.jpg","0","0","1","","0.272940168","false","151","","0.272940168","main_expt","","0.3517385329","","0.1887938372","","0.3562084687","","","","","",""
"147","","bandit","227","582976","0.0-189.0-0.0","24379397","wem/bandit_single","AAS0V105QISPM","pain","3","","72","H","0","img/none_selected.jpg","0","0","1","","0.246833375","false","152","","0.246833375","main_expt","","0.33807167","","0.1452925277","","0.3975166132","","","","","",""
"14","","bandit","228","584749","0.0-190.0-0.0","24379397","wem/bandit_single","AAS0V105QISPM","pain","3","","75","K","2","","0","0","1","","0.1236287895","false","153","","0.2555278221","main_expt","","0.3507556502","","0.1236287895","","0.4221253747","","","","","",""
"139","","bandit","229","586653","0.0-191.0-0.0","24379397","wem/bandit_single","AAS0V105QISPM","pain","3","","75","K","2","","0","0","1","","0.119712108","false","154","","0.1964980564","main_expt","","0.3484399371","","0.119712108","","0.3887365422","","","","","",""
"847","","bandit","230","589261","0.0-192.0-0.0","24379397","wem/bandit_single","AAS0V105QISPM","pain","3","","76","L","3","","0","1","0","","0.3935049101","false","155","","0.2158986014","main_expt","","0.4023996329","","0.1638630184","","0.3935049101","","","","","",""
"146","","bandit","231","591172","0.0-193.0-0.0","24379397","wem/bandit_single","AAS0V105QISPM","pain","3","","76","L","3","","0","0","1","","0.4185769797","false","156","","0.2269609611","main_expt","","0.3489947109","","0.138562935","","0.4185769797","","","","","",""
"139","","bandit","232","593070","0.0-194.0-0.0","24379397","wem/bandit_single","AAS0V105QISPM","pain","3","","76","L","3","","0","1","0","","0.412821327","false","157","","0.2997599927","main_expt","","0.3223479281","","0.1424057266","","0.412821327","","","","","",""
"82","","bandit","233","594913","0.0-195.0-0.0","24379397","wem/bandit_single","AAS0V105QISPM","pain","3","","76","L","3","","0","0","1","","0.4433072999","false","158","","0.2608946303","main_expt","","0.3334556671","","0.1068688432","","0.4433072999","","","","","",""
"79","","bandit","234","596755","0.0-196.0-0.0","24379397","wem/bandit_single","AAS0V105QISPM","pain","3","","76","L","3","","0","1","0","","0.4600675837","false","159","","0.2927903113","main_expt","","0.3686402331","","0.08394897778","","0.4600675837","","","","","",""
"77","","bandit","235","598594","0.0-197.0-0.0","24379397","wem/bandit_single","AAS0V105QISPM","pain","3","","76","L","3","","0","1","0","","0.449399373","false","160","","0.3165869591","main_expt","","0.3711838842","","0.09909711901","","0.449399373","","","","","",""
"199","","bandit","236","600556","0.0-198.0-0.0","24379397","wem/bandit_single","AAS0V105QISPM","pain","3","","76","L","3","","0","1","0","","0.4303005813","false","161","","0.3355773311","main_expt","","0.385982022","","0.09256485174","","0.4303005813","","","","","",""
"48","","bandit","237","602363","0.0-199.0-0.0","24379397","wem/bandit_single","AAS0V105QISPM","pain","3","","76","L","3","","0","1","0","","0.4319487415","false","162","","0.3801839585","main_expt","","0.3435676447","","0.07550585721","","0.4319487415","","","","","",""
"185","","bandit","238","604307","0.0-200.0-0.0","24379397","wem/bandit_single","AAS0V105QISPM","pain","3","","76","L","3","","0","1","0","","0.4459750046","false","163","","0.3796909961","main_expt","","0.3840292687","","0.08055395315","","0.4459750046","","","","","",""
"183","","bandit","239","606251","0.0-201.0-0.0","24379397","wem/bandit_single","AAS0V105QISPM","pain","3","","76","L","3","","0","0","1","","0.4529977304","false","164","","0.3657353238","main_expt","","0.3427058888","","0.07824920034","","0.4529977304","","","","","",""
"136","","bandit","240","608147","0.0-202.0-0.0","24379397","wem/bandit_single","AAS0V105QISPM","pain","3","","76","L","3","","0","0","1","","0.4472909282","false","165","","0.3937598932","main_expt","","0.3258967388","","0.08439791844","","0.4472909282","","","","","",""
"1","","bandit","241","609906","0.0-203.0-0.0","24379397","wem/bandit_single","AAS0V105QISPM","pain","3","","76","L","3","","0","0","1","","0.4399772256","false","166","","0.3914196171","main_expt","","0.2704303424","","0.05039915739","","0.4399772256","","","","","",""
"129","","bandit","242","611795","0.0-204.0-0.0","24379397","wem/bandit_single","AAS0V105QISPM","pain","3","","76","L","3","","0","0","1","","0.4636729032","false","167","","0.3919877423","main_expt","","0.3205555932","","0.05759530337","","0.4636729032","","","","","",""
"69","","bandit","243","613626","0.0-205.0-0.0","24379397","wem/bandit_single","AAS0V105QISPM","pain","3","","75","K","2","","0","0","1","","0.04992464654","false","168","","0.3647459683","main_expt","","0.3639109947","","0.04992464654","","0.4437796743","","","","","",""
"218","","bandit","244","615603","0.0-206.0-0.0","24379397","wem/bandit_single","AAS0V105QISPM","pain","3","","75","K","2","","0","0","1","","0.03416660819","false","169","","0.4058418149","main_expt","","0.3733582142","","0.03416660819","","0.456101387","","","","","",""
"104","","bandit","245","617466","0.0-207.0-0.0","24379397","wem/bandit_single","AAS0V105QISPM","pain","3","","74","J","1","","0","0","1","","0.3832331311","false","170","","0.3998590153","main_expt","","0.3832331311","","0.01917125828","","0.4571218852","","","","","",""
"81","","bandit","246","619306","0.0-208.0-0.0","24379397","wem/bandit_single","AAS0V105QISPM","pain","3","","74","J","1","","0","0","1","","0.3815339887","false","171","","0.3887500458","main_expt","","0.3815339887","","0.02244253376","","0.445510323","","","","","",""
"31","","bandit","247","621099","0.0-209.0-0.0","24379397","wem/bandit_single","AAS0V105QISPM","pain","3","","72","H","0","img/none_selected.jpg","0","1","0","","0.4102182378","false","172","","0.4102182378","main_expt","","0.3471775219","","0.02619280326","","0.4280794999","","","","","",""
"709","","bandit","248","623571","0.0-210.0-0.0","24379397","wem/bandit_single","AAS0V105QISPM","pain","3","","72","H","0","img/none_selected.jpg","0","0","1","","0.3895773165","false","173","","0.3895773165","main_expt","","0.340289466","","0.0218428458","","0.4379780546","","","","","",""
"76","","bandit","249","625409","0.0-211.0-0.0","24379397","wem/bandit_single","AAS0V105QISPM","pain","3","","72","H","0","img/none_selected.jpg","0","1","0","","0.3826402373","false","174","","0.3826402373","main_expt","","0.3280863639","","0.02840617367","","0.4160926905","","","","","",""
"86","","bandit","250","627256","0.0-212.0-0.0","24379397","wem/bandit_single","AAS0V105QISPM","pain","3","","72","H","0","img/none_selected.jpg","0","0","1","","0.38572844","false","175","","0.38572844","main_expt","","0.3782643392","","0.0268928826","","0.44195178","","","","","",""
"78","","bandit","251","629092","0.0-213.0-0.0","24379397","wem/bandit_single","AAS0V105QISPM","pain","3","","72","H","0","img/none_selected.jpg","0","0","1","","0.3566605828","false","176","","0.3566605828","main_expt","","0.3714875018","","0.04471375276","","0.4469840309","","","","","",""
"49","","bandit","252","630899","0.0-214.0-0.0","24379397","wem/bandit_single","AAS0V105QISPM","pain","3","","72","H","0","img/none_selected.jpg","0","0","1","","0.3736379944","false","177","","0.3736379944","main_expt","","0.3110573775","","0.04508647299","","0.4732589693","","","","","",""
"313","","bandit","253","632972","0.0-215.0-0.0","24379397","wem/bandit_single","AAS0V105QISPM","pain","3","","75","K","2","","0","0","1","","0.07342594821","false","178","","0.3835263095","main_expt","","0.3725785744","","0.07342594821","","0.4716065645","","","","","",""
"0","","bandit","254","634731","0.0-216.0-0.0","24379397","wem/bandit_single","AAS0V105QISPM","pain","3","","76","L","3","","0","1","0","","0.4724187392","false","179","","0.3531759074","main_expt","","0.4143512522","","0.08189943715","","0.4724187392","","","","","",""
"128","","bandit","255","636621","0.0-217.0-0.0","24379397","wem/bandit_single","AAS0V105QISPM","pain","3","","76","L","3","","0","0","1","","0.4551908631","false","180","","0.3185705061","main_expt","","0.4240428135","","0.07894611151","","0.4551908631","","","","","",""
"14","","bandit","256","638394","0.0-218.0-0.0","24379397","wem/bandit_single","AAS0V105QISPM","pain","3","","76","L","3","","0","0","1","","0.456416976","false","181","","0.2823592255","main_expt","","0.4394908049","","0.06982230443","","0.456416976","","","","","",""
"101","","bandit","257","640259","0.0-219.0-0.0","24379397","wem/bandit_single","AAS0V105QISPM","pain","3","","76","L","3","","0","1","0","","0.4525945541","false","182","","0.2741397005","main_expt","","0.4180692962","","0.06674639092","","0.4525945541","","","","","",""
"141","","bandit","258","642160","0.0-220.0-0.0","24379397","wem/bandit_single","AAS0V105QISPM","pain","3","","76","L","3","","0","0","1","","0.4439654651","false","183","","0.2936799338","main_expt","","0.4468782907","","0.04008595334","","0.4439654651","","","","","",""
"85","","bandit","259","644004","0.0-221.0-0.0","24379397","wem/bandit_single","AAS0V105QISPM","pain","3","","76","L","3","","0","1","0","","0.4366406792","false","184","","0.3027831177","main_expt","","0.4489540851","","0.04652727321","","0.4366406792","","","","","",""
"88","","bandit","260","645851","0.0-222.0-0.0","24379397","wem/bandit_single","AAS0V105QISPM","pain","3","","76","L","3","","0","1","0","","0.4282468188","false","185","","0.3180510168","main_expt","","0.4669005471","","0.05033673313","","0.4282468188","","","","","",""
"128","","bandit","261","647740","0.0-223.0-0.0","24379397","wem/bandit_single","AAS0V105QISPM","pain","3","","76","L","3","","0","0","1","","0.4249990568","false","186","","0.3285352945","main_expt","","0.419417397","","0.03009771755","","0.4249990568","","","","","",""
"7","","bandit","262","649507","0.0-224.0-0.0","24379397","wem/bandit_single","AAS0V105QISPM","pain","3","","76","L","3","","0","0","1","","0.4159118542","false","187","","0.3278715557","main_expt","","0.3735271503","","0.02601150791","","0.4159118542","","","","","",""
"8","","bandit","263","651275","0.0-225.0-0.0","24379397","wem/bandit_single","AAS0V105QISPM","pain","3","","76","L","3","","0","1","0","","0.4294829221","false","188","","0.3408065186","main_expt","","0.3339942922","","0.02389042297","","0.4294829221","","","","","",""
"31","","bandit","264","653068","0.0-226.0-0.0","24379397","wem/bandit_single","AAS0V105QISPM","pain","3","","76","L","3","","0","0","1","","0.4183094629","false","189","","0.3335894225","main_expt","","0.3200911101","","0.02303770395","","0.4183094629","","","","","",""
"121","","bandit","265","654947","0.0-227.0-0.0","24379397","wem/bandit_single","AAS0V105QISPM","pain","3","","76","L","3","","0","1","0","","0.3769048436","false","190","","0.2560009578","main_expt","","0.379511296","","0.0156858998","","0.3769048436","","","","","",""
"464","","bandit","266","657172","0.0-228.0-0.0","24379397","wem/bandit_single","AAS0V105QISPM","pain","3","","76","L","3","","0","0","1","","0.3654839124","false","191","","0.2422543603","main_expt","","0.3475909393","","0.02184200568","","0.3654839124","","","","","",""
"68","","bandit","267","659002","0.0-229.0-0.0","24379397","wem/bandit_single","AAS0V105QISPM","pain","3","","76","L","3","","0","0","1","","0.4158526776","false","192","","0.2479432207","main_expt","","0.3248483226","","0.04159540118","","0.4158526776","","","","","",""
"16","","bandit","268","660783","0.0-230.0-0.0","24379397","wem/bandit_single","AAS0V105QISPM","pain","3","","76","L","3","","0","0","1","","0.4294001388","false","193","","0.2198669916","main_expt","","0.3530355579","","0.02418359434","","0.4294001388","","","","","",""
"87","","bandit","269","662628","0.0-231.0-0.0","24379397","wem/bandit_single","AAS0V105QISPM","pain","3","","76","L","3","","0","0","1","","0.421006879","false","194","","0.1832858475","main_expt","","0.3613612536","","0.03036789999","","0.421006879","","","","","",""
"318","","bandit","270","664708","0.0-232.0-0.0","24379397","wem/bandit_single","AAS0V105QISPM","pain","3","","76","L","3","","0","0","1","","0.3993762185","false","195","","0.1758973168","main_expt","","0.3712676973","","0.0328032794","","0.3993762185","","","","","",""
"68","","bandit","271","666538","0.0-233.0-0.0","24379397","wem/bandit_single","AAS0V105QISPM","pain","3","","76","L","3","","0","0","1","","0.3953591144","false","196","","0.1472052011","main_expt","","0.3797177139","","0.03367124179","","0.3953591144","","","","","",""
"463","","bandit","272","668763","0.0-234.0-0.0","24379397","wem/bandit_single","AAS0V105QISPM","pain","3","","74","J","1","","0","0","1","","0.3703437648","false","197","","0.09357285733","main_expt","","0.3703437648","","0.03515804352","","0.4186523265","","","","","",""
"383","","bandit","273","670903","0.0-235.0-0.0","24379397","wem/bandit_single","AAS0V105QISPM","pain","3","","72","H","0","img/none_selected.jpg","0","0","1","","0.1466532231","false","198","","0.1466532231","main_expt","","0.3269028648","","0.0474911349","","0.4334783576","","","","","",""
"3","","bandit","274","672665","0.0-236.0-0.0","24379397","wem/bandit_single","AAS0V105QISPM","pain","3","","72","H","0","img/none_selected.jpg","0","0","1","","0.1745555733","false","199","","0.1745555733","main_expt","","0.2972028605","","0.04758635843","","0.452916177","","","","","",""
"74","","bandit","275","674497","0.0-237.0-0.0","24379397","wem/bandit_single","AAS0V105QISPM","pain","3","","72","H","0","img/none_selected.jpg","0","0","1","","0.1496088854","false","200","","0.1496088854","main_expt","","0.2548635421","","0.06637193447","","0.4652130485","","","","","",""
"84","","bandit","276","676340","0.0-238.0-0.0","24379397","wem/bandit_single","AAS0V105QISPM","pain","3","","74","J","1","","0","0","1","","0.2360204523","false","201","","0.1144678821","main_expt","","0.2360204523","","0.03961336895","","0.4544628945","","","","","",""
"106","","bandit","277","678210","0.0-239.0-0.0","24379397","wem/bandit_single","AAS0V105QISPM","pain","3","","74","J","1","","0","1","0","","0.1847208139","false","202","","0.08314182588","main_expt","","0.1847208139","","0.04217273593","","0.4346785174","","","","","",""
"103","","bandit","278","680076","0.0-240.0-0.0","24379397","wem/bandit_single","AAS0V105QISPM","pain","3","","74","J","1","","0","0","1","","0.1740418795","false","203","","0.1008304514","main_expt","","0.1740418795","","0.03601881868","","0.4340895374","","","","","",""
"103","","bandit","279","681944","0.0-241.0-0.0","24379397","wem/bandit_single","AAS0V105QISPM","pain","3","","74","J","1","","0","0","1","","0.1469060572","false","204","","0.1170364225","main_expt","","0.1469060572","","0.04663301139","","0.4398780919","","","","","",""
"169","","bandit","280","683878","0.0-242.0-0.0","24379397","wem/bandit_single","AAS0V105QISPM","pain","3","","74","J","1","","0","0","1","","0.1162446513","false","205","","0.1228414706","main_expt","","0.1162446513","","0.04643109282","","0.4001316318","","","","","",""
"97","","bandit","281","685739","0.0-243.0-0.0","24379397","wem/bandit_single","AAS0V105QISPM","pain","3","","75","K","2","","0","0","1","","0.06886832812","false","206","","0.1574749647","main_expt","","0.1289033918","","0.06886832812","","0.4347617828","","","","","",""
"48","","bandit","282","687545","0.0-244.0-0.0","24379397","wem/bandit_single","AAS0V105QISPM","pain","3","","75","K","2","","0","0","1","","0.0600143171","false","207","","0.1922173773","main_expt","","0.1261822501","","0.0600143171","","0.4383015813","","","","","",""
"67","","bandit","283","689372","0.0-245.0-0.0","24379397","wem/bandit_single","AAS0V105QISPM","pain","3","","76","L","3","","0","0","1","","0.4038237536","false","208","","0.1673160211","main_expt","","0.1024795668","","0.04637571639","","0.4038237536","","","","","",""
"73","","bandit","284","691203","0.0-246.0-0.0","24379397","wem/bandit_single","AAS0V105QISPM","pain","3","","76","L","3","","0","0","1","","0.3890753365","false","209","","0.1269527993","main_expt","","0.1129838087","","0.04040360689","","0.3890753365","","","","","",""
"53","","bandit","285","693015","0.0-247.0-0.0","24379397","wem/bandit_single","AAS0V105QISPM","pain","3","","76","L","3","","0","0","1","","0.3792373644","false","210","","0.1114377498","main_expt","","0.1562804612","","0.02069644656","","0.3792373644","","","","","",""
"429","","bandit","286","695203","0.0-248.0-0.0","24379397","wem/bandit_single","AAS0V105QISPM","pain","3","","72","H","0","img/none_selected.jpg","0","1","0","","0.1155820846","false","211","","0.1155820846","main_expt","","0.1363837251","","0.03173395488","","0.3780611868","","","","","",""
"121","","bandit","287","697084","0.0-249.0-0.0","24379397","wem/bandit_single","AAS0V105QISPM","pain","3","","72","H","0","img/none_selected.jpg","0","0","1","","0.1553323518","false","212","","0.1553323518","main_expt","","0.09358237554","","0.02469601981","","0.3483689532","","","","","",""
"159","","bandit","288","699003","0.0-250.0-0.0","24379397","wem/bandit_single","AAS0V105QISPM","pain","3","","72","H","0","img/none_selected.jpg","0","0","1","","0.2062901667","false","213","","0.2062901667","main_expt","","0.05743859841","","0.04258417901","","0.2874103991","","","","","",""
"136","","bandit","289","700898","0.0-251.0-0.0","24379397","wem/bandit_single","AAS0V105QISPM","pain","3","","72","H","0","img/none_selected.jpg","0","0","1","","0.2076956631","false","214","","0.2076956631","main_expt","","0.05800100084","","0.05493755721","","0.2620706088","","","","","",""
"40","","bandit","290","702698","0.0-252.0-0.0","24379397","wem/bandit_single","AAS0V105QISPM","pain","3","","74","J","1","","0","0","1","","0.05413405856","false","215","","0.2609492508","main_expt","","0.05413405856","","0.08978059799","","0.2855520155","","","","","",""
"22","","bandit","291","704480","0.0-253.0-0.0","24379397","wem/bandit_single","AAS0V105QISPM","pain","3","","74","J","1","","0","0","1","","0.03942357166","false","216","","0.2500101786","main_expt","","0.03942357166","","0.09809121306","","0.2916786734","","","","","",""
"65","","bandit","292","706307","0.0-254.0-0.0","24379397","wem/bandit_single","AAS0V105QISPM","pain","3","","75","K","2","","0","0","1","","0.1427848958","false","217","","0.2748248586","main_expt","","0.03801572204","","0.1427848958","","0.2823685681","","","","","",""
"95","","bandit","293","708164","0.0-255.0-0.0","24379397","wem/bandit_single","AAS0V105QISPM","pain","3","","75","K","2","","0","0","1","","0.1570322525","false","218","","0.311954441","main_expt","","0.03890441123","","0.1570322525","","0.2423520158","","","","","",""
"1","","bandit","294","709926","0.0-256.0-0.0","24379397","wem/bandit_single","AAS0V105QISPM","pain","3","","76","L","3","","0","0","1","","0.2949403562","false","219","","0.3632760336","main_expt","","0.01887456362","","0.1805036953","","0.2949403562","","","","","",""
"924","","bandit","295","712611","0.0-257.0-0.0","24379397","wem/bandit_single","AAS0V105QISPM","pain","3","","76","L","3","","0","0","1","","0.3123592507","false","220","","0.3369908474","main_expt","","0.02149820142","","0.1305519061","","0.3123592507","","","","","",""
"153","","bandit","296","714527","0.0-258.0-0.0","24379397","wem/bandit_single","AAS0V105QISPM","pain","3","","76","L","3","","0","1","0","","0.3184432139","false","221","","0.3047504054","main_expt","","0.03528878979","","0.09039333473","","0.3184432139","","","","","",""
"101","","bandit","297","716390","0.0-259.0-0.0","24379397","wem/bandit_single","AAS0V105QISPM","pain","3","","76","L","3","","0","0","1","","0.3596246423","false","222","","0.3107799438","main_expt","","0.03906528797","","0.0801847008","","0.3596246423","","","","","",""
"46","","bandit","298","718195","0.0-260.0-0.0","24379397","wem/bandit_single","AAS0V105QISPM","pain","3","","76","L","3","","0","1","0","","0.3048299186","false","223","","0.3359374044","main_expt","","0.04285152396","","0.08930296305","","0.3048299186","","","","","",""
"487","","bandit","299","720444","0.0-261.0-0.0","24379397","wem/bandit_single","AAS0V105QISPM","pain","3","","76","L","3","","0","0","1","","0.3097637171","false","224","","0.354776332","main_expt","","0.03308098724","","0.0783544472","","0.3097637171","","","","","",""
"169","","bandit","300","722380","0.0-262.0-0.0","24379397","wem/bandit_single","AAS0V105QISPM","pain","3","","76","L","3","","0","0","1","","0.3313621339","false","225","","0.3747964846","main_expt","","0.03318257961","","0.05733223117","","0.3313621339","","","","","",""
"403","","bandit","301","724543","0.0-263.0-0.0","24379397","wem/bandit_single","AAS0V105QISPM","pain","3","","76","L","3","","0","0","1","","0.2611013425","false","226","","0.3530330239","main_expt","","0.02568716964","","0.09472546141","","0.2611013425","","","","","",""
"109","","bandit","302","726411","0.0-264.0-0.0","24379397","wem/bandit_single","AAS0V105QISPM","pain","3","","76","L","3","","0","0","1","","0.2761398934","false","227","","0.3299445106","main_expt","","0.03534330031","","0.08353253247","","0.2761398934","","","","","",""
"64","","bandit","303","728237","0.0-265.0-0.0","24379397","wem/bandit_single","AAS0V105QISPM","pain","3","","76","L","3","","0","0","1","","0.2358148364","false","228","","0.3286020352","main_expt","","0.03702628412","","0.06220105415","","0.2358148364","","","","","",""
"61","","bandit","304","730060","0.0-266.0-0.0","24379397","wem/bandit_single","AAS0V105QISPM","pain","3","","75","K","2","","0","0","1","","0.06639782905","false","229","","0.3178943429","main_expt","","0.03077125553","","0.06639782905","","0.2091128555","","","","","",""
"39","","bandit","305","731860","0.0-267.0-0.0","24379397","wem/bandit_single","AAS0V105QISPM","pain","3","","75","K","2","","0","0","1","","0.07029464087","false","230","","0.3254915512","main_expt","","0.03752036101","","0.07029464087","","0.181986641","","","","","",""
"49","","bandit","306","733670","0.0-268.0-0.0","24379397","wem/bandit_single","AAS0V105QISPM","pain","3","","74","J","1","","0","0","1","","0.02736090244","false","231","","0.3298497064","main_expt","","0.02736090244","","0.07612781315","","0.1599443191","","","","","",""
"45","","bandit","307","735477","0.0-269.0-0.0","24379397","wem/bandit_single","AAS0V105QISPM","pain","3","","74","J","1","","0","0","1","","0.02154887034","false","232","","0.300331178","main_expt","","0.02154887034","","0.04325191911","","0.125214013","","","","","",""
"78","","bandit","308","737316","0.0-270.0-0.0","24379397","wem/bandit_single","AAS0V105QISPM","pain","3","","72","H","0","img/none_selected.jpg","0","0","1","","0.3357562734","false","233","","0.3357562734","main_expt","","0.0228348974","","0.04039924652","","0.134118517","","","","","",""
"313","","bandit","309","739390","0.0-271.0-0.0","24379397","wem/bandit_single","AAS0V105QISPM","pain","3","","72","H","0","img/none_selected.jpg","0","0","1","","0.3257461803","false","234","","0.3257461803","main_expt","","0.01030782054","","0.0435796211","","0.1238594142","","","","","",""
"236","","bandit","310","741389","0.0-272.0-0.0","24379397","wem/bandit_single","AAS0V105QISPM","pain","3","","72","H","0","img/none_selected.jpg","0","0","1","","0.3534766227","false","235","","0.3534766227","main_expt","","0.02615737471","","0.02315237623","","0.1141846942","","","","","",""
"147","","bandit","311","743298","0.0-273.0-0.0","24379397","wem/bandit_single","AAS0V105QISPM","pain","3","","76","L","3","","0","0","1","","0.1101280349","false","236","","0.3733068719","main_expt","","0.0224272094","","0.02010779399","","0.1101280349","","","","","",""
"851","","bandit","312","745911","0.0-274.0-0.0","24379397","wem/bandit_single","AAS0V105QISPM","pain","3","","76","L","3","","0","0","1","","0.09079266978","false","237","","0.4105295152","main_expt","","0.02679999918","","0.01796146932","","0.09079266978","","","","","",""
"29","","bandit","313","747708","0.0-275.0-0.0","24379397","wem/bandit_single","AAS0V105QISPM","pain","3","","76","L","3","","0","0","1","","0.1365862295","false","238","","0.4225156592","main_expt","","0.07542988795","","0.0167141813","","0.1365862295","","","","","",""
"0","","bandit","314","749470","0.0-276.0-0.0","24379397","wem/bandit_single","AAS0V105QISPM","pain","3","","76","L","3","","0","0","1","","0.1846819155","false","239","","0.4360895212","main_expt","","0.09772903","","0.03283355296","","0.1846819155","","","","","",""
"19","","bandit","315","751251","0.0-277.0-0.0","24379397","wem/bandit_single","AAS0V105QISPM","pain","3","","75","K","2","","0","0","1","","0.05325110434","false","240","","0.423514393","main_expt","","0.1044145256","","0.05325110434","","0.1795044078","","","","","",""
"57","","bandit","316","753067","0.0-278.0-0.0","24379397","wem/bandit_single","AAS0V105QISPM","pain","3","","75","K","2","","0","1","0","","0.04551940083","false","241","","0.3824942702","main_expt","","0.109937241","","0.04551940083","","0.1522343712","","","","","",""
"209","","bandit","317","755035","0.0-279.0-0.0","24379397","wem/bandit_single","AAS0V105QISPM","pain","3","","75","K","2","","0","0","1","","0.05503183359","false","242","","0.3758562762","main_expt","","0.09239004846","","0.05503183359","","0.1433696576","","","","","",""
"81","","bandit","318","756885","0.0-280.0-0.0","24379397","wem/bandit_single","AAS0V105QISPM","pain","3","","75","K","2","","0","0","1","","0.04467871076","false","243","","0.2984655584","main_expt","","0.1014218366","","0.04467871076","","0.1427577162","","","","","",""
"491","","bandit","319","759142","0.0-281.0-0.0","24379397","wem/bandit_single","AAS0V105QISPM","pain","3","","75","K","2","","0","0","1","","0.06552455376","false","244","","0.2901672904","main_expt","","0.192841162","","0.06552455376","","0.1340795621","","","","","",""
"72","","bandit","320","760979","0.0-282.0-0.0","24379397","wem/bandit_single","AAS0V105QISPM","pain","3","","74","J","1","","0","1","0","","0.1953250812","false","245","","0.2495050599","main_expt","","0.1953250812","","0.1005127954","","0.1469719784","","","","","",""
"186","","bandit","321","762925","0.0-283.0-0.0","24379397","wem/bandit_single","AAS0V105QISPM","pain","3","","74","J","1","","0","1","0","","0.1865380945","false","246","","0.2406773486","main_expt","","0.1865380945","","0.11534406","","0.140914489","","","","","",""
"103","","bandit","322","764797","0.0-284.0-0.0","24379397","wem/bandit_single","AAS0V105QISPM","pain","3","","74","J","1","","0","0","1","","0.221100819","false","247","","0.2265306157","main_expt","","0.221100819","","0.08579934652","","0.1592666071","","","","","",""
"134","","bandit","323","766702","0.0-285.0-0.0","24379397","wem/bandit_single","AAS0V105QISPM","pain","3","","74","J","1","","0","1","0","","0.2106100544","false","248","","0.2000380921","main_expt","","0.2106100544","","0.08554071629","","0.2210893918","","","","","",""
"63","","bandit","324","768523","0.0-286.0-0.0","24379397","wem/bandit_single","AAS0V105QISPM","pain","3","","74","J","1","","0","0","1","","0.2172535859","false","249","","0.1920984986","main_expt","","0.2172535859","","0.07137080198","","0.2306666851","","","","","",""
"688","","bandit","325","770973","0.0-287.0-0.0","24379397","wem/bandit_single","AAS0V105QISPM","pain","3","","74","J","1","","0","0","1","","0.1953648199","false","250","","0.1624135027","main_expt","","0.1953648199","","0.06874505311","","0.2422322172","","","","","",""
"217","","bandit","326","772948","0.0-288.0-0.0","24379397","wem/bandit_single","AAS0V105QISPM","pain","3","","74","J","1","","0","1","0","","0.2129795833","false","251","","0.2057369507","main_expt","","0.2129795833","","0.04927492375","","0.2425189851","","","","","",""
"94","","bandit","327","774804","0.0-289.0-0.0","24379397","wem/bandit_single","AAS0V105QISPM","pain","3","","74","J","1","","0","1","0","","0.2271134102","false","252","","0.26034901","main_expt","","0.2271134102","","0.0504542679","","0.1980379423","","","","","",""
"75","","bandit","328","776643","0.0-290.0-0.0","24379397","wem/bandit_single","AAS0V105QISPM","pain","3","","74","J","1","","0","0","1","","0.2152809257","false","253","","0.1886300366","main_expt","","0.2152809257","","0.0313618618","","0.2040952335","","","","","",""
"613","","bandit","329","779029","0.0-291.0-0.0","24379397","wem/bandit_single","AAS0V105QISPM","pain","3","","74","J","1","","0","1","0","","0.2065685424","false","254","","0.1978078828","main_expt","","0.2065685424","","0.0191685034","","0.1621407843","","","","","",""
"173","","bandit","330","780963","0.0-292.0-0.0","24379397","wem/bandit_single","AAS0V105QISPM","pain","3","","74","J","1","","0","0","1","","0.2000715388","false","255","","0.1544468143","main_expt","","0.2000715388","","0.01882474885","","0.1817956319","","","","","",""
"310","","bandit","331","783035","0.0-293.0-0.0","24379397","wem/bandit_single","AAS0V105QISPM","pain","3","","74","J","1","","0","0","1","","0.1997851389","false","256","","0.1552120094","main_expt","","0.1997851389","","0.01765542058","","0.1796151025","","","","","",""
"135","","bandit","332","784930","0.0-294.0-0.0","24379397","wem/bandit_single","AAS0V105QISPM","pain","3","","74","J","1","","0","0","1","","0.1965173465","false","257","","0.1337291471","main_expt","","0.1965173465","","0.0162265086","","0.1874922979","","","","","",""
"96","","bandit","333","786787","0.0-295.0-0.0","24379397","wem/bandit_single","AAS0V105QISPM","pain","3","","74","J","1","","0","0","1","","0.1816932188","false","258","","0.1279332347","main_expt","","0.1816932188","","0.01630278654","","0.2152410464","","","","","",""
"200","","bandit","334","788756","0.0-296.0-0.0","24379397","wem/bandit_single","AAS0V105QISPM","pain","3","","74","J","1","","0","0","1","","0.2275026539","false","259","","0.152418206","main_expt","","0.2275026539","","0.0149919991","","0.2311433436","","","","","",""
"129","","bandit","335","790644","0.0-297.0-0.0","24379397","wem/bandit_single","AAS0V105QISPM","pain","3","","74","J","1","","0","0","1","","0.1798156178","false","260","","0.1100328583","main_expt","","0.1798156178","","0.02225913397","","0.1621257941","","","","","",""
"60","","bandit","336","792466","0.0-298.0-0.0","24379397","wem/bandit_single","AAS0V105QISPM","pain","3","","74","J","1","","0","0","1","","0.187122726","false","261","","0.1537012171","main_expt","","0.187122726","","0.02865634389","","0.1219102136","","","","","",""
"406","","bandit","337","794643","0.0-299.0-0.0","24379397","wem/bandit_single","AAS0V105QISPM","pain","3","","74","J","1","","0","0","1","","0.1507521212","false","262","","0.1302597035","main_expt","","0.1507521212","","0.03173788073","","0.1667536199","","","","","",""
"53","","bandit","338","796458","0.0-300.0-0.0","24379397","wem/bandit_single","AAS0V105QISPM","pain","3","","74","J","1","","0","1","0","","0.1374951011","false","263","","0.1297736826","main_expt","","0.1374951011","","0.04250990858","","0.1361259709","","","","","",""
"323","","bandit","339","798547","0.0-301.0-0.0","24379397","wem/bandit_single","AAS0V105QISPM","pain","3","","74","J","1","","0","0","1","","0.1158818852","false","264","","0.1326654045","main_expt","","0.1158818852","","0.056503948","","0.1217381733","","","","","",""
"149","","bandit","340","800458","0.0-302.0-0.0","24379397","wem/bandit_single","AAS0V105QISPM","pain","3","","72","H","0","img/none_selected.jpg","0","0","1","","0.1586413096","false","265","","0.1586413096","main_expt","","0.1147359408","","0.07592662832","","0.1258265959","","","","","",""
"175","","bandit","341","802396","0.0-303.0-0.0","24379397","wem/bandit_single","AAS0V105QISPM","pain","3","","72","H","0","img/none_selected.jpg","0","1","0","","0.1496521415","false","266","","0.1496521415","main_expt","","0.09491002089","","0.1002340293","","0.1445769791","","","","","",""
"261","","bandit","342","804419","0.0-304.0-0.0","24379397","wem/bandit_single","AAS0V105QISPM","pain","3","","72","H","0","img/none_selected.jpg","0","0","1","","0.1410052581","false","267","","0.1410052581","main_expt","","0.1181284109","","0.1526998269","","0.1014120844","","","","","",""
"256","","bandit","343","806434","0.0-305.0-0.0","24379397","wem/bandit_single","AAS0V105QISPM","pain","3","","72","H","0","img/none_selected.jpg","0","0","1","","0.145208313","false","268","","0.145208313","main_expt","","0.1054434992","","0.1340815566","","0.06386630904","","","","","",""
"118","","bandit","344","808315","0.0-306.0-0.0","24379397","wem/bandit_single","AAS0V105QISPM","pain","3","","72","H","0","img/none_selected.jpg","0","0","1","","0.1387339362","false","269","","0.1387339362","main_expt","","0.1307900039","","0.1350059692","","0.03725778621","","","","","",""
"133","","bandit","345","810211","0.0-307.0-0.0","24379397","wem/bandit_single","AAS0V105QISPM","pain","3","","72","H","0","img/none_selected.jpg","0","0","1","","0.1822325734","false","270","","0.1822325734","main_expt","","0.1444746669","","0.1008257698","","0.02825676517","","","","","",""
"198","","bandit","346","812178","0.0-308.0-0.0","24379397","wem/bandit_single","AAS0V105QISPM","pain","3","","72","H","0","img/none_selected.jpg","0","0","1","","0.1752825828","false","271","","0.1752825828","main_expt","","0.1622504114","","0.1257425884","","0.02967844624","","","","","",""
"116","","bandit","347","814056","0.0-309.0-0.0","24379397","wem/bandit_single","AAS0V105QISPM","pain","3","","72","H","0","img/none_selected.jpg","0","0","1","","0.1572277832","false","272","","0.1572277832","main_expt","","0.1814673171","","0.1363444874","","0.03051557875","","","","","",""
"450","","bandit","348","816276","0.0-310.0-0.0","24379397","wem/bandit_single","AAS0V105QISPM","pain","3","","72","H","0","img/none_selected.jpg","0","0","1","","0.1609880977","false","273","","0.1609880977","main_expt","","0.1930303076","","0.1090842693","","0.0408401102","","","","","",""
"104","","bandit","349","818149","0.0-311.0-0.0","24379397","wem/bandit_single","AAS0V105QISPM","pain","3","","72","H","0","img/none_selected.jpg","0","0","1","","0.2228580822","false","274","","0.2228580822","main_expt","","0.1704680895","","0.1397265487","","0.03240614182","","","","","",""
"36","","bandit","350","819954","0.0-312.0-0.0","24379397","wem/bandit_single","AAS0V105QISPM","pain","3","","74","J","1","","0","0","1","","0.1785534293","false","275","","0.2126640298","main_expt","","0.1785534293","","0.210641606","","0.04120982645","","","","","",""
"80","","bandit","351","821793","0.0-313.0-0.0","24379397","wem/bandit_single","AAS0V105QISPM","pain","3","","74","J","1","","0","0","1","","0.1843971019","false","276","","0.2006548762","main_expt","","0.1843971019","","0.1523626192","","0.04353307789","","","","","",""
"120","","bandit","352","823683","0.0-314.0-0.0","24379397","wem/bandit_single","AAS0V105QISPM","pain","3","","74","J","1","","0","0","1","","0.2042268453","false","277","","0.1986275587","main_expt","","0.2042268453","","0.16102954","","0.0172565486","","","","","",""
"106","","bandit","353","825550","0.0-315.0-0.0","24379397","wem/bandit_single","AAS0V105QISPM","pain","3","","75","K","2","","0","0","1","","0.1166001048","false","278","","0.1321506531","main_expt","","0.1609113936","","0.1166001048","","0.02582715814","","","","","",""
"1","","bandit","354","827314","0.0-316.0-0.0","24379397","wem/bandit_single","AAS0V105QISPM","pain","3","","75","K","2","","0","0","1","","0.1427402012","false","279","","0.2112193978","main_expt","","0.1604878733","","0.1427402012","","0.03609925784","","","","","",""
"606","","bandit","355","829685","0.0-317.0-0.0","24379397","wem/bandit_single","AAS0V105QISPM","pain","3","","75","K","2","","0","0","1","","0.1524149458","false","280","","0.1872216356","main_expt","","0.1678567182","","0.1524149458","","0.02629944548","","","","","",""
"277","","bandit","356","831731","0.0-318.0-0.0","24379397","wem/bandit_single","AAS0V105QISPM","pain","3","","75","K","2","","0","0","1","","0.1638207856","false","281","","0.1635487084","main_expt","","0.1338700362","","0.1638207856","","0.01890368782","","","","","",""
"32","","bandit","357","833525","0.0-319.0-0.0","24379397","wem/bandit_single","AAS0V105QISPM","pain","3","","76","L","3","","0","0","1","","0.01508823693","false","282","","0.1576359327","main_expt","","0.2010661714","","0.1055747009","","0.01508823693","","","","","",""
"117","","bandit","358","835413","0.0-320.0-0.0","24379397","wem/bandit_single","AAS0V105QISPM","pain","3","","76","L","3","","0","0","1","","0.01359220223","false","283","","0.21861051","main_expt","","0.1763159594","","0.1121395768","","0.01359220223","","","","","",""
"33","","bandit","359","837205","0.0-321.0-0.0","24379397","wem/bandit_single","AAS0V105QISPM","pain","3","","76","L","3","","0","0","1","","0.01691173417","false","284","","0.180487154","main_expt","","0.2379754842","","0.1110051372","","0.01691173417","","","","","",""
"95","","bandit","360","839062","0.0-322.0-0.0","24379397","wem/bandit_single","AAS0V105QISPM","pain","3","","76","L","3","","0","0","1","","0.01734240677","false","285","","0.1641106304","main_expt","","0.2769670592","","0.1746572204","","0.01734240677","","","","","",""
"5","","bandit","361","840828","0.0-323.0-0.0","24379397","wem/bandit_single","AAS0V105QISPM","pain","3","","76","L","3","","0","0","1","","0.01574531315","false","286","","0.1866508097","main_expt","","0.3002963297","","0.2038956484","","0.01574531315","","","","","",""
"28","","bandit","362","842619","0.0-324.0-0.0","24379397","wem/bandit_single","AAS0V105QISPM","pain","3","","75","K","2","","0","0","1","","0.2396876396","false","287","","0.1339791425","main_expt","","0.2804215723","","0.2396876396","","0.011703364","","","","","",""
"184","","bandit","363","844565","0.0-325.0-0.0","24379397","wem/bandit_single","AAS0V105QISPM","pain","3","","75","K","2","","0","0","1","","0.2300823482","false","288","","0.1910191906","main_expt","","0.2873948651","","0.2300823482","","0.01499165326","","","","","",""
"413","","bandit","364","846738","0.0-326.0-0.0","24379397","wem/bandit_single","AAS0V105QISPM","pain","3","","74","J","1","","0","0","1","","0.3383825142","false","289","","0.1987886011","main_expt","","0.3383825142","","0.2697946193","","0.01307353483","","","","","",""
"105","","bandit","365","848605","0.0-327.0-0.0","24379397","wem/bandit_single","AAS0V105QISPM","pain","3","","74","J","1","","0","1","0","","0.3597664772","false","290","","0.2163493667","main_expt","","0.3597664772","","0.3030113395","","0.005839555229","","","","","",""
"487","","bandit","366","850862","0.0-328.0-0.0","24379397","wem/bandit_single","AAS0V105QISPM","pain","3","","74","J","1","","0","0","1","","0.3684517111","false","291","","0.1987756658","main_expt","","0.3684517111","","0.2903670118","","0.00760433752","","","","","",""
"91","","bandit","367","852716","0.0-329.0-0.0","24379397","wem/bandit_single","AAS0V105QISPM","pain","3","","74","J","1","","0","0","1","","0.3471931258","false","292","","0.1996771378","main_expt","","0.3471931258","","0.3219279298","","0.01807310376","","","","","",""
"69","","bandit","368","854555","0.0-330.0-0.0","24379397","wem/bandit_single","AAS0V105QISPM","pain","3","","74","J","1","","0","0","1","","0.3742872252","false","293","","0.2067525645","main_expt","","0.3742872252","","0.2585416619","","0.02882206876","","","","","",""
"102","","bandit","369","856420","0.0-331.0-0.0","24379397","wem/bandit_single","AAS0V105QISPM","pain","3","","72","H","0","img/none_selected.jpg","0","0","1","","0.230585761","false","294","","0.230585761","main_expt","","0.3937541296","","0.3093607287","","0.02728804169","","","","","",""
"39","","bandit","370","858221","0.0-332.0-0.0","24379397","wem/bandit_single","AAS0V105QISPM","pain","3","","72","H","0","img/none_selected.jpg","0","0","1","","0.1936278336","false","295","","0.1936278336","main_expt","","0.3331550888","","0.315069057","","0.01545304162","","","","","",""
"85","","bandit","371","860073","0.0-333.0-0.0","24379397","wem/bandit_single","AAS0V105QISPM","pain","3","","72","H","0","img/none_selected.jpg","0","0","1","","0.1733248866","false","296","","0.1733248866","main_expt","","0.3564327955","","0.3556215031","","0.01463146341","","","","","",""
"258","","bandit","372","862093","0.0-334.0-0.0","24379397","wem/bandit_single","AAS0V105QISPM","pain","3","","72","H","0","img/none_selected.jpg","0","0","1","","0.1762096585","false","297","","0.1762096585","main_expt","","0.3344242189","","0.3380436511","","0.03487584845","","","","","",""
"126","","bandit","373","863978","0.0-335.0-0.0","24379397","wem/bandit_single","AAS0V105QISPM","pain","3","","72","H","0","img/none_selected.jpg","0","0","1","","0.176801175","false","298","","0.176801175","main_expt","","0.3434582948","","0.347815101","","0.04917346329","","","","","",""
"33","","bandit","374","865773","0.0-336.0-0.0","24379397","wem/bandit_single","AAS0V105QISPM","pain","3","","75","K","2","","0","0","1","","0.3608262918","false","299","","0.1784780758","main_expt","","0.3432424117","","0.3608262918","","0.05764452585","","","","","",""
"555","","bandit","375","868093","0.0-337.0-0.0","24379397","wem/bandit_single","AAS0V105QISPM","pain","3","","74","J","1","","0","0","1","","0.2900759124","false","300","","0.1781250762","main_expt","","0.2900759124","","0.3847884241","","0.06878401483","","","","","",""
