"rt","responses","trial_type","trial_index","time_elapsed","internal_node_id","subjID","study","MID","cond","drift","key_press","respCharCode","respKey","respChoiceNum","respChoice","gems","bombs","no_reward","GemPrChosen","BombPrChosen","practice","trial_counter","WinPr_0","LosePr_0","trial_label","WinPr_1","LosePr_1","WinPr_2","LosePr_2","WinPr_3","LosePr_3","Q0","Q1","Q2","gender","age","ethnicity"
"13559","{""Q0"":""A3OYUJ6E6BJS4H""}","survey-text","0","13565","0.0-0.0","25114720","wem/bandit_single","A3OYUJ6E6BJS4H","gain","4","","","","","","","","","","","","","","","","","","","","","","","","","","",""
"3736","","text","1","18307","0.0-1.0","25114720","wem/bandit_single","A3OYUJ6E6BJS4H","gain","4","32","","","","","","","","","","","","","","","","","","","","","","","","","",""
"9222","","text","2","27530","0.0-2.0","25114720","wem/bandit_single","A3OYUJ6E6BJS4H","gain","4","32","","","","","","","","","","","","","","","","","","","","","","","","","",""
"31000","","text","3","58532","0.0-3.0","25114720","wem/bandit_single","A3OYUJ6E6BJS4H","gain","4","32","","","","","","","","","","","","","","","","","","","","","","","","","",""
"19544","","text","4","78077","0.0-4.0","25114720","wem/bandit_single","A3OYUJ6E6BJS4H","gain","4","32","","","","","","","","","","","","","","","","","","","","","","","","","",""
"10148","","text","5","88226","0.0-5.0","25114720","wem/bandit_single","A3OYUJ6E6BJS4H","gain","4","32","","","","","","","","","","","","","","","","","","","","","","","","","",""
"8510","","text","6","96737","0.0-6.0","25114720","wem/bandit_single","A3OYUJ6E6BJS4H","gain","4","32","","","","","","","","","","","","","","","","","","","","","","","","","",""
"5218","","text","7","101956","0.0-7.0","25114720","wem/bandit_single","A3OYUJ6E6BJS4H","gain","4","32","","","","","","","","","","","","","","","","","","","","","","","","","",""
"4702","","text","8","106660","0.0-8.0","25114720","wem/bandit_single","A3OYUJ6E6BJS4H","gain","4","32","","","","","","","","","","","","","","","","","","","","","","","","","",""
"3957","","text","9","110618","0.0-9.0","25114720","wem/bandit_single","A3OYUJ6E6BJS4H","gain","4","32","","","","","","","","","","","","","","","","","","","","","","","","","",""
"8940","","text","10","119558","0.0-10.0","25114720","wem/bandit_single","A3OYUJ6E6BJS4H","gain","4","32","","","","","","","","","","","","","","","","","","","","","","","","","",""
"18043","","text","11","137603","0.0-11.0","25114720","wem/bandit_single","A3OYUJ6E6BJS4H","gain","4","32","","","","","","","","","","","","","","","","","","","","","","","","","",""
"2755","","bandit","12","141892","0.0-12.0-0.0","25114720","wem/bandit_single","A3OYUJ6E6BJS4H","gain","4","","74","J","0","img/none_selected_demo.jpg","0","0","1","0","0","true","0","0","0","","","","","","","","","","","","",""
"1590","","bandit","13","145258","0.0-13.0-0.0","25114720","wem/bandit_single","A3OYUJ6E6BJS4H","gain","4","","75","K","0","img/none_selected_demo.jpg","0","0","1","0","0","true","0","0","0","","","","","","","","","","","","",""
"3415","","text","14","148925","0.0-14.0","25114720","wem/bandit_single","A3OYUJ6E6BJS4H","gain","4","32","","","","","","","","","","","","","","","","","","","","","","","","","",""
"3392","","text","15","152319","0.0-15.0","25114720","wem/bandit_single","A3OYUJ6E6BJS4H","gain","4","32","","","","","","","","","","","","","","","","","","","","","","","","","",""
"4978","","text","16","157298","0.0-16.0","25114720","wem/bandit_single","A3OYUJ6E6BJS4H","gain","4","32","","","","","","","","","","","","","","","","","","","","","","","","","",""
"4859","","text","17","162158","0.0-17.0","25114720","wem/bandit_single","A3OYUJ6E6BJS4H","gain","4","32","","","","","","","","","","","","","","","","","","","","","","","","","",""
"3461","","bandit","18","167131","0.0-18.0-0.0","25114720","wem/bandit_single","A3OYUJ6E6BJS4H","gain","4","","74","J","0","img/none_selected_demo.jpg","1","0","0","0.8","0","true","0","0.8","0","80_20_practice","0.2","0","","","","","","","","","",""
"1418","","bandit","19","170318","0.0-18.0-1.0","25114720","wem/bandit_single","A3OYUJ6E6BJS4H","gain","4","","74","J","0","img/none_selected_demo.jpg","1","0","0","0.8","0","true","0","0.8","0","80_20_practice","0.2","0","","","","","","","","","",""
"1147","","bandit","20","173242","0.0-18.0-2.0","25114720","wem/bandit_single","A3OYUJ6E6BJS4H","gain","4","","75","K","1","","1","0","0","0.2","0","true","0","0.8","0","80_20_practice","0.2","0","","","","","","","","","",""
"761","","bandit","21","175784","0.0-18.0-3.0","25114720","wem/bandit_single","A3OYUJ6E6BJS4H","gain","4","","75","K","1","","0","0","1","0.2","0","true","0","0.8","0","80_20_practice","0.2","0","","","","","","","","","",""
"563","","bandit","22","178132","0.0-18.0-4.0","25114720","wem/bandit_single","A3OYUJ6E6BJS4H","gain","4","","74","J","0","img/none_selected_demo.jpg","1","0","0","0.8","0","true","0","0.8","0","80_20_practice","0.2","0","","","","","","","","","",""
"435","","bandit","23","180358","0.0-18.0-5.0","25114720","wem/bandit_single","A3OYUJ6E6BJS4H","gain","4","","74","J","0","img/none_selected_demo.jpg","0","0","1","0.8","0","true","0","0.8","0","80_20_practice","0.2","0","","","","","","","","","",""
"531","","bandit","24","182663","0.0-18.0-6.0","25114720","wem/bandit_single","A3OYUJ6E6BJS4H","gain","4","","74","J","0","img/none_selected_demo.jpg","1","0","0","0.8","0","true","0","0.8","0","80_20_practice","0.2","0","","","","","","","","","",""
"262","","bandit","25","184710","0.0-18.0-7.0","25114720","wem/bandit_single","A3OYUJ6E6BJS4H","gain","4","","75","K","1","","1","0","0","0.2","0","true","0","0.8","0","80_20_practice","0.2","0","","","","","","","","","",""
"495","","bandit","26","186983","0.0-18.0-8.0","25114720","wem/bandit_single","A3OYUJ6E6BJS4H","gain","4","","75","K","1","","0","0","1","0.2","0","true","0","0.8","0","80_20_practice","0.2","0","","","","","","","","","",""
"198","","bandit","27","188956","0.0-18.0-9.0","25114720","wem/bandit_single","A3OYUJ6E6BJS4H","gain","4","","75","K","1","","0","0","1","0.2","0","true","0","0.8","0","80_20_practice","0.2","0","","","","","","","","","",""
"163","","bandit","28","190899","0.0-18.0-10.0","25114720","wem/bandit_single","A3OYUJ6E6BJS4H","gain","4","","74","J","0","img/none_selected_demo.jpg","1","0","0","0.8","0","true","0","0.8","0","80_20_practice","0.2","0","","","","","","","","","",""
"321","","bandit","29","192985","0.0-18.0-11.0","25114720","wem/bandit_single","A3OYUJ6E6BJS4H","gain","4","","74","J","0","img/none_selected_demo.jpg","1","0","0","0.8","0","true","0","0.8","0","80_20_practice","0.2","0","","","","","","","","","",""
"353","","bandit","30","195116","0.0-18.0-12.0","25114720","wem/bandit_single","A3OYUJ6E6BJS4H","gain","4","","74","J","0","img/none_selected_demo.jpg","1","0","0","0.8","0","true","0","0.8","0","80_20_practice","0.2","0","","","","","","","","","",""
"391","","bandit","31","197290","0.0-18.0-13.0","25114720","wem/bandit_single","A3OYUJ6E6BJS4H","gain","4","","74","J","0","img/none_selected_demo.jpg","1","0","0","0.8","0","true","0","0.8","0","80_20_practice","0.2","0","","","","","","","","","",""
"458","","bandit","32","199522","0.0-18.0-14.0","25114720","wem/bandit_single","A3OYUJ6E6BJS4H","gain","4","","74","J","0","img/none_selected_demo.jpg","1","0","0","0.8","0","true","0","0.8","0","80_20_practice","0.2","0","","","","","","","","","",""
"730","","bandit","33","202039","0.0-18.0-15.0","25114720","wem/bandit_single","A3OYUJ6E6BJS4H","gain","4","","74","J","0","img/none_selected_demo.jpg","1","0","0","0.8","0","true","0","0.8","0","80_20_practice","0.2","0","","","","","","","","","",""
"309","","bandit","34","204133","0.0-18.0-16.0","25114720","wem/bandit_single","A3OYUJ6E6BJS4H","gain","4","","74","J","0","img/none_selected_demo.jpg","0","0","1","0.8","0","true","0","0.8","0","80_20_practice","0.2","0","","","","","","","","","",""
"328","","bandit","35","206242","0.0-18.0-17.0","25114720","wem/bandit_single","A3OYUJ6E6BJS4H","gain","4","","74","J","0","img/none_selected_demo.jpg","1","0","0","0.8","0","true","0","0.8","0","80_20_practice","0.2","0","","","","","","","","","",""
"366","","bandit","36","208371","0.0-18.0-18.0","25114720","wem/bandit_single","A3OYUJ6E6BJS4H","gain","4","","74","J","0","img/none_selected_demo.jpg","1","0","0","0.8","0","true","0","0.8","0","80_20_practice","0.2","0","","","","","","","","","",""
"335","","bandit","37","210466","0.0-18.0-19.0","25114720","wem/bandit_single","A3OYUJ6E6BJS4H","gain","4","","74","J","0","img/none_selected_demo.jpg","1","0","0","0.8","0","true","0","0.8","0","80_20_practice","0.2","0","","","","","","","","","",""
"6214","","text","38","216941","0.0-19.0","25114720","wem/bandit_single","A3OYUJ6E6BJS4H","gain","4","32","","","","","","","","","","","","","","","","","","","","","","","","","",""
"2545","","bandit","39","220998","0.0-20.0-0.0","25114720","wem/bandit_single","A3OYUJ6E6BJS4H","gain","4","","74","J","0","img/none_selected_demo.jpg","0","0","1","0","0","true","0","0","0","","0","0","","","","","","","","","",""
"9316","","text","40","230572","0.0-21.0","25114720","wem/bandit_single","A3OYUJ6E6BJS4H","gain","4","32","","","","","","","","","","","","","","","","","","","","","","","","","",""
"4021","","text","41","234595","0.0-22.0","25114720","wem/bandit_single","A3OYUJ6E6BJS4H","gain","4","32","","","","","","","","","","","","","","","","","","","","","","","","","",""
"3738","","text","42","238334","0.0-23.0","25114720","wem/bandit_single","A3OYUJ6E6BJS4H","gain","4","32","","","","","","","","","","","","","","","","","","","","","","","","","",""
"3419","","text","43","241755","0.0-24.0","25114720","wem/bandit_single","A3OYUJ6E6BJS4H","gain","4","32","","","","","","","","","","","","","","","","","","","","","","","","","",""
"17682","","text","44","259437","0.0-25.0","25114720","wem/bandit_single","A3OYUJ6E6BJS4H","gain","4","32","","","","","","","","","","","","","","","","","","","","","","","","","",""
"8130","","text","45","267568","0.0-26.0","25114720","wem/bandit_single","A3OYUJ6E6BJS4H","gain","4","32","","","","","","","","","","","","","","","","","","","","","","","","","",""
"7895","","text","46","275465","0.0-27.0","25114720","wem/bandit_single","A3OYUJ6E6BJS4H","gain","4","32","","","","","","","","","","","","","","","","","","","","","","","","","",""
"4736","","text","47","280202","0.0-28.0","25114720","wem/bandit_single","A3OYUJ6E6BJS4H","gain","4","32","","","","","","","","","","","","","","","","","","","","","","","","","",""
"7235","","text","48","287439","0.0-29.0","25114720","wem/bandit_single","A3OYUJ6E6BJS4H","gain","4","32","","","","","","","","","","","","","","","","","","","","","","","","","",""
"2825","","text","49","290266","0.0-30.0","25114720","wem/bandit_single","A3OYUJ6E6BJS4H","gain","4","32","","","","","","","","","","","","","","","","","","","","","","","","","",""
"5135","","text","50","295403","0.0-31.0","25114720","wem/bandit_single","A3OYUJ6E6BJS4H","gain","4","32","","","","","","","","","","","","","","","","","","","","","","","","","",""
"4751","","bandit","51","301678","0.0-32.0-0.0","25114720","wem/bandit_single","A3OYUJ6E6BJS4H","gain","4","","72","H","0","img/none_selected.jpg","1","0","0","0.8","0","true","0","0.8","0","full_practice","0.2","0","0.6","0","0.2","0","","","","","",""
"742","","bandit","52","304180","0.0-32.0-1.0","25114720","wem/bandit_single","A3OYUJ6E6BJS4H","gain","4","","72","H","0","img/none_selected.jpg","1","0","0","0.8","0","true","0","0.8","0","full_practice","0.2","0","0.6","0","0.2","0","","","","","",""
"797","","bandit","53","306753","0.0-32.0-2.0","25114720","wem/bandit_single","A3OYUJ6E6BJS4H","gain","4","","72","H","0","img/none_selected.jpg","1","0","0","0.8","0","true","0","0.8","0","full_practice","0.2","0","0.6","0","0.2","0","","","","","",""
"561","","bandit","54","309094","0.0-32.0-3.0","25114720","wem/bandit_single","A3OYUJ6E6BJS4H","gain","4","","72","H","0","img/none_selected.jpg","1","0","0","0.8","0","true","0","0.8","0","full_practice","0.2","0","0.6","0","0.2","0","","","","","",""
"637","","bandit","55","311499","0.0-32.0-4.0","25114720","wem/bandit_single","A3OYUJ6E6BJS4H","gain","4","","72","H","0","img/none_selected.jpg","1","0","0","0.8","0","true","0","0.8","0","full_practice","0.2","0","0.6","0","0.2","0","","","","","",""
"754","","bandit","56","314028","0.0-32.0-5.0","25114720","wem/bandit_single","A3OYUJ6E6BJS4H","gain","4","","72","H","0","img/none_selected.jpg","1","0","0","0.8","0","true","0","0.8","0","full_practice","0.2","0","0.6","0","0.2","0","","","","","",""
"641","","bandit","57","316453","0.0-32.0-6.0","25114720","wem/bandit_single","A3OYUJ6E6BJS4H","gain","4","","72","H","0","img/none_selected.jpg","1","0","0","0.8","0","true","0","0.8","0","full_practice","0.2","0","0.6","0","0.2","0","","","","","",""
"1134","","bandit","58","319348","0.0-32.0-7.0","25114720","wem/bandit_single","A3OYUJ6E6BJS4H","gain","4","","74","J","1","","0","0","1","0.2","0","true","0","0.8","0","full_practice","0.2","0","0.6","0","0.2","0","","","","","",""
"275","","bandit","59","321392","0.0-32.0-8.0","25114720","wem/bandit_single","A3OYUJ6E6BJS4H","gain","4","","75","K","2","","1","0","0","0.6","0","true","0","0.8","0","full_practice","0.2","0","0.6","0","0.2","0","","","","","",""
"127","","bandit","60","323284","0.0-32.0-9.0","25114720","wem/bandit_single","A3OYUJ6E6BJS4H","gain","4","","76","L","3","","0","0","1","0.2","0","true","0","0.8","0","full_practice","0.2","0","0.6","0","0.2","0","","","","","",""
"447","","bandit","61","325504","0.0-32.0-10.0","25114720","wem/bandit_single","A3OYUJ6E6BJS4H","gain","4","","75","K","2","","0","0","1","0.6","0","true","0","0.8","0","full_practice","0.2","0","0.6","0","0.2","0","","","","","",""
"56","","bandit","62","327328","0.0-32.0-11.0","25114720","wem/bandit_single","A3OYUJ6E6BJS4H","gain","4","","74","J","1","","0","0","1","0.2","0","true","0","0.8","0","full_practice","0.2","0","0.6","0","0.2","0","","","","","",""
"105","","bandit","63","329201","0.0-32.0-12.0","25114720","wem/bandit_single","A3OYUJ6E6BJS4H","gain","4","","72","H","0","img/none_selected.jpg","1","0","0","0.8","0","true","0","0.8","0","full_practice","0.2","0","0.6","0","0.2","0","","","","","",""
"373","","bandit","64","331342","0.0-32.0-13.0","25114720","wem/bandit_single","A3OYUJ6E6BJS4H","gain","4","","72","H","0","img/none_selected.jpg","1","0","0","0.8","0","true","0","0.8","0","full_practice","0.2","0","0.6","0","0.2","0","","","","","",""
"403","","bandit","65","333521","0.0-32.0-14.0","25114720","wem/bandit_single","A3OYUJ6E6BJS4H","gain","4","","72","H","0","img/none_selected.jpg","1","0","0","0.8","0","true","0","0.8","0","full_practice","0.2","0","0.6","0","0.2","0","","","","","",""
"194","","bandit","66","335489","0.0-32.0-15.0","25114720","wem/bandit_single","A3OYUJ6E6BJS4H","gain","4","","72","H","0","img/none_selected.jpg","1","0","0","0.8","0","true","0","0.8","0","full_practice","0.2","0","0.6","0","0.2","0","","","","","",""
"84","","bandit","67","337342","0.0-32.0-16.0","25114720","wem/bandit_single","A3OYUJ6E6BJS4H","gain","4","","72","H","0","img/none_selected.jpg","1","0","0","0.8","0","true","0","0.8","0","full_practice","0.2","0","0.6","0","0.2","0","","","","","",""
"458","","bandit","68","339574","0.0-32.0-17.0","25114720","wem/bandit_single","A3OYUJ6E6BJS4H","gain","4","","72","H","0","img/none_selected.jpg","1","0","0","0.8","0","true","0","0.8","0","full_practice","0.2","0","0.6","0","0.2","0","","","","","",""
"369","","bandit","69","341717","0.0-32.0-18.0","25114720","wem/bandit_single","A3OYUJ6E6BJS4H","gain","4","","72","H","0","img/none_selected.jpg","1","0","0","0.8","0","true","0","0.8","0","full_practice","0.2","0","0.6","0","0.2","0","","","","","",""
"59","","bandit","70","343572","0.0-32.0-19.0","25114720","wem/bandit_single","A3OYUJ6E6BJS4H","gain","4","","74","J","1","","0","0","1","0.2","0","true","0","0.8","0","full_practice","0.2","0","0.6","0","0.2","0","","","","","",""
"3167","","text","71","347006","0.0-33.0","25114720","wem/bandit_single","A3OYUJ6E6BJS4H","gain","4","32","","","","","","","","","","","","","","","","","","","","","","","","","",""
"16627","","text","72","364650","0.0-34.0","25114720","wem/bandit_single","A3OYUJ6E6BJS4H","gain","4","32","","","","","","","","","","","","","","","","","","","","","","","","","",""
"6395","","text","73","371047","0.0-35.0","25114720","wem/bandit_single","A3OYUJ6E6BJS4H","gain","4","32","","","","","","","","","","","","","","","","","","","","","","","","","",""
"7733","","text","74","378782","0.0-36.0","25114720","wem/bandit_single","A3OYUJ6E6BJS4H","gain","4","32","","","","","","","","","","","","","","","","","","","","","","","","","",""
"9125","","text","75","387908","0.0-37.0","25114720","wem/bandit_single","A3OYUJ6E6BJS4H","gain","4","32","","","","","","","","","","","","","","","","","","","","","","","","","",""
"1421","","bandit","76","390857","0.0-38.0-0.0","25114720","wem/bandit_single","A3OYUJ6E6BJS4H","gain","4","","76","L","3","","0","0","1","0.1530555908","","false","1","0.04789219489","","main_expt","0.1534711312","","0.2633340886","","0.1530555908","","","","","","",""
"238","","bandit","77","392860","0.0-39.0-0.0","25114720","wem/bandit_single","A3OYUJ6E6BJS4H","gain","4","","75","K","2","","1","0","0","0.288049036","","false","2","0.06526788736","","main_expt","0.1140054314","","0.288049036","","0.103598712","","","","","","",""
"464","","bandit","78","395100","0.0-40.0-0.0","25114720","wem/bandit_single","A3OYUJ6E6BJS4H","gain","4","","75","K","2","","1","0","0","0.2979487298","","false","3","0.04764418461","","main_expt","0.1012650834","","0.2979487298","","0.08136741005","","","","","","",""
"514","","bandit","79","397391","0.0-41.0-0.0","25114720","wem/bandit_single","A3OYUJ6E6BJS4H","gain","4","","75","K","2","","1","0","0","0.3306303211","","false","4","0.05056035824","","main_expt","0.09541256236","","0.3306303211","","0.08723083084","","","","","","",""
"371","","bandit","80","399544","0.0-42.0-0.0","25114720","wem/bandit_single","A3OYUJ6E6BJS4H","gain","4","","75","K","2","","0","0","1","0.2438199519","","false","5","0.05944929255","","main_expt","0.07842998328","","0.2438199519","","0.1255982651","","","","","","",""
"366","","bandit","81","401703","0.0-43.0-0.0","25114720","wem/bandit_single","A3OYUJ6E6BJS4H","gain","4","","75","K","2","","0","0","1","0.2362074668","","false","6","0.09562353852","","main_expt","0.09158282766","","0.2362074668","","0.09044777998","","","","","","",""
"126","","bandit","82","403612","0.0-44.0-0.0","25114720","wem/bandit_single","A3OYUJ6E6BJS4H","gain","4","","74","J","1","","0","0","1","0.09712353232","","false","7","0.08069121891","","main_expt","0.09712353232","","0.2591683673","","0.1067491613","","","","","","",""
"52","","bandit","83","405457","0.0-45.0-0.0","25114720","wem/bandit_single","A3OYUJ6E6BJS4H","gain","4","","72","H","0","img/none_selected.jpg","1","0","0","0.07203927837","","false","8","0.07203927837","","main_expt","0.08440361392","","0.2299415188","","0.15597148","","","","","","",""
"407","","bandit","84","407637","0.0-46.0-0.0","25114720","wem/bandit_single","A3OYUJ6E6BJS4H","gain","4","","72","H","0","img/none_selected.jpg","0","0","1","0.08219025907","","false","9","0.08219025907","","main_expt","0.102519384","","0.2057198223","","0.2250404859","","","","","","",""
"441","","bandit","85","409849","0.0-47.0-0.0","25114720","wem/bandit_single","A3OYUJ6E6BJS4H","gain","4","","72","H","0","img/none_selected.jpg","0","0","1","0.06517742799","","false","10","0.06517742799","","main_expt","0.06157476224","","0.2002554128","","0.2205918947","","","","","","",""
"536","","bandit","86","412180","0.0-48.0-0.0","25114720","wem/bandit_single","A3OYUJ6E6BJS4H","gain","4","","76","L","3","","1","0","0","0.1999173076","","false","11","0.0549201251","","main_expt","0.05516119966","","0.2390702858","","0.1999173076","","","","","","",""
"327","","bandit","87","414274","0.0-49.0-0.0","25114720","wem/bandit_single","A3OYUJ6E6BJS4H","gain","4","","76","L","3","","1","0","0","0.2006159367","","false","12","0.0630283727","","main_expt","0.04311537102","","0.2309669968","","0.2006159367","","","","","","",""
"513","","bandit","88","416566","0.0-50.0-0.0","25114720","wem/bandit_single","A3OYUJ6E6BJS4H","gain","4","","76","L","3","","0","0","1","0.202674457","","false","13","0.07136250487","","main_expt","0.03895599675","","0.2667386483","","0.202674457","","","","","","",""
"236","","bandit","89","418578","0.0-51.0-0.0","25114720","wem/bandit_single","A3OYUJ6E6BJS4H","gain","4","","76","L","3","","0","0","1","0.152812741","","false","14","0.07333211558","","main_expt","0.03256744162","","0.2057326914","","0.152812741","","","","","","",""
"203","","bandit","90","420573","0.0-52.0-0.0","25114720","wem/bandit_single","A3OYUJ6E6BJS4H","gain","4","","76","L","3","","1","0","0","0.1648564856","","false","15","0.1154740655","","main_expt","0.01982065674","","0.2081585857","","0.1648564856","","","","","","",""
"419","","bandit","91","422766","0.0-53.0-0.0","25114720","wem/bandit_single","A3OYUJ6E6BJS4H","gain","4","","76","L","3","","0","0","1","0.1619055423","","false","16","0.1011313391","","main_expt","0.04082574049","","0.1909184248","","0.1619055423","","","","","","",""
"185","","bandit","92","424738","0.0-54.0-0.0","25114720","wem/bandit_single","A3OYUJ6E6BJS4H","gain","4","","75","K","2","","0","0","1","0.2198432556","","false","17","0.1447019112","","main_expt","0.0363298649","","0.2198432556","","0.1651197045","","","","","","",""
"45","","bandit","93","426563","0.0-55.0-0.0","25114720","wem/bandit_single","A3OYUJ6E6BJS4H","gain","4","","74","J","1","","0","0","1","0.07917382237","","false","18","0.1039364862","","main_expt","0.07917382237","","0.2347766335","","0.1079041081","","","","","","",""
"45","","bandit","94","428397","0.0-56.0-0.0","25114720","wem/bandit_single","A3OYUJ6E6BJS4H","gain","4","","72","H","0","img/none_selected.jpg","0","0","1","0.08759831402","","false","19","0.08759831402","","main_expt","0.08476555987","","0.24668571","","0.1059999363","","","","","","",""
"21","","bandit","95","430183","0.0-57.0-0.0","25114720","wem/bandit_single","A3OYUJ6E6BJS4H","gain","4","","76","L","3","","0","0","1","0.1197169881","","false","20","0.08010338479","","main_expt","0.04047152317","","0.2355281317","","0.1197169881","","","","","","",""
"141","","bandit","96","432108","0.0-58.0-0.0","25114720","wem/bandit_single","A3OYUJ6E6BJS4H","gain","4","","76","L","3","","0","0","1","0.1338215077","","false","21","0.07820488182","","main_expt","0.07021106672","","0.2290721377","","0.1338215077","","","","","","",""
"442","","bandit","97","434334","0.0-59.0-0.0","25114720","wem/bandit_single","A3OYUJ6E6BJS4H","gain","4","","75","K","2","","0","0","1","0.1982968879","","false","22","0.06301774499","","main_expt","0.08794503477","","0.1982968879","","0.1691749215","","","","","","",""
"121","","bandit","98","436229","0.0-60.0-0.0","25114720","wem/bandit_single","A3OYUJ6E6BJS4H","gain","4","","75","K","2","","0","0","1","0.1991555028","","false","23","0.04380944514","","main_expt","0.07274518233","","0.1991555028","","0.2100599157","","","","","","",""
"110","","bandit","99","438114","0.0-61.0-0.0","25114720","wem/bandit_single","A3OYUJ6E6BJS4H","gain","4","","74","J","1","","0","0","1","0.09602528561","","false","24","0.04485861341","","main_expt","0.09602528561","","0.1700743611","","0.1763606332","","","","","","",""
"154","","bandit","100","440030","0.0-62.0-0.0","25114720","wem/bandit_single","A3OYUJ6E6BJS4H","gain","4","","74","J","1","","0","0","1","0.07148754983","","false","25","0.08350983839","","main_expt","0.07148754983","","0.2303117276","","0.1155065599","","","","","","",""
"99","","bandit","101","441914","0.0-63.0-0.0","25114720","wem/bandit_single","A3OYUJ6E6BJS4H","gain","4","","72","H","0","img/none_selected.jpg","1","0","0","0.04946014148","","false","26","0.04946014148","","main_expt","0.05591681381","","0.2615068669","","0.08411514459","","","","","","",""
"289","","bandit","102","443979","0.0-64.0-0.0","25114720","wem/bandit_single","A3OYUJ6E6BJS4H","gain","4","","72","H","0","img/none_selected.jpg","0","0","1","0.07008172503","","false","27","0.07008172503","","main_expt","0.06488914964","","0.2108316327","","0.1192049255","","","","","","",""
"392","","bandit","103","446148","0.0-65.0-0.0","25114720","wem/bandit_single","A3OYUJ6E6BJS4H","gain","4","","72","H","0","img/none_selected.jpg","0","0","1","0.09766989806","","false","28","0.09766989806","","main_expt","0.07067710387","","0.2616222854","","0.1530516972","","","","","","",""
"300","","bandit","104","448225","0.0-66.0-0.0","25114720","wem/bandit_single","A3OYUJ6E6BJS4H","gain","4","","74","J","1","","0","0","1","0.06184318105","","false","29","0.1020433103","","main_expt","0.06184318105","","0.2754145478","","0.1243035263","","","","","","",""
"53","","bandit","105","450052","0.0-67.0-0.0","25114720","wem/bandit_single","A3OYUJ6E6BJS4H","gain","4","","74","J","1","","0","0","1","0.06562203124","","false","30","0.1128186897","","main_expt","0.06562203124","","0.3091083038","","0.2106934108","","","","","","",""
"136","","bandit","106","451954","0.0-68.0-0.0","25114720","wem/bandit_single","A3OYUJ6E6BJS4H","gain","4","","75","K","2","","0","0","1","0.3032558385","","false","31","0.1021038766","","main_expt","0.06340423818","","0.3032558385","","0.269819176","","","","","","",""
"69","","bandit","107","453805","0.0-69.0-0.0","25114720","wem/bandit_single","A3OYUJ6E6BJS4H","gain","4","","75","K","2","","1","0","0","0.3160124579","","false","32","0.1010238501","","main_expt","0.08582013972","","0.3160124579","","0.2415851803","","","","","","",""
"299","","bandit","108","455881","0.0-70.0-0.0","25114720","wem/bandit_single","A3OYUJ6E6BJS4H","gain","4","","75","K","2","","0","0","1","0.355825184","","false","33","0.0674926465","","main_expt","0.1020351259","","0.355825184","","0.2754451294","","","","","","",""
"109","","bandit","109","457774","0.0-71.0-0.0","25114720","wem/bandit_single","A3OYUJ6E6BJS4H","gain","4","","76","L","3","","0","0","1","0.3566428969","","false","34","0.1007783216","","main_expt","0.07925884201","","0.3380280112","","0.3566428969","","","","","","",""
"131","","bandit","110","459683","0.0-72.0-0.0","25114720","wem/bandit_single","A3OYUJ6E6BJS4H","gain","4","","76","L","3","","1","0","0","0.2652811253","","false","35","0.09542819821","","main_expt","0.06071167626","","0.3772093912","","0.2652811253","","","","","","",""
"384","","bandit","111","461863","0.0-73.0-0.0","25114720","wem/bandit_single","A3OYUJ6E6BJS4H","gain","4","","76","L","3","","0","0","1","0.2472166127","","false","36","0.07425724813","","main_expt","0.05331310492","","0.3916459715","","0.2472166127","","","","","","",""
"139","","bandit","112","463772","0.0-74.0-0.0","25114720","wem/bandit_single","A3OYUJ6E6BJS4H","gain","4","","76","L","3","","1","0","0","0.2941536534","","false","37","0.07325651263","","main_expt","0.08395737389","","0.3724196513","","0.2941536534","","","","","","",""
"401","","bandit","113","465966","0.0-75.0-0.0","25114720","wem/bandit_single","A3OYUJ6E6BJS4H","gain","4","","76","L","3","","0","0","1","0.2850199379","","false","38","0.06058557764","","main_expt","0.07562804978","","0.3885064771","","0.2850199379","","","","","","",""
"252","","bandit","114","467994","0.0-76.0-0.0","25114720","wem/bandit_single","A3OYUJ6E6BJS4H","gain","4","","76","L","3","","0","0","1","0.2308750992","","false","39","0.05480529152","","main_expt","0.06339693541","","0.4332305888","","0.2308750992","","","","","","",""
"360","","bandit","115","470139","0.0-77.0-0.0","25114720","wem/bandit_single","A3OYUJ6E6BJS4H","gain","4","","76","L","3","","0","0","1","0.2166928419","","false","40","0.08480448704","","main_expt","0.07741261751","","0.4320021358","","0.2166928419","","","","","","",""
"181","","bandit","116","472098","0.0-78.0-0.0","25114720","wem/bandit_single","A3OYUJ6E6BJS4H","gain","4","","72","H","0","img/none_selected.jpg","0","0","1","0.07863220129","","false","41","0.07863220129","","main_expt","0.08199889575","","0.4378374231","","0.222341992","","","","","","",""
"148","","bandit","117","474031","0.0-79.0-0.0","25114720","wem/bandit_single","A3OYUJ6E6BJS4H","gain","4","","72","H","0","img/none_selected.jpg","0","0","1","0.07947159818","","false","42","0.07947159818","","main_expt","0.1252939417","","0.4138470733","","0.2420609394","","","","","","",""
"169","","bandit","118","475990","0.0-80.0-0.0","25114720","wem/bandit_single","A3OYUJ6E6BJS4H","gain","4","","74","J","1","","0","0","1","0.1464491551","","false","43","0.0747194724","","main_expt","0.1464491551","","0.3618848001","","0.2683234569","","","","","","",""
"177","","bandit","119","477953","0.0-81.0-0.0","25114720","wem/bandit_single","A3OYUJ6E6BJS4H","gain","4","","74","J","1","","0","0","1","0.1846315016","","false","44","0.06873866496","","main_expt","0.1846315016","","0.3902132048","","0.2592073096","","","","","","",""
"324","","bandit","120","480061","0.0-82.0-0.0","25114720","wem/bandit_single","A3OYUJ6E6BJS4H","gain","4","","75","K","2","","0","0","1","0.370584769","","false","45","0.05624711086","","main_expt","0.1454302639","","0.370584769","","0.258850709","","","","","","",""
"118","","bandit","121","481959","0.0-83.0-0.0","25114720","wem/bandit_single","A3OYUJ6E6BJS4H","gain","4","","75","K","2","","0","0","1","0.3416192418","","false","46","0.06710767933","","main_expt","0.1420401956","","0.3416192418","","0.2162528617","","","","","","",""
"360","","bandit","122","484100","0.0-84.0-0.0","25114720","wem/bandit_single","A3OYUJ6E6BJS4H","gain","4","","76","L","3","","0","0","1","0.1380472806","","false","47","0.05828218186","","main_expt","0.2049545467","","0.3254497978","","0.1380472806","","","","","","",""
"222","","bandit","123","486090","0.0-85.0-0.0","25114720","wem/bandit_single","A3OYUJ6E6BJS4H","gain","4","","76","L","3","","0","0","1","0.1673270425","","false","48","0.1161016377","","main_expt","0.1608881285","","0.3438960799","","0.1673270425","","","","","","",""
"283","","bandit","124","488145","0.0-86.0-0.0","25114720","wem/bandit_single","A3OYUJ6E6BJS4H","gain","4","","76","L","3","","1","0","0","0.1637821127","","false","49","0.1135844416","","main_expt","0.2001806823","","0.3405395495","","0.1637821127","","","","","","",""
"436","","bandit","125","490373","0.0-87.0-0.0","25114720","wem/bandit_single","A3OYUJ6E6BJS4H","gain","4","","76","L","3","","1","0","0","0.1826101584","","false","50","0.1646239324","","main_expt","0.2061381611","","0.3305224856","","0.1826101584","","","","","","",""
"462","","bandit","126","492609","0.0-88.0-0.0","25114720","wem/bandit_single","A3OYUJ6E6BJS4H","gain","4","","76","L","3","","0","0","1","0.2270371056","","false","51","0.1699716213","","main_expt","0.2369791141","","0.2304924019","","0.2270371056","","","","","","",""
"249","","bandit","127","494634","0.0-89.0-0.0","25114720","wem/bandit_single","A3OYUJ6E6BJS4H","gain","4","","76","L","3","","0","0","1","0.2203225001","","false","52","0.1762937123","","main_expt","0.2378663067","","0.2832256505","","0.2203225001","","","","","","",""
"255","","bandit","128","496679","0.0-90.0-0.0","25114720","wem/bandit_single","A3OYUJ6E6BJS4H","gain","4","","76","L","3","","0","0","1","0.2776849753","","false","53","0.2287193473","","main_expt","0.2063519028","","0.2391441838","","0.2776849753","","","","","","",""
"115","","bandit","129","498555","0.0-91.0-0.0","25114720","wem/bandit_single","A3OYUJ6E6BJS4H","gain","4","","75","K","2","","0","0","1","0.2697071588","","false","54","0.2356834932","","main_expt","0.2439582882","","0.2697071588","","0.2454572706","","","","","","",""
"12","","bandit","130","500349","0.0-92.0-0.0","25114720","wem/bandit_single","A3OYUJ6E6BJS4H","gain","4","","74","J","1","","0","0","1","0.2381950618","","false","55","0.306547883","","main_expt","0.2381950618","","0.2875326611","","0.2382153161","","","","","","",""
"41","","bandit","131","502156","0.0-93.0-0.0","25114720","wem/bandit_single","A3OYUJ6E6BJS4H","gain","4","","72","H","0","img/none_selected.jpg","0","0","1","0.2853582168","","false","56","0.2853582168","","main_expt","0.1800346575","","0.2854258916","","0.1960908288","","","","","","",""
"219","","bandit","132","504170","0.0-94.0-0.0","25114720","wem/bandit_single","A3OYUJ6E6BJS4H","gain","4","","72","H","0","img/none_selected.jpg","0","0","1","0.2834250679","","false","57","0.2834250679","","main_expt","0.2336203315","","0.3445045135","","0.2042340564","","","","","","",""
"789","","bandit","133","506741","0.0-95.0-0.0","25114720","wem/bandit_single","A3OYUJ6E6BJS4H","gain","4","","74","J","1","","0","0","1","0.189887459","","false","58","0.2690284398","","main_expt","0.189887459","","0.3390226593","","0.1490893454","","","","","","",""
"1","","bandit","134","508531","0.0-96.0-0.0","25114720","wem/bandit_single","A3OYUJ6E6BJS4H","gain","4","","74","J","1","","0","0","1","0.1548607402","","false","59","0.2616697142","","main_expt","0.1548607402","","0.2666291788","","0.1581154669","","","","","","",""
"109","","bandit","135","510425","0.0-97.0-0.0","25114720","wem/bandit_single","A3OYUJ6E6BJS4H","gain","4","","76","L","3","","0","0","1","0.1715954381","","false","60","0.2704186185","","main_expt","0.1233285174","","0.246985882","","0.1715954381","","","","","","",""
"75","","bandit","136","512267","0.0-98.0-0.0","25114720","wem/bandit_single","A3OYUJ6E6BJS4H","gain","4","","76","L","3","","0","0","1","0.1999420892","","false","61","0.3376037184","","main_expt","0.186549837","","0.2171589204","","0.1999420892","","","","","","",""
"112","","bandit","137","514158","0.0-99.0-0.0","25114720","wem/bandit_single","A3OYUJ6E6BJS4H","gain","4","","75","K","2","","0","0","1","0.2677831299","","false","62","0.3098521258","","main_expt","0.1420872584","","0.2677831299","","0.1539309088","","","","","","",""
"57","","bandit","138","515995","0.0-100.0-0.0","25114720","wem/bandit_single","A3OYUJ6E6BJS4H","gain","4","","75","K","2","","1","0","0","0.2303454974","","false","63","0.3137631198","","main_expt","0.151707711","","0.2303454974","","0.1085632924","","","","","","",""
"366","","bandit","139","518123","0.0-101.0-0.0","25114720","wem/bandit_single","A3OYUJ6E6BJS4H","gain","4","","75","K","2","","0","0","1","0.196947777","","false","64","0.3179430645","","main_expt","0.1474827626","","0.196947777","","0.1370187426","","","","","","",""
"84","","bandit","140","519991","0.0-102.0-0.0","25114720","wem/bandit_single","A3OYUJ6E6BJS4H","gain","4","","75","K","2","","1","0","0","0.1645630622","","false","65","0.2980330155","","main_expt","0.1746529425","","0.1645630622","","0.1322062037","","","","","","",""
"290","","bandit","141","522067","0.0-103.0-0.0","25114720","wem/bandit_single","A3OYUJ6E6BJS4H","gain","4","","75","K","2","","0","0","1","0.1533283495","","false","66","0.2537140377","","main_expt","0.1310865155","","0.1533283495","","0.1496501041","","","","","","",""
"153","","bandit","142","524020","0.0-104.0-0.0","25114720","wem/bandit_single","A3OYUJ6E6BJS4H","gain","4","","75","K","2","","0","0","1","0.1708403009","","false","67","0.2153704701","","main_expt","0.1370872981","","0.1708403009","","0.1626820295","","","","","","",""
"126","","bandit","143","525930","0.0-105.0-0.0","25114720","wem/bandit_single","A3OYUJ6E6BJS4H","gain","4","","75","K","2","","0","0","1","0.1887917493","","false","68","0.2417705853","","main_expt","0.09914494933","","0.1887917493","","0.1989514297","","","","","","",""
"63","","bandit","144","527772","0.0-106.0-0.0","25114720","wem/bandit_single","A3OYUJ6E6BJS4H","gain","4","","74","J","1","","0","0","1","0.1092411584","","false","69","0.3235463827","","main_expt","0.1092411584","","0.2160515082","","0.1888867792","","","","","","",""
"111","","bandit","145","529664","0.0-107.0-0.0","25114720","wem/bandit_single","A3OYUJ6E6BJS4H","gain","4","","74","J","1","","0","0","1","0.1213917008","","false","70","0.3647615206","","main_expt","0.1213917008","","0.2778565133","","0.1767550628","","","","","","",""
"212","","bandit","146","531634","0.0-108.0-0.0","25114720","wem/bandit_single","A3OYUJ6E6BJS4H","gain","4","","74","J","1","","0","0","1","0.1479005197","","false","71","0.3472934012","","main_expt","0.1479005197","","0.2623699359","","0.1253641033","","","","","","",""
"128","","bandit","147","533542","0.0-109.0-0.0","25114720","wem/bandit_single","A3OYUJ6E6BJS4H","gain","4","","72","H","0","img/none_selected.jpg","1","0","0","0.2965124106","","false","72","0.2965124106","","main_expt","0.1931369739","","0.2574081817","","0.1319365506","","","","","","",""
"337","","bandit","148","535658","0.0-110.0-0.0","25114720","wem/bandit_single","A3OYUJ6E6BJS4H","gain","4","","72","H","0","img/none_selected.jpg","0","0","1","0.2823595977","","false","73","0.2823595977","","main_expt","0.1900103681","","0.2503470883","","0.1061905376","","","","","","",""
"251","","bandit","149","537678","0.0-111.0-0.0","25114720","wem/bandit_single","A3OYUJ6E6BJS4H","gain","4","","72","H","0","img/none_selected.jpg","1","0","0","0.2835749375","","false","74","0.2835749375","","main_expt","0.1344428369","","0.2710758316","","0.1303083533","","","","","","",""
"389","","bandit","150","539853","0.0-112.0-0.0","25114720","wem/bandit_single","A3OYUJ6E6BJS4H","gain","4","","72","H","0","img/none_selected.jpg","0","0","1","0.3526847528","","false","75","0.3526847528","","main_expt","0.1528357022","","0.260759121","","0.1359111238","","","","","","",""
"154","","bandit","151","541791","0.0-113.0-0.0","25114720","wem/bandit_single","A3OYUJ6E6BJS4H","gain","4","","72","H","0","img/none_selected.jpg","1","0","0","0.3434196486","","false","76","0.3434196486","","main_expt","0.1898592508","","0.2610050464","","0.1128391495","","","","","","",""
"315","","bandit","152","543883","0.0-114.0-0.0","25114720","wem/bandit_single","A3OYUJ6E6BJS4H","gain","4","","72","H","0","img/none_selected.jpg","0","0","1","0.3073782559","","false","77","0.3073782559","","main_expt","0.191464519","","0.1920601856","","0.1118044987","","","","","","",""
"143","","bandit","153","545811","0.0-115.0-0.0","25114720","wem/bandit_single","A3OYUJ6E6BJS4H","gain","4","","72","H","0","img/none_selected.jpg","1","0","0","0.3200097729","","false","78","0.3200097729","","main_expt","0.2665821314","","0.1726035312","","0.1315400358","","","","","","",""
"184","","bandit","154","547755","0.0-116.0-0.0","25114720","wem/bandit_single","A3OYUJ6E6BJS4H","gain","4","","72","H","0","img/none_selected.jpg","0","0","1","0.3406321397","","false","79","0.3406321397","","main_expt","0.2510402579","","0.1974193715","","0.1421279646","","","","","","",""
"128","","bandit","155","549647","0.0-117.0-0.0","25114720","wem/bandit_single","A3OYUJ6E6BJS4H","gain","4","","72","H","0","img/none_selected.jpg","0","0","1","0.2934749235","","false","80","0.2934749235","","main_expt","0.2803090616","","0.1771423485","","0.1666910293","","","","","","",""
"197","","bandit","156","551630","0.0-118.0-0.0","25114720","wem/bandit_single","A3OYUJ6E6BJS4H","gain","4","","72","H","0","img/none_selected.jpg","0","0","1","0.3080678564","","false","81","0.3080678564","","main_expt","0.3053401272","","0.1689426189","","0.1514130178","","","","","","",""
"176","","bandit","157","553585","0.0-119.0-0.0","25114720","wem/bandit_single","A3OYUJ6E6BJS4H","gain","4","","74","J","1","","0","0","1","0.3079009489","","false","82","0.3118316764","","main_expt","0.3079009489","","0.2008945118","","0.1667518413","","","","","","",""
"61","","bandit","158","555412","0.0-120.0-0.0","25114720","wem/bandit_single","A3OYUJ6E6BJS4H","gain","4","","74","J","1","","1","0","0","0.3294465445","","false","83","0.2539803618","","main_expt","0.3294465445","","0.2679993971","","0.1620161121","","","","","","",""
"116","","bandit","159","557312","0.0-121.0-0.0","25114720","wem/bandit_single","A3OYUJ6E6BJS4H","gain","4","","74","J","1","","0","0","1","0.3567704092","","false","84","0.2665148507","","main_expt","0.3567704092","","0.2187304288","","0.1920696542","","","","","","",""
"161","","bandit","160","559258","0.0-122.0-0.0","25114720","wem/bandit_single","A3OYUJ6E6BJS4H","gain","4","","74","J","1","","1","0","0","0.3637986046","","false","85","0.2638978108","","main_expt","0.3637986046","","0.2668074714","","0.1790321084","","","","","","",""
"78","","bandit","161","561120","0.0-123.0-0.0","25114720","wem/bandit_single","A3OYUJ6E6BJS4H","gain","4","","74","J","1","","1","0","0","0.3661817966","","false","86","0.2430370424","","main_expt","0.3661817966","","0.3011617684","","0.1644507099","","","","","","",""
"379","","bandit","162","563270","0.0-124.0-0.0","25114720","wem/bandit_single","A3OYUJ6E6BJS4H","gain","4","","74","J","1","","0","0","1","0.349996741","","false","87","0.2369050713","","main_expt","0.349996741","","0.2866912597","","0.1731377232","","","","","","",""
"102","","bandit","163","565147","0.0-125.0-0.0","25114720","wem/bandit_single","A3OYUJ6E6BJS4H","gain","4","","74","J","1","","0","0","1","0.3021468993","","false","88","0.2322244834","","main_expt","0.3021468993","","0.2921806028","","0.1562940882","","","","","","",""
"80","","bandit","164","566993","0.0-126.0-0.0","25114720","wem/bandit_single","A3OYUJ6E6BJS4H","gain","4","","74","J","1","","1","0","0","0.2752269066","","false","89","0.214722025","","main_expt","0.2752269066","","0.2877077994","","0.1344734597","","","","","","",""
"175","","bandit","165","568940","0.0-127.0-0.0","25114720","wem/bandit_single","A3OYUJ6E6BJS4H","gain","4","","74","J","1","","0","0","1","0.3172240337","","false","90","0.1767670318","","main_expt","0.3172240337","","0.2390413286","","0.1192135027","","","","","","",""
"208","","bandit","166","570930","0.0-128.0-0.0","25114720","wem/bandit_single","A3OYUJ6E6BJS4H","gain","4","","74","J","1","","1","0","0","0.3049723864","","false","91","0.1391375388","","main_expt","0.3049723864","","0.2582098676","","0.1639104845","","","","","","",""
"224","","bandit","167","572922","0.0-129.0-0.0","25114720","wem/bandit_single","A3OYUJ6E6BJS4H","gain","4","","74","J","1","","0","0","1","0.3261529518","","false","92","0.1283323985","","main_expt","0.3261529518","","0.3066747335","","0.1960431165","","","","","","",""
"149","","bandit","168","574837","0.0-130.0-0.0","25114720","wem/bandit_single","A3OYUJ6E6BJS4H","gain","4","","74","J","1","","0","0","1","0.3550538726","","false","93","0.07538544447","","main_expt","0.3550538726","","0.3051362106","","0.2137056669","","","","","","",""
"163","","bandit","169","576798","0.0-131.0-0.0","25114720","wem/bandit_single","A3OYUJ6E6BJS4H","gain","4","","74","J","1","","0","0","1","0.3335231974","","false","94","0.07407963518","","main_expt","0.3335231974","","0.3433649514","","0.2188004936","","","","","","",""
"127","","bandit","170","578718","0.0-132.0-0.0","25114720","wem/bandit_single","A3OYUJ6E6BJS4H","gain","4","","72","H","0","img/none_selected.jpg","0","0","1","0.06265185683","","false","95","0.06265185683","","main_expt","0.3060397856","","0.3638642947","","0.2442185641","","","","","","",""
"94","","bandit","171","580596","0.0-133.0-0.0","25114720","wem/bandit_single","A3OYUJ6E6BJS4H","gain","4","","72","H","0","img/none_selected.jpg","0","0","1","0.0626930361","","false","96","0.0626930361","","main_expt","0.3420618169","","0.3433071503","","0.2062156096","","","","","","",""
"219","","bandit","172","582587","0.0-134.0-0.0","25114720","wem/bandit_single","A3OYUJ6E6BJS4H","gain","4","","75","K","2","","0","0","1","0.3287523936","","false","97","0.03702031205","","main_expt","0.3451805041","","0.3287523936","","0.1824441478","","","","","","",""
"65","","bandit","173","584439","0.0-135.0-0.0","25114720","wem/bandit_single","A3OYUJ6E6BJS4H","gain","4","","75","K","2","","1","0","0","0.3384657171","","false","98","0.02896114516","","main_expt","0.3067376926","","0.3384657171","","0.1741419228","","","","","","",""
"74","","bandit","174","586297","0.0-136.0-0.0","25114720","wem/bandit_single","A3OYUJ6E6BJS4H","gain","4","","75","K","2","","0","0","1","0.3929596429","","false","99","0.04301278827","","main_expt","0.2980645096","","0.3929596429","","0.1402348549","","","","","","",""
"79","","bandit","175","588144","0.0-137.0-0.0","25114720","wem/bandit_single","A3OYUJ6E6BJS4H","gain","4","","75","K","2","","1","0","0","0.3972918561","","false","100","0.03198738169","","main_expt","0.2862788702","","0.3972918561","","0.1856728267","","","","","","",""
"276","","bandit","176","590199","0.0-138.0-0.0","25114720","wem/bandit_single","A3OYUJ6E6BJS4H","gain","4","","75","K","2","","1","0","0","0.4064604032","","false","101","0.03387094668","","main_expt","0.2622165861","","0.4064604032","","0.1731032509","","","","","","",""
"44","","bandit","177","592022","0.0-139.0-0.0","25114720","wem/bandit_single","A3OYUJ6E6BJS4H","gain","4","","75","K","2","","0","0","1","0.4273413635","","false","102","0.0235124197","","main_expt","0.3261799811","","0.4273413635","","0.1387116465","","","","","","",""
"149","","bandit","178","593952","0.0-140.0-0.0","25114720","wem/bandit_single","A3OYUJ6E6BJS4H","gain","4","","75","K","2","","1","0","0","0.4566487837","","false","103","0.02482610326","","main_expt","0.334814711","","0.4566487837","","0.1880660303","","","","","","",""
"164","","bandit","179","595881","0.0-141.0-0.0","25114720","wem/bandit_single","A3OYUJ6E6BJS4H","gain","4","","75","K","2","","1","0","0","0.459539636","","false","104","0.03330094042","","main_expt","0.3486298313","","0.459539636","","0.142060421","","","","","","",""
"108","","bandit","180","597781","0.0-142.0-0.0","25114720","wem/bandit_single","A3OYUJ6E6BJS4H","gain","4","","75","K","2","","0","0","1","0.4462881264","","false","105","0.06543537915","","main_expt","0.3538911629","","0.4462881264","","0.1839839798","","","","","","",""
"96","","bandit","181","599658","0.0-143.0-0.0","25114720","wem/bandit_single","A3OYUJ6E6BJS4H","gain","4","","75","K","2","","0","0","1","0.4417011126","","false","106","0.07051160025","","main_expt","0.3886974852","","0.4417011126","","0.1691947451","","","","","","",""
"99","","bandit","182","601527","0.0-144.0-0.0","25114720","wem/bandit_single","A3OYUJ6E6BJS4H","gain","4","","75","K","2","","1","0","0","0.4419194373","","false","107","0.08830456602","","main_expt","0.3489433712","","0.4419194373","","0.180010917","","","","","","",""
"55","","bandit","183","603364","0.0-145.0-0.0","25114720","wem/bandit_single","A3OYUJ6E6BJS4H","gain","4","","75","K","2","","1","0","0","0.4061848383","","false","108","0.05921849724","","main_expt","0.3901728218","","0.4061848383","","0.1338722415","","","","","","",""
"49","","bandit","184","605195","0.0-146.0-0.0","25114720","wem/bandit_single","A3OYUJ6E6BJS4H","gain","4","","75","K","2","","0","0","1","0.3906669636","","false","109","0.04581125366","","main_expt","0.4006799949","","0.3906669636","","0.1350853679","","","","","","",""
"41","","bandit","185","607006","0.0-147.0-0.0","25114720","wem/bandit_single","A3OYUJ6E6BJS4H","gain","4","","75","K","2","","1","0","0","0.3969614195","","false","110","0.08345510588","","main_expt","0.3867714499","","0.3969614195","","0.184551263","","","","","","",""
"45","","bandit","186","608848","0.0-148.0-0.0","25114720","wem/bandit_single","A3OYUJ6E6BJS4H","gain","4","","75","K","2","","0","0","1","0.370186674","","false","111","0.07355878572","","main_expt","0.4252141842","","0.370186674","","0.2635344293","","","","","","",""
"2","","bandit","187","610627","0.0-149.0-0.0","25114720","wem/bandit_single","A3OYUJ6E6BJS4H","gain","4","","75","K","2","","1","0","0","0.3488043283","","false","112","0.09226575929","","main_expt","0.4197282726","","0.3488043283","","0.2972025743","","","","","","",""
"66","","bandit","188","612463","0.0-150.0-0.0","25114720","wem/bandit_single","A3OYUJ6E6BJS4H","gain","4","","75","K","2","","0","0","1","0.2886117592","","false","113","0.07711661396","","main_expt","0.4371411526","","0.2886117592","","0.2853398636","","","","","","",""
"4","","bandit","189","614237","0.0-151.0-0.0","25114720","wem/bandit_single","A3OYUJ6E6BJS4H","gain","4","","75","K","2","","0","0","1","0.3507025671","","false","114","0.09366406151","","main_expt","0.4523407119","","0.3507025671","","0.2354235092","","","","","","",""
"700","","bandit","190","616717","0.0-152.0-0.0","25114720","wem/bandit_single","A3OYUJ6E6BJS4H","gain","4","","75","K","2","","0","0","1","0.3308051733","","false","115","0.09297781317","","main_expt","0.4544977282","","0.3308051733","","0.2228923984","","","","","","",""
"41","","bandit","191","618533","0.0-153.0-0.0","25114720","wem/bandit_single","A3OYUJ6E6BJS4H","gain","4","","75","K","2","","0","0","1","0.2696902145","","false","116","0.09292735615","","main_expt","0.4458191396","","0.2696902145","","0.182615248","","","","","","",""
"62","","bandit","192","620359","0.0-154.0-0.0","25114720","wem/bandit_single","A3OYUJ6E6BJS4H","gain","4","","76","L","3","","0","0","1","0.1702457594","","false","117","0.1277349031","","main_expt","0.4384124693","","0.3048340551","","0.1702457594","","","","","","",""
"225","","bandit","193","622369","0.0-155.0-0.0","25114720","wem/bandit_single","A3OYUJ6E6BJS4H","gain","4","","76","L","3","","0","0","1","0.2075823826","","false","118","0.1057820856","","main_expt","0.4590850855","","0.2682044258","","0.2075823826","","","","","","",""
"126","","bandit","194","624278","0.0-156.0-0.0","25114720","wem/bandit_single","A3OYUJ6E6BJS4H","gain","4","","76","L","3","","1","0","0","0.2281388084","","false","119","0.08453932314","","main_expt","0.4718937063","","0.2314514612","","0.2281388084","","","","","","",""
"44","","bandit","195","626105","0.0-157.0-0.0","25114720","wem/bandit_single","A3OYUJ6E6BJS4H","gain","4","","76","L","3","","0","0","1","0.2620651535","","false","120","0.1106897037","","main_expt","0.4645470247","","0.197474053","","0.2620651535","","","","","","",""
"2052","","bandit","196","629931","0.0-158.0-0.0","25114720","wem/bandit_single","A3OYUJ6E6BJS4H","gain","4","","76","L","3","","0","0","1","0.2953433235","","false","121","0.1200625234","","main_expt","0.4422277234","","0.1819521248","","0.2953433235","","","","","","",""
"46","","bandit","197","631750","0.0-159.0-0.0","25114720","wem/bandit_single","A3OYUJ6E6BJS4H","gain","4","","76","L","3","","0","0","1","0.2702367277","","false","122","0.1570760405","","main_expt","0.4150525319","","0.171732915","","0.2702367277","","","","","","",""
"72","","bandit","198","633607","0.0-160.0-0.0","25114720","wem/bandit_single","A3OYUJ6E6BJS4H","gain","4","","74","J","1","","0","0","1","0.4356762379","","false","123","0.1616024906","","main_expt","0.4356762379","","0.1577660673","","0.3190818872","","","","","","",""
"90","","bandit","199","635465","0.0-161.0-0.0","25114720","wem/bandit_single","A3OYUJ6E6BJS4H","gain","4","","74","J","1","","0","0","1","0.4475351861","","false","124","0.1371750093","","main_expt","0.4475351861","","0.1384195938","","0.3415455108","","","","","","",""
"90","","bandit","200","637333","0.0-162.0-0.0","25114720","wem/bandit_single","A3OYUJ6E6BJS4H","gain","4","","74","J","1","","0","0","1","0.4310995666","","false","125","0.1293707667","","main_expt","0.4310995666","","0.1367208018","","0.3955313072","","","","","","",""
"51","","bandit","201","639151","0.0-163.0-0.0","25114720","wem/bandit_single","A3OYUJ6E6BJS4H","gain","4","","72","H","0","img/none_selected.jpg","0","0","1","0.1231453761","","false","126","0.1231453761","","main_expt","0.4246911586","","0.14570125","","0.4150522509","","","","","","",""
"135","","bandit","202","641069","0.0-164.0-0.0","25114720","wem/bandit_single","A3OYUJ6E6BJS4H","gain","4","","72","H","0","img/none_selected.jpg","0","0","1","0.1044431599","","false","127","0.1044431599","","main_expt","0.3855858577","","0.116128816","","0.3803228979","","","","","","",""
"39","","bandit","203","642892","0.0-165.0-0.0","25114720","wem/bandit_single","A3OYUJ6E6BJS4H","gain","4","","72","H","0","img/none_selected.jpg","0","0","1","0.07509994275","","false","128","0.07509994275","","main_expt","0.3886900275","","0.1118736017","","0.4028097642","","","","","","",""
"104","","bandit","204","644760","0.0-166.0-0.0","25114720","wem/bandit_single","A3OYUJ6E6BJS4H","gain","4","","74","J","1","","0","0","1","0.3712880315","","false","129","0.07499531951","","main_expt","0.3712880315","","0.1153634536","","0.3759087187","","","","","","",""
"958","","bandit","205","647517","0.0-167.0-0.0","25114720","wem/bandit_single","A3OYUJ6E6BJS4H","gain","4","","76","L","3","","0","0","1","0.3578404683","","false","130","0.06898381409","","main_expt","0.3163545042","","0.09323577747","","0.3578404683","","","","","","",""
"77","","bandit","206","649383","0.0-168.0-0.0","25114720","wem/bandit_single","A3OYUJ6E6BJS4H","gain","4","","75","K","2","","0","0","1","0.1064947735","","false","131","0.08255272978","","main_expt","0.3203759455","","0.1064947735","","0.3874222675","","","","","","",""
"182","","bandit","207","651333","0.0-169.0-0.0","25114720","wem/bandit_single","A3OYUJ6E6BJS4H","gain","4","","75","K","2","","0","0","1","0.1574274544","","false","132","0.06266196304","","main_expt","0.3128419263","","0.1574274544","","0.3773694481","","","","","","",""
"34","","bandit","208","653146","0.0-170.0-0.0","25114720","wem/bandit_single","A3OYUJ6E6BJS4H","gain","4","","75","K","2","","1","0","0","0.1613106331","","false","133","0.06584579886","","main_expt","0.3057041938","","0.1613106331","","0.3961249281","","","","","","",""
"224","","bandit","209","655141","0.0-171.0-0.0","25114720","wem/bandit_single","A3OYUJ6E6BJS4H","gain","4","","75","K","2","","0","0","1","0.1660744508","","false","134","0.05935363428","","main_expt","0.2816585421","","0.1660744508","","0.4152923946","","","","","","",""
"192","","bandit","210","657121","0.0-172.0-0.0","25114720","wem/bandit_single","A3OYUJ6E6BJS4H","gain","4","","75","K","2","","0","0","1","0.1973964499","","false","135","0.05732645975","","main_expt","0.2955422992","","0.1973964499","","0.4424865849","","","","","","",""
"91","","bandit","211","658996","0.0-173.0-0.0","25114720","wem/bandit_single","A3OYUJ6E6BJS4H","gain","4","","75","K","2","","1","0","0","0.1813196928","","false","136","0.07342087183","","main_expt","0.3509846551","","0.1813196928","","0.4465543098","","","","","","",""
"254","","bandit","212","661033","0.0-174.0-0.0","25114720","wem/bandit_single","A3OYUJ6E6BJS4H","gain","4","","75","K","2","","0","0","1","0.1859539446","","false","137","0.07676045657","","main_expt","0.3344410146","","0.1859539446","","0.4520996047","","","","","","",""
"109","","bandit","213","662909","0.0-175.0-0.0","25114720","wem/bandit_single","A3OYUJ6E6BJS4H","gain","4","","75","K","2","","0","0","1","0.1014888705","","false","138","0.09127868582","","main_expt","0.2657268636","","0.1014888705","","0.428300575","","","","","","",""
"44","","bandit","214","664727","0.0-176.0-0.0","25114720","wem/bandit_single","A3OYUJ6E6BJS4H","gain","4","","75","K","2","","0","0","1","0.09034098631","","false","139","0.1057771966","","main_expt","0.2267955479","","0.09034098631","","0.419833238","","","","","","",""
"113","","bandit","215","666611","0.0-177.0-0.0","25114720","wem/bandit_single","A3OYUJ6E6BJS4H","gain","4","","75","K","2","","0","0","1","0.09102227313","","false","140","0.1134354218","","main_expt","0.2278141127","","0.09102227313","","0.423721229","","","","","","",""
"79","","bandit","216","668452","0.0-178.0-0.0","25114720","wem/bandit_single","A3OYUJ6E6BJS4H","gain","4","","74","J","1","","1","0","0","0.23653477","","false","141","0.1205694848","","main_expt","0.23653477","","0.1095349378","","0.4382479885","","","","","","",""
"381","","bandit","217","670605","0.0-179.0-0.0","25114720","wem/bandit_single","A3OYUJ6E6BJS4H","gain","4","","74","J","1","","1","0","0","0.2155890047","","false","142","0.1423721259","","main_expt","0.2155890047","","0.1184068784","","0.4247465964","","","","","","",""
"180","","bandit","218","672575","0.0-180.0-0.0","25114720","wem/bandit_single","A3OYUJ6E6BJS4H","gain","4","","74","J","1","","0","0","1","0.2203428631","","false","143","0.1199770031","","main_expt","0.2203428631","","0.1056920569","","0.3978340057","","","","","","",""
"146","","bandit","219","674490","0.0-181.0-0.0","25114720","wem/bandit_single","A3OYUJ6E6BJS4H","gain","4","","74","J","1","","1","0","0","0.1834171178","","false","144","0.1431068991","","main_expt","0.1834171178","","0.1563123998","","0.4094639435","","","","","","",""
"269","","bandit","220","676545","0.0-182.0-0.0","25114720","wem/bandit_single","A3OYUJ6E6BJS4H","gain","4","","74","J","1","","0","0","1","0.2064693802","","false","145","0.1630017245","","main_expt","0.2064693802","","0.09088636348","","0.4198905501","","","","","","",""
"104","","bandit","221","678419","0.0-183.0-0.0","25114720","wem/bandit_single","A3OYUJ6E6BJS4H","gain","4","","74","J","1","","0","0","1","0.1342941172","","false","146","0.145034553","","main_expt","0.1342941172","","0.0827806059","","0.4050886303","","","","","","",""
"124","","bandit","222","680325","0.0-184.0-0.0","25114720","wem/bandit_single","A3OYUJ6E6BJS4H","gain","4","","74","J","1","","0","0","1","0.1515740161","","false","147","0.1488017726","","main_expt","0.1515740161","","0.1149215639","","0.3785891444","","","","","","",""
"136","","bandit","223","682239","0.0-185.0-0.0","25114720","wem/bandit_single","A3OYUJ6E6BJS4H","gain","4","","74","J","1","","0","0","1","0.1212747878","","false","148","0.1582677895","","main_expt","0.1212747878","","0.1099148444","","0.3854511928","","","","","","",""
"237","","bandit","224","684260","0.0-186.0-0.0","25114720","wem/bandit_single","A3OYUJ6E6BJS4H","gain","4","","75","K","2","","0","0","1","0.1127327795","","false","149","0.1647072654","","main_expt","0.08453377975","","0.1127327795","","0.3928641012","","","","","","",""
"123","","bandit","225","686155","0.0-187.0-0.0","25114720","wem/bandit_single","A3OYUJ6E6BJS4H","gain","4","","72","H","0","img/none_selected.jpg","1","0","0","0.1333243968","","false","150","0.1333243968","","main_expt","0.1060211344","","0.1477728786","","0.3981420368","","","","","","",""
"497","","bandit","226","688447","0.0-188.0-0.0","25114720","wem/bandit_single","A3OYUJ6E6BJS4H","gain","4","","72","H","0","img/none_selected.jpg","0","0","1","0.1232516149","","false","151","0.1232516149","","main_expt","0.06473992137","","0.1634569086","","0.3954234158","","","","","","",""
"166","","bandit","227","690400","0.0-189.0-0.0","25114720","wem/bandit_single","A3OYUJ6E6BJS4H","gain","4","","72","H","0","img/none_selected.jpg","1","0","0","0.1218764731","","false","152","0.1218764731","","main_expt","0.07847139908","","0.2119786212","","0.3684376671","","","","","","",""
"214","","bandit","228","692399","0.0-190.0-0.0","25114720","wem/bandit_single","A3OYUJ6E6BJS4H","gain","4","","72","H","0","img/none_selected.jpg","0","0","1","0.1181944444","","false","153","0.1181944444","","main_expt","0.06170083269","","0.190815194","","0.3586265296","","","","","","",""
"260","","bandit","229","694427","0.0-191.0-0.0","25114720","wem/bandit_single","A3OYUJ6E6BJS4H","gain","4","","72","H","0","img/none_selected.jpg","0","0","1","0.1524072167","","false","154","0.1524072167","","main_expt","0.07752027139","","0.2539230859","","0.3711835277","","","","","","",""
"182","","bandit","230","696406","0.0-192.0-0.0","25114720","wem/bandit_single","A3OYUJ6E6BJS4H","gain","4","","72","H","0","img/none_selected.jpg","0","0","1","0.2181316645","","false","155","0.2181316645","","main_expt","0.07430376846","","0.2214647723","","0.3296220366","","","","","","",""
"78","","bandit","231","698251","0.0-193.0-0.0","25114720","wem/bandit_single","A3OYUJ6E6BJS4H","gain","4","","75","K","2","","1","0","0","0.1812397975","","false","156","0.213475765","","main_expt","0.05925504694","","0.1812397975","","0.287903252","","","","","","",""
"154","","bandit","232","700173","0.0-194.0-0.0","25114720","wem/bandit_single","A3OYUJ6E6BJS4H","gain","4","","75","K","2","","0","0","1","0.1447548225","","false","157","0.2264995707","","main_expt","0.0737155059","","0.1447548225","","0.296290929","","","","","","",""
"93","","bandit","233","702053","0.0-195.0-0.0","25114720","wem/bandit_single","A3OYUJ6E6BJS4H","gain","4","","75","K","2","","0","0","1","0.1458137519","","false","158","0.2991482761","","main_expt","0.05755321342","","0.1458137519","","0.2721348168","","","","","","",""
"8","","bandit","234","703839","0.0-196.0-0.0","25114720","wem/bandit_single","A3OYUJ6E6BJS4H","gain","4","","75","K","2","","1","0","0","0.1035755389","","false","159","0.3365391658","","main_expt","0.1007830752","","0.1035755389","","0.2765185667","","","","","","",""
"80","","bandit","235","705711","0.0-197.0-0.0","25114720","wem/bandit_single","A3OYUJ6E6BJS4H","gain","4","","75","K","2","","0","0","1","0.1142027444","","false","160","0.313402929","","main_expt","0.06149362121","","0.1142027444","","0.3162688162","","","","","","",""
"1094","","bandit","236","708577","0.0-198.0-0.0","25114720","wem/bandit_single","A3OYUJ6E6BJS4H","gain","4","","75","K","2","","0","0","1","0.1510988582","","false","161","0.3529908654","","main_expt","0.09516109007","","0.1510988582","","0.3302336848","","","","","","",""
"148","","bandit","237","710495","0.0-199.0-0.0","25114720","wem/bandit_single","A3OYUJ6E6BJS4H","gain","4","","75","K","2","","0","0","1","0.1720124831","","false","162","0.3608295961","","main_expt","0.08429007215","","0.1720124831","","0.3622896815","","","","","","",""
"55","","bandit","238","712331","0.0-200.0-0.0","25114720","wem/bandit_single","A3OYUJ6E6BJS4H","gain","4","","76","L","3","","1","0","0","0.3696580379","","false","163","0.4197284319","","main_expt","0.1199893575","","0.2119433459","","0.3696580379","","","","","","",""
"340","","bandit","239","714459","0.0-201.0-0.0","25114720","wem/bandit_single","A3OYUJ6E6BJS4H","gain","4","","76","L","3","","0","0","1","0.3217553384","","false","164","0.4162507976","","main_expt","0.1353867718","","0.2413639604","","0.3217553384","","","","","","",""
"221","","bandit","240","716460","0.0-202.0-0.0","25114720","wem/bandit_single","A3OYUJ6E6BJS4H","gain","4","","76","L","3","","0","0","1","0.2370356752","","false","165","0.424344073","","main_expt","0.08700720397","","0.3231443763","","0.2370356752","","","","","","",""
"122","","bandit","241","718358","0.0-203.0-0.0","25114720","wem/bandit_single","A3OYUJ6E6BJS4H","gain","4","","76","L","3","","0","0","1","0.1952619304","","false","166","0.4385436022","","main_expt","0.09613155095","","0.2907209657","","0.1952619304","","","","","","",""
"288","","bandit","242","720432","0.0-204.0-0.0","25114720","wem/bandit_single","A3OYUJ6E6BJS4H","gain","4","","74","J","1","","0","0","1","0.08740230362","","false","167","0.4428370211","","main_expt","0.08740230362","","0.2386263765","","0.2008635704","","","","","","",""
"83","","bandit","243","722293","0.0-205.0-0.0","25114720","wem/bandit_single","A3OYUJ6E6BJS4H","gain","4","","74","J","1","","0","0","1","0.1033010443","","false","168","0.4475632301","","main_expt","0.1033010443","","0.2802872421","","0.2872582577","","","","","","",""
"84","","bandit","244","724143","0.0-206.0-0.0","25114720","wem/bandit_single","A3OYUJ6E6BJS4H","gain","4","","76","L","3","","0","0","1","0.2478638945","","false","169","0.4358894507","","main_expt","0.1288835215","","0.2858578204","","0.2478638945","","","","","","",""
"114","","bandit","245","726044","0.0-207.0-0.0","25114720","wem/bandit_single","A3OYUJ6E6BJS4H","gain","4","","72","H","0","img/none_selected.jpg","0","0","1","0.4401344765","","false","170","0.4401344765","","main_expt","0.0821831217","","0.3542119366","","0.2335785199","","","","","","",""
"98","","bandit","246","727937","0.0-208.0-0.0","25114720","wem/bandit_single","A3OYUJ6E6BJS4H","gain","4","","72","H","0","img/none_selected.jpg","0","0","1","0.4182824287","","false","171","0.4182824287","","main_expt","0.08448133796","","0.363516632","","0.263029084","","","","","","",""
"82","","bandit","247","729797","0.0-209.0-0.0","25114720","wem/bandit_single","A3OYUJ6E6BJS4H","gain","4","","74","J","1","","0","0","1","0.1142172702","","false","172","0.4206293302","","main_expt","0.1142172702","","0.3285232471","","0.282237019","","","","","","",""
"52","","bandit","248","731633","0.0-210.0-0.0","25114720","wem/bandit_single","A3OYUJ6E6BJS4H","gain","4","","74","J","1","","0","0","1","0.1585219493","","false","173","0.4424673434","","main_expt","0.1585219493","","0.3379934215","","0.2798091978","","","","","","",""
"57","","bandit","249","733461","0.0-211.0-0.0","25114720","wem/bandit_single","A3OYUJ6E6BJS4H","gain","4","","75","K","2","","0","0","1","0.2937018888","","false","174","0.4470793942","","main_expt","0.2167008269","","0.2937018888","","0.2782342077","","","","","","",""
"99","","bandit","250","735346","0.0-212.0-0.0","25114720","wem/bandit_single","A3OYUJ6E6BJS4H","gain","4","","75","K","2","","1","0","0","0.2691073907","","false","175","0.4466152725","","main_expt","0.2564405216","","0.2691073907","","0.3095951925","","","","","","",""
"150","","bandit","251","737272","0.0-213.0-0.0","25114720","wem/bandit_single","A3OYUJ6E6BJS4H","gain","4","","75","K","2","","0","0","1","0.2797966768","","false","176","0.4622816701","","main_expt","0.2740916264","","0.2797966768","","0.3149167583","","","","","","",""
"154","","bandit","252","739216","0.0-214.0-0.0","25114720","wem/bandit_single","A3OYUJ6E6BJS4H","gain","4","","75","K","2","","1","0","0","0.2956207272","","false","177","0.4791174255","","main_expt","0.2701885048","","0.2956207272","","0.3057016371","","","","","","",""
"212","","bandit","253","741191","0.0-215.0-0.0","25114720","wem/bandit_single","A3OYUJ6E6BJS4H","gain","4","","75","K","2","","0","0","1","0.2903749226","","false","178","0.4878404122","","main_expt","0.2525299603","","0.2903749226","","0.2973749651","","","","","","",""
"220","","bandit","254","743196","0.0-216.0-0.0","25114720","wem/bandit_single","A3OYUJ6E6BJS4H","gain","4","","75","K","2","","0","0","1","0.2324022499","","false","179","0.4871204803","","main_expt","0.2923151224","","0.2324022499","","0.3205080684","","","","","","",""
"91","","bandit","255","745053","0.0-217.0-0.0","25114720","wem/bandit_single","A3OYUJ6E6BJS4H","gain","4","","75","K","2","","0","0","1","0.157369965","","false","180","0.4783768728","","main_expt","0.2712435876","","0.157369965","","0.3668921479","","","","","","",""
"133","","bandit","256","746965","0.0-218.0-0.0","25114720","wem/bandit_single","A3OYUJ6E6BJS4H","gain","4","","75","K","2","","0","0","1","0.1928111427","","false","181","0.4791844977","","main_expt","0.2911825171","","0.1928111427","","0.36743573","","","","","","",""
"72","","bandit","257","748823","0.0-219.0-0.0","25114720","wem/bandit_single","A3OYUJ6E6BJS4H","gain","4","","76","L","3","","1","0","0","0.3444330154","","false","182","0.4796326775","","main_expt","0.2812290194","","0.1831473083","","0.3444330154","","","","","","",""
"193","","bandit","258","750778","0.0-220.0-0.0","25114720","wem/bandit_single","A3OYUJ6E6BJS4H","gain","4","","76","L","3","","0","0","1","0.376594699","","false","183","0.4610412729","","main_expt","0.2998653002","","0.1367876881","","0.376594699","","","","","","",""
"179","","bandit","259","752748","0.0-221.0-0.0","25114720","wem/bandit_single","A3OYUJ6E6BJS4H","gain","4","","76","L","3","","0","0","1","0.3576767422","","false","184","0.4654872089","","main_expt","0.3019566185","","0.1225312115","","0.3576767422","","","","","","",""
"137","","bandit","260","754674","0.0-222.0-0.0","25114720","wem/bandit_single","A3OYUJ6E6BJS4H","gain","4","","76","L","3","","1","0","0","0.3420219295","","false","185","0.4579605539","","main_expt","0.3297019868","","0.1342014861","","0.3420219295","","","","","","",""
"253","","bandit","261","756702","0.0-223.0-0.0","25114720","wem/bandit_single","A3OYUJ6E6BJS4H","gain","4","","76","L","3","","0","0","1","0.3398722127","","false","186","0.4285966985","","main_expt","0.3522504082","","0.1302900424","","0.3398722127","","","","","","",""
"143","","bandit","262","758636","0.0-224.0-0.0","25114720","wem/bandit_single","A3OYUJ6E6BJS4H","gain","4","","76","L","3","","0","0","1","0.3329123812","","false","187","0.4348535533","","main_expt","0.3716798598","","0.1721475048","","0.3329123812","","","","","","",""
"160","","bandit","263","760572","0.0-225.0-0.0","25114720","wem/bandit_single","A3OYUJ6E6BJS4H","gain","4","","76","L","3","","1","0","0","0.3185375489","","false","188","0.4485299143","","main_expt","0.3516931858","","0.194848396","","0.3185375489","","","","","","",""
"136","","bandit","264","762480","0.0-226.0-0.0","25114720","wem/bandit_single","A3OYUJ6E6BJS4H","gain","4","","76","L","3","","0","0","1","0.2819885058","","false","189","0.4108460603","","main_expt","0.311825216","","0.2010474049","","0.2819885058","","","","","","",""
"106","","bandit","265","764363","0.0-227.0-0.0","25114720","wem/bandit_single","A3OYUJ6E6BJS4H","gain","4","","76","L","3","","0","0","1","0.2938453289","","false","190","0.4276881046","","main_expt","0.3228194114","","0.2388592571","","0.2938453289","","","","","","",""
"152","","bandit","266","766284","0.0-228.0-0.0","25114720","wem/bandit_single","A3OYUJ6E6BJS4H","gain","4","","76","L","3","","0","0","1","0.3252392313","","false","191","0.4252680513","","main_expt","0.3070679034","","0.2125939305","","0.3252392313","","","","","","",""
"173","","bandit","267","768238","0.0-229.0-0.0","25114720","wem/bandit_single","A3OYUJ6E6BJS4H","gain","4","","75","K","2","","0","0","1","0.2494953747","","false","192","0.4128843357","","main_expt","0.3224985291","","0.2494953747","","0.2886148476","","","","","","",""
"67","","bandit","268","770097","0.0-230.0-0.0","25114720","wem/bandit_single","A3OYUJ6E6BJS4H","gain","4","","75","K","2","","0","0","1","0.2831479201","","false","193","0.3935422506","","main_expt","0.3869795439","","0.2831479201","","0.2985788169","","","","","","",""
"120","","bandit","269","772009","0.0-231.0-0.0","25114720","wem/bandit_single","A3OYUJ6E6BJS4H","gain","4","","74","J","1","","1","0","0","0.4012627402","","false","194","0.3844836544","","main_expt","0.4012627402","","0.3119862296","","0.2480640489","","","","","","",""
"303","","bandit","270","774101","0.0-232.0-0.0","25114720","wem/bandit_single","A3OYUJ6E6BJS4H","gain","4","","74","J","1","","0","0","1","0.3984750166","","false","195","0.3676726872","","main_expt","0.3984750166","","0.3216729489","","0.2512767584","","","","","","",""
"120","","bandit","271","776010","0.0-233.0-0.0","25114720","wem/bandit_single","A3OYUJ6E6BJS4H","gain","4","","74","J","1","","0","0","1","0.354698241","","false","196","0.3789354293","","main_expt","0.354698241","","0.3321806914","","0.2465093633","","","","","","",""
"40","","bandit","272","777823","0.0-234.0-0.0","25114720","wem/bandit_single","A3OYUJ6E6BJS4H","gain","4","","74","J","1","","1","0","0","0.388220233","","false","197","0.3163718389","","main_expt","0.388220233","","0.3046277309","","0.2064088789","","","","","","",""
"86","","bandit","273","779698","0.0-235.0-0.0","25114720","wem/bandit_single","A3OYUJ6E6BJS4H","gain","4","","74","J","1","","1","0","0","0.3702696144","","false","198","0.3791854339","","main_expt","0.3702696144","","0.2780350238","","0.1991167995","","","","","","",""
"59","","bandit","274","781543","0.0-236.0-0.0","25114720","wem/bandit_single","A3OYUJ6E6BJS4H","gain","4","","74","J","1","","0","0","1","0.3901406761","","false","199","0.3677616307","","main_expt","0.3901406761","","0.2933352516","","0.217931059","","","","","","",""
"1106","","bandit","275","784428","0.0-237.0-0.0","25114720","wem/bandit_single","A3OYUJ6E6BJS4H","gain","4","","74","J","1","","0","0","1","0.3606677237","","false","200","0.3696360463","","main_expt","0.3606677237","","0.2826656477","","0.1684289921","","","","","","",""
"101","","bandit","276","786312","0.0-238.0-0.0","25114720","wem/bandit_single","A3OYUJ6E6BJS4H","gain","4","","74","J","1","","0","0","1","0.3608273241","","false","201","0.3685313937","","main_expt","0.3608273241","","0.2337361703","","0.1526494416","","","","","","",""
"1215","","bandit","277","789316","0.0-239.0-0.0","25114720","wem/bandit_single","A3OYUJ6E6BJS4H","gain","4","","74","J","1","","0","0","1","0.3495453025","","false","202","0.354480527","","main_expt","0.3495453025","","0.1697000529","","0.1474087426","","","","","","",""
"23","","bandit","278","791114","0.0-240.0-0.0","25114720","wem/bandit_single","A3OYUJ6E6BJS4H","gain","4","","72","H","0","img/none_selected.jpg","0","0","1","0.3420940801","","false","203","0.3420940801","","main_expt","0.3660628182","","0.1941246875","","0.1499100939","","","","","","",""
"48","","bandit","279","792930","0.0-241.0-0.0","25114720","wem/bandit_single","A3OYUJ6E6BJS4H","gain","4","","72","H","0","img/none_selected.jpg","1","0","0","0.3365711719","","false","204","0.3365711719","","main_expt","0.337040125","","0.2006574904","","0.173155318","","","","","","",""
"223","","bandit","280","794931","0.0-242.0-0.0","25114720","wem/bandit_single","A3OYUJ6E6BJS4H","gain","4","","72","H","0","img/none_selected.jpg","0","0","1","0.3517226909","","false","205","0.3517226909","","main_expt","0.303371863","","0.1905393187","","0.1813441082","","","","","","",""
"97","","bandit","281","796809","0.0-243.0-0.0","25114720","wem/bandit_single","A3OYUJ6E6BJS4H","gain","4","","72","H","0","img/none_selected.jpg","1","0","0","0.3476038752","","false","206","0.3476038752","","main_expt","0.256221391","","0.1715448013","","0.1491413167","","","","","","",""
"193","","bandit","282","798791","0.0-244.0-0.0","25114720","wem/bandit_single","A3OYUJ6E6BJS4H","gain","4","","72","H","0","img/none_selected.jpg","0","0","1","0.3349551135","","false","207","0.3349551135","","main_expt","0.2368802791","","0.1857981004","","0.08847738283","","","","","","",""
"171","","bandit","283","800751","0.0-245.0-0.0","25114720","wem/bandit_single","A3OYUJ6E6BJS4H","gain","4","","72","H","0","img/none_selected.jpg","1","0","0","0.342580335","","false","208","0.342580335","","main_expt","0.1949321076","","0.2102455122","","0.1283817583","","","","","","",""
"572","","bandit","284","803106","0.0-246.0-0.0","25114720","wem/bandit_single","A3OYUJ6E6BJS4H","gain","4","","72","H","0","img/none_selected.jpg","0","0","1","0.3043768385","","false","209","0.3043768385","","main_expt","0.1838736563","","0.2400108979","","0.116273769","","","","","","",""
"180","","bandit","285","805060","0.0-247.0-0.0","25114720","wem/bandit_single","A3OYUJ6E6BJS4H","gain","4","","72","H","0","img/none_selected.jpg","0","0","1","0.2578785415","","false","210","0.2578785415","","main_expt","0.2021797606","","0.2756077388","","0.1255054793","","","","","","",""
"83","","bandit","286","806942","0.0-248.0-0.0","25114720","wem/bandit_single","A3OYUJ6E6BJS4H","gain","4","","72","H","0","img/none_selected.jpg","0","0","1","0.2684152162","","false","211","0.2684152162","","main_expt","0.1724183734","","0.2509099491","","0.1183517879","","","","","","",""
"226","","bandit","287","808936","0.0-249.0-0.0","25114720","wem/bandit_single","A3OYUJ6E6BJS4H","gain","4","","76","L","3","","0","0","1","0.05794836862","","false","212","0.2734791169","","main_expt","0.1730984207","","0.1980821896","","0.05794836862","","","","","","",""
"162","","bandit","288","810871","0.0-250.0-0.0","25114720","wem/bandit_single","A3OYUJ6E6BJS4H","gain","4","","76","L","3","","0","0","1","0.05975327623","","false","213","0.2278558496","","main_expt","0.1324166562","","0.1925164192","","0.05975327623","","","","","","",""
"170","","bandit","289","812804","0.0-251.0-0.0","25114720","wem/bandit_single","A3OYUJ6E6BJS4H","gain","4","","75","K","2","","1","0","0","0.2265747235","","false","214","0.3028606466","","main_expt","0.1503769339","","0.2265747235","","0.08438277685","","","","","","",""
"237","","bandit","290","814825","0.0-252.0-0.0","25114720","wem/bandit_single","A3OYUJ6E6BJS4H","gain","4","","75","K","2","","0","0","1","0.2019374621","","false","215","0.2931323275","","main_expt","0.1957560139","","0.2019374621","","0.06249742642","","","","","","",""
"173","","bandit","291","816782","0.0-253.0-0.0","25114720","wem/bandit_single","A3OYUJ6E6BJS4H","gain","4","","75","K","2","","0","0","1","0.1789305456","","false","216","0.3496422565","","main_expt","0.2405167914","","0.1789305456","","0.03962767808","","","","","","",""
"64","","bandit","292","818634","0.0-254.0-0.0","25114720","wem/bandit_single","A3OYUJ6E6BJS4H","gain","4","","75","K","2","","0","0","1","0.1749198907","","false","217","0.3773047798","","main_expt","0.1730494568","","0.1749198907","","0.04234009702","","","","","","",""
"112","","bandit","293","820515","0.0-255.0-0.0","25114720","wem/bandit_single","A3OYUJ6E6BJS4H","gain","4","","74","J","1","","0","0","1","0.194438436","","false","218","0.3416605923","","main_expt","0.194438436","","0.1735363699","","0.03503126556","","","","","","",""
"209","","bandit","294","822482","0.0-256.0-0.0","25114720","wem/bandit_single","A3OYUJ6E6BJS4H","gain","4","","74","J","1","","0","0","1","0.1883779435","","false","219","0.3559276739","","main_expt","0.1883779435","","0.2007391453","","0.04555228435","","","","","","",""
"38","","bandit","295","824296","0.0-257.0-0.0","25114720","wem/bandit_single","A3OYUJ6E6BJS4H","gain","4","","76","L","3","","0","0","1","0.03183460319","","false","220","0.3535435837","","main_expt","0.146052069","","0.2082644318","","0.03183460319","","","","","","",""
"133","","bandit","296","826219","0.0-258.0-0.0","25114720","wem/bandit_single","A3OYUJ6E6BJS4H","gain","4","","76","L","3","","0","0","1","0.05071015327","","false","221","0.3418709783","","main_expt","0.1494285134","","0.1821586712","","0.05071015327","","","","","","",""
"150","","bandit","297","828146","0.0-259.0-0.0","25114720","wem/bandit_single","A3OYUJ6E6BJS4H","gain","4","","76","L","3","","0","0","1","0.04027023507","","false","222","0.3004905908","","main_expt","0.182387278","","0.2158533928","","0.04027023507","","","","","","",""
"108","","bandit","298","830037","0.0-260.0-0.0","25114720","wem/bandit_single","A3OYUJ6E6BJS4H","gain","4","","72","H","0","img/none_selected.jpg","0","0","1","0.3691689592","","false","223","0.3691689592","","main_expt","0.198140534","","0.1832968935","","0.05247893246","","","","","","",""
"73","","bandit","299","831891","0.0-261.0-0.0","25114720","wem/bandit_single","A3OYUJ6E6BJS4H","gain","4","","72","H","0","img/none_selected.jpg","0","0","1","0.2915556832","","false","224","0.2915556832","","main_expt","0.1957066115","","0.1701073256","","0.06352932029","","","","","","",""
"166","","bandit","300","833833","0.0-262.0-0.0","25114720","wem/bandit_single","A3OYUJ6E6BJS4H","gain","4","","74","J","1","","0","0","1","0.2132826896","","false","225","0.3175642321","","main_expt","0.2132826896","","0.1599508429","","0.04388745626","","","","","","",""
"38","","bandit","301","835645","0.0-263.0-0.0","25114720","wem/bandit_single","A3OYUJ6E6BJS4H","gain","4","","75","K","2","","0","0","1","0.1801289829","","false","226","0.2803716623","","main_expt","0.2679811769","","0.1801289829","","0.0536624769","","","","","","",""
"118","","bandit","302","837544","0.0-264.0-0.0","25114720","wem/bandit_single","A3OYUJ6E6BJS4H","gain","4","","75","K","2","","0","0","1","0.1920788888","","false","227","0.2506224893","","main_expt","0.2101601544","","0.1920788888","","0.07211167966","","","","","","",""
"158","","bandit","303","839467","0.0-265.0-0.0","25114720","wem/bandit_single","A3OYUJ6E6BJS4H","gain","4","","76","L","3","","0","0","1","0.04486621846","","false","228","0.2890404278","","main_expt","0.1808571688","","0.1540575712","","0.04486621846","","","","","","",""
"42","","bandit","304","841294","0.0-266.0-0.0","25114720","wem/bandit_single","A3OYUJ6E6BJS4H","gain","4","","76","L","3","","0","0","1","0.05387953984","","false","229","0.2746035793","","main_expt","0.1132309001","","0.161449161","","0.05387953984","","","","","","",""
"127","","bandit","305","843198","0.0-267.0-0.0","25114720","wem/bandit_single","A3OYUJ6E6BJS4H","gain","4","","74","J","1","","0","0","1","0.1450818377","","false","230","0.282726532","","main_expt","0.1450818377","","0.1413021421","","0.03848872117","","","","","","",""
"117","","bandit","306","845076","0.0-268.0-0.0","25114720","wem/bandit_single","A3OYUJ6E6BJS4H","gain","4","","74","J","1","","1","0","0","0.1077137685","","false","231","0.3472256411","","main_expt","0.1077137685","","0.1745796094","","0.04669383004","","","","","","",""
"148","","bandit","307","847022","0.0-269.0-0.0","25114720","wem/bandit_single","A3OYUJ6E6BJS4H","gain","4","","74","J","1","","0","0","1","0.06427161289","","false","232","0.3994934702","","main_expt","0.06427161289","","0.1680880834","","0.03395804074","","","","","","",""
"16","","bandit","308","848830","0.0-270.0-0.0","25114720","wem/bandit_single","A3OYUJ6E6BJS4H","gain","4","","74","J","1","","0","0","1","0.1060089469","","false","233","0.4029083043","","main_expt","0.1060089469","","0.213250795","","0.05150109453","","","","","","",""
"323","","bandit","309","850939","0.0-271.0-0.0","25114720","wem/bandit_single","A3OYUJ6E6BJS4H","gain","4","","74","J","1","","0","0","1","0.1117154146","","false","234","0.4486287737","","main_expt","0.1117154146","","0.221091899","","0.06099663442","","","","","","",""
"1205","","bandit","310","853914","0.0-272.0-0.0","25114720","wem/bandit_single","A3OYUJ6E6BJS4H","gain","4","","75","K","2","","0","0","1","0.2688923835","","false","235","0.4561120354","","main_expt","0.1276115887","","0.2688923835","","0.05202127711","","","","","","",""
"1","","bandit","311","855702","0.0-273.0-0.0","25114720","wem/bandit_single","A3OYUJ6E6BJS4H","gain","4","","75","K","2","","0","0","1","0.2323123402","","false","236","0.4375102443","","main_expt","0.1786916187","","0.2323123402","","0.07001303924","","","","","","",""
"10","","bandit","312","857499","0.0-274.0-0.0","25114720","wem/bandit_single","A3OYUJ6E6BJS4H","gain","4","","72","H","0","img/none_selected.jpg","1","0","0","0.4582573195","","false","237","0.4582573195","","main_expt","0.1896980961","","0.174764536","","0.07602679398","","","","","","",""
"152","","bandit","313","859435","0.0-275.0-0.0","25114720","wem/bandit_single","A3OYUJ6E6BJS4H","gain","4","","72","H","0","img/none_selected.jpg","0","0","1","0.4463811869","","false","238","0.4463811869","","main_expt","0.2205101014","","0.1654919337","","0.08775462142","","","","","","",""
"159","","bandit","314","861368","0.0-276.0-0.0","25114720","wem/bandit_single","A3OYUJ6E6BJS4H","gain","4","","72","H","0","img/none_selected.jpg","0","0","1","0.4507479662","","false","239","0.4507479662","","main_expt","0.2661717939","","0.2402574844","","0.06721086637","","","","","","",""
"63","","bandit","315","863224","0.0-277.0-0.0","25114720","wem/bandit_single","A3OYUJ6E6BJS4H","gain","4","","72","H","0","img/none_selected.jpg","0","0","1","0.4504038859","","false","240","0.4504038859","","main_expt","0.1972661282","","0.2445968751","","0.07433064979","","","","","","",""
"360","","bandit","316","865364","0.0-278.0-0.0","25114720","wem/bandit_single","A3OYUJ6E6BJS4H","gain","4","","76","L","3","","0","0","1","0.08919714094","","false","241","0.4346931185","","main_expt","0.1868253343","","0.2708632627","","0.08919714094","","","","","","",""
"73","","bandit","317","867207","0.0-279.0-0.0","25114720","wem/bandit_single","A3OYUJ6E6BJS4H","gain","4","","76","L","3","","0","0","1","0.06159770715","","false","242","0.3898892773","","main_expt","0.1649449253","","0.2047807489","","0.06159770715","","","","","","",""
"328","","bandit","318","869303","0.0-280.0-0.0","25114720","wem/bandit_single","A3OYUJ6E6BJS4H","gain","4","","75","K","2","","1","0","0","0.222122474","","false","243","0.4033463229","","main_expt","0.184368772","","0.222122474","","0.05299296545","","","","","","",""
"209","","bandit","319","871311","0.0-281.0-0.0","25114720","wem/bandit_single","A3OYUJ6E6BJS4H","gain","4","","75","K","2","","0","0","1","0.2425992204","","false","244","0.4096532456","","main_expt","0.2121467569","","0.2425992204","","0.06275569833","","","","","","",""
"89","","bandit","320","873191","0.0-282.0-0.0","25114720","wem/bandit_single","A3OYUJ6E6BJS4H","gain","4","","75","K","2","","0","0","1","0.2173978931","","false","245","0.3779527256","","main_expt","0.1894702338","","0.2173978931","","0.06673215917","","","","","","",""
"810","","bandit","321","875773","0.0-283.0-0.0","25114720","wem/bandit_single","A3OYUJ6E6BJS4H","gain","4","","75","K","2","","0","0","1","0.2218069129","","false","246","0.3953318503","","main_expt","0.2018459735","","0.2218069129","","0.06500670021","","","","","","",""
"578","","bandit","322","878126","0.0-284.0-0.0","25114720","wem/bandit_single","A3OYUJ6E6BJS4H","gain","4","","74","J","1","","0","0","1","0.1986179994","","false","247","0.4287890539","","main_expt","0.1986179994","","0.1888628326","","0.07271559664","","","","","","",""
"35","","bandit","323","879945","0.0-285.0-0.0","25114720","wem/bandit_single","A3OYUJ6E6BJS4H","gain","4","","74","J","1","","0","0","1","0.1299779064","","false","248","0.4104310255","","main_expt","0.1299779064","","0.1722509531","","0.09654775784","","","","","","",""
"114","","bandit","324","881847","0.0-286.0-0.0","25114720","wem/bandit_single","A3OYUJ6E6BJS4H","gain","4","","72","H","0","img/none_selected.jpg","0","0","1","0.4116337798","","false","249","0.4116337798","","main_expt","0.1590650881","","0.2541205998","","0.1179039307","","","","","","",""
"32","","bandit","325","883655","0.0-287.0-0.0","25114720","wem/bandit_single","A3OYUJ6E6BJS4H","gain","4","","72","H","0","img/none_selected.jpg","0","0","1","0.426505214","","false","250","0.426505214","","main_expt","0.1213614167","","0.2664885101","","0.1265890049","","","","","","",""
"113","","bandit","326","885541","0.0-288.0-0.0","25114720","wem/bandit_single","A3OYUJ6E6BJS4H","gain","4","","76","L","3","","0","0","1","0.1039398773","","false","251","0.3949293487","","main_expt","0.1099334476","","0.2519669898","","0.1039398773","","","","","","",""
"36","","bandit","327","887342","0.0-289.0-0.0","25114720","wem/bandit_single","A3OYUJ6E6BJS4H","gain","4","","76","L","3","","0","0","1","0.107940897","","false","252","0.3913077142","","main_expt","0.1087011898","","0.2932098873","","0.107940897","","","","","","",""
"98","","bandit","328","889229","0.0-290.0-0.0","25114720","wem/bandit_single","A3OYUJ6E6BJS4H","gain","4","","76","L","3","","1","0","0","0.1136461566","","false","253","0.3648650894","","main_expt","0.09397011719","","0.3179249839","","0.1136461566","","","","","","",""
"204","","bandit","329","891208","0.0-291.0-0.0","25114720","wem/bandit_single","A3OYUJ6E6BJS4H","gain","4","","76","L","3","","0","0","1","0.1374631792","","false","254","0.3452883024","","main_expt","0.08474648857","","0.2908620441","","0.1374631792","","","","","","",""
"229","","bandit","330","893212","0.0-292.0-0.0","25114720","wem/bandit_single","A3OYUJ6E6BJS4H","gain","4","","76","L","3","","0","0","1","0.1453945637","","false","255","0.2943306686","","main_expt","0.1025854271","","0.3067265453","","0.1453945637","","","","","","",""
"130","","bandit","331","895123","0.0-293.0-0.0","25114720","wem/bandit_single","A3OYUJ6E6BJS4H","gain","4","","76","L","3","","0","0","1","0.1543600678","","false","256","0.3225000795","","main_expt","0.08686152536","","0.3133222149","","0.1543600678","","","","","","",""
"75","","bandit","332","896986","0.0-294.0-0.0","25114720","wem/bandit_single","A3OYUJ6E6BJS4H","gain","4","","75","K","2","","0","0","1","0.3194106209","","false","257","0.3199750271","","main_expt","0.08667022303","","0.3194106209","","0.107160473","","","","","","",""
"284","","bandit","333","899042","0.0-295.0-0.0","25114720","wem/bandit_single","A3OYUJ6E6BJS4H","gain","4","","72","H","0","img/none_selected.jpg","0","0","1","0.355105101","","false","258","0.355105101","","main_expt","0.1158580788","","0.35032938","","0.0567043194","","","","","","",""
"680","","bandit","334","901497","0.0-296.0-0.0","25114720","wem/bandit_single","A3OYUJ6E6BJS4H","gain","4","","72","H","0","img/none_selected.jpg","0","0","1","0.3566572827","","false","259","0.3566572827","","main_expt","0.08241329339","","0.3856615787","","0.05418204449","","","","","","",""
"72","","bandit","335","903355","0.0-297.0-0.0","25114720","wem/bandit_single","A3OYUJ6E6BJS4H","gain","4","","75","K","2","","1","0","0","0.3977147975","","false","260","0.3492833521","","main_expt","0.09346186364","","0.3977147975","","0.0423658587","","","","","","",""
"128","","bandit","336","905263","0.0-298.0-0.0","25114720","wem/bandit_single","A3OYUJ6E6BJS4H","gain","4","","75","K","2","","0","0","1","0.4011116255","","false","261","0.3406934897","","main_expt","0.07434745577","","0.4011116255","","0.08097208102","","","","","","",""
"73","","bandit","337","907129","0.0-299.0-0.0","25114720","wem/bandit_single","A3OYUJ6E6BJS4H","gain","4","","75","K","2","","0","0","1","0.4149706566","","false","262","0.3604065233","","main_expt","0.1177047137","","0.4149706566","","0.05731993864","","","","","","",""
"62","","bandit","338","908975","0.0-300.0-0.0","25114720","wem/bandit_single","A3OYUJ6E6BJS4H","gain","4","","75","K","2","","0","0","1","0.4476629791","","false","263","0.3584147688","","main_expt","0.09530987449","","0.4476629791","","0.07314079116","","","","","","",""
"82","","bandit","339","910844","0.0-301.0-0.0","25114720","wem/bandit_single","A3OYUJ6E6BJS4H","gain","4","","72","H","0","img/none_selected.jpg","0","0","1","0.3723043834","","false","264","0.3723043834","","main_expt","0.07595610255","","0.4640453953","","0.08382102311","","","","","","",""
"62","","bandit","340","912688","0.0-302.0-0.0","25114720","wem/bandit_single","A3OYUJ6E6BJS4H","gain","4","","72","H","0","img/none_selected.jpg","1","0","0","0.316280577","","false","265","0.316280577","","main_expt","0.08850347459","","0.4465377191","","0.1065624759","","","","","","",""
"311","","bandit","341","914792","0.0-303.0-0.0","25114720","wem/bandit_single","A3OYUJ6E6BJS4H","gain","4","","72","H","0","img/none_selected.jpg","1","0","0","0.269287162","","false","266","0.269287162","","main_expt","0.1215706641","","0.4183068553","","0.1253885588","","","","","","",""
"36","","bandit","342","916603","0.0-304.0-0.0","25114720","wem/bandit_single","A3OYUJ6E6BJS4H","gain","4","","72","H","0","img/none_selected.jpg","1","0","0","0.2280314931","","false","267","0.2280314931","","main_expt","0.1841144129","","0.4268145795","","0.09016252172","","","","","","",""
"74","","bandit","343","918452","0.0-305.0-0.0","25114720","wem/bandit_single","A3OYUJ6E6BJS4H","gain","4","","72","H","0","img/none_selected.jpg","0","0","1","0.2243604643","","false","268","0.2243604643","","main_expt","0.1409141681","","0.4319202891","","0.08700052181","","","","","","",""
"88","","bandit","344","920321","0.0-306.0-0.0","25114720","wem/bandit_single","A3OYUJ6E6BJS4H","gain","4","","72","H","0","img/none_selected.jpg","0","0","1","0.2334807581","","false","269","0.2334807581","","main_expt","0.1011197226","","0.4493038861","","0.09500676271","","","","","","",""
"58","","bandit","345","922152","0.0-307.0-0.0","25114720","wem/bandit_single","A3OYUJ6E6BJS4H","gain","4","","72","H","0","img/none_selected.jpg","0","0","1","0.2376518603","","false","270","0.2376518603","","main_expt","0.118556502","","0.443059266","","0.07607499825","","","","","","",""
"32","","bandit","346","923959","0.0-308.0-0.0","25114720","wem/bandit_single","A3OYUJ6E6BJS4H","gain","4","","72","H","0","img/none_selected.jpg","1","0","0","0.2139372972","","false","271","0.2139372972","","main_expt","0.131750931","","0.4362671961","","0.08946946819","","","","","","",""
"57","","bandit","347","925782","0.0-309.0-0.0","25114720","wem/bandit_single","A3OYUJ6E6BJS4H","gain","4","","72","H","0","img/none_selected.jpg","0","0","1","0.157688628","","false","272","0.157688628","","main_expt","0.174678733","","0.4452199348","","0.108288805","","","","","","",""
"109","","bandit","348","927668","0.0-310.0-0.0","25114720","wem/bandit_single","A3OYUJ6E6BJS4H","gain","4","","72","H","0","img/none_selected.jpg","1","0","0","0.271098703","","false","273","0.271098703","","main_expt","0.1730415972","","0.454652927","","0.105491008","","","","","","",""
"11","","bandit","349","929459","0.0-311.0-0.0","25114720","wem/bandit_single","A3OYUJ6E6BJS4H","gain","4","","72","H","0","img/none_selected.jpg","0","0","1","0.2778056479","","false","274","0.2778056479","","main_expt","0.1520576313","","0.4646374989","","0.1059149547","","","","","","",""
"23","","bandit","350","931256","0.0-312.0-0.0","25114720","wem/bandit_single","A3OYUJ6E6BJS4H","gain","4","","72","H","0","img/none_selected.jpg","0","0","1","0.2698457611","","false","275","0.2698457611","","main_expt","0.1007060326","","0.4535579815","","0.09894283875","","","","","","",""
"81","","bandit","351","933115","0.0-313.0-0.0","25114720","wem/bandit_single","A3OYUJ6E6BJS4H","gain","4","","72","H","0","img/none_selected.jpg","0","0","1","0.2774836338","","false","276","0.2774836338","","main_expt","0.08844777519","","0.4319407295","","0.07695295732","","","","","","",""
"66","","bandit","352","934971","0.0-314.0-0.0","25114720","wem/bandit_single","A3OYUJ6E6BJS4H","gain","4","","72","H","0","img/none_selected.jpg","0","0","1","0.3222794015","","false","277","0.3222794015","","main_expt","0.1315613084","","0.4475260374","","0.0896712608","","","","","","",""
"45","","bandit","353","936792","0.0-315.0-0.0","25114720","wem/bandit_single","A3OYUJ6E6BJS4H","gain","4","","74","J","1","","0","0","1","0.1508492864","","false","278","0.3122447371","","main_expt","0.1508492864","","0.4553849104","","0.1343695578","","","","","","",""
"72","","bandit","354","938625","0.0-316.0-0.0","25114720","wem/bandit_single","A3OYUJ6E6BJS4H","gain","4","","74","J","1","","0","0","1","0.1181182825","","false","279","0.2934764685","","main_expt","0.1181182825","","0.4621871954","","0.1106050404","","","","","","",""
"76","","bandit","355","940465","0.0-317.0-0.0","25114720","wem/bandit_single","A3OYUJ6E6BJS4H","gain","4","","74","J","1","","0","0","1","0.1244803533","","false","280","0.290984208","","main_expt","0.1244803533","","0.4482597109","","0.114105974","","","","","","",""
"24","","bandit","356","942271","0.0-318.0-0.0","25114720","wem/bandit_single","A3OYUJ6E6BJS4H","gain","4","","75","K","2","","1","0","0","0.4347423019","","false","281","0.2974260948","","main_expt","0.105821284","","0.4347423019","","0.1246337516","","","","","","",""
"37","","bandit","357","944086","0.0-319.0-0.0","25114720","wem/bandit_single","A3OYUJ6E6BJS4H","gain","4","","75","K","2","","1","0","0","0.4583393623","","false","282","0.2972171025","","main_expt","0.1562468179","","0.4583393623","","0.079988156","","","","","","",""
"54","","bandit","358","945925","0.0-320.0-0.0","25114720","wem/bandit_single","A3OYUJ6E6BJS4H","gain","4","","75","K","2","","1","0","0","0.4497532375","","false","283","0.2821487798","","main_expt","0.1478322318","","0.4497532375","","0.06901380195","","","","","","",""
"36","","bandit","359","947737","0.0-321.0-0.0","25114720","wem/bandit_single","A3OYUJ6E6BJS4H","gain","4","","75","K","2","","1","0","0","0.4312811421","","false","284","0.2739939459","","main_expt","0.1371678423","","0.4312811421","","0.05901051183","","","","","","",""
"14","","bandit","360","949544","0.0-322.0-0.0","25114720","wem/bandit_single","A3OYUJ6E6BJS4H","gain","4","","75","K","2","","1","0","0","0.4599346403","","false","285","0.2251097973","","main_expt","0.12762277","","0.4599346403","","0.1126944794","","","","","","",""
"1199","","bandit","361","952527","0.0-323.0-0.0","25114720","wem/bandit_single","A3OYUJ6E6BJS4H","gain","4","","75","K","2","","1","0","0","0.4588450488","","false","286","0.2124690726","","main_expt","0.1587978561","","0.4588450488","","0.09646131279","","","","","","",""
"236","","bandit","362","954544","0.0-324.0-0.0","25114720","wem/bandit_single","A3OYUJ6E6BJS4H","gain","4","","75","K","2","","0","0","1","0.4684539465","","false","287","0.2311163105","","main_expt","0.1262084743","","0.4684539465","","0.0795853072","","","","","","",""
"49","","bandit","363","956385","0.0-325.0-0.0","25114720","wem/bandit_single","A3OYUJ6E6BJS4H","gain","4","","75","K","2","","0","0","1","0.4555823871","","false","288","0.2178761709","","main_expt","0.08849331384","","0.4555823871","","0.07210460151","","","","","","",""
"67","","bandit","364","958239","0.0-326.0-0.0","25114720","wem/bandit_single","A3OYUJ6E6BJS4H","gain","4","","75","K","2","","1","0","0","0.4779982095","","false","289","0.2656120211","","main_expt","0.1082793638","","0.4779982095","","0.08807043944","","","","","","",""
"102","","bandit","365","960130","0.0-327.0-0.0","25114720","wem/bandit_single","A3OYUJ6E6BJS4H","gain","4","","75","K","2","","0","0","1","0.4806691972","","false","290","0.2756957417","","main_expt","0.1591187351","","0.4806691972","","0.09097769709","","","","","","",""
"21","","bandit","366","961920","0.0-328.0-0.0","25114720","wem/bandit_single","A3OYUJ6E6BJS4H","gain","4","","75","K","2","","1","0","0","0.4856322508","","false","291","0.3111580235","","main_expt","0.1766493085","","0.4856322508","","0.1486720085","","","","","","",""
"28","","bandit","367","963723","0.0-329.0-0.0","25114720","wem/bandit_single","A3OYUJ6E6BJS4H","gain","4","","75","K","2","","0","0","1","0.4905538215","","false","292","0.3019137931","","main_expt","0.1303677554","","0.4905538215","","0.166368556","","","","","","",""
"511","","bandit","368","966023","0.0-330.0-0.0","25114720","wem/bandit_single","A3OYUJ6E6BJS4H","gain","4","","75","K","2","","0","0","1","0.4915741327","","false","293","0.2930542664","","main_expt","0.1553518032","","0.4915741327","","0.1516979355","","","","","","",""
"37","","bandit","369","967860","0.0-331.0-0.0","25114720","wem/bandit_single","A3OYUJ6E6BJS4H","gain","4","","75","K","2","","0","0","1","0.4854109815","","false","294","0.294566814","","main_expt","0.1586445557","","0.4854109815","","0.142642289","","","","","","",""
"98","","bandit","370","969742","0.0-332.0-0.0","25114720","wem/bandit_single","A3OYUJ6E6BJS4H","gain","4","","75","K","2","","0","0","1","0.4737464351","","false","295","0.2590601899","","main_expt","0.1474370852","","0.4737464351","","0.1038045902","","","","","","",""
"6","","bandit","371","971537","0.0-333.0-0.0","25114720","wem/bandit_single","A3OYUJ6E6BJS4H","gain","4","","76","L","3","","0","0","1","0.1055366566","","false","296","0.260130188","","main_expt","0.1281429101","","0.4752126994","","0.1055366566","","","","","","",""
"109","","bandit","372","973430","0.0-334.0-0.0","25114720","wem/bandit_single","A3OYUJ6E6BJS4H","gain","4","","76","L","3","","0","0","1","0.07292146603","","false","297","0.243487995","","main_expt","0.1486346553","","0.47087989","","0.07292146603","","","","","","",""
"121","","bandit","373","975316","0.0-335.0-0.0","25114720","wem/bandit_single","A3OYUJ6E6BJS4H","gain","4","","76","L","3","","0","0","1","0.07361350609","","false","298","0.2746908113","","main_expt","0.154412059","","0.454436629","","0.07361350609","","","","","","",""
