"rt","responses","trial_type","trial_index","time_elapsed","internal_node_id","subjID","study","MID","cond","drift","key_press","respCharCode","respKey","respChoiceNum","respChoice","gems","bombs","no_reward","GemPrChosen","BombPrChosen","practice","trial_counter","WinPr_0","LosePr_0","trial_label","WinPr_1","LosePr_1","WinPr_2","LosePr_2","WinPr_3","LosePr_3","Q0","Q1","Q2","gender","age","ethnicity"
"17807","{""Q0"":""A2SVNXNMD7E7EH""}","survey-text","0","17815","0.0-0.0","25333270","wem/bandit_single","A2SVNXNMD7E7EH","pain","8","","","","","","","","","","","","","","","","","","","","","","","","","","",""
"1950","","text","1","20769","0.0-1.0","25333270","wem/bandit_single","A2SVNXNMD7E7EH","pain","8","32","","","","","","","","","","","","","","","","","","","","","","","","","",""
"3984","","text","2","24755","0.0-2.0","25333270","wem/bandit_single","A2SVNXNMD7E7EH","pain","8","32","","","","","","","","","","","","","","","","","","","","","","","","","",""
"23380","","text","3","48137","0.0-3.0","25333270","wem/bandit_single","A2SVNXNMD7E7EH","pain","8","32","","","","","","","","","","","","","","","","","","","","","","","","","",""
"18172","","text","4","66311","0.0-4.0","25333270","wem/bandit_single","A2SVNXNMD7E7EH","pain","8","32","","","","","","","","","","","","","","","","","","","","","","","","","",""
"4327","","text","5","70639","0.0-5.0","25333270","wem/bandit_single","A2SVNXNMD7E7EH","pain","8","32","","","","","","","","","","","","","","","","","","","","","","","","","",""
"9504","","text","6","80143","0.0-6.0","25333270","wem/bandit_single","A2SVNXNMD7E7EH","pain","8","32","","","","","","","","","","","","","","","","","","","","","","","","","",""
"6747","","text","7","86894","0.0-7.0","25333270","wem/bandit_single","A2SVNXNMD7E7EH","pain","8","32","","","","","","","","","","","","","","","","","","","","","","","","","",""
"8277","","text","8","95175","0.0-8.0","25333270","wem/bandit_single","A2SVNXNMD7E7EH","pain","8","32","","","","","","","","","","","","","","","","","","","","","","","","","",""
"3848","","text","9","99028","0.0-9.0","25333270","wem/bandit_single","A2SVNXNMD7E7EH","pain","8","32","","","","","","","","","","","","","","","","","","","","","","","","","",""
"3358","","text","10","102389","0.0-10.0","25333270","wem/bandit_single","A2SVNXNMD7E7EH","pain","8","32","","","","","","","","","","","","","","","","","","","","","","","","","",""
"8748","","text","11","111138","0.0-11.0","25333270","wem/bandit_single","A2SVNXNMD7E7EH","pain","8","32","","","","","","","","","","","","","","","","","","","","","","","","","",""
"1540","","bandit","12","114186","0.0-12.0-0.0","25333270","wem/bandit_single","A2SVNXNMD7E7EH","pain","8","","74","J","0","img/none_selected_demo.jpg","0","0","1","0","0","true","0","0","0","","","","","","","","","","","","",""
"331","","bandit","13","116281","0.0-13.0-0.0","25333270","wem/bandit_single","A2SVNXNMD7E7EH","pain","8","","75","K","0","img/none_selected_demo.jpg","0","0","1","0","0","true","0","0","0","","","","","","","","","","","","",""
"10013","","text","14","126549","0.0-14.0","25333270","wem/bandit_single","A2SVNXNMD7E7EH","pain","8","32","","","","","","","","","","","","","","","","","","","","","","","","","",""
"1853","","text","15","128404","0.0-15.0","25333270","wem/bandit_single","A2SVNXNMD7E7EH","pain","8","32","","","","","","","","","","","","","","","","","","","","","","","","","",""
"3493","","text","16","131897","0.0-16.0","25333270","wem/bandit_single","A2SVNXNMD7E7EH","pain","8","32","","","","","","","","","","","","","","","","","","","","","","","","","",""
"5518","","text","17","137416","0.0-17.0","25333270","wem/bandit_single","A2SVNXNMD7E7EH","pain","8","32","","","","","","","","","","","","","","","","","","","","","","","","","",""
"3418","","bandit","18","142340","0.0-18.0-0.0","25333270","wem/bandit_single","A2SVNXNMD7E7EH","pain","8","","75","K","1","","0","0","1","0","0.2","true","0","0","0.8","80_20_practice","0","0.2","","","","","","","","","",""
"7118","","bandit","19","151218","0.0-18.0-1.0","25333270","wem/bandit_single","A2SVNXNMD7E7EH","pain","8","","74","J","0","img/none_selected_demo.jpg","0","1","0","0","0.8","true","0","0","0.8","80_20_practice","0","0.2","","","","","","","","","",""
"419","","bandit","20","153400","0.0-18.0-2.0","25333270","wem/bandit_single","A2SVNXNMD7E7EH","pain","8","","74","J","0","img/none_selected_demo.jpg","0","1","0","0","0.8","true","0","0","0.8","80_20_practice","0","0.2","","","","","","","","","",""
"64","","bandit","21","155229","0.0-18.0-3.0","25333270","wem/bandit_single","A2SVNXNMD7E7EH","pain","8","","74","J","0","img/none_selected_demo.jpg","0","1","0","0","0.8","true","0","0","0.8","80_20_practice","0","0.2","","","","","","","","","",""
"231","","bandit","22","157226","0.0-18.0-4.0","25333270","wem/bandit_single","A2SVNXNMD7E7EH","pain","8","","74","J","0","img/none_selected_demo.jpg","0","1","0","0","0.8","true","0","0","0.8","80_20_practice","0","0.2","","","","","","","","","",""
"591","","bandit","23","159576","0.0-18.0-5.0","25333270","wem/bandit_single","A2SVNXNMD7E7EH","pain","8","","74","J","0","img/none_selected_demo.jpg","0","1","0","0","0.8","true","0","0","0.8","80_20_practice","0","0.2","","","","","","","","","",""
"61","","bandit","24","161402","0.0-18.0-6.0","25333270","wem/bandit_single","A2SVNXNMD7E7EH","pain","8","","74","J","0","img/none_selected_demo.jpg","0","1","0","0","0.8","true","0","0","0.8","80_20_practice","0","0.2","","","","","","","","","",""
"49","","bandit","25","163211","0.0-18.0-7.0","25333270","wem/bandit_single","A2SVNXNMD7E7EH","pain","8","","74","J","0","img/none_selected_demo.jpg","0","1","0","0","0.8","true","0","0","0.8","80_20_practice","0","0.2","","","","","","","","","",""
"182","","bandit","26","165152","0.0-18.0-8.0","25333270","wem/bandit_single","A2SVNXNMD7E7EH","pain","8","","74","J","0","img/none_selected_demo.jpg","0","1","0","0","0.8","true","0","0","0.8","80_20_practice","0","0.2","","","","","","","","","",""
"75","","bandit","27","166986","0.0-18.0-9.0","25333270","wem/bandit_single","A2SVNXNMD7E7EH","pain","8","","74","J","0","img/none_selected_demo.jpg","0","1","0","0","0.8","true","0","0","0.8","80_20_practice","0","0.2","","","","","","","","","",""
"50","","bandit","28","168792","0.0-18.0-10.0","25333270","wem/bandit_single","A2SVNXNMD7E7EH","pain","8","","74","J","0","img/none_selected_demo.jpg","0","0","1","0","0.8","true","0","0","0.8","80_20_practice","0","0.2","","","","","","","","","",""
"320","","bandit","29","170869","0.0-18.0-11.0","25333270","wem/bandit_single","A2SVNXNMD7E7EH","pain","8","","74","J","0","img/none_selected_demo.jpg","0","1","0","0","0.8","true","0","0","0.8","80_20_practice","0","0.2","","","","","","","","","",""
"139","","bandit","30","172766","0.0-18.0-12.0","25333270","wem/bandit_single","A2SVNXNMD7E7EH","pain","8","","74","J","0","img/none_selected_demo.jpg","0","0","1","0","0.8","true","0","0","0.8","80_20_practice","0","0.2","","","","","","","","","",""
"141","","bandit","31","174664","0.0-18.0-13.0","25333270","wem/bandit_single","A2SVNXNMD7E7EH","pain","8","","74","J","0","img/none_selected_demo.jpg","0","1","0","0","0.8","true","0","0","0.8","80_20_practice","0","0.2","","","","","","","","","",""
"40","","bandit","32","176461","0.0-18.0-14.0","25333270","wem/bandit_single","A2SVNXNMD7E7EH","pain","8","","74","J","0","img/none_selected_demo.jpg","0","1","0","0","0.8","true","0","0","0.8","80_20_practice","0","0.2","","","","","","","","","",""
"65","","bandit","33","178284","0.0-18.0-15.0","25333270","wem/bandit_single","A2SVNXNMD7E7EH","pain","8","","74","J","0","img/none_selected_demo.jpg","0","0","1","0","0.8","true","0","0","0.8","80_20_practice","0","0.2","","","","","","","","","",""
"39","","bandit","34","180082","0.0-18.0-16.0","25333270","wem/bandit_single","A2SVNXNMD7E7EH","pain","8","","74","J","0","img/none_selected_demo.jpg","0","1","0","0","0.8","true","0","0","0.8","80_20_practice","0","0.2","","","","","","","","","",""
"223","","bandit","35","182062","0.0-18.0-17.0","25333270","wem/bandit_single","A2SVNXNMD7E7EH","pain","8","","75","K","1","","0","0","1","0","0.2","true","0","0","0.8","80_20_practice","0","0.2","","","","","","","","","",""
"69","","bandit","36","183892","0.0-18.0-18.0","25333270","wem/bandit_single","A2SVNXNMD7E7EH","pain","8","","75","K","1","","0","0","1","0","0.2","true","0","0","0.8","80_20_practice","0","0.2","","","","","","","","","",""
"5","","bandit","37","185653","0.0-18.0-19.0","25333270","wem/bandit_single","A2SVNXNMD7E7EH","pain","8","","74","J","0","img/none_selected_demo.jpg","0","1","0","0","0.8","true","0","0","0.8","80_20_practice","0","0.2","","","","","","","","","",""
"332","","text","38","186240","0.0-19.0","25333270","wem/bandit_single","A2SVNXNMD7E7EH","pain","8","32","","","","","","","","","","","","","","","","","","","","","","","","","",""
"1470","","bandit","39","189220","0.0-20.0-0.0","25333270","wem/bandit_single","A2SVNXNMD7E7EH","pain","8","","74","J","0","img/none_selected_demo.jpg","0","0","1","0","0","true","0","0","0","","0","0","","","","","","","","","",""
"9467","","text","40","198942","0.0-21.0","25333270","wem/bandit_single","A2SVNXNMD7E7EH","pain","8","32","","","","","","","","","","","","","","","","","","","","","","","","","",""
"606","","text","41","199550","0.0-22.0","25333270","wem/bandit_single","A2SVNXNMD7E7EH","pain","8","32","","","","","","","","","","","","","","","","","","","","","","","","","",""
"7249","","text","42","206800","0.0-23.0","25333270","wem/bandit_single","A2SVNXNMD7E7EH","pain","8","32","","","","","","","","","","","","","","","","","","","","","","","","","",""
"2543","","text","43","209345","0.0-24.0","25333270","wem/bandit_single","A2SVNXNMD7E7EH","pain","8","32","","","","","","","","","","","","","","","","","","","","","","","","","",""
"215220","","text","44","424570","0.0-25.0","25333270","wem/bandit_single","A2SVNXNMD7E7EH","pain","8","32","","","","","","","","","","","","","","","","","","","","","","","","","",""
"5113","","text","45","429687","0.0-26.0","25333270","wem/bandit_single","A2SVNXNMD7E7EH","pain","8","32","","","","","","","","","","","","","","","","","","","","","","","","","",""
"3986","","text","46","433676","0.0-27.0","25333270","wem/bandit_single","A2SVNXNMD7E7EH","pain","8","32","","","","","","","","","","","","","","","","","","","","","","","","","",""
"3138","","text","47","436817","0.0-28.0","25333270","wem/bandit_single","A2SVNXNMD7E7EH","pain","8","32","","","","","","","","","","","","","","","","","","","","","","","","","",""
"7852","","text","48","444671","0.0-29.0","25333270","wem/bandit_single","A2SVNXNMD7E7EH","pain","8","32","","","","","","","","","","","","","","","","","","","","","","","","","",""
"2726","","text","49","447399","0.0-30.0","25333270","wem/bandit_single","A2SVNXNMD7E7EH","pain","8","32","","","","","","","","","","","","","","","","","","","","","","","","","",""
"5720","","text","50","453122","0.0-31.0","25333270","wem/bandit_single","A2SVNXNMD7E7EH","pain","8","32","","","","","","","","","","","","","","","","","","","","","","","","","",""
"561","","bandit","51","455192","0.0-32.0-0.0","25333270","wem/bandit_single","A2SVNXNMD7E7EH","pain","8","","72","H","0","img/none_selected.jpg","0","1","0","0","0.8","true","0","0","0.8","full_practice","0","0.2","0","0.6","0","0.2","","","","","",""
"43","","bandit","52","456992","0.0-32.0-1.0","25333270","wem/bandit_single","A2SVNXNMD7E7EH","pain","8","","72","H","0","img/none_selected.jpg","0","1","0","0","0.8","true","0","0","0.8","full_practice","0","0.2","0","0.6","0","0.2","","","","","",""
"406","","bandit","53","459156","0.0-32.0-2.0","25333270","wem/bandit_single","A2SVNXNMD7E7EH","pain","8","","72","H","0","img/none_selected.jpg","0","1","0","0","0.8","true","0","0","0.8","full_practice","0","0.2","0","0.6","0","0.2","","","","","",""
"44","","bandit","54","460959","0.0-32.0-3.0","25333270","wem/bandit_single","A2SVNXNMD7E7EH","pain","8","","72","H","0","img/none_selected.jpg","0","1","0","0","0.8","true","0","0","0.8","full_practice","0","0.2","0","0.6","0","0.2","","","","","",""
"0","","bandit","55","462716","0.0-32.0-4.0","25333270","wem/bandit_single","A2SVNXNMD7E7EH","pain","8","","72","H","0","img/none_selected.jpg","0","1","0","0","0.8","true","0","0","0.8","full_practice","0","0.2","0","0.6","0","0.2","","","","","",""
"15","","bandit","56","464488","0.0-32.0-5.0","25333270","wem/bandit_single","A2SVNXNMD7E7EH","pain","8","","72","H","0","img/none_selected.jpg","0","1","0","0","0.8","true","0","0","0.8","full_practice","0","0.2","0","0.6","0","0.2","","","","","",""
"7","","bandit","57","466251","0.0-32.0-6.0","25333270","wem/bandit_single","A2SVNXNMD7E7EH","pain","8","","72","H","0","img/none_selected.jpg","0","1","0","0","0.8","true","0","0","0.8","full_practice","0","0.2","0","0.6","0","0.2","","","","","",""
"88","","bandit","58","468095","0.0-32.0-7.0","25333270","wem/bandit_single","A2SVNXNMD7E7EH","pain","8","","72","H","0","img/none_selected.jpg","0","0","1","0","0.8","true","0","0","0.8","full_practice","0","0.2","0","0.6","0","0.2","","","","","",""
"759","","bandit","59","470613","0.0-32.0-8.0","25333270","wem/bandit_single","A2SVNXNMD7E7EH","pain","8","","72","H","0","img/none_selected.jpg","0","1","0","0","0.8","true","0","0","0.8","full_practice","0","0.2","0","0.6","0","0.2","","","","","",""
"27","","bandit","60","472398","0.0-32.0-9.0","25333270","wem/bandit_single","A2SVNXNMD7E7EH","pain","8","","72","H","0","img/none_selected.jpg","0","1","0","0","0.8","true","0","0","0.8","full_practice","0","0.2","0","0.6","0","0.2","","","","","",""
"9","","bandit","61","474165","0.0-32.0-10.0","25333270","wem/bandit_single","A2SVNXNMD7E7EH","pain","8","","72","H","0","img/none_selected.jpg","0","1","0","0","0.8","true","0","0","0.8","full_practice","0","0.2","0","0.6","0","0.2","","","","","",""
"40","","bandit","62","475962","0.0-32.0-11.0","25333270","wem/bandit_single","A2SVNXNMD7E7EH","pain","8","","72","H","0","img/none_selected.jpg","0","1","0","0","0.8","true","0","0","0.8","full_practice","0","0.2","0","0.6","0","0.2","","","","","",""
"422","","bandit","63","478176","0.0-32.0-12.0","25333270","wem/bandit_single","A2SVNXNMD7E7EH","pain","8","","72","H","0","img/none_selected.jpg","0","1","0","0","0.8","true","0","0","0.8","full_practice","0","0.2","0","0.6","0","0.2","","","","","",""
"224","","bandit","64","480165","0.0-32.0-13.0","25333270","wem/bandit_single","A2SVNXNMD7E7EH","pain","8","","72","H","0","img/none_selected.jpg","0","1","0","0","0.8","true","0","0","0.8","full_practice","0","0.2","0","0.6","0","0.2","","","","","",""
"179","","bandit","65","482104","0.0-32.0-14.0","25333270","wem/bandit_single","A2SVNXNMD7E7EH","pain","8","","72","H","0","img/none_selected.jpg","0","1","0","0","0.8","true","0","0","0.8","full_practice","0","0.2","0","0.6","0","0.2","","","","","",""
"284","","bandit","66","484145","0.0-32.0-15.0","25333270","wem/bandit_single","A2SVNXNMD7E7EH","pain","8","","72","H","0","img/none_selected.jpg","0","1","0","0","0.8","true","0","0","0.8","full_practice","0","0.2","0","0.6","0","0.2","","","","","",""
"149","","bandit","67","486054","0.0-32.0-16.0","25333270","wem/bandit_single","A2SVNXNMD7E7EH","pain","8","","72","H","0","img/none_selected.jpg","0","1","0","0","0.8","true","0","0","0.8","full_practice","0","0.2","0","0.6","0","0.2","","","","","",""
"180","","bandit","68","488003","0.0-32.0-17.0","25333270","wem/bandit_single","A2SVNXNMD7E7EH","pain","8","","72","H","0","img/none_selected.jpg","0","1","0","0","0.8","true","0","0","0.8","full_practice","0","0.2","0","0.6","0","0.2","","","","","",""
"1910","","bandit","69","491673","0.0-32.0-18.0","25333270","wem/bandit_single","A2SVNXNMD7E7EH","pain","8","","72","H","0","img/none_selected.jpg","0","1","0","0","0.8","true","0","0","0.8","full_practice","0","0.2","0","0.6","0","0.2","","","","","",""
"1652","","bandit","70","495082","0.0-32.0-19.0","25333270","wem/bandit_single","A2SVNXNMD7E7EH","pain","8","","72","H","0","img/none_selected.jpg","0","1","0","0","0.8","true","0","0","0.8","full_practice","0","0.2","0","0.6","0","0.2","","","","","",""
"6854","","text","71","502195","0.0-33.0","25333270","wem/bandit_single","A2SVNXNMD7E7EH","pain","8","32","","","","","","","","","","","","","","","","","","","","","","","","","",""
"22045","","text","72","525245","0.0-34.0","25333270","wem/bandit_single","A2SVNXNMD7E7EH","pain","8","32","","","","","","","","","","","","","","","","","","","","","","","","","",""
"4362","","text","73","529611","0.0-35.0","25333270","wem/bandit_single","A2SVNXNMD7E7EH","pain","8","32","","","","","","","","","","","","","","","","","","","","","","","","","",""
"6033","","text","74","535646","0.0-36.0","25333270","wem/bandit_single","A2SVNXNMD7E7EH","pain","8","32","","","","","","","","","","","","","","","","","","","","","","","","","",""
"2184","","text","75","537834","0.0-37.0","25333270","wem/bandit_single","A2SVNXNMD7E7EH","pain","8","32","","","","","","","","","","","","","","","","","","","","","","","","","",""
"2477","","bandit","76","542202","0.0-38.0-0.0","25333270","wem/bandit_single","A2SVNXNMD7E7EH","pain","8","","72","H","0","img/none_selected.jpg","0","0","1","","0.2726752288","false","1","","0.2726752288","main_expt","","0.2895646149","","0.4519399214","","0.461186604","","","","","",""
"1296","","bandit","77","545266","0.0-39.0-0.0","25333270","wem/bandit_single","A2SVNXNMD7E7EH","pain","8","","74","J","1","","0","0","1","","0.3162770887","false","2","","0.2373300031","main_expt","","0.3162770887","","0.4414774062","","0.4745384616","","","","","",""
"799","","bandit","78","547994","0.0-40.0-0.0","25333270","wem/bandit_single","A2SVNXNMD7E7EH","pain","8","","75","K","2","","0","0","1","","0.4248782664","false","3","","0.2268539811","main_expt","","0.3445892231","","0.4248782664","","0.476270309","","","","","",""
"1097","","bandit","79","550855","0.0-41.0-0.0","25333270","wem/bandit_single","A2SVNXNMD7E7EH","pain","8","","76","L","3","","0","0","1","","0.4750198572","false","4","","0.2312911009","main_expt","","0.318720175","","0.3797460064","","0.4750198572","","","","","",""
"19","","bandit","80","552638","0.0-42.0-0.0","25333270","wem/bandit_single","A2SVNXNMD7E7EH","pain","8","","75","K","2","","0","1","0","","0.3747955817","false","5","","0.1875260819","main_expt","","0.2768356494","","0.3747955817","","0.4711191004","","","","","",""
"321","","bandit","81","554718","0.0-43.0-0.0","25333270","wem/bandit_single","A2SVNXNMD7E7EH","pain","8","","75","K","2","","0","0","1","","0.3434652127","false","6","","0.190272436","main_expt","","0.2660169375","","0.3434652127","","0.4561500297","","","","","",""
"27","","bandit","82","556503","0.0-44.0-0.0","25333270","wem/bandit_single","A2SVNXNMD7E7EH","pain","8","","75","K","2","","0","1","0","","0.3450192323","false","7","","0.1912500229","main_expt","","0.3364590491","","0.3450192323","","0.4549462182","","","","","",""
"7","","bandit","83","558269","0.0-45.0-0.0","25333270","wem/bandit_single","A2SVNXNMD7E7EH","pain","8","","75","K","2","","0","1","0","","0.3319287687","false","8","","0.2317086102","main_expt","","0.2814314702","","0.3319287687","","0.4738433377","","","","","",""
"69","","bandit","84","560096","0.0-46.0-0.0","25333270","wem/bandit_single","A2SVNXNMD7E7EH","pain","8","","75","K","2","","0","1","0","","0.3592879842","false","9","","0.2732709622","main_expt","","0.172204453","","0.3592879842","","0.4719526371","","","","","",""
"60","","bandit","85","561914","0.0-47.0-0.0","25333270","wem/bandit_single","A2SVNXNMD7E7EH","pain","8","","75","K","2","","0","0","1","","0.4119036765","false","10","","0.2369361721","main_expt","","0.1714760066","","0.4119036765","","0.4102917743","","","","","",""
"4","","bandit","86","563679","0.0-48.0-0.0","25333270","wem/bandit_single","A2SVNXNMD7E7EH","pain","8","","75","K","2","","0","1","0","","0.440335537","false","11","","0.2428480584","main_expt","","0.1477319919","","0.440335537","","0.4247485268","","","","","",""
"1164","","bandit","87","566600","0.0-49.0-0.0","25333270","wem/bandit_single","A2SVNXNMD7E7EH","pain","8","","75","K","2","","0","1","0","","0.4198069009","false","12","","0.3127978045","main_expt","","0.1195530135","","0.4198069009","","0.3805001106","","","","","",""
"31","","bandit","88","568390","0.0-50.0-0.0","25333270","wem/bandit_single","A2SVNXNMD7E7EH","pain","8","","75","K","2","","0","0","1","","0.4095272681","false","13","","0.3411181312","main_expt","","0.1097065617","","0.4095272681","","0.3922463094","","","","","",""
"1369","","bandit","89","571520","0.0-51.0-0.0","25333270","wem/bandit_single","A2SVNXNMD7E7EH","pain","8","","75","K","2","","0","0","1","","0.4393311008","false","14","","0.3547490374","main_expt","","0.1146709003","","0.4393311008","","0.3385893542","","","","","",""
"98","","bandit","90","573376","0.0-52.0-0.0","25333270","wem/bandit_single","A2SVNXNMD7E7EH","pain","8","","75","K","2","","0","1","0","","0.4232641195","false","15","","0.3447780093","main_expt","","0.105598426","","0.4232641195","","0.2580729479","","","","","",""
"64","","bandit","91","575203","0.0-53.0-0.0","25333270","wem/bandit_single","A2SVNXNMD7E7EH","pain","8","","74","J","1","","0","0","1","","0.1085338479","false","16","","0.3451486401","main_expt","","0.1085338479","","0.408879381","","0.3126944558","","","","","",""
"2873","","bandit","92","579833","0.0-54.0-0.0","25333270","wem/bandit_single","A2SVNXNMD7E7EH","pain","8","","72","H","0","img/none_selected.jpg","0","1","0","","0.3788599072","false","17","","0.3788599072","main_expt","","0.1267686316","","0.376774317","","0.3693960878","","","","","",""
"46","","bandit","93","581643","0.0-55.0-0.0","25333270","wem/bandit_single","A2SVNXNMD7E7EH","pain","8","","72","H","0","img/none_selected.jpg","0","0","1","","0.3977159439","false","18","","0.3977159439","main_expt","","0.2161611973","","0.4245824949","","0.3881723811","","","","","",""
"156","","bandit","94","583559","0.0-56.0-0.0","25333270","wem/bandit_single","A2SVNXNMD7E7EH","pain","8","","72","H","0","img/none_selected.jpg","0","1","0","","0.3885232362","false","19","","0.3885232362","main_expt","","0.2028493804","","0.4391895307","","0.3762380044","","","","","",""
"133","","bandit","95","585457","0.0-57.0-0.0","25333270","wem/bandit_single","A2SVNXNMD7E7EH","pain","8","","72","H","0","img/none_selected.jpg","0","0","1","","0.3985462001","false","20","","0.3985462001","main_expt","","0.2258994585","","0.4621127774","","0.3842023068","","","","","",""
"114","","bandit","96","587328","0.0-58.0-0.0","25333270","wem/bandit_single","A2SVNXNMD7E7EH","pain","8","","72","H","0","img/none_selected.jpg","0","0","1","","0.349749023","false","21","","0.349749023","main_expt","","0.1591174119","","0.4621164646","","0.3509270449","","","","","",""
"767","","bandit","97","589854","0.0-59.0-0.0","25333270","wem/bandit_single","A2SVNXNMD7E7EH","pain","8","","75","K","2","","0","1","0","","0.4347396303","false","22","","0.3437713834","main_expt","","0.1526874152","","0.4347396303","","0.3777441782","","","","","",""
"116","","bandit","98","591728","0.0-60.0-0.0","25333270","wem/bandit_single","A2SVNXNMD7E7EH","pain","8","","75","K","2","","0","0","1","","0.43496863","false","23","","0.3608333873","main_expt","","0.1461335862","","0.43496863","","0.3799964268","","","","","",""
"665","","bandit","99","594152","0.0-61.0-0.0","25333270","wem/bandit_single","A2SVNXNMD7E7EH","pain","8","","75","K","2","","0","0","1","","0.43684491","false","24","","0.3832767268","main_expt","","0.194032511","","0.43684491","","0.4097073291","","","","","",""
"81","","bandit","100","595994","0.0-62.0-0.0","25333270","wem/bandit_single","A2SVNXNMD7E7EH","pain","8","","76","L","3","","0","0","1","","0.4196977393","false","25","","0.3839685871","main_expt","","0.1913779305","","0.3785768995","","0.4196977393","","","","","",""
"211","","bandit","101","597964","0.0-63.0-0.0","25333270","wem/bandit_single","A2SVNXNMD7E7EH","pain","8","","74","J","1","","0","0","1","","0.2830828826","false","26","","0.3871157951","main_expt","","0.2830828826","","0.3754964585","","0.3798545817","","","","","",""
"202","","bandit","102","599923","0.0-64.0-0.0","25333270","wem/bandit_single","A2SVNXNMD7E7EH","pain","8","","76","L","3","","0","1","0","","0.3531061786","false","27","","0.4093540125","main_expt","","0.3268824087","","0.3964499655","","0.3531061786","","","","","",""
"401","","bandit","103","602097","0.0-65.0-0.0","25333270","wem/bandit_single","A2SVNXNMD7E7EH","pain","8","","76","L","3","","0","1","0","","0.3327392046","false","28","","0.3781829904","main_expt","","0.3092871108","","0.4243602908","","0.3327392046","","","","","",""
"80","","bandit","104","603935","0.0-66.0-0.0","25333270","wem/bandit_single","A2SVNXNMD7E7EH","pain","8","","76","L","3","","0","0","1","","0.2799969064","false","29","","0.3633234486","main_expt","","0.299803321","","0.4296462108","","0.2799969064","","","","","",""
"361","","bandit","105","606053","0.0-67.0-0.0","25333270","wem/bandit_single","A2SVNXNMD7E7EH","pain","8","","76","L","3","","0","0","1","","0.225268033","false","30","","0.395486831","main_expt","","0.3318792252","","0.4442153724","","0.225268033","","","","","",""
"81","","bandit","106","608448","0.0-68.0-0.0","25333270","wem/bandit_single","A2SVNXNMD7E7EH","pain","8","","76","L","3","","0","0","1","","0.2195205817","false","31","","0.353932484","main_expt","","0.3274080626","","0.4425075274","","0.2195205817","","","","","",""
"657","","bandit","107","610874","0.0-69.0-0.0","25333270","wem/bandit_single","A2SVNXNMD7E7EH","pain","8","","75","K","2","","0","1","0","","0.4038806219","false","32","","0.3902442546","main_expt","","0.3233555863","","0.4038806219","","0.2569702332","","","","","",""
"167","","bandit","108","612804","0.0-70.0-0.0","25333270","wem/bandit_single","A2SVNXNMD7E7EH","pain","8","","76","L","3","","0","1","0","","0.2914027765","false","33","","0.3727342875","main_expt","","0.3836123675","","0.4283701542","","0.2914027765","","","","","",""
"22","","bandit","109","614586","0.0-71.0-0.0","25333270","wem/bandit_single","A2SVNXNMD7E7EH","pain","8","","75","K","2","","0","0","1","","0.4332078231","false","34","","0.3940120807","main_expt","","0.4200589335","","0.4332078231","","0.2667004126","","","","","",""
"806","","bandit","110","617151","0.0-72.0-0.0","25333270","wem/bandit_single","A2SVNXNMD7E7EH","pain","8","","75","K","2","","0","0","1","","0.3861361583","false","35","","0.3682756201","main_expt","","0.4280145355","","0.3861361583","","0.3112773703","","","","","",""
"64","","bandit","111","618980","0.0-73.0-0.0","25333270","wem/bandit_single","A2SVNXNMD7E7EH","pain","8","","76","L","3","","0","1","0","","0.3158013471","false","36","","0.4136743311","main_expt","","0.3696194815","","0.3176889815","","0.3158013471","","","","","",""
"4","","bandit","112","620750","0.0-74.0-0.0","25333270","wem/bandit_single","A2SVNXNMD7E7EH","pain","8","","76","L","3","","0","0","1","","0.3348696363","false","37","","0.449594317","main_expt","","0.3567242832","","0.3333355096","","0.3348696363","","","","","",""
"479","","bandit","113","622991","0.0-75.0-0.0","25333270","wem/bandit_single","A2SVNXNMD7E7EH","pain","8","","76","L","3","","0","0","1","","0.2967031697","false","38","","0.4427192246","main_expt","","0.3139752797","","0.3613286773","","0.2967031697","","","","","",""
"68","","bandit","114","624820","0.0-76.0-0.0","25333270","wem/bandit_single","A2SVNXNMD7E7EH","pain","8","","76","L","3","","0","0","1","","0.2816090282","false","39","","0.4375360897","main_expt","","0.2884672813","","0.3354588101","","0.2816090282","","","","","",""
"162","","bandit","115","626744","0.0-77.0-0.0","25333270","wem/bandit_single","A2SVNXNMD7E7EH","pain","8","","76","L","3","","0","0","1","","0.2900329111","false","40","","0.452648821","main_expt","","0.3253538103","","0.4044898685","","0.2900329111","","","","","",""
"141","","bandit","116","628646","0.0-78.0-0.0","25333270","wem/bandit_single","A2SVNXNMD7E7EH","pain","8","","76","L","3","","0","0","1","","0.3160732104","false","41","","0.4689255384","main_expt","","0.2782289032","","0.3615903795","","0.3160732104","","","","","",""
"66","","bandit","117","630486","0.0-79.0-0.0","25333270","wem/bandit_single","A2SVNXNMD7E7EH","pain","8","","74","J","1","","0","0","1","","0.2378060085","false","42","","0.470096522","main_expt","","0.2378060085","","0.3239257876","","0.370849222","","","","","",""
"140","","bandit","118","632387","0.0-80.0-0.0","25333270","wem/bandit_single","A2SVNXNMD7E7EH","pain","8","","74","J","1","","0","0","1","","0.2250536993","false","43","","0.4349244256","main_expt","","0.2250536993","","0.2907144625","","0.385301305","","","","","",""
"91","","bandit","119","634238","0.0-81.0-0.0","25333270","wem/bandit_single","A2SVNXNMD7E7EH","pain","8","","74","J","1","","0","0","1","","0.2132249492","false","44","","0.4316966947","main_expt","","0.2132249492","","0.2937558929","","0.416838688","","","","","",""
"154","","bandit","120","636150","0.0-82.0-0.0","25333270","wem/bandit_single","A2SVNXNMD7E7EH","pain","8","","72","H","0","img/none_selected.jpg","0","0","1","","0.4526201082","false","45","","0.4526201082","main_expt","","0.2669052982","","0.3667346614","","0.3927526088","","","","","",""
"312","","bandit","121","638223","0.0-83.0-0.0","25333270","wem/bandit_single","A2SVNXNMD7E7EH","pain","8","","72","H","0","img/none_selected.jpg","0","1","0","","0.4696962879","false","46","","0.4696962879","main_expt","","0.259601005","","0.4084803937","","0.3789336214","","","","","",""
"154","","bandit","122","640139","0.0-84.0-0.0","25333270","wem/bandit_single","A2SVNXNMD7E7EH","pain","8","","72","H","0","img/none_selected.jpg","0","0","1","","0.4591824552","false","47","","0.4591824552","main_expt","","0.2442503122","","0.3956447052","","0.3994803113","","","","","",""
"114","","bandit","123","642011","0.0-85.0-0.0","25333270","wem/bandit_single","A2SVNXNMD7E7EH","pain","8","","72","H","0","img/none_selected.jpg","0","0","1","","0.4548607847","false","48","","0.4548607847","main_expt","","0.2427668164","","0.3859230678","","0.3570668153","","","","","",""
"142","","bandit","124","643921","0.0-86.0-0.0","25333270","wem/bandit_single","A2SVNXNMD7E7EH","pain","8","","72","H","0","img/none_selected.jpg","0","0","1","","0.4625410341","false","49","","0.4625410341","main_expt","","0.218731525","","0.394993817","","0.3500417472","","","","","",""
"232","","bandit","125","645910","0.0-87.0-0.0","25333270","wem/bandit_single","A2SVNXNMD7E7EH","pain","8","","74","J","1","","0","1","0","","0.2187604329","false","50","","0.4620574215","main_expt","","0.2187604329","","0.4358915385","","0.3110114061","","","","","",""
"24","","bandit","126","647695","0.0-88.0-0.0","25333270","wem/bandit_single","A2SVNXNMD7E7EH","pain","8","","74","J","1","","0","1","0","","0.2764450854","false","51","","0.4573118055","main_expt","","0.2764450854","","0.4437026926","","0.3165374422","","","","","",""
"64","","bandit","127","649519","0.0-89.0-0.0","25333270","wem/bandit_single","A2SVNXNMD7E7EH","pain","8","","74","J","1","","0","0","1","","0.2735561336","false","52","","0.4577170033","main_expt","","0.2735561336","","0.4357441266","","0.3212783944","","","","","",""
"6","","bandit","128","651287","0.0-90.0-0.0","25333270","wem/bandit_single","A2SVNXNMD7E7EH","pain","8","","74","J","1","","0","0","1","","0.2558353256","false","53","","0.4599667981","main_expt","","0.2558353256","","0.3926545571","","0.3079714244","","","","","",""
"73","","bandit","129","653121","0.0-91.0-0.0","25333270","wem/bandit_single","A2SVNXNMD7E7EH","pain","8","","74","J","1","","0","0","1","","0.2856473895","false","54","","0.4598989899","main_expt","","0.2856473895","","0.3841940555","","0.3538619638","","","","","",""
"554","","bandit","130","655435","0.0-92.0-0.0","25333270","wem/bandit_single","A2SVNXNMD7E7EH","pain","8","","76","L","3","","0","1","0","","0.3390258849","false","55","","0.4371040197","main_expt","","0.3110799389","","0.3733442546","","0.3390258849","","","","","",""
"235","","bandit","131","657430","0.0-93.0-0.0","25333270","wem/bandit_single","A2SVNXNMD7E7EH","pain","8","","76","L","3","","0","0","1","","0.3282580673","false","56","","0.3889704242","main_expt","","0.2862995849","","0.3500738246","","0.3282580673","","","","","",""
"1113","","bandit","132","660303","0.0-94.0-0.0","25333270","wem/bandit_single","A2SVNXNMD7E7EH","pain","8","","75","K","2","","0","0","1","","0.3265916347","false","57","","0.4089883961","main_expt","","0.3029349154","","0.3265916347","","0.3014999451","","","","","",""
"115","","bandit","133","662179","0.0-95.0-0.0","25333270","wem/bandit_single","A2SVNXNMD7E7EH","pain","8","","76","L","3","","0","1","0","","0.2895525025","false","58","","0.3682078294","main_expt","","0.282602966","","0.3203483638","","0.2895525025","","","","","",""
"329","","bandit","134","664269","0.0-96.0-0.0","25333270","wem/bandit_single","A2SVNXNMD7E7EH","pain","8","","76","L","3","","0","0","1","","0.2538740387","false","59","","0.426053772","main_expt","","0.3271218703","","0.258324817","","0.2538740387","","","","","",""
"1397","","bandit","135","667428","0.0-97.0-0.0","25333270","wem/bandit_single","A2SVNXNMD7E7EH","pain","8","","75","K","2","","0","0","1","","0.2527557167","false","60","","0.4175969639","main_expt","","0.2978757068","","0.2527557167","","0.2509640494","","","","","",""
"78","","bandit","136","669264","0.0-98.0-0.0","25333270","wem/bandit_single","A2SVNXNMD7E7EH","pain","8","","76","L","3","","0","0","1","","0.1930295055","false","61","","0.4124946444","main_expt","","0.1922553384","","0.2925705146","","0.1930295055","","","","","",""
"265","","bandit","137","671289","0.0-99.0-0.0","25333270","wem/bandit_single","A2SVNXNMD7E7EH","pain","8","","72","H","0","img/none_selected.jpg","0","1","0","","0.4077217862","false","62","","0.4077217862","main_expt","","0.1408400783","","0.310648962","","0.1259826115","","","","","",""
"17","","bandit","138","673066","0.0-100.0-0.0","25333270","wem/bandit_single","A2SVNXNMD7E7EH","pain","8","","72","H","0","img/none_selected.jpg","0","0","1","","0.4258821936","false","63","","0.4258821936","main_expt","","0.1779610645","","0.3175489896","","0.1388804293","","","","","",""
"605","","bandit","139","675432","0.0-101.0-0.0","25333270","wem/bandit_single","A2SVNXNMD7E7EH","pain","8","","72","H","0","img/none_selected.jpg","0","1","0","","0.4314195329","false","64","","0.4314195329","main_expt","","0.1733040919","","0.2756852574","","0.1412297375","","","","","",""
"514","","bandit","140","677705","0.0-102.0-0.0","25333270","wem/bandit_single","A2SVNXNMD7E7EH","pain","8","","72","H","0","img/none_selected.jpg","0","0","1","","0.4174082156","false","65","","0.4174082156","main_expt","","0.1669650696","","0.2798966648","","0.07856201072","","","","","",""
"0","","bandit","141","679498","0.0-103.0-0.0","25333270","wem/bandit_single","A2SVNXNMD7E7EH","pain","8","","74","J","1","","0","0","1","","0.1439674443","false","66","","0.4396479182","main_expt","","0.1439674443","","0.2440426105","","0.04493535693","","","","","",""
"131","","bandit","142","681447","0.0-104.0-0.0","25333270","wem/bandit_single","A2SVNXNMD7E7EH","pain","8","","74","J","1","","0","0","1","","0.1892066175","false","67","","0.4080198752","main_expt","","0.1892066175","","0.2630461485","","0.06268984171","","","","","",""
"114","","bandit","143","683326","0.0-105.0-0.0","25333270","wem/bandit_single","A2SVNXNMD7E7EH","pain","8","","74","J","1","","0","0","1","","0.1994174399","false","68","","0.4137299856","main_expt","","0.1994174399","","0.2456224984","","0.0976634122","","","","","",""
"13","","bandit","144","685104","0.0-106.0-0.0","25333270","wem/bandit_single","A2SVNXNMD7E7EH","pain","8","","72","H","0","img/none_selected.jpg","0","1","0","","0.3938947582","false","69","","0.3938947582","main_expt","","0.1624567358","","0.328759159","","0.1303859095","","","","","",""
"128","","bandit","145","687002","0.0-107.0-0.0","25333270","wem/bandit_single","A2SVNXNMD7E7EH","pain","8","","72","H","0","img/none_selected.jpg","0","0","1","","0.3876621225","false","70","","0.3876621225","main_expt","","0.203142037","","0.3063762308","","0.09159795462","","","","","",""
"74","","bandit","146","688845","0.0-108.0-0.0","25333270","wem/bandit_single","A2SVNXNMD7E7EH","pain","8","","74","J","1","","0","1","0","","0.218187973","false","71","","0.3788053019","main_expt","","0.218187973","","0.3509026903","","0.07422050438","","","","","",""
"142","","bandit","147","690751","0.0-109.0-0.0","25333270","wem/bandit_single","A2SVNXNMD7E7EH","pain","8","","72","H","0","img/none_selected.jpg","0","0","1","","0.3632611749","false","72","","0.3632611749","main_expt","","0.2357875668","","0.3695940198","","0.05420033029","","","","","",""
"712","","bandit","148","693234","0.0-110.0-0.0","25333270","wem/bandit_single","A2SVNXNMD7E7EH","pain","8","","72","H","0","img/none_selected.jpg","0","0","1","","0.3121818875","false","73","","0.3121818875","main_expt","","0.1951490082","","0.3532210052","","0.04794676006","","","","","",""
"473","","bandit","149","695470","0.0-111.0-0.0","25333270","wem/bandit_single","A2SVNXNMD7E7EH","pain","8","","72","H","0","img/none_selected.jpg","0","0","1","","0.3385624816","false","74","","0.3385624816","main_expt","","0.208621177","","0.3780170277","","0.03645121522","","","","","",""
"279","","bandit","150","697511","0.0-112.0-0.0","25333270","wem/bandit_single","A2SVNXNMD7E7EH","pain","8","","76","L","3","","0","0","1","","0.04346784694","false","75","","0.3393964734","main_expt","","0.2016482668","","0.3141643986","","0.04346784694","","","","","",""
"19","","bandit","151","699289","0.0-113.0-0.0","25333270","wem/bandit_single","A2SVNXNMD7E7EH","pain","8","","76","L","3","","0","0","1","","0.05697420644","false","76","","0.3489067358","main_expt","","0.2495615647","","0.3520496016","","0.05697420644","","","","","",""
"83","","bandit","152","701137","0.0-114.0-0.0","25333270","wem/bandit_single","A2SVNXNMD7E7EH","pain","8","","75","K","2","","0","0","1","","0.2628688268","false","77","","0.3502211764","main_expt","","0.2225386599","","0.2628688268","","0.05831686642","","","","","",""
"1332","","bandit","153","704232","0.0-115.0-0.0","25333270","wem/bandit_single","A2SVNXNMD7E7EH","pain","8","","76","L","3","","0","0","1","","0.0396837938","false","78","","0.2979424841","main_expt","","0.2525784454","","0.2856335909","","0.0396837938","","","","","",""
"156","","bandit","154","706149","0.0-116.0-0.0","25333270","wem/bandit_single","A2SVNXNMD7E7EH","pain","8","","74","J","1","","0","0","1","","0.2691825077","false","79","","0.2779986596","main_expt","","0.2691825077","","0.3052483479","","0.03651397352","","","","","",""
"30","","bandit","155","707939","0.0-117.0-0.0","25333270","wem/bandit_single","A2SVNXNMD7E7EH","pain","8","","75","K","2","","0","1","0","","0.2809417262","false","80","","0.2681941829","main_expt","","0.2749696362","","0.2809417262","","0.0570793957","","","","","",""
"26","","bandit","156","709725","0.0-118.0-0.0","25333270","wem/bandit_single","A2SVNXNMD7E7EH","pain","8","","75","K","2","","0","1","0","","0.2639407754","false","81","","0.2536714586","main_expt","","0.291945729","","0.2639407754","","0.05597964966","","","","","",""
"41","","bandit","157","711527","0.0-119.0-0.0","25333270","wem/bandit_single","A2SVNXNMD7E7EH","pain","8","","75","K","2","","0","0","1","","0.3352417475","false","82","","0.1904528106","main_expt","","0.2804178179","","0.3352417475","","0.0589745046","","","","","",""
"222","","bandit","158","713510","0.0-120.0-0.0","25333270","wem/bandit_single","A2SVNXNMD7E7EH","pain","8","","74","J","1","","0","0","1","","0.2253075454","false","83","","0.2497062266","main_expt","","0.2253075454","","0.3246721101","","0.04461225985","","","","","",""
"87","","bandit","159","715357","0.0-121.0-0.0","25333270","wem/bandit_single","A2SVNXNMD7E7EH","pain","8","","72","H","0","img/none_selected.jpg","0","1","0","","0.2960017758","false","84","","0.2960017758","main_expt","","0.2475548924","","0.3082112656","","0.04600221485","","","","","",""
"195","","bandit","160","717314","0.0-122.0-0.0","25333270","wem/bandit_single","A2SVNXNMD7E7EH","pain","8","","72","H","0","img/none_selected.jpg","0","1","0","","0.2677312645","false","85","","0.2677312645","main_expt","","0.2443994903","","0.2733186338","","0.04782026086","","","","","",""
"202","","bandit","161","719276","0.0-123.0-0.0","25333270","wem/bandit_single","A2SVNXNMD7E7EH","pain","8","","72","H","0","img/none_selected.jpg","0","0","1","","0.2764415163","false","86","","0.2764415163","main_expt","","0.2112262296","","0.2595222796","","0.05551660222","","","","","",""
"59","","bandit","162","721097","0.0-124.0-0.0","25333270","wem/bandit_single","A2SVNXNMD7E7EH","pain","8","","76","L","3","","0","0","1","","0.04708869331","false","87","","0.324022149","main_expt","","0.2188998383","","0.2256999028","","0.04708869331","","","","","",""
"121","","bandit","163","722979","0.0-125.0-0.0","25333270","wem/bandit_single","A2SVNXNMD7E7EH","pain","8","","76","L","3","","0","0","1","","0.02844544313","false","88","","0.3109963835","main_expt","","0.2197891412","","0.1990670624","","0.02844544313","","","","","",""
"692","","bandit","164","725433","0.0-126.0-0.0","25333270","wem/bandit_single","A2SVNXNMD7E7EH","pain","8","","75","K","2","","0","0","1","","0.2125628639","false","89","","0.324941543","main_expt","","0.1264972534","","0.2125628639","","0.02947982339","","","","","",""
"34","","bandit","165","727227","0.0-127.0-0.0","25333270","wem/bandit_single","A2SVNXNMD7E7EH","pain","8","","75","K","2","","0","1","0","","0.2335475446","false","90","","0.3309337967","main_expt","","0.09492746395","","0.2335475446","","0.01544371513","","","","","",""
"45","","bandit","166","729034","0.0-128.0-0.0","25333270","wem/bandit_single","A2SVNXNMD7E7EH","pain","8","","75","K","2","","0","1","0","","0.2803997126","false","91","","0.2419508287","main_expt","","0.0779798764","","0.2803997126","","0.02662688154","","","","","",""
"111","","bandit","167","730904","0.0-129.0-0.0","25333270","wem/bandit_single","A2SVNXNMD7E7EH","pain","8","","76","L","3","","0","0","1","","0.03471523835","false","92","","0.2040869203","main_expt","","0.1178574791","","0.2771315147","","0.03471523835","","","","","",""
"79","","bandit","168","732742","0.0-130.0-0.0","25333270","wem/bandit_single","A2SVNXNMD7E7EH","pain","8","","74","J","1","","0","0","1","","0.1199697814","false","93","","0.1936143615","main_expt","","0.1199697814","","0.3069544445","","0.0252433293","","","","","",""
"331","","bandit","169","734835","0.0-131.0-0.0","25333270","wem/bandit_single","A2SVNXNMD7E7EH","pain","8","","76","L","3","","0","0","1","","0.02873343753","false","94","","0.2296452841","main_expt","","0.1351842626","","0.2585327286","","0.02873343753","","","","","",""
"88","","bandit","170","736684","0.0-132.0-0.0","25333270","wem/bandit_single","A2SVNXNMD7E7EH","pain","8","","72","H","0","img/none_selected.jpg","0","1","0","","0.3009770616","false","95","","0.3009770616","main_expt","","0.1229387465","","0.2043747222","","0.03754278977","","","","","",""
"254","","bandit","171","738699","0.0-133.0-0.0","25333270","wem/bandit_single","A2SVNXNMD7E7EH","pain","8","","72","H","0","img/none_selected.jpg","0","1","0","","0.3664634414","false","96","","0.3664634414","main_expt","","0.1341504272","","0.2149370614","","0.02045008397","","","","","",""
"93","","bandit","172","740554","0.0-134.0-0.0","25333270","wem/bandit_single","A2SVNXNMD7E7EH","pain","8","","72","H","0","img/none_selected.jpg","0","0","1","","0.3476641925","false","97","","0.3476641925","main_expt","","0.08646330057","","0.1294523689","","0.01282395838","","","","","",""
"47","","bandit","173","742410","0.0-135.0-0.0","25333270","wem/bandit_single","A2SVNXNMD7E7EH","pain","8","","76","L","3","","0","0","1","","0.02206163243","false","98","","0.3885632826","main_expt","","0.07731746448","","0.1653870254","","0.02206163243","","","","","",""
"52","","bandit","174","744314","0.0-136.0-0.0","25333270","wem/bandit_single","A2SVNXNMD7E7EH","pain","8","","75","K","2","","0","0","1","","0.187235433","false","99","","0.3222143249","main_expt","","0.05048608161","","0.187235433","","0.03016500256","","","","","",""
"543","","bandit","175","746629","0.0-137.0-0.0","25333270","wem/bandit_single","A2SVNXNMD7E7EH","pain","8","","72","H","0","img/none_selected.jpg","0","1","0","","0.3386714995","false","100","","0.3386714995","main_expt","","0.03970728334","","0.1583251777","","0.03237578522","","","","","",""
"23","","bandit","176","748506","0.0-138.0-0.0","25333270","wem/bandit_single","A2SVNXNMD7E7EH","pain","8","","72","H","0","img/none_selected.jpg","0","0","1","","0.3131396166","false","101","","0.3131396166","main_expt","","0.02108340439","","0.1337381207","","0.03241037075","","","","","",""
"1388","","bandit","177","751661","0.0-139.0-0.0","25333270","wem/bandit_single","A2SVNXNMD7E7EH","pain","8","","74","J","1","","0","0","1","","0.05244648731","false","102","","0.3417288757","main_expt","","0.05244648731","","0.1163639012","","0.06000215667","","","","","",""
"196","","bandit","178","753623","0.0-140.0-0.0","25333270","wem/bandit_single","A2SVNXNMD7E7EH","pain","8","","72","H","0","img/none_selected.jpg","0","1","0","","0.3582654759","false","103","","0.3582654759","main_expt","","0.04574159302","","0.1118657557","","0.08726741307","","","","","",""
"24","","bandit","179","755409","0.0-141.0-0.0","25333270","wem/bandit_single","A2SVNXNMD7E7EH","pain","8","","72","H","0","img/none_selected.jpg","0","0","1","","0.3409136392","false","104","","0.3409136392","main_expt","","0.05033190662","","0.1501499683","","0.1067467257","","","","","",""
"163","","bandit","180","757335","0.0-142.0-0.0","25333270","wem/bandit_single","A2SVNXNMD7E7EH","pain","8","","72","H","0","img/none_selected.jpg","0","0","1","","0.3532992837","false","105","","0.3532992837","main_expt","","0.1076128494","","0.1354733374","","0.1004566838","","","","","",""
"85","","bandit","181","759183","0.0-143.0-0.0","25333270","wem/bandit_single","A2SVNXNMD7E7EH","pain","8","","72","H","0","img/none_selected.jpg","0","0","1","","0.335683565","false","106","","0.335683565","main_expt","","0.06740855405","","0.1727398631","","0.1055318719","","","","","",""
"156","","bandit","182","761120","0.0-144.0-0.0","25333270","wem/bandit_single","A2SVNXNMD7E7EH","pain","8","","72","H","0","img/none_selected.jpg","0","0","1","","0.3924059951","false","107","","0.3924059951","main_expt","","0.06658027063","","0.1474174257","","0.1236328269","","","","","",""
"132","","bandit","183","763013","0.0-145.0-0.0","25333270","wem/bandit_single","A2SVNXNMD7E7EH","pain","8","","72","H","0","img/none_selected.jpg","0","0","1","","0.3626054341","false","108","","0.3626054341","main_expt","","0.0777756245","","0.1683059408","","0.1301170461","","","","","",""
"64","","bandit","184","764837","0.0-146.0-0.0","25333270","wem/bandit_single","A2SVNXNMD7E7EH","pain","8","","76","L","3","","0","0","1","","0.1507941036","false","109","","0.3806857721","main_expt","","0.1117823495","","0.1972223025","","0.1507941036","","","","","",""
"366","","bandit","185","766964","0.0-147.0-0.0","25333270","wem/bandit_single","A2SVNXNMD7E7EH","pain","8","","75","K","2","","0","0","1","","0.2085186414","false","110","","0.3452619283","main_expt","","0.08710900622","","0.2085186414","","0.1647590848","","","","","",""
"172","","bandit","186","768897","0.0-148.0-0.0","25333270","wem/bandit_single","A2SVNXNMD7E7EH","pain","8","","75","K","2","","0","1","0","","0.1811180602","false","111","","0.3653509784","main_expt","","0.107183683","","0.1811180602","","0.1574612326","","","","","",""
"193","","bandit","187","770852","0.0-149.0-0.0","25333270","wem/bandit_single","A2SVNXNMD7E7EH","pain","8","","75","K","2","","0","1","0","","0.222295219","false","112","","0.3435522482","main_expt","","0.1099425133","","0.222295219","","0.1406493921","","","","","",""
"104","","bandit","188","772722","0.0-150.0-0.0","25333270","wem/bandit_single","A2SVNXNMD7E7EH","pain","8","","76","L","3","","0","0","1","","0.1367300214","false","113","","0.3424956272","main_expt","","0.1457634924","","0.254178783","","0.1367300214","","","","","",""
"10","","bandit","189","774494","0.0-151.0-0.0","25333270","wem/bandit_single","A2SVNXNMD7E7EH","pain","8","","72","H","0","img/none_selected.jpg","0","1","0","","0.3353894863","false","114","","0.3353894863","main_expt","","0.09824844824","","0.2315882939","","0.1534665218","","","","","",""
"102","","bandit","190","776359","0.0-152.0-0.0","25333270","wem/bandit_single","A2SVNXNMD7E7EH","pain","8","","76","L","3","","0","0","1","","0.1890238391","false","115","","0.3965113255","main_expt","","0.07202874502","","0.2079629003","","0.1890238391","","","","","",""
"258","","bandit","191","778382","0.0-153.0-0.0","25333270","wem/bandit_single","A2SVNXNMD7E7EH","pain","8","","74","J","1","","0","0","1","","0.08386797302","false","116","","0.3889101716","main_expt","","0.08386797302","","0.2117584369","","0.1480670238","","","","","",""
"314","","bandit","192","780461","0.0-154.0-0.0","25333270","wem/bandit_single","A2SVNXNMD7E7EH","pain","8","","76","L","3","","0","1","0","","0.1450369027","false","117","","0.412290601","main_expt","","0.1223406282","","0.1897465023","","0.1450369027","","","","","",""
"23","","bandit","193","782246","0.0-155.0-0.0","25333270","wem/bandit_single","A2SVNXNMD7E7EH","pain","8","","76","L","3","","0","0","1","","0.1525061225","false","118","","0.4090296977","main_expt","","0.1131974311","","0.2162179109","","0.1525061225","","","","","",""
"1130","","bandit","194","785139","0.0-156.0-0.0","25333270","wem/bandit_single","A2SVNXNMD7E7EH","pain","8","","75","K","2","","0","0","1","","0.1954464435","false","119","","0.3900906375","main_expt","","0.1214903214","","0.1954464435","","0.1327940691","","","","","",""
"83","","bandit","195","786983","0.0-157.0-0.0","25333270","wem/bandit_single","A2SVNXNMD7E7EH","pain","8","","72","H","0","img/none_selected.jpg","0","1","0","","0.3722828095","false","120","","0.3722828095","main_expt","","0.1379734046","","0.2433439763","","0.1517026744","","","","","",""
"133","","bandit","196","788878","0.0-158.0-0.0","25333270","wem/bandit_single","A2SVNXNMD7E7EH","pain","8","","72","H","0","img/none_selected.jpg","0","0","1","","0.3593952677","false","121","","0.3593952677","main_expt","","0.1537473387","","0.2093375247","","0.09770447215","","","","","",""
"100","","bandit","197","790738","0.0-159.0-0.0","25333270","wem/bandit_single","A2SVNXNMD7E7EH","pain","8","","75","K","2","","0","0","1","","0.2030857612","false","122","","0.3670381393","main_expt","","0.1654199468","","0.2030857612","","0.1084092314","","","","","",""
"87","","bandit","198","792586","0.0-160.0-0.0","25333270","wem/bandit_single","A2SVNXNMD7E7EH","pain","8","","72","H","0","img/none_selected.jpg","0","0","1","","0.3587286137","false","123","","0.3587286137","main_expt","","0.1908187881","","0.1810532848","","0.1828660492","","","","","",""
"253","","bandit","199","794599","0.0-161.0-0.0","25333270","wem/bandit_single","A2SVNXNMD7E7EH","pain","8","","74","J","1","","0","0","1","","0.2229551501","false","124","","0.3492740793","main_expt","","0.2229551501","","0.1582229448","","0.1743556658","","","","","",""
"627","","bandit","200","796988","0.0-162.0-0.0","25333270","wem/bandit_single","A2SVNXNMD7E7EH","pain","8","","72","H","0","img/none_selected.jpg","0","0","1","","0.3031262708","false","125","","0.3031262708","main_expt","","0.2354127912","","0.1223239468","","0.2091647646","","","","","",""
"481","","bandit","201","799230","0.0-163.0-0.0","25333270","wem/bandit_single","A2SVNXNMD7E7EH","pain","8","","76","L","3","","0","1","0","","0.2089783764","false","126","","0.3272336491","main_expt","","0.25119817","","0.08912034734","","0.2089783764","","","","","",""
"63","","bandit","202","801055","0.0-164.0-0.0","25333270","wem/bandit_single","A2SVNXNMD7E7EH","pain","8","","76","L","3","","0","0","1","","0.21334071","false","127","","0.3153677968","main_expt","","0.2312690923","","0.05948163","","0.21334071","","","","","",""
"166","","bandit","203","802981","0.0-165.0-0.0","25333270","wem/bandit_single","A2SVNXNMD7E7EH","pain","8","","72","H","0","img/none_selected.jpg","0","0","1","","0.3317710332","false","128","","0.3317710332","main_expt","","0.2741150261","","0.06525821595","","0.1916283041","","","","","",""
"126","","bandit","204","804868","0.0-166.0-0.0","25333270","wem/bandit_single","A2SVNXNMD7E7EH","pain","8","","75","K","2","","0","0","1","","0.04677418535","false","129","","0.3818586719","main_expt","","0.2804264122","","0.04677418535","","0.1810604207","","","","","",""
"108","","bandit","205","807364","0.0-167.0-0.0","25333270","wem/bandit_single","A2SVNXNMD7E7EH","pain","8","","74","J","1","","0","0","1","","0.2746384559","false","130","","0.3778611376","main_expt","","0.2746384559","","0.04931785787","","0.1492319935","","","","","",""
"379","","bandit","206","809520","0.0-168.0-0.0","25333270","wem/bandit_single","A2SVNXNMD7E7EH","pain","8","","76","L","3","","0","0","1","","0.129351286","false","131","","0.3745485054","main_expt","","0.3052944487","","0.03231589458","","0.129351286","","","","","",""
"790","","bandit","207","812074","0.0-169.0-0.0","25333270","wem/bandit_single","A2SVNXNMD7E7EH","pain","8","","72","H","0","img/none_selected.jpg","0","0","1","","0.3901944836","false","132","","0.3901944836","main_expt","","0.2871604017","","0.0374336399","","0.1020216346","","","","","",""
"282","","bandit","208","814121","0.0-170.0-0.0","25333270","wem/bandit_single","A2SVNXNMD7E7EH","pain","8","","76","L","3","","0","0","1","","0.1100395313","false","133","","0.3245875462","main_expt","","0.2262434135","","0.04583961862","","0.1100395313","","","","","",""
"342","","bandit","209","816232","0.0-171.0-0.0","25333270","wem/bandit_single","A2SVNXNMD7E7EH","pain","8","","75","K","2","","0","0","1","","0.04150300199","false","134","","0.2794858075","main_expt","","0.2020687113","","0.04150300199","","0.1078381017","","","","","",""
"215","","bandit","210","818212","0.0-172.0-0.0","25333270","wem/bandit_single","A2SVNXNMD7E7EH","pain","8","","72","H","0","img/none_selected.jpg","0","0","1","","0.2867414221","false","135","","0.2867414221","main_expt","","0.2168620662","","0.04663842542","","0.1093486249","","","","","",""
"73","","bandit","211","820049","0.0-173.0-0.0","25333270","wem/bandit_single","A2SVNXNMD7E7EH","pain","8","","76","L","3","","0","0","1","","0.1246456113","false","136","","0.2388941587","main_expt","","0.151139006","","0.06291357963","","0.1246456113","","","","","",""
"204","","bandit","212","822017","0.0-174.0-0.0","25333270","wem/bandit_single","A2SVNXNMD7E7EH","pain","8","","75","K","2","","0","0","1","","0.0848669819","false","137","","0.2301747732","main_expt","","0.1452995234","","0.0848669819","","0.1167447495","","","","","",""
"185","","bandit","213","823965","0.0-175.0-0.0","25333270","wem/bandit_single","A2SVNXNMD7E7EH","pain","8","","72","H","0","img/none_selected.jpg","0","0","1","","0.2344721482","false","138","","0.2344721482","main_expt","","0.1599176777","","0.1250360552","","0.1357570265","","","","","",""
"1518","","bandit","214","827245","0.0-176.0-0.0","25333270","wem/bandit_single","A2SVNXNMD7E7EH","pain","8","","74","J","1","","0","0","1","","0.1704699841","false","139","","0.2351335283","main_expt","","0.1704699841","","0.122190115","","0.1616689495","","","","","",""
"174","","bandit","215","829180","0.0-177.0-0.0","25333270","wem/bandit_single","A2SVNXNMD7E7EH","pain","8","","75","K","2","","0","0","1","","0.08666030548","false","140","","0.2876903143","main_expt","","0.1142956015","","0.08666030548","","0.1979747013","","","","","",""
"235","","bandit","216","831179","0.0-178.0-0.0","25333270","wem/bandit_single","A2SVNXNMD7E7EH","pain","8","","76","L","3","","0","0","1","","0.1708965128","false","141","","0.2865732071","main_expt","","0.1206890816","","0.09967801986","","0.1708965128","","","","","",""
"1","","bandit","217","832943","0.0-179.0-0.0","25333270","wem/bandit_single","A2SVNXNMD7E7EH","pain","8","","72","H","0","img/none_selected.jpg","0","0","1","","0.248943806","false","142","","0.248943806","main_expt","","0.1324259923","","0.1125289611","","0.204481367","","","","","",""
"374","","bandit","218","835078","0.0-180.0-0.0","25333270","wem/bandit_single","A2SVNXNMD7E7EH","pain","8","","72","H","0","img/none_selected.jpg","0","0","1","","0.2839045407","false","143","","0.2839045407","main_expt","","0.09892217097","","0.1467602081","","0.1861099789","","","","","",""
"45","","bandit","219","836888","0.0-181.0-0.0","25333270","wem/bandit_single","A2SVNXNMD7E7EH","pain","8","","76","L","3","","0","0","1","","0.1956465744","false","144","","0.3150250783","main_expt","","0.1577744197","","0.1467522766","","0.1956465744","","","","","",""
"57","","bandit","220","838707","0.0-182.0-0.0","25333270","wem/bandit_single","A2SVNXNMD7E7EH","pain","8","","75","K","2","","0","0","1","","0.118212248","false","145","","0.3090395899","main_expt","","0.1392006829","","0.118212248","","0.2622876922","","","","","",""
"1229","","bandit","221","841703","0.0-183.0-0.0","25333270","wem/bandit_single","A2SVNXNMD7E7EH","pain","8","","74","J","1","","0","1","0","","0.1262993523","false","146","","0.3122039877","main_expt","","0.1262993523","","0.1089879874","","0.304745079","","","","","",""
"104","","bandit","222","843569","0.0-184.0-0.0","25333270","wem/bandit_single","A2SVNXNMD7E7EH","pain","8","","74","J","1","","0","0","1","","0.1970652478","false","147","","0.2959619691","main_expt","","0.1970652478","","0.1200469816","","0.2888799162","","","","","",""
"422","","bandit","223","845759","0.0-185.0-0.0","25333270","wem/bandit_single","A2SVNXNMD7E7EH","pain","8","","75","K","2","","0","1","0","","0.1276189258","false","148","","0.2395536641","main_expt","","0.2502259542","","0.1276189258","","0.2290209364","","","","","",""
"12","","bandit","224","847533","0.0-186.0-0.0","25333270","wem/bandit_single","A2SVNXNMD7E7EH","pain","8","","75","K","2","","0","0","1","","0.1280703092","false","149","","0.2650868272","main_expt","","0.264890558","","0.1280703092","","0.1626908122","","","","","",""
"170","","bandit","225","849468","0.0-187.0-0.0","25333270","wem/bandit_single","A2SVNXNMD7E7EH","pain","8","","72","H","0","img/none_selected.jpg","0","0","1","","0.2986082654","false","150","","0.2986082654","main_expt","","0.2458403893","","0.1260403861","","0.1958031623","","","","","",""
"57","","bandit","226","851289","0.0-188.0-0.0","25333270","wem/bandit_single","A2SVNXNMD7E7EH","pain","8","","76","L","3","","0","1","0","","0.2110526716","false","151","","0.2843767109","main_expt","","0.3021038309","","0.1472493067","","0.2110526716","","","","","",""
"35","","bandit","227","853086","0.0-189.0-0.0","25333270","wem/bandit_single","A2SVNXNMD7E7EH","pain","8","","76","L","3","","0","0","1","","0.239542308","false","152","","0.2910803031","main_expt","","0.2863751765","","0.1256460397","","0.239542308","","","","","",""
"303","","bandit","228","855150","0.0-190.0-0.0","25333270","wem/bandit_single","A2SVNXNMD7E7EH","pain","8","","72","H","0","img/none_selected.jpg","0","0","1","","0.2910028656","false","153","","0.2910028656","main_expt","","0.250244768","","0.1567097088","","0.2781725502","","","","","",""
"130","","bandit","229","857046","0.0-191.0-0.0","25333270","wem/bandit_single","A2SVNXNMD7E7EH","pain","8","","75","K","2","","0","0","1","","0.1473662378","false","154","","0.2845613835","main_expt","","0.2127808211","","0.1473662378","","0.228047793","","","","","",""
"249","","bandit","230","859057","0.0-192.0-0.0","25333270","wem/bandit_single","A2SVNXNMD7E7EH","pain","8","","72","H","0","img/none_selected.jpg","0","0","1","","0.2707345723","false","155","","0.2707345723","main_expt","","0.205053704","","0.1466549972","","0.2683949018","","","","","",""
"199","","bandit","231","861019","0.0-193.0-0.0","25333270","wem/bandit_single","A2SVNXNMD7E7EH","pain","8","","74","J","1","","0","0","1","","0.1648482415","false","156","","0.3156720475","main_expt","","0.1648482415","","0.1127453184","","0.3192141369","","","","","",""
"89","","bandit","232","862875","0.0-194.0-0.0","25333270","wem/bandit_single","A2SVNXNMD7E7EH","pain","8","","76","L","3","","0","0","1","","0.3402823895","false","157","","0.3101066834","main_expt","","0.1888047422","","0.1577506677","","0.3402823895","","","","","",""
"229","","bandit","233","864867","0.0-195.0-0.0","25333270","wem/bandit_single","A2SVNXNMD7E7EH","pain","8","","76","L","3","","0","1","0","","0.2944958958","false","158","","0.3236654942","main_expt","","0.1759444775","","0.177177298","","0.2944958958","","","","","",""
"1069","","bandit","234","867701","0.0-196.0-0.0","25333270","wem/bandit_single","A2SVNXNMD7E7EH","pain","8","","76","L","3","","0","1","0","","0.3007248388","false","159","","0.2735657487","main_expt","","0.2066832709","","0.1693510486","","0.3007248388","","","","","",""
"161","","bandit","235","869625","0.0-197.0-0.0","25333270","wem/bandit_single","A2SVNXNMD7E7EH","pain","8","","72","H","0","img/none_selected.jpg","0","0","1","","0.2384912546","false","160","","0.2384912546","main_expt","","0.2570817279","","0.1230292859","","0.3179332055","","","","","",""
"533","","bandit","236","872201","0.0-198.0-0.0","25333270","wem/bandit_single","A2SVNXNMD7E7EH","pain","8","","75","K","2","","0","0","1","","0.07903667538","false","161","","0.2615252743","main_expt","","0.2244749933","","0.07903667538","","0.2506164635","","","","","",""
"39","","bandit","237","874021","0.0-199.0-0.0","25333270","wem/bandit_single","A2SVNXNMD7E7EH","pain","8","","76","L","3","","0","0","1","","0.2858836385","false","162","","0.2187643747","main_expt","","0.23263707","","0.1136507332","","0.2858836385","","","","","",""
"996","","bandit","238","876782","0.0-200.0-0.0","25333270","wem/bandit_single","A2SVNXNMD7E7EH","pain","8","","72","H","0","img/none_selected.jpg","0","0","1","","0.1909081127","false","163","","0.1909081127","main_expt","","0.2287127565","","0.1137116213","","0.2848163613","","","","","",""
"967","","bandit","239","879513","0.0-201.0-0.0","25333270","wem/bandit_single","A2SVNXNMD7E7EH","pain","8","","76","L","3","","0","0","1","","0.2688566635","false","164","","0.1808716434","main_expt","","0.2303253206","","0.1254102563","","0.2688566635","","","","","",""
"506","","bandit","240","881841","0.0-202.0-0.0","25333270","wem/bandit_single","A2SVNXNMD7E7EH","pain","8","","75","K","2","","0","0","1","","0.1216805934","false","165","","0.2118073572","main_expt","","0.2771057403","","0.1216805934","","0.2921202554","","","","","",""
"217","","bandit","241","883830","0.0-203.0-0.0","25333270","wem/bandit_single","A2SVNXNMD7E7EH","pain","8","","72","H","0","img/none_selected.jpg","0","0","1","","0.2410554973","false","166","","0.2410554973","main_expt","","0.2371810998","","0.1291529517","","0.3143591269","","","","","",""
"120","","bandit","242","885721","0.0-204.0-0.0","25333270","wem/bandit_single","A2SVNXNMD7E7EH","pain","8","","76","L","3","","0","0","1","","0.2892924204","false","167","","0.2574005288","main_expt","","0.2349122652","","0.1535345887","","0.2892924204","","","","","",""
"24","","bandit","243","887511","0.0-205.0-0.0","25333270","wem/bandit_single","A2SVNXNMD7E7EH","pain","8","","74","J","1","","0","0","1","","0.1959020284","false","168","","0.2729884233","main_expt","","0.1959020284","","0.1435034989","","0.2786305655","","","","","",""
"1504","","bandit","244","890782","0.0-206.0-0.0","25333270","wem/bandit_single","A2SVNXNMD7E7EH","pain","8","","75","K","2","","0","0","1","","0.1957458285","false","169","","0.2625821735","main_expt","","0.1899859579","","0.1957458285","","0.246803054","","","","","",""
"646","","bandit","245","893197","0.0-207.0-0.0","25333270","wem/bandit_single","A2SVNXNMD7E7EH","pain","8","","72","H","0","img/none_selected.jpg","0","0","1","","0.3100542845","false","170","","0.3100542845","main_expt","","0.2213833812","","0.1308867566","","0.2375021307","","","","","",""
"80","","bandit","246","895042","0.0-208.0-0.0","25333270","wem/bandit_single","A2SVNXNMD7E7EH","pain","8","","76","L","3","","0","1","0","","0.2965678991","false","171","","0.3083945368","main_expt","","0.1589997081","","0.1422271972","","0.2965678991","","","","","",""
"1059","","bandit","247","897865","0.0-209.0-0.0","25333270","wem/bandit_single","A2SVNXNMD7E7EH","pain","8","","76","L","3","","0","0","1","","0.2696718616","false","172","","0.3929186772","main_expt","","0.1669714507","","0.1541925874","","0.2696718616","","","","","",""
"523","","bandit","248","900153","0.0-210.0-0.0","25333270","wem/bandit_single","A2SVNXNMD7E7EH","pain","8","","72","H","0","img/none_selected.jpg","0","1","0","","0.4107736206","false","173","","0.4107736206","main_expt","","0.1699847696","","0.1416394444","","0.2576521005","","","","","",""
"188","","bandit","249","902104","0.0-211.0-0.0","25333270","wem/bandit_single","A2SVNXNMD7E7EH","pain","8","","72","H","0","img/none_selected.jpg","0","1","0","","0.4267170337","false","174","","0.4267170337","main_expt","","0.202136981","","0.1207830423","","0.2839516933","","","","","",""
"14","","bandit","250","903882","0.0-212.0-0.0","25333270","wem/bandit_single","A2SVNXNMD7E7EH","pain","8","","75","K","2","","0","0","1","","0.1636312712","false","175","","0.420504823","main_expt","","0.1863880777","","0.1636312712","","0.2932452363","","","","","",""
"50","","bandit","251","905695","0.0-213.0-0.0","25333270","wem/bandit_single","A2SVNXNMD7E7EH","pain","8","","74","J","1","","0","1","0","","0.1426909825","false","176","","0.3956962169","main_expt","","0.1426909825","","0.186569684","","0.3118313574","","","","","",""
"46","","bandit","252","907505","0.0-214.0-0.0","25333270","wem/bandit_single","A2SVNXNMD7E7EH","pain","8","","74","J","1","","0","0","1","","0.1335645184","false","177","","0.3834761318","main_expt","","0.1335645184","","0.1089038478","","0.3378695823","","","","","",""
"768","","bandit","253","910046","0.0-215.0-0.0","25333270","wem/bandit_single","A2SVNXNMD7E7EH","pain","8","","76","L","3","","0","0","1","","0.3234122319","false","178","","0.4167112469","main_expt","","0.09719791569","","0.08465244813","","0.3234122319","","","","","",""
"271","","bandit","254","912080","0.0-216.0-0.0","25333270","wem/bandit_single","A2SVNXNMD7E7EH","pain","8","","72","H","0","img/none_selected.jpg","0","0","1","","0.4370197561","false","179","","0.4370197561","main_expt","","0.07123289457","","0.1015747644","","0.3281528324","","","","","",""
"317","","bandit","255","914164","0.0-217.0-0.0","25333270","wem/bandit_single","A2SVNXNMD7E7EH","pain","8","","75","K","2","","0","0","1","","0.1277953302","false","180","","0.3776598584","main_expt","","0.05555663239","","0.1277953302","","0.340497037","","","","","",""
"439","","bandit","256","916367","0.0-218.0-0.0","25333270","wem/bandit_single","A2SVNXNMD7E7EH","pain","8","","75","K","2","","0","0","1","","0.1854921141","false","181","","0.3636519722","main_expt","","0.04396828199","","0.1854921141","","0.3007371283","","","","","",""
"121","","bandit","257","918262","0.0-219.0-0.0","25333270","wem/bandit_single","A2SVNXNMD7E7EH","pain","8","","74","J","1","","0","0","1","","0.02691259782","false","182","","0.3246411676","main_expt","","0.02691259782","","0.2273529654","","0.3190136055","","","","","",""
"200","","bandit","258","920225","0.0-220.0-0.0","25333270","wem/bandit_single","A2SVNXNMD7E7EH","pain","8","","72","H","0","img/none_selected.jpg","0","0","1","","0.3187018958","false","183","","0.3187018958","main_expt","","0.04807599522","","0.2600234541","","0.322323442","","","","","",""
"438","","bandit","259","922430","0.0-221.0-0.0","25333270","wem/bandit_single","A2SVNXNMD7E7EH","pain","8","","76","L","3","","0","0","1","","0.3086696071","false","184","","0.3497063737","main_expt","","0.05076165442","","0.2689652485","","0.3086696071","","","","","",""
"36","","bandit","260","924230","0.0-222.0-0.0","25333270","wem/bandit_single","A2SVNXNMD7E7EH","pain","8","","76","L","3","","0","0","1","","0.3146814862","false","185","","0.3334532315","main_expt","","0.1128087831","","0.2646203852","","0.3146814862","","","","","",""
"95","","bandit","261","926097","0.0-223.0-0.0","25333270","wem/bandit_single","A2SVNXNMD7E7EH","pain","8","","72","H","0","img/none_selected.jpg","0","0","1","","0.3511592443","false","186","","0.3511592443","main_expt","","0.1592260056","","0.2038557162","","0.3353274036","","","","","",""
"766","","bandit","262","928627","0.0-224.0-0.0","25333270","wem/bandit_single","A2SVNXNMD7E7EH","pain","8","","72","H","0","img/none_selected.jpg","0","1","0","","0.3758503369","false","187","","0.3758503369","main_expt","","0.2195828404","","0.2643634763","","0.331036234","","","","","",""
"80","","bandit","263","930470","0.0-225.0-0.0","25333270","wem/bandit_single","A2SVNXNMD7E7EH","pain","8","","72","H","0","img/none_selected.jpg","0","1","0","","0.3951098987","false","188","","0.3951098987","main_expt","","0.214856838","","0.2137054787","","0.3061178756","","","","","",""
"651","","bandit","264","932885","0.0-226.0-0.0","25333270","wem/bandit_single","A2SVNXNMD7E7EH","pain","8","","75","K","2","","0","0","1","","0.2349639762","false","189","","0.3766733461","main_expt","","0.2103369464","","0.2349639762","","0.3455914038","","","","","",""
"1144","","bandit","265","935800","0.0-227.0-0.0","25333270","wem/bandit_single","A2SVNXNMD7E7EH","pain","8","","76","L","3","","0","1","0","","0.3734842368","false","190","","0.3974997784","main_expt","","0.1932940482","","0.2067261929","","0.3734842368","","","","","",""
"24","","bandit","266","937587","0.0-228.0-0.0","25333270","wem/bandit_single","A2SVNXNMD7E7EH","pain","8","","74","J","1","","0","1","0","","0.2285646161","false","191","","0.4174686418","main_expt","","0.2285646161","","0.275245882","","0.3648323685","","","","","",""
"91","","bandit","267","939452","0.0-229.0-0.0","25333270","wem/bandit_single","A2SVNXNMD7E7EH","pain","8","","74","J","1","","0","0","1","","0.2589031043","false","192","","0.3963748123","main_expt","","0.2589031043","","0.306220044","","0.3339781981","","","","","",""
"117","","bandit","268","941331","0.0-230.0-0.0","25333270","wem/bandit_single","A2SVNXNMD7E7EH","pain","8","","76","L","3","","0","0","1","","0.3342714415","false","193","","0.3921748604","main_expt","","0.2195537535","","0.3035773814","","0.3342714415","","","","","",""
"30","","bandit","269","943127","0.0-231.0-0.0","25333270","wem/bandit_single","A2SVNXNMD7E7EH","pain","8","","75","K","2","","0","0","1","","0.2510827831","false","194","","0.3580841109","main_expt","","0.2027550427","","0.2510827831","","0.3241295504","","","","","",""
"185","","bandit","270","945110","0.0-232.0-0.0","25333270","wem/bandit_single","A2SVNXNMD7E7EH","pain","8","","72","H","0","img/none_selected.jpg","0","0","1","","0.3508589263","false","195","","0.3508589263","main_expt","","0.1862287394","","0.2455858858","","0.3116310431","","","","","",""
"34","","bandit","271","946916","0.0-233.0-0.0","25333270","wem/bandit_single","A2SVNXNMD7E7EH","pain","8","","74","J","1","","0","0","1","","0.1892299528","false","196","","0.3580593089","main_expt","","0.1892299528","","0.2514601016","","0.3757707762","","","","","",""
"25","","bandit","272","948717","0.0-234.0-0.0","25333270","wem/bandit_single","A2SVNXNMD7E7EH","pain","8","","74","J","1","","0","1","0","","0.2217707201","false","197","","0.325214339","main_expt","","0.2217707201","","0.2735270373","","0.3510132286","","","","","",""
"50","","bandit","273","950531","0.0-235.0-0.0","25333270","wem/bandit_single","A2SVNXNMD7E7EH","pain","8","","74","J","1","","0","0","1","","0.2622368769","false","198","","0.3214736551","main_expt","","0.2622368769","","0.1856542716","","0.3775824693","","","","","",""
"1700","","bandit","274","954013","0.0-236.0-0.0","25333270","wem/bandit_single","A2SVNXNMD7E7EH","pain","8","","75","K","2","","0","0","1","","0.1439471636","false","199","","0.3134841864","main_expt","","0.2566369559","","0.1439471636","","0.3591355879","","","","","",""
"181","","bandit","275","955981","0.0-237.0-0.0","25333270","wem/bandit_single","A2SVNXNMD7E7EH","pain","8","","76","L","3","","0","1","0","","0.4329566742","false","200","","0.3484934822","main_expt","","0.2405232655","","0.1920673188","","0.4329566742","","","","","",""
"15","","bandit","276","957762","0.0-238.0-0.0","25333270","wem/bandit_single","A2SVNXNMD7E7EH","pain","8","","76","L","3","","0","1","0","","0.4316294991","false","201","","0.3509587021","main_expt","","0.191632201","","0.2139557707","","0.4316294991","","","","","",""
"31","","bandit","277","959559","0.0-239.0-0.0","25333270","wem/bandit_single","A2SVNXNMD7E7EH","pain","8","","72","H","0","img/none_selected.jpg","0","0","1","","0.3472711197","false","202","","0.3472711197","main_expt","","0.1860277461","","0.2411081829","","0.4446061493","","","","","",""
"200","","bandit","278","961526","0.0-240.0-0.0","25333270","wem/bandit_single","A2SVNXNMD7E7EH","pain","8","","76","L","3","","0","0","1","","0.4350640844","false","203","","0.3501901851","main_expt","","0.1959395152","","0.2229679022","","0.4350640844","","","","","",""
"410","","bandit","279","963702","0.0-241.0-0.0","25333270","wem/bandit_single","A2SVNXNMD7E7EH","pain","8","","75","K","2","","0","0","1","","0.2094072873","false","204","","0.4021923856","main_expt","","0.1909798814","","0.2094072873","","0.4511953558","","","","","",""
"201","","bandit","280","965667","0.0-242.0-0.0","25333270","wem/bandit_single","A2SVNXNMD7E7EH","pain","8","","74","J","1","","0","1","0","","0.1952925147","false","205","","0.4103624794","main_expt","","0.1952925147","","0.2061243076","","0.4444608137","","","","","",""
"308","","bandit","281","967740","0.0-243.0-0.0","25333270","wem/bandit_single","A2SVNXNMD7E7EH","pain","8","","74","J","1","","0","0","1","","0.2333477628","false","206","","0.3884407208","main_expt","","0.2333477628","","0.1830656651","","0.4174874576","","","","","",""
"164","","bandit","282","969669","0.0-244.0-0.0","25333270","wem/bandit_single","A2SVNXNMD7E7EH","pain","8","","76","L","3","","0","0","1","","0.4473837798","false","207","","0.4205181933","main_expt","","0.2366383375","","0.1806213093","","0.4473837798","","","","","",""
"111","","bandit","283","971544","0.0-245.0-0.0","25333270","wem/bandit_single","A2SVNXNMD7E7EH","pain","8","","76","L","3","","0","1","0","","0.4423282801","false","208","","0.39705837","main_expt","","0.2588239296","","0.1547428587","","0.4423282801","","","","","",""
"44","","bandit","284","973353","0.0-246.0-0.0","25333270","wem/bandit_single","A2SVNXNMD7E7EH","pain","8","","76","L","3","","0","0","1","","0.4495798672","false","209","","0.3763678409","main_expt","","0.2109346514","","0.1633509089","","0.4495798672","","","","","",""
"578","","bandit","285","975697","0.0-247.0-0.0","25333270","wem/bandit_single","A2SVNXNMD7E7EH","pain","8","","72","H","0","img/none_selected.jpg","0","0","1","","0.329669689","false","210","","0.329669689","main_expt","","0.2352346414","","0.194224154","","0.4604116181","","","","","",""
"352","","bandit","286","977813","0.0-248.0-0.0","25333270","wem/bandit_single","A2SVNXNMD7E7EH","pain","8","","76","L","3","","0","1","0","","0.4515605979","false","211","","0.3234151823","main_expt","","0.1919095989","","0.1428536625","","0.4515605979","","","","","",""
"1895","","bandit","287","981473","0.0-249.0-0.0","25333270","wem/bandit_single","A2SVNXNMD7E7EH","pain","8","","76","L","3","","0","0","1","","0.3796359761","false","212","","0.346289724","main_expt","","0.2511997366","","0.1876263767","","0.3796359761","","","","","",""
"221","","bandit","288","983460","0.0-250.0-0.0","25333270","wem/bandit_single","A2SVNXNMD7E7EH","pain","8","","76","L","3","","0","0","1","","0.4098311692","false","213","","0.3579646626","main_expt","","0.2247602752","","0.1767426991","","0.4098311692","","","","","",""
"143","","bandit","289","985370","0.0-251.0-0.0","25333270","wem/bandit_single","A2SVNXNMD7E7EH","pain","8","","74","J","1","","0","1","0","","0.2078026042","false","214","","0.3871938136","main_expt","","0.2078026042","","0.1997003326","","0.3758430492","","","","","",""
"552","","bandit","290","987687","0.0-252.0-0.0","25333270","wem/bandit_single","A2SVNXNMD7E7EH","pain","8","","76","L","3","","0","1","0","","0.3391734167","false","215","","0.4072701047","main_expt","","0.2000367883","","0.1753208105","","0.3391734167","","","","","",""
"180","","bandit","291","989633","0.0-253.0-0.0","25333270","wem/bandit_single","A2SVNXNMD7E7EH","pain","8","","76","L","3","","0","0","1","","0.3292806148","false","216","","0.4139997029","main_expt","","0.1850279066","","0.1526073348","","0.3292806148","","","","","",""
"160","","bandit","292","991559","0.0-254.0-0.0","25333270","wem/bandit_single","A2SVNXNMD7E7EH","pain","8","","75","K","2","","0","0","1","","0.1885901152","false","217","","0.4058129166","main_expt","","0.1862329662","","0.1885901152","","0.3672552775","","","","","",""
"23","","bandit","293","993346","0.0-255.0-0.0","25333270","wem/bandit_single","A2SVNXNMD7E7EH","pain","8","","75","K","2","","0","0","1","","0.2068683321","false","218","","0.3831507141","main_expt","","0.2076422808","","0.2068683321","","0.3540988412","","","","","",""
"448","","bandit","294","995557","0.0-256.0-0.0","25333270","wem/bandit_single","A2SVNXNMD7E7EH","pain","8","","74","J","1","","0","0","1","","0.1693095695","false","219","","0.3975704748","main_expt","","0.1693095695","","0.1830460615","","0.3705907093","","","","","",""
"130","","bandit","295","997453","0.0-257.0-0.0","25333270","wem/bandit_single","A2SVNXNMD7E7EH","pain","8","","72","H","0","img/none_selected.jpg","0","1","0","","0.420208779","false","220","","0.420208779","main_expt","","0.1643321708","","0.1510464272","","0.4071767116","","","","","",""
"231","","bandit","296","999450","0.0-258.0-0.0","25333270","wem/bandit_single","A2SVNXNMD7E7EH","pain","8","","72","H","0","img/none_selected.jpg","0","1","0","","0.4277126104","false","221","","0.4277126104","main_expt","","0.1755642267","","0.1195154075","","0.4000591573","","","","","",""
"99","","bandit","297","1001311","0.0-259.0-0.0","25333270","wem/bandit_single","A2SVNXNMD7E7EH","pain","8","","72","H","0","img/none_selected.jpg","0","0","1","","0.4098861052","false","222","","0.4098861052","main_expt","","0.2047466037","","0.1322821073","","0.4257242725","","","","","",""
"270","","bandit","298","1003346","0.0-260.0-0.0","25333270","wem/bandit_single","A2SVNXNMD7E7EH","pain","8","","75","K","2","","0","0","1","","0.1634864242","false","223","","0.3865692481","main_expt","","0.1261696039","","0.1634864242","","0.4084538547","","","","","",""
"58","","bandit","299","1005167","0.0-261.0-0.0","25333270","wem/bandit_single","A2SVNXNMD7E7EH","pain","8","","76","L","3","","0","0","1","","0.3756333804","false","224","","0.3942994903","main_expt","","0.1671605087","","0.1927622759","","0.3756333804","","","","","",""
"76","","bandit","300","1007029","0.0-262.0-0.0","25333270","wem/bandit_single","A2SVNXNMD7E7EH","pain","8","","74","J","1","","0","1","0","","0.1498322393","false","225","","0.3444994861","main_expt","","0.1498322393","","0.1949177646","","0.3977261909","","","","","",""
"19","","bandit","301","1008844","0.0-263.0-0.0","25333270","wem/bandit_single","A2SVNXNMD7E7EH","pain","8","","74","J","1","","0","0","1","","0.106170416","false","226","","0.4042132592","main_expt","","0.106170416","","0.1675301724","","0.3876796808","","","","","",""
"432","","bandit","302","1011045","0.0-264.0-0.0","25333270","wem/bandit_single","A2SVNXNMD7E7EH","pain","8","","75","K","2","","0","0","1","","0.163375113","false","227","","0.3906229402","main_expt","","0.0897934899","","0.163375113","","0.3213858912","","","","","",""
"174","","bandit","303","1012985","0.0-265.0-0.0","25333270","wem/bandit_single","A2SVNXNMD7E7EH","pain","8","","76","L","3","","0","1","0","","0.3331191915","false","228","","0.3417164876","main_expt","","0.09443294629","","0.195474145","","0.3331191915","","","","","",""
"333","","bandit","304","1015107","0.0-266.0-0.0","25333270","wem/bandit_single","A2SVNXNMD7E7EH","pain","8","","76","L","3","","0","0","1","","0.308496805","false","229","","0.3222205624","main_expt","","0.0848669953","","0.2410354958","","0.308496805","","","","","",""
"185","","bandit","305","1017064","0.0-267.0-0.0","25333270","wem/bandit_single","A2SVNXNMD7E7EH","pain","8","","72","H","0","img/none_selected.jpg","0","1","0","","0.3442672336","false","230","","0.3442672336","main_expt","","0.0701458292","","0.2567648542","","0.2734654059","","","","","",""
"76","","bandit","306","1018908","0.0-268.0-0.0","25333270","wem/bandit_single","A2SVNXNMD7E7EH","pain","8","","72","H","0","img/none_selected.jpg","0","0","1","","0.3164459362","false","231","","0.3164459362","main_expt","","0.1251282835","","0.2304241664","","0.292212981","","","","","",""
"97","","bandit","307","1020773","0.0-269.0-0.0","25333270","wem/bandit_single","A2SVNXNMD7E7EH","pain","8","","76","L","3","","0","0","1","","0.2516656152","false","232","","0.3396906789","main_expt","","0.1124912266","","0.2264886823","","0.2516656152","","","","","",""
"191","","bandit","308","1022730","0.0-270.0-0.0","25333270","wem/bandit_single","A2SVNXNMD7E7EH","pain","8","","74","J","1","","0","0","1","","0.1535494164","false","233","","0.3008540409","main_expt","","0.1535494164","","0.1892320941","","0.2563877418","","","","","",""
"95","","bandit","309","1024590","0.0-271.0-0.0","25333270","wem/bandit_single","A2SVNXNMD7E7EH","pain","8","","76","L","3","","0","1","0","","0.283882603","false","234","","0.2767988229","main_expt","","0.1389628654","","0.1556895318","","0.283882603","","","","","",""
"356","","bandit","310","1026712","0.0-272.0-0.0","25333270","wem/bandit_single","A2SVNXNMD7E7EH","pain","8","","76","L","3","","0","0","1","","0.2758852766","false","235","","0.2507781603","main_expt","","0.1680793718","","0.1976044491","","0.2758852766","","","","","",""
"175","","bandit","311","1028652","0.0-273.0-0.0","25333270","wem/bandit_single","A2SVNXNMD7E7EH","pain","8","","75","K","2","","0","0","1","","0.1468950029","false","236","","0.3091667607","main_expt","","0.2037097706","","0.1468950029","","0.2434452049","","","","","",""
"494","","bandit","312","1030910","0.0-274.0-0.0","25333270","wem/bandit_single","A2SVNXNMD7E7EH","pain","8","","72","H","0","img/none_selected.jpg","0","0","1","","0.2883211118","false","237","","0.2883211118","main_expt","","0.1897176974","","0.1365515699","","0.2405517979","","","","","",""
"92","","bandit","313","1032766","0.0-275.0-0.0","25333270","wem/bandit_single","A2SVNXNMD7E7EH","pain","8","","75","K","2","","0","0","1","","0.1527077476","false","238","","0.2756444762","main_expt","","0.2317710791","","0.1527077476","","0.2260832521","","","","","",""
"500","","bandit","314","1035031","0.0-276.0-0.0","25333270","wem/bandit_single","A2SVNXNMD7E7EH","pain","8","","76","L","3","","0","0","1","","0.2061693665","false","239","","0.3061346513","main_expt","","0.2206906913","","0.1315224722","","0.2061693665","","","","","",""
"431","","bandit","315","1037229","0.0-277.0-0.0","25333270","wem/bandit_single","A2SVNXNMD7E7EH","pain","8","","72","H","0","img/none_selected.jpg","0","1","0","","0.3274201615","false","240","","0.3274201615","main_expt","","0.2155283076","","0.1398926963","","0.2203195159","","","","","",""
"284","","bandit","316","1039280","0.0-278.0-0.0","25333270","wem/bandit_single","A2SVNXNMD7E7EH","pain","8","","72","H","0","img/none_selected.jpg","0","0","1","","0.2838770346","false","241","","0.2838770346","main_expt","","0.2386015387","","0.1698873683","","0.2230507071","","","","","",""
"277","","bandit","317","1041324","0.0-279.0-0.0","25333270","wem/bandit_single","A2SVNXNMD7E7EH","pain","8","","72","H","0","img/none_selected.jpg","0","0","1","","0.261873528","false","242","","0.261873528","main_expt","","0.2178179326","","0.1693915972","","0.1834748297","","","","","",""
"653","","bandit","318","1043741","0.0-280.0-0.0","25333270","wem/bandit_single","A2SVNXNMD7E7EH","pain","8","","74","J","1","","0","0","1","","0.2209910316","false","243","","0.2346518895","main_expt","","0.2209910316","","0.2011280514","","0.1450766806","","","","","",""
"205","","bandit","319","1045714","0.0-281.0-0.0","25333270","wem/bandit_single","A2SVNXNMD7E7EH","pain","8","","72","H","0","img/none_selected.jpg","0","0","1","","0.2253303202","false","244","","0.2253303202","main_expt","","0.2202366047","","0.283074141","","0.1407015906","","","","","",""
"104","","bandit","320","1047585","0.0-282.0-0.0","25333270","wem/bandit_single","A2SVNXNMD7E7EH","pain","8","","76","L","3","","0","0","1","","0.1386250556","false","245","","0.2379184421","main_expt","","0.2369425358","","0.2960363525","","0.1386250556","","","","","",""
"111","","bandit","321","1049462","0.0-283.0-0.0","25333270","wem/bandit_single","A2SVNXNMD7E7EH","pain","8","","76","L","3","","0","0","1","","0.1561911267","false","246","","0.1704118475","main_expt","","0.2437218948","","0.2985154159","","0.1561911267","","","","","",""
"534","","bandit","322","1051763","0.0-284.0-0.0","25333270","wem/bandit_single","A2SVNXNMD7E7EH","pain","8","","75","K","2","","0","0","1","","0.3159682012","false","247","","0.1520093858","main_expt","","0.2573167276","","0.3159682012","","0.251644506","","","","","",""
"68","","bandit","323","1053603","0.0-285.0-0.0","25333270","wem/bandit_single","A2SVNXNMD7E7EH","pain","8","","74","J","1","","0","1","0","","0.255349996","false","248","","0.1246217458","main_expt","","0.255349996","","0.2937445921","","0.2541276422","","","","","",""
"168","","bandit","324","1055562","0.0-286.0-0.0","25333270","wem/bandit_single","A2SVNXNMD7E7EH","pain","8","","74","J","1","","0","0","1","","0.2866877344","false","249","","0.1525969556","main_expt","","0.2866877344","","0.2794909668","","0.1924412691","","","","","",""
"357","","bandit","325","1057688","0.0-287.0-0.0","25333270","wem/bandit_single","A2SVNXNMD7E7EH","pain","8","","74","J","1","","0","0","1","","0.2330780591","false","250","","0.1500628479","main_expt","","0.2330780591","","0.2327966623","","0.1397358892","","","","","",""
"255","","bandit","326","1059712","0.0-288.0-0.0","25333270","wem/bandit_single","A2SVNXNMD7E7EH","pain","8","","74","J","1","","0","0","1","","0.2580196572","false","251","","0.1141396938","main_expt","","0.2580196572","","0.2595602212","","0.1362233376","","","","","",""
"230","","bandit","327","1061715","0.0-289.0-0.0","25333270","wem/bandit_single","A2SVNXNMD7E7EH","pain","8","","72","H","0","img/none_selected.jpg","0","1","0","","0.1476089834","false","252","","0.1476089834","main_expt","","0.2003146692","","0.2715763176","","0.1796418735","","","","","",""
"89","","bandit","328","1063574","0.0-290.0-0.0","25333270","wem/bandit_single","A2SVNXNMD7E7EH","pain","8","","72","H","0","img/none_selected.jpg","0","0","1","","0.175183139","false","253","","0.175183139","main_expt","","0.1651092288","","0.3146654463","","0.1833608075","","","","","",""
"115","","bandit","329","1065457","0.0-291.0-0.0","25333270","wem/bandit_single","A2SVNXNMD7E7EH","pain","8","","72","H","0","img/none_selected.jpg","0","0","1","","0.1916323123","false","254","","0.1916323123","main_expt","","0.1413675546","","0.3037610447","","0.1983034343","","","","","",""
"198","","bandit","330","1067421","0.0-292.0-0.0","25333270","wem/bandit_single","A2SVNXNMD7E7EH","pain","8","","74","J","1","","0","0","1","","0.1801919014","false","255","","0.1888714334","main_expt","","0.1801919014","","0.287825992","","0.2286544637","","","","","",""
"25","","bandit","331","1069211","0.0-293.0-0.0","25333270","wem/bandit_single","A2SVNXNMD7E7EH","pain","8","","75","K","2","","0","0","1","","0.2673332977","false","256","","0.2338577058","main_expt","","0.1883387327","","0.2673332977","","0.2502735072","","","","","",""
"464","","bandit","332","1071446","0.0-294.0-0.0","25333270","wem/bandit_single","A2SVNXNMD7E7EH","pain","8","","74","J","1","","0","0","1","","0.1757220287","false","257","","0.2235288738","main_expt","","0.1757220287","","0.2867614738","","0.2657937058","","","","","",""
"229","","bandit","333","1073448","0.0-295.0-0.0","25333270","wem/bandit_single","A2SVNXNMD7E7EH","pain","8","","76","L","3","","0","0","1","","0.2326681124","false","258","","0.2256298632","main_expt","","0.1817694486","","0.2432485896","","0.2326681124","","","","","",""
"515","","bandit","334","1075730","0.0-296.0-0.0","25333270","wem/bandit_single","A2SVNXNMD7E7EH","pain","8","","72","H","0","img/none_selected.jpg","0","0","1","","0.229367941","false","259","","0.229367941","main_expt","","0.1938363466","","0.2433124215","","0.2128848171","","","","","",""
"98","","bandit","335","1077595","0.0-297.0-0.0","25333270","wem/bandit_single","A2SVNXNMD7E7EH","pain","8","","72","H","0","img/none_selected.jpg","0","0","1","","0.2585863351","false","260","","0.2585863351","main_expt","","0.2129025296","","0.202057327","","0.261065439","","","","","",""
"7","","bandit","336","1079368","0.0-298.0-0.0","25333270","wem/bandit_single","A2SVNXNMD7E7EH","pain","8","","76","L","3","","0","1","0","","0.2693274395","false","261","","0.2748644017","main_expt","","0.1931457884","","0.163702413","","0.2693274395","","","","","",""
"1128","","bandit","337","1082263","0.0-299.0-0.0","25333270","wem/bandit_single","A2SVNXNMD7E7EH","pain","8","","76","L","3","","0","0","1","","0.3386888623","false","262","","0.288340978","main_expt","","0.183306516","","0.1317961998","","0.3386888623","","","","","",""
"422","","bandit","338","1084450","0.0-300.0-0.0","25333270","wem/bandit_single","A2SVNXNMD7E7EH","pain","8","","75","K","2","","0","0","1","","0.09680570831","false","263","","0.3151532186","main_expt","","0.1293037787","","0.09680570831","","0.3645909238","","","","","",""
"565","","bandit","339","1086791","0.0-301.0-0.0","25333270","wem/bandit_single","A2SVNXNMD7E7EH","pain","8","","74","J","1","","0","0","1","","0.1386072774","false","264","","0.2931268787","main_expt","","0.1386072774","","0.08846786375","","0.3437159196","","","","","",""
"149","","bandit","340","1088706","0.0-302.0-0.0","25333270","wem/bandit_single","A2SVNXNMD7E7EH","pain","8","","76","L","3","","0","1","0","","0.3644358952","false","265","","0.3131275506","main_expt","","0.1511252148","","0.08556864258","","0.3644358952","","","","","",""
"46","","bandit","341","1090520","0.0-303.0-0.0","25333270","wem/bandit_single","A2SVNXNMD7E7EH","pain","8","","76","L","3","","0","0","1","","0.3904852039","false","266","","0.336523231","main_expt","","0.2186772706","","0.0706515048","","0.3904852039","","","","","",""
"79","","bandit","342","1092366","0.0-304.0-0.0","25333270","wem/bandit_single","A2SVNXNMD7E7EH","pain","8","","76","L","3","","0","0","1","","0.3896615427","false","267","","0.2850369317","main_expt","","0.2625163009","","0.0747424838","","0.3896615427","","","","","",""
"29","","bandit","343","1094163","0.0-305.0-0.0","25333270","wem/bandit_single","A2SVNXNMD7E7EH","pain","8","","76","L","3","","0","0","1","","0.4017278216","false","268","","0.3163307124","main_expt","","0.3140442454","","0.112617448","","0.4017278216","","","","","",""
"69","","bandit","344","1096001","0.0-306.0-0.0","25333270","wem/bandit_single","A2SVNXNMD7E7EH","pain","8","","76","L","3","","0","0","1","","0.370996795","false","269","","0.2956683275","main_expt","","0.3069084364","","0.1406639307","","0.370996795","","","","","",""
"100","","bandit","345","1097868","0.0-307.0-0.0","25333270","wem/bandit_single","A2SVNXNMD7E7EH","pain","8","","76","L","3","","0","0","1","","0.4255483526","false","270","","0.3574655381","main_expt","","0.2814908846","","0.1398727949","","0.4255483526","","","","","",""
"35","","bandit","346","1099670","0.0-308.0-0.0","25333270","wem/bandit_single","A2SVNXNMD7E7EH","pain","8","","76","L","3","","0","0","1","","0.3948114384","false","271","","0.3969117111","main_expt","","0.3060786573","","0.1430486157","","0.3948114384","","","","","",""
"17","","bandit","347","1101455","0.0-309.0-0.0","25333270","wem/bandit_single","A2SVNXNMD7E7EH","pain","8","","76","L","3","","0","1","0","","0.3713372483","false","272","","0.3938657786","main_expt","","0.3555003363","","0.1872928851","","0.3713372483","","","","","",""
"11","","bandit","348","1103232","0.0-310.0-0.0","25333270","wem/bandit_single","A2SVNXNMD7E7EH","pain","8","","76","L","3","","0","0","1","","0.3650537767","false","273","","0.3903330825","main_expt","","0.3980140183","","0.1769074474","","0.3650537767","","","","","",""
"47","","bandit","349","1105046","0.0-311.0-0.0","25333270","wem/bandit_single","A2SVNXNMD7E7EH","pain","8","","75","K","2","","0","0","1","","0.1820324592","false","274","","0.4236793781","main_expt","","0.4077181827","","0.1820324592","","0.3414565802","","","","","",""
"187","","bandit","350","1107045","0.0-312.0-0.0","25333270","wem/bandit_single","A2SVNXNMD7E7EH","pain","8","","75","K","2","","0","0","1","","0.1923133529","false","275","","0.4320968281","main_expt","","0.4142369189","","0.1923133529","","0.3027622838","","","","","",""
"417","","bandit","351","1109229","0.0-313.0-0.0","25333270","wem/bandit_single","A2SVNXNMD7E7EH","pain","8","","75","K","2","","0","0","1","","0.1917589367","false","276","","0.4017915655","main_expt","","0.4250096067","","0.1917589367","","0.3125082267","","","","","",""
"105","","bandit","352","1111100","0.0-314.0-0.0","25333270","wem/bandit_single","A2SVNXNMD7E7EH","pain","8","","74","J","1","","0","1","0","","0.4378988515","false","277","","0.3548215972","main_expt","","0.4378988515","","0.1667093518","","0.348890663","","","","","",""
"28","","bandit","353","1112895","0.0-315.0-0.0","25333270","wem/bandit_single","A2SVNXNMD7E7EH","pain","8","","74","J","1","","0","1","0","","0.4323676568","false","278","","0.3683165275","main_expt","","0.4323676568","","0.1695638059","","0.3341457036","","","","","",""
"105","","bandit","354","1114766","0.0-316.0-0.0","25333270","wem/bandit_single","A2SVNXNMD7E7EH","pain","8","","74","J","1","","0","1","0","","0.4391545144","false","279","","0.3750953637","main_expt","","0.4391545144","","0.1696283439","","0.2341959149","","","","","",""
"383","","bandit","355","1116915","0.0-317.0-0.0","25333270","wem/bandit_single","A2SVNXNMD7E7EH","pain","8","","74","J","1","","0","0","1","","0.4467207207","false","280","","0.3557095414","main_expt","","0.4467207207","","0.09227733008","","0.1839622844","","","","","",""
"71","","bandit","356","1118752","0.0-318.0-0.0","25333270","wem/bandit_single","A2SVNXNMD7E7EH","pain","8","","74","J","1","","0","1","0","","0.3922333676","false","281","","0.374333358","main_expt","","0.3922333676","","0.08059064446","","0.1303375237","","","","","",""
"42","","bandit","357","1120558","0.0-319.0-0.0","25333270","wem/bandit_single","A2SVNXNMD7E7EH","pain","8","","74","J","1","","0","0","1","","0.4243132136","false","282","","0.3786855632","main_expt","","0.4243132136","","0.06236597977","","0.07449941097","","","","","",""
"82","","bandit","358","1123040","0.0-320.0-0.0","25333270","wem/bandit_single","A2SVNXNMD7E7EH","pain","8","","74","J","1","","0","0","1","","0.4187362854","false","283","","0.437514669","main_expt","","0.4187362854","","0.07782340279","","0.08783129911","","","","","",""
"287","","bandit","359","1125101","0.0-321.0-0.0","25333270","wem/bandit_single","A2SVNXNMD7E7EH","pain","8","","74","J","1","","0","0","1","","0.422543139","false","284","","0.410198323","main_expt","","0.422543139","","0.07564660971","","0.08228152097","","","","","",""
"199","","bandit","360","1127070","0.0-322.0-0.0","25333270","wem/bandit_single","A2SVNXNMD7E7EH","pain","8","","74","J","1","","0","1","0","","0.434302279","false","285","","0.3777139522","main_expt","","0.434302279","","0.08237135124","","0.09246744832","","","","","",""
"43","","bandit","361","1128884","0.0-323.0-0.0","25333270","wem/bandit_single","A2SVNXNMD7E7EH","pain","8","","74","J","1","","0","0","1","","0.4094725029","false","286","","0.3841171753","main_expt","","0.4094725029","","0.05670298638","","0.08394792075","","","","","",""
"157","","bandit","362","1130816","0.0-324.0-0.0","25333270","wem/bandit_single","A2SVNXNMD7E7EH","pain","8","","76","L","3","","0","0","1","","0.1021913287","false","287","","0.3641862554","main_expt","","0.3778080042","","0.06647452785","","0.1021913287","","","","","",""
"414","","bandit","363","1133012","0.0-325.0-0.0","25333270","wem/bandit_single","A2SVNXNMD7E7EH","pain","8","","75","K","2","","0","0","1","","0.04859701272","false","288","","0.3192590496","main_expt","","0.3671495563","","0.04859701272","","0.1188664616","","","","","",""
"84","","bandit","364","1134864","0.0-326.0-0.0","25333270","wem/bandit_single","A2SVNXNMD7E7EH","pain","8","","75","K","2","","0","0","1","","0.04246321062","false","289","","0.3384054944","main_expt","","0.3622055636","","0.04246321062","","0.1050513492","","","","","",""
"394","","bandit","365","1137025","0.0-327.0-0.0","25333270","wem/bandit_single","A2SVNXNMD7E7EH","pain","8","","74","J","1","","0","0","1","","0.3616647964","false","290","","0.329366118","main_expt","","0.3616647964","","0.08307379137","","0.1304324694","","","","","",""
"1355","","bandit","366","1140148","0.0-328.0-0.0","25333270","wem/bandit_single","A2SVNXNMD7E7EH","pain","8","","74","J","1","","0","0","1","","0.3521760992","false","291","","0.38061917","main_expt","","0.3521760992","","0.09664054691","","0.09707891459","","","","","",""
"343","","bandit","367","1142257","0.0-329.0-0.0","25333270","wem/bandit_single","A2SVNXNMD7E7EH","pain","8","","74","J","1","","0","0","1","","0.3062989856","false","292","","0.3703624541","main_expt","","0.3062989856","","0.1089287446","","0.1166693976","","","","","",""
"86","","bandit","368","1144111","0.0-330.0-0.0","25333270","wem/bandit_single","A2SVNXNMD7E7EH","pain","8","","74","J","1","","0","0","1","","0.2594623792","false","293","","0.3554666564","main_expt","","0.2594623792","","0.1426967363","","0.1448282665","","","","","",""
"412","","bandit","369","1146291","0.0-331.0-0.0","25333270","wem/bandit_single","A2SVNXNMD7E7EH","pain","8","","72","H","0","img/none_selected.jpg","0","1","0","","0.3976604504","false","294","","0.3976604504","main_expt","","0.2666401727","","0.08295656842","","0.1486412875","","","","","",""
"112","","bandit","370","1148170","0.0-332.0-0.0","25333270","wem/bandit_single","A2SVNXNMD7E7EH","pain","8","","72","H","0","img/none_selected.jpg","0","0","1","","0.3567340825","false","295","","0.3567340825","main_expt","","0.2160621863","","0.07441347029","","0.1266024918","","","","","",""
"276","","bandit","371","1150218","0.0-333.0-0.0","25333270","wem/bandit_single","A2SVNXNMD7E7EH","pain","8","","72","H","0","img/none_selected.jpg","0","0","1","","0.3802278382","false","296","","0.3802278382","main_expt","","0.1924669582","","0.08167080543","","0.1499702932","","","","","",""
