"rt","responses","trial_type","trial_index","time_elapsed","internal_node_id","subjID","study","MID","cond","drift","key_press","respCharCode","respKey","respChoiceNum","respChoice","gems","bombs","no_reward","GemPrChosen","BombPrChosen","practice","trial_counter","WinPr_0","LosePr_0","trial_label","WinPr_1","LosePr_1","WinPr_2","LosePr_2","WinPr_3","LosePr_3","Q0","Q1","Q2","gender","age","ethnicity"
"3239","{""Q0"":""A2EI075XZT9Y2S""}","survey-text","0","3253","0.0-0.0","25746364","wem/bandit_single","A2EI075XZT9Y2S","gain","5","","","","","","","","","","","","","","","","","","","","","","","","","","",""
"1856","","text","1","6117","0.0-1.0","25746364","wem/bandit_single","A2EI075XZT9Y2S","gain","5","32","","","","","","","","","","","","","","","","","","","","","","","","","",""
"4619","","text","2","10739","0.0-2.0","25746364","wem/bandit_single","A2EI075XZT9Y2S","gain","5","32","","","","","","","","","","","","","","","","","","","","","","","","","",""
"22350","","text","3","33092","0.0-3.0","25746364","wem/bandit_single","A2EI075XZT9Y2S","gain","5","32","","","","","","","","","","","","","","","","","","","","","","","","","",""
"17039","","text","4","50133","0.0-4.0","25746364","wem/bandit_single","A2EI075XZT9Y2S","gain","5","32","","","","","","","","","","","","","","","","","","","","","","","","","",""
"8459","","text","5","58595","0.0-5.0","25746364","wem/bandit_single","A2EI075XZT9Y2S","gain","5","32","","","","","","","","","","","","","","","","","","","","","","","","","",""
"7153","","text","6","65751","0.0-6.0","25746364","wem/bandit_single","A2EI075XZT9Y2S","gain","5","32","","","","","","","","","","","","","","","","","","","","","","","","","",""
"4681","","text","7","70435","0.0-7.0","25746364","wem/bandit_single","A2EI075XZT9Y2S","gain","5","32","","","","","","","","","","","","","","","","","","","","","","","","","",""
"3964","","text","8","74402","0.0-8.0","25746364","wem/bandit_single","A2EI075XZT9Y2S","gain","5","32","","","","","","","","","","","","","","","","","","","","","","","","","",""
"3330","","text","9","77735","0.0-9.0","25746364","wem/bandit_single","A2EI075XZT9Y2S","gain","5","32","","","","","","","","","","","","","","","","","","","","","","","","","",""
"3913","","text","10","81650","0.0-10.0","25746364","wem/bandit_single","A2EI075XZT9Y2S","gain","5","32","","","","","","","","","","","","","","","","","","","","","","","","","",""
"2911","","text","11","84563","0.0-11.0","25746364","wem/bandit_single","A2EI075XZT9Y2S","gain","5","32","","","","","","","","","","","","","","","","","","","","","","","","","",""
"1419","","bandit","12","87493","0.0-12.0-0.0","25746364","wem/bandit_single","A2EI075XZT9Y2S","gain","5","","74","J","0","img/none_selected_demo.jpg","0","0","1","0","0","true","0","0","0","","","","","","","","","","","","",""
"511","","bandit","13","89762","0.0-13.0-0.0","25746364","wem/bandit_single","A2EI075XZT9Y2S","gain","5","","75","K","0","img/none_selected_demo.jpg","0","0","1","0","0","true","0","0","0","","","","","","","","","","","","",""
"2498","","text","14","92515","0.0-14.0","25746364","wem/bandit_single","A2EI075XZT9Y2S","gain","5","32","","","","","","","","","","","","","","","","","","","","","","","","","",""
"2701","","text","15","95220","0.0-15.0","25746364","wem/bandit_single","A2EI075XZT9Y2S","gain","5","32","","","","","","","","","","","","","","","","","","","","","","","","","",""
"2668","","text","16","97891","0.0-16.0","25746364","wem/bandit_single","A2EI075XZT9Y2S","gain","5","32","","","","","","","","","","","","","","","","","","","","","","","","","",""
"2112","","text","17","100007","0.0-17.0","25746364","wem/bandit_single","A2EI075XZT9Y2S","gain","5","32","","","","","","","","","","","","","","","","","","","","","","","","","",""
"3557","","bandit","18","105073","0.0-18.0-0.0","25746364","wem/bandit_single","A2EI075XZT9Y2S","gain","5","","74","J","0","img/none_selected_demo.jpg","1","0","0","0.8","0","true","0","0.8","0","80_20_practice","0.2","0","","","","","","","","","",""
"190","","bandit","19","107026","0.0-18.0-1.0","25746364","wem/bandit_single","A2EI075XZT9Y2S","gain","5","","75","K","1","","0","0","1","0.2","0","true","0","0.8","0","80_20_practice","0.2","0","","","","","","","","","",""
"15","","bandit","20","108802","0.0-18.0-2.0","25746364","wem/bandit_single","A2EI075XZT9Y2S","gain","5","","74","J","0","img/none_selected_demo.jpg","0","0","1","0.8","0","true","0","0.8","0","80_20_practice","0.2","0","","","","","","","","","",""
"369","","bandit","21","110932","0.0-18.0-3.0","25746364","wem/bandit_single","A2EI075XZT9Y2S","gain","5","","75","K","1","","0","0","1","0.2","0","true","0","0.8","0","80_20_practice","0.2","0","","","","","","","","","",""
"1","","bandit","22","112695","0.0-18.0-4.0","25746364","wem/bandit_single","A2EI075XZT9Y2S","gain","5","","74","J","0","img/none_selected_demo.jpg","1","0","0","0.8","0","true","0","0.8","0","80_20_practice","0.2","0","","","","","","","","","",""
"557","","bandit","23","115014","0.0-18.0-5.0","25746364","wem/bandit_single","A2EI075XZT9Y2S","gain","5","","74","J","0","img/none_selected_demo.jpg","1","0","0","0.8","0","true","0","0.8","0","80_20_practice","0.2","0","","","","","","","","","",""
"60","","bandit","24","116834","0.0-18.0-6.0","25746364","wem/bandit_single","A2EI075XZT9Y2S","gain","5","","74","J","0","img/none_selected_demo.jpg","1","0","0","0.8","0","true","0","0.8","0","80_20_practice","0.2","0","","","","","","","","","",""
"258","","bandit","25","118851","0.0-18.0-7.0","25746364","wem/bandit_single","A2EI075XZT9Y2S","gain","5","","74","J","0","img/none_selected_demo.jpg","1","0","0","0.8","0","true","0","0.8","0","80_20_practice","0.2","0","","","","","","","","","",""
"207","","bandit","26","120817","0.0-18.0-8.0","25746364","wem/bandit_single","A2EI075XZT9Y2S","gain","5","","74","J","0","img/none_selected_demo.jpg","1","0","0","0.8","0","true","0","0.8","0","80_20_practice","0.2","0","","","","","","","","","",""
"820","","bandit","27","123395","0.0-18.0-9.0","25746364","wem/bandit_single","A2EI075XZT9Y2S","gain","5","","74","J","0","img/none_selected_demo.jpg","1","0","0","0.8","0","true","0","0.8","0","80_20_practice","0.2","0","","","","","","","","","",""
"78","","bandit","28","125234","0.0-18.0-10.0","25746364","wem/bandit_single","A2EI075XZT9Y2S","gain","5","","74","J","0","img/none_selected_demo.jpg","1","0","0","0.8","0","true","0","0.8","0","80_20_practice","0.2","0","","","","","","","","","",""
"78","","bandit","29","127075","0.0-18.0-11.0","25746364","wem/bandit_single","A2EI075XZT9Y2S","gain","5","","74","J","0","img/none_selected_demo.jpg","1","0","0","0.8","0","true","0","0.8","0","80_20_practice","0.2","0","","","","","","","","","",""
"2","","bandit","30","128836","0.0-18.0-12.0","25746364","wem/bandit_single","A2EI075XZT9Y2S","gain","5","","74","J","0","img/none_selected_demo.jpg","1","0","0","0.8","0","true","0","0.8","0","80_20_practice","0.2","0","","","","","","","","","",""
"91","","bandit","31","130690","0.0-18.0-13.0","25746364","wem/bandit_single","A2EI075XZT9Y2S","gain","5","","74","J","0","img/none_selected_demo.jpg","1","0","0","0.8","0","true","0","0.8","0","80_20_practice","0.2","0","","","","","","","","","",""
"3","","bandit","32","132454","0.0-18.0-14.0","25746364","wem/bandit_single","A2EI075XZT9Y2S","gain","5","","74","J","0","img/none_selected_demo.jpg","1","0","0","0.8","0","true","0","0.8","0","80_20_practice","0.2","0","","","","","","","","","",""
"28","","bandit","33","134241","0.0-18.0-15.0","25746364","wem/bandit_single","A2EI075XZT9Y2S","gain","5","","74","J","0","img/none_selected_demo.jpg","1","0","0","0.8","0","true","0","0.8","0","80_20_practice","0.2","0","","","","","","","","","",""
"3","","bandit","34","136005","0.0-18.0-16.0","25746364","wem/bandit_single","A2EI075XZT9Y2S","gain","5","","74","J","0","img/none_selected_demo.jpg","1","0","0","0.8","0","true","0","0.8","0","80_20_practice","0.2","0","","","","","","","","","",""
"43","","bandit","35","137811","0.0-18.0-17.0","25746364","wem/bandit_single","A2EI075XZT9Y2S","gain","5","","74","J","0","img/none_selected_demo.jpg","0","0","1","0.8","0","true","0","0.8","0","80_20_practice","0.2","0","","","","","","","","","",""
"848","","bandit","36","140419","0.0-18.0-18.0","25746364","wem/bandit_single","A2EI075XZT9Y2S","gain","5","","74","J","0","img/none_selected_demo.jpg","1","0","0","0.8","0","true","0","0.8","0","80_20_practice","0.2","0","","","","","","","","","",""
"319","","bandit","37","142499","0.0-18.0-19.0","25746364","wem/bandit_single","A2EI075XZT9Y2S","gain","5","","74","J","0","img/none_selected_demo.jpg","1","0","0","0.8","0","true","0","0.8","0","80_20_practice","0.2","0","","","","","","","","","",""
"10757","","text","38","153513","0.0-19.0","25746364","wem/bandit_single","A2EI075XZT9Y2S","gain","5","32","","","","","","","","","","","","","","","","","","","","","","","","","",""
"3075","","bandit","39","158101","0.0-20.0-0.0","25746364","wem/bandit_single","A2EI075XZT9Y2S","gain","5","","74","J","0","img/none_selected_demo.jpg","0","0","1","0","0","true","0","0","0","","0","0","","","","","","","","","",""
"5970","","text","40","164328","0.0-21.0","25746364","wem/bandit_single","A2EI075XZT9Y2S","gain","5","32","","","","","","","","","","","","","","","","","","","","","","","","","",""
"4151","","text","41","168483","0.0-22.0","25746364","wem/bandit_single","A2EI075XZT9Y2S","gain","5","32","","","","","","","","","","","","","","","","","","","","","","","","","",""
"3692","","text","42","172180","0.0-23.0","25746364","wem/bandit_single","A2EI075XZT9Y2S","gain","5","32","","","","","","","","","","","","","","","","","","","","","","","","","",""
"4047","","text","43","176231","0.0-24.0","25746364","wem/bandit_single","A2EI075XZT9Y2S","gain","5","32","","","","","","","","","","","","","","","","","","","","","","","","","",""
"9543","","text","44","185777","0.0-25.0","25746364","wem/bandit_single","A2EI075XZT9Y2S","gain","5","32","","","","","","","","","","","","","","","","","","","","","","","","","",""
"4867","","text","45","190647","0.0-26.0","25746364","wem/bandit_single","A2EI075XZT9Y2S","gain","5","32","","","","","","","","","","","","","","","","","","","","","","","","","",""
"6102","","text","46","196755","0.0-27.0","25746364","wem/bandit_single","A2EI075XZT9Y2S","gain","5","32","","","","","","","","","","","","","","","","","","","","","","","","","",""
"3953","","text","47","200712","0.0-28.0","25746364","wem/bandit_single","A2EI075XZT9Y2S","gain","5","32","","","","","","","","","","","","","","","","","","","","","","","","","",""
"12394","","text","48","213110","0.0-29.0","25746364","wem/bandit_single","A2EI075XZT9Y2S","gain","5","32","","","","","","","","","","","","","","","","","","","","","","","","","",""
"3386","","text","49","216500","0.0-30.0","25746364","wem/bandit_single","A2EI075XZT9Y2S","gain","5","32","","","","","","","","","","","","","","","","","","","","","","","","","",""
"7359","","text","50","223863","0.0-31.0","25746364","wem/bandit_single","A2EI075XZT9Y2S","gain","5","32","","","","","","","","","","","","","","","","","","","","","","","","","",""
"1049","","bandit","51","226419","0.0-32.0-0.0","25746364","wem/bandit_single","A2EI075XZT9Y2S","gain","5","","72","H","0","img/none_selected.jpg","1","0","0","0.8","0","true","0","0.8","0","full_practice","0.2","0","0.6","0","0.2","0","","","","","",""
"14","","bandit","52","228195","0.0-32.0-1.0","25746364","wem/bandit_single","A2EI075XZT9Y2S","gain","5","","72","H","0","img/none_selected.jpg","1","0","0","0.8","0","true","0","0.8","0","full_practice","0.2","0","0.6","0","0.2","0","","","","","",""
"17","","bandit","53","229970","0.0-32.0-2.0","25746364","wem/bandit_single","A2EI075XZT9Y2S","gain","5","","72","H","0","img/none_selected.jpg","1","0","0","0.8","0","true","0","0.8","0","full_practice","0.2","0","0.6","0","0.2","0","","","","","",""
"2","","bandit","54","231732","0.0-32.0-3.0","25746364","wem/bandit_single","A2EI075XZT9Y2S","gain","5","","72","H","0","img/none_selected.jpg","1","0","0","0.8","0","true","0","0.8","0","full_practice","0.2","0","0.6","0","0.2","0","","","","","",""
"190","","bandit","55","233684","0.0-32.0-4.0","25746364","wem/bandit_single","A2EI075XZT9Y2S","gain","5","","72","H","0","img/none_selected.jpg","0","0","1","0.8","0","true","0","0.8","0","full_practice","0.2","0","0.6","0","0.2","0","","","","","",""
"1","","bandit","56","235447","0.0-32.0-5.0","25746364","wem/bandit_single","A2EI075XZT9Y2S","gain","5","","72","H","0","img/none_selected.jpg","0","0","1","0.8","0","true","0","0.8","0","full_practice","0.2","0","0.6","0","0.2","0","","","","","",""
"61","","bandit","57","237267","0.0-32.0-6.0","25746364","wem/bandit_single","A2EI075XZT9Y2S","gain","5","","74","J","1","","0","0","1","0.2","0","true","0","0.8","0","full_practice","0.2","0","0.6","0","0.2","0","","","","","",""
"670","","bandit","58","239699","0.0-32.0-7.0","25746364","wem/bandit_single","A2EI075XZT9Y2S","gain","5","","75","K","2","","0","0","1","0.6","0","true","0","0.8","0","full_practice","0.2","0","0.6","0","0.2","0","","","","","",""
"1","","bandit","59","241461","0.0-32.0-8.0","25746364","wem/bandit_single","A2EI075XZT9Y2S","gain","5","","76","L","3","","1","0","0","0.2","0","true","0","0.8","0","full_practice","0.2","0","0.6","0","0.2","0","","","","","",""
"31","","bandit","60","243251","0.0-32.0-9.0","25746364","wem/bandit_single","A2EI075XZT9Y2S","gain","5","","76","L","3","","0","0","1","0.2","0","true","0","0.8","0","full_practice","0.2","0","0.6","0","0.2","0","","","","","",""
"16","","bandit","61","245026","0.0-32.0-10.0","25746364","wem/bandit_single","A2EI075XZT9Y2S","gain","5","","72","H","0","img/none_selected.jpg","1","0","0","0.8","0","true","0","0.8","0","full_practice","0.2","0","0.6","0","0.2","0","","","","","",""
"16","","bandit","62","246807","0.0-32.0-11.0","25746364","wem/bandit_single","A2EI075XZT9Y2S","gain","5","","72","H","0","img/none_selected.jpg","1","0","0","0.8","0","true","0","0.8","0","full_practice","0.2","0","0.6","0","0.2","0","","","","","",""
"12","","bandit","63","248580","0.0-32.0-12.0","25746364","wem/bandit_single","A2EI075XZT9Y2S","gain","5","","72","H","0","img/none_selected.jpg","1","0","0","0.8","0","true","0","0.8","0","full_practice","0.2","0","0.6","0","0.2","0","","","","","",""
"15","","bandit","64","250356","0.0-32.0-13.0","25746364","wem/bandit_single","A2EI075XZT9Y2S","gain","5","","72","H","0","img/none_selected.jpg","1","0","0","0.8","0","true","0","0.8","0","full_practice","0.2","0","0.6","0","0.2","0","","","","","",""
"1260","","bandit","65","253377","0.0-32.0-14.0","25746364","wem/bandit_single","A2EI075XZT9Y2S","gain","5","","72","H","0","img/none_selected.jpg","1","0","0","0.8","0","true","0","0.8","0","full_practice","0.2","0","0.6","0","0.2","0","","","","","",""
"51","","bandit","66","255186","0.0-32.0-15.0","25746364","wem/bandit_single","A2EI075XZT9Y2S","gain","5","","72","H","0","img/none_selected.jpg","1","0","0","0.8","0","true","0","0.8","0","full_practice","0.2","0","0.6","0","0.2","0","","","","","",""
"3","","bandit","67","256950","0.0-32.0-16.0","25746364","wem/bandit_single","A2EI075XZT9Y2S","gain","5","","72","H","0","img/none_selected.jpg","0","0","1","0.8","0","true","0","0.8","0","full_practice","0.2","0","0.6","0","0.2","0","","","","","",""
"699","","bandit","68","259410","0.0-32.0-17.0","25746364","wem/bandit_single","A2EI075XZT9Y2S","gain","5","","76","L","3","","0","0","1","0.2","0","true","0","0.8","0","full_practice","0.2","0","0.6","0","0.2","0","","","","","",""
"415","","bandit","69","261585","0.0-32.0-18.0","25746364","wem/bandit_single","A2EI075XZT9Y2S","gain","5","","72","H","0","img/none_selected.jpg","1","0","0","0.8","0","true","0","0.8","0","full_practice","0.2","0","0.6","0","0.2","0","","","","","",""
"161","","bandit","70","263508","0.0-32.0-19.0","25746364","wem/bandit_single","A2EI075XZT9Y2S","gain","5","","72","H","0","img/none_selected.jpg","1","0","0","0.8","0","true","0","0.8","0","full_practice","0.2","0","0.6","0","0.2","0","","","","","",""
"3304","","text","71","267079","0.0-33.0","25746364","wem/bandit_single","A2EI075XZT9Y2S","gain","5","32","","","","","","","","","","","","","","","","","","","","","","","","","",""
"16178","","text","72","284263","0.0-34.0","25746364","wem/bandit_single","A2EI075XZT9Y2S","gain","5","32","","","","","","","","","","","","","","","","","","","","","","","","","",""
"9287","","text","73","293554","0.0-35.0","25746364","wem/bandit_single","A2EI075XZT9Y2S","gain","5","32","","","","","","","","","","","","","","","","","","","","","","","","","",""
"9758","","text","74","303315","0.0-36.0","25746364","wem/bandit_single","A2EI075XZT9Y2S","gain","5","32","","","","","","","","","","","","","","","","","","","","","","","","","",""
"9934","","text","75","313251","0.0-37.0","25746364","wem/bandit_single","A2EI075XZT9Y2S","gain","5","32","","","","","","","","","","","","","","","","","","","","","","","","","",""
"1490","","bandit","76","316247","0.0-38.0-0.0","25746364","wem/bandit_single","A2EI075XZT9Y2S","gain","5","","72","H","0","img/none_selected.jpg","0","0","1","0.04962883862","","false","1","0.04962883862","","main_expt","0.1478184891","","0.3811303016","","0.4657241486","","","","","","",""
"727","","bandit","77","318740","0.0-39.0-0.0","25746364","wem/bandit_single","A2EI075XZT9Y2S","gain","5","","74","J","1","","0","0","1","0.2081060842","","false","2","0.03569255153","","main_expt","0.2081060842","","0.350111504","","0.4660849779","","","","","","",""
"363","","bandit","78","320867","0.0-40.0-0.0","25746364","wem/bandit_single","A2EI075XZT9Y2S","gain","5","","75","K","2","","0","0","1","0.3436486883","","false","3","0.02901958263","","main_expt","0.1722167697","","0.3436486883","","0.4687539887","","","","","","",""
"445","","bandit","79","323075","0.0-41.0-0.0","25746364","wem/bandit_single","A2EI075XZT9Y2S","gain","5","","76","L","3","","0","0","1","0.48401473","","false","4","0.04894390993","","main_expt","0.1424145416","","0.3419997506","","0.48401473","","","","","","",""
"1185","","bandit","80","326020","0.0-42.0-0.0","25746364","wem/bandit_single","A2EI075XZT9Y2S","gain","5","","72","H","0","img/none_selected.jpg","0","0","1","0.04206610475","","false","5","0.04206610475","","main_expt","0.1446667298","","0.3692180445","","0.4755123677","","","","","","",""
"94","","bandit","81","327878","0.0-43.0-0.0","25746364","wem/bandit_single","A2EI075XZT9Y2S","gain","5","","74","J","1","","0","0","1","0.1447199692","","false","6","0.04292771587","","main_expt","0.1447199692","","0.3602257359","","0.4802482158","","","","","","",""
"364","","bandit","82","330004","0.0-44.0-0.0","25746364","wem/bandit_single","A2EI075XZT9Y2S","gain","5","","75","K","2","","1","0","0","0.3568498895","","false","7","0.06035830385","","main_expt","0.1001258446","","0.3568498895","","0.4780438684","","","","","","",""
"301","","bandit","83","332068","0.0-45.0-0.0","25746364","wem/bandit_single","A2EI075XZT9Y2S","gain","5","","75","K","2","","0","0","1","0.294604339","","false","8","0.09727842944","","main_expt","0.1244671667","","0.294604339","","0.4575173044","","","","","","",""
"332","","bandit","84","334163","0.0-46.0-0.0","25746364","wem/bandit_single","A2EI075XZT9Y2S","gain","5","","75","K","2","","0","0","1","0.3802768622","","false","9","0.07952196982","","main_expt","0.1293804987","","0.3802768622","","0.4525933246","","","","","","",""
"237","","bandit","85","336164","0.0-47.0-0.0","25746364","wem/bandit_single","A2EI075XZT9Y2S","gain","5","","76","L","3","","0","0","1","0.4476408152","","false","10","0.1049852556","","main_expt","0.1606810952","","0.3530595227","","0.4476408152","","","","","","",""
"352","","bandit","86","338278","0.0-48.0-0.0","25746364","wem/bandit_single","A2EI075XZT9Y2S","gain","5","","72","H","0","img/none_selected.jpg","1","0","0","0.1118692116","","false","11","0.1118692116","","main_expt","0.1585385462","","0.358648576","","0.4484644352","","","","","","",""
"167","","bandit","87","340212","0.0-49.0-0.0","25746364","wem/bandit_single","A2EI075XZT9Y2S","gain","5","","72","H","0","img/none_selected.jpg","0","0","1","0.1270372311","","false","12","0.1270372311","","main_expt","0.1492634201","","0.3382469396","","0.4466341879","","","","","","",""
"59","","bandit","88","342036","0.0-50.0-0.0","25746364","wem/bandit_single","A2EI075XZT9Y2S","gain","5","","72","H","0","img/none_selected.jpg","0","0","1","0.1278892577","","false","13","0.1278892577","","main_expt","0.1106465011","","0.3092021245","","0.4642511008","","","","","","",""
"315","","bandit","89","344116","0.0-51.0-0.0","25746364","wem/bandit_single","A2EI075XZT9Y2S","gain","5","","72","H","0","img/none_selected.jpg","0","0","1","0.1024725346","","false","14","0.1024725346","","main_expt","0.1232346967","","0.3532484784","","0.4615970843","","","","","","",""
"31","","bandit","90","345906","0.0-52.0-0.0","25746364","wem/bandit_single","A2EI075XZT9Y2S","gain","5","","75","K","2","","1","0","0","0.3371384495","","false","15","0.1234109619","","main_expt","0.1323340596","","0.3371384495","","0.4692442536","","","","","","",""
"29","","bandit","91","347700","0.0-53.0-0.0","25746364","wem/bandit_single","A2EI075XZT9Y2S","gain","5","","75","K","2","","0","0","1","0.3282622062","","false","16","0.1360550169","","main_expt","0.1410223318","","0.3282622062","","0.4755425263","","","","","","",""
"129","","bandit","92","349590","0.0-54.0-0.0","25746364","wem/bandit_single","A2EI075XZT9Y2S","gain","5","","75","K","2","","1","0","0","0.3032164303","","false","17","0.1070219664","","main_expt","0.1498636582","","0.3032164303","","0.4828633911","","","","","","",""
"88","","bandit","93","351443","0.0-55.0-0.0","25746364","wem/bandit_single","A2EI075XZT9Y2S","gain","5","","75","K","2","","0","0","1","0.2834034058","","false","18","0.09318331203","","main_expt","0.1132842199","","0.2834034058","","0.4784959143","","","","","","",""
"43","","bandit","94","353252","0.0-56.0-0.0","25746364","wem/bandit_single","A2EI075XZT9Y2S","gain","5","","75","K","2","","0","0","1","0.376157017","","false","19","0.08644374764","","main_expt","0.08554013857","","0.376157017","","0.4645747316","","","","","","",""
"655","","bandit","95","355667","0.0-57.0-0.0","25746364","wem/bandit_single","A2EI075XZT9Y2S","gain","5","","74","J","1","","0","0","1","0.1176407844","","false","20","0.1066513301","","main_expt","0.1176407844","","0.3718288413","","0.4441513352","","","","","","",""
"1","","bandit","96","357431","0.0-58.0-0.0","25746364","wem/bandit_single","A2EI075XZT9Y2S","gain","5","","75","K","2","","0","0","1","0.3755251961","","false","21","0.1143532382","","main_expt","0.09701455477","","0.3755251961","","0.4281495132","","","","","","",""
"299","","bandit","97","359494","0.0-59.0-0.0","25746364","wem/bandit_single","A2EI075XZT9Y2S","gain","5","","72","H","0","img/none_selected.jpg","0","0","1","0.111858438","","false","22","0.111858438","","main_expt","0.08683592795","","0.3536603278","","0.4374563715","","","","","","",""
"362","","bandit","98","361618","0.0-60.0-0.0","25746364","wem/bandit_single","A2EI075XZT9Y2S","gain","5","","76","L","3","","0","0","1","0.4408316507","","false","23","0.09088087914","","main_expt","0.1062952262","","0.3908816919","","0.4408316507","","","","","","",""
"446","","bandit","99","363828","0.0-61.0-0.0","25746364","wem/bandit_single","A2EI075XZT9Y2S","gain","5","","75","K","2","","0","0","1","0.3639752867","","false","24","0.1045917755","","main_expt","0.1320295984","","0.3639752867","","0.4249736282","","","","","","",""
"282","","bandit","100","365875","0.0-62.0-0.0","25746364","wem/bandit_single","A2EI075XZT9Y2S","gain","5","","75","K","2","","0","0","1","0.3569796848","","false","25","0.107118439","","main_expt","0.18562956","","0.3569796848","","0.4542404639","","","","","","",""
"193","","bandit","101","367827","0.0-63.0-0.0","25746364","wem/bandit_single","A2EI075XZT9Y2S","gain","5","","72","H","0","img/none_selected.jpg","0","0","1","0.08847958778","","false","26","0.08847958778","","main_expt","0.1589772959","","0.3466804264","","0.4707756245","","","","","","",""
"379","","bandit","102","369972","0.0-64.0-0.0","25746364","wem/bandit_single","A2EI075XZT9Y2S","gain","5","","74","J","1","","0","0","1","0.1361305173","","false","27","0.105958259","","main_expt","0.1361305173","","0.3487144915","","0.4492807888","","","","","","",""
"46","","bandit","103","371783","0.0-65.0-0.0","25746364","wem/bandit_single","A2EI075XZT9Y2S","gain","5","","76","L","3","","1","0","0","0.4630254912","","false","28","0.09976229861","","main_expt","0.1517112547","","0.31872733","","0.4630254912","","","","","","",""
"27","","bandit","104","373571","0.0-66.0-0.0","25746364","wem/bandit_single","A2EI075XZT9Y2S","gain","5","","76","L","3","","0","0","1","0.4582460064","","false","29","0.1117783291","","main_expt","0.1207272987","","0.3351256986","","0.4582460064","","","","","","",""
"238","","bandit","105","375570","0.0-67.0-0.0","25746364","wem/bandit_single","A2EI075XZT9Y2S","gain","5","","76","L","3","","0","0","1","0.44398484","","false","30","0.104708879","","main_expt","0.06619286558","","0.3165147827","","0.44398484","","","","","","",""
"130","","bandit","106","377459","0.0-68.0-0.0","25746364","wem/bandit_single","A2EI075XZT9Y2S","gain","5","","75","K","2","","1","0","0","0.3587164307","","false","31","0.1168740313","","main_expt","0.08172424971","","0.3587164307","","0.4662875842","","","","","","",""
"93","","bandit","107","379314","0.0-69.0-0.0","25746364","wem/bandit_single","A2EI075XZT9Y2S","gain","5","","75","K","2","","0","0","1","0.384091524","","false","32","0.1193100679","","main_expt","0.1118972321","","0.384091524","","0.4823207571","","","","","","",""
"14","","bandit","108","381090","0.0-70.0-0.0","25746364","wem/bandit_single","A2EI075XZT9Y2S","gain","5","","76","L","3","","0","0","1","0.4887640326","","false","33","0.1160378653","","main_expt","0.07764728595","","0.3410562849","","0.4887640326","","","","","","",""
"317","","bandit","109","383171","0.0-71.0-0.0","25746364","wem/bandit_single","A2EI075XZT9Y2S","gain","5","","75","K","2","","0","0","1","0.3772037995","","false","34","0.1240203414","","main_expt","0.1021677232","","0.3772037995","","0.4871413525","","","","","","",""
"66","","bandit","110","384994","0.0-72.0-0.0","25746364","wem/bandit_single","A2EI075XZT9Y2S","gain","5","","72","H","0","img/none_selected.jpg","0","0","1","0.1568527985","","false","35","0.1568527985","","main_expt","0.09263198197","","0.3601610849","","0.472467875","","","","","","",""
"30","","bandit","111","386788","0.0-73.0-0.0","25746364","wem/bandit_single","A2EI075XZT9Y2S","gain","5","","75","K","2","","0","0","1","0.3199141994","","false","36","0.1887398002","","main_expt","0.1395706987","","0.3199141994","","0.4801988656","","","","","","",""
"142","","bandit","112","388693","0.0-74.0-0.0","25746364","wem/bandit_single","A2EI075XZT9Y2S","gain","5","","74","J","1","","0","0","1","0.1166343238","","false","37","0.1567271146","","main_expt","0.1166343238","","0.3022128767","","0.4658101737","","","","","","",""
"30","","bandit","113","390485","0.0-75.0-0.0","25746364","wem/bandit_single","A2EI075XZT9Y2S","gain","5","","72","H","0","img/none_selected.jpg","0","0","1","0.1213003185","","false","38","0.1213003185","","main_expt","0.1344783462","","0.220841548","","0.4725237643","","","","","","",""
"43","","bandit","114","392291","0.0-76.0-0.0","25746364","wem/bandit_single","A2EI075XZT9Y2S","gain","5","","76","L","3","","1","0","0","0.4863678522","","false","39","0.1129188575","","main_expt","0.1132701409","","0.2273815274","","0.4863678522","","","","","","",""
"0","","bandit","115","394055","0.0-77.0-0.0","25746364","wem/bandit_single","A2EI075XZT9Y2S","gain","5","","76","L","3","","1","0","0","0.4756100127","","false","40","0.1490040727","","main_expt","0.1269330716","","0.2216047912","","0.4756100127","","","","","","",""
"5","","bandit","116","395827","0.0-78.0-0.0","25746364","wem/bandit_single","A2EI075XZT9Y2S","gain","5","","76","L","3","","1","0","0","0.4644843691","","false","41","0.20555416","","main_expt","0.1043764639","","0.1790357129","","0.4644843691","","","","","","",""
"12","","bandit","117","397602","0.0-79.0-0.0","25746364","wem/bandit_single","A2EI075XZT9Y2S","gain","5","","76","L","3","","0","0","1","0.4595487669","","false","42","0.2458082757","","main_expt","0.123259557","","0.1124402831","","0.4595487669","","","","","","",""
"688","","bandit","118","400054","0.0-80.0-0.0","25746364","wem/bandit_single","A2EI075XZT9Y2S","gain","5","","76","L","3","","1","0","0","0.4598563523","","false","43","0.1980967925","","main_expt","0.1523094635","","0.1309909921","","0.4598563523","","","","","","",""
"27","","bandit","119","401844","0.0-81.0-0.0","25746364","wem/bandit_single","A2EI075XZT9Y2S","gain","5","","76","L","3","","1","0","0","0.4444935065","","false","44","0.2011817551","","main_expt","0.1438901127","","0.1620245532","","0.4444935065","","","","","","",""
"332","","bandit","120","403940","0.0-82.0-0.0","25746364","wem/bandit_single","A2EI075XZT9Y2S","gain","5","","76","L","3","","1","0","0","0.4201454787","","false","45","0.1908172103","","main_expt","0.1381896233","","0.1962154431","","0.4201454787","","","","","","",""
"11","","bandit","121","405718","0.0-83.0-0.0","25746364","wem/bandit_single","A2EI075XZT9Y2S","gain","5","","76","L","3","","1","0","0","0.4420567968","","false","46","0.1682898959","","main_expt","0.08118013389","","0.1548021256","","0.4420567968","","","","","","",""
"491","","bandit","122","407971","0.0-84.0-0.0","25746364","wem/bandit_single","A2EI075XZT9Y2S","gain","5","","76","L","3","","1","0","0","0.4454115659","","false","47","0.114950809","","main_expt","0.08279503272","","0.155425446","","0.4454115659","","","","","","",""
"25","","bandit","123","409763","0.0-85.0-0.0","25746364","wem/bandit_single","A2EI075XZT9Y2S","gain","5","","76","L","3","","1","0","0","0.4409121906","","false","48","0.1231508501","","main_expt","0.09757227309","","0.2368850053","","0.4409121906","","","","","","",""
"475","","bandit","124","412003","0.0-86.0-0.0","25746364","wem/bandit_single","A2EI075XZT9Y2S","gain","5","","76","L","3","","1","0","0","0.4640555105","","false","49","0.1264715503","","main_expt","0.1407466139","","0.1712995484","","0.4640555105","","","","","","",""
"12","","bandit","125","413778","0.0-87.0-0.0","25746364","wem/bandit_single","A2EI075XZT9Y2S","gain","5","","76","L","3","","1","0","0","0.4619625264","","false","50","0.1119267987","","main_expt","0.1128896644","","0.2371897999","","0.4619625264","","","","","","",""
"31","","bandit","126","415571","0.0-88.0-0.0","25746364","wem/bandit_single","A2EI075XZT9Y2S","gain","5","","76","L","3","","1","0","0","0.4686499241","","false","51","0.1192285775","","main_expt","0.1292206793","","0.2520952739","","0.4686499241","","","","","","",""
"18","","bandit","127","417352","0.0-89.0-0.0","25746364","wem/bandit_single","A2EI075XZT9Y2S","gain","5","","76","L","3","","1","0","0","0.4721244997","","false","52","0.1536714506","","main_expt","0.117204758","","0.2201249325","","0.4721244997","","","","","","",""
"408","","bandit","128","419523","0.0-90.0-0.0","25746364","wem/bandit_single","A2EI075XZT9Y2S","gain","5","","76","L","3","","0","0","1","0.4776765754","","false","53","0.1817289366","","main_expt","0.1180232867","","0.2019083534","","0.4776765754","","","","","","",""
"9","","bandit","129","421300","0.0-91.0-0.0","25746364","wem/bandit_single","A2EI075XZT9Y2S","gain","5","","76","L","3","","1","0","0","0.4788042678","","false","54","0.1664376657","","main_expt","0.09503139185","","0.2133100918","","0.4788042678","","","","","","",""
"42","","bandit","130","423107","0.0-92.0-0.0","25746364","wem/bandit_single","A2EI075XZT9Y2S","gain","5","","76","L","3","","1","0","0","0.4852168201","","false","55","0.1219288973","","main_expt","0.1238025275","","0.2210295122","","0.4852168201","","","","","","",""
"46","","bandit","131","424916","0.0-93.0-0.0","25746364","wem/bandit_single","A2EI075XZT9Y2S","gain","5","","76","L","3","","0","0","1","0.4860946669","","false","56","0.1392062569","","main_expt","0.1544257673","","0.1728424853","","0.4860946669","","","","","","",""
"26","","bandit","132","426708","0.0-94.0-0.0","25746364","wem/bandit_single","A2EI075XZT9Y2S","gain","5","","76","L","3","","1","0","0","0.4859962979","","false","57","0.2060247316","","main_expt","0.1492478473","","0.2301797189","","0.4859962979","","","","","","",""
"127","","bandit","133","428597","0.0-95.0-0.0","25746364","wem/bandit_single","A2EI075XZT9Y2S","gain","5","","76","L","3","","0","0","1","0.4751013025","","false","58","0.1723567799","","main_expt","0.1392181034","","0.2820892606","","0.4751013025","","","","","","",""
"623","","bandit","134","430979","0.0-96.0-0.0","25746364","wem/bandit_single","A2EI075XZT9Y2S","gain","5","","75","K","2","","1","0","0","0.308641684","","false","59","0.16345501","","main_expt","0.1854998728","","0.308641684","","0.4816883425","","","","","","",""
"492","","bandit","135","433235","0.0-97.0-0.0","25746364","wem/bandit_single","A2EI075XZT9Y2S","gain","5","","75","K","2","","1","0","0","0.3012287428","","false","60","0.1552759559","","main_expt","0.1306651225","","0.3012287428","","0.4846541976","","","","","","",""
"267","","bandit","136","435268","0.0-98.0-0.0","25746364","wem/bandit_single","A2EI075XZT9Y2S","gain","5","","75","K","2","","0","0","1","0.263166603","","false","61","0.1652193455","","main_expt","0.1567024934","","0.263166603","","0.4848840061","","","","","","",""
"170","","bandit","137","437203","0.0-99.0-0.0","25746364","wem/bandit_single","A2EI075XZT9Y2S","gain","5","","75","K","2","","0","0","1","0.2428038775","","false","62","0.1813222976","","main_expt","0.1622246099","","0.2428038775","","0.4856292504","","","","","","",""
"0","","bandit","138","438969","0.0-100.0-0.0","25746364","wem/bandit_single","A2EI075XZT9Y2S","gain","5","","76","L","3","","1","0","0","0.4865153319","","false","63","0.1727004114","","main_expt","0.2196770705","","0.2843805899","","0.4865153319","","","","","","",""
"36","","bandit","139","440771","0.0-101.0-0.0","25746364","wem/bandit_single","A2EI075XZT9Y2S","gain","5","","76","L","3","","0","0","1","0.4874146034","","false","64","0.2105999223","","main_expt","0.218319606","","0.2895992306","","0.4874146034","","","","","","",""
"891","","bandit","140","443427","0.0-102.0-0.0","25746364","wem/bandit_single","A2EI075XZT9Y2S","gain","5","","76","L","3","","1","0","0","0.4781609215","","false","65","0.240225816","","main_expt","0.2278721313","","0.3847688","","0.4781609215","","","","","","",""
"144","","bandit","141","445333","0.0-103.0-0.0","25746364","wem/bandit_single","A2EI075XZT9Y2S","gain","5","","76","L","3","","1","0","0","0.4848714892","","false","66","0.2924754864","","main_expt","0.1599393353","","0.4083751038","","0.4848714892","","","","","","",""
"111","","bandit","142","447203","0.0-104.0-0.0","25746364","wem/bandit_single","A2EI075XZT9Y2S","gain","5","","76","L","3","","1","0","0","0.4872204599","","false","67","0.2363072125","","main_expt","0.1647045883","","0.4036944211","","0.4872204599","","","","","","",""
"62","","bandit","143","449032","0.0-105.0-0.0","25746364","wem/bandit_single","A2EI075XZT9Y2S","gain","5","","76","L","3","","1","0","0","0.4749956953","","false","68","0.264359064","","main_expt","0.1442333851","","0.3910329043","","0.4749956953","","","","","","",""
"19","","bandit","144","450820","0.0-106.0-0.0","25746364","wem/bandit_single","A2EI075XZT9Y2S","gain","5","","76","L","3","","0","0","1","0.4776093432","","false","69","0.2755227552","","main_expt","0.1757685765","","0.3438989047","","0.4776093432","","","","","","",""
"524","","bandit","145","453106","0.0-107.0-0.0","25746364","wem/bandit_single","A2EI075XZT9Y2S","gain","5","","76","L","3","","0","0","1","0.4550183311","","false","70","0.2978365432","","main_expt","0.1995177274","","0.3282106587","","0.4550183311","","","","","","",""
"109","","bandit","146","454980","0.0-108.0-0.0","25746364","wem/bandit_single","A2EI075XZT9Y2S","gain","5","","75","K","2","","0","0","1","0.3085852942","","false","71","0.2788476436","","main_expt","0.2429348876","","0.3085852942","","0.4466984445","","","","","","",""
"42","","bandit","147","456788","0.0-109.0-0.0","25746364","wem/bandit_single","A2EI075XZT9Y2S","gain","5","","72","H","0","img/none_selected.jpg","1","0","0","0.2983184618","","false","72","0.2983184618","","main_expt","0.2134703404","","0.317066931","","0.453817204","","","","","","",""
"615","","bandit","148","459173","0.0-110.0-0.0","25746364","wem/bandit_single","A2EI075XZT9Y2S","gain","5","","72","H","0","img/none_selected.jpg","1","0","0","0.3235064893","","false","73","0.3235064893","","main_expt","0.2779115064","","0.3118309255","","0.4421557619","","","","","","",""
"135","","bandit","149","461075","0.0-111.0-0.0","25746364","wem/bandit_single","A2EI075XZT9Y2S","gain","5","","72","H","0","img/none_selected.jpg","0","0","1","0.2605282151","","false","74","0.2605282151","","main_expt","0.2696493969","","0.3442292265","","0.4340536998","","","","","","",""
"170","","bandit","150","463013","0.0-112.0-0.0","25746364","wem/bandit_single","A2EI075XZT9Y2S","gain","5","","76","L","3","","0","0","1","0.4148912722","","false","75","0.3081503464","","main_expt","0.2929582525","","0.3392290825","","0.4148912722","","","","","","",""
"155","","bandit","151","464931","0.0-113.0-0.0","25746364","wem/bandit_single","A2EI075XZT9Y2S","gain","5","","72","H","0","img/none_selected.jpg","0","0","1","0.3793773342","","false","76","0.3793773342","","main_expt","0.2925997362","","0.3019050266","","0.4049452856","","","","","","",""
"313","","bandit","152","467012","0.0-114.0-0.0","25746364","wem/bandit_single","A2EI075XZT9Y2S","gain","5","","75","K","2","","1","0","0","0.3346778491","","false","77","0.4108459626","","main_expt","0.2402419665","","0.3346778491","","0.3804311168","","","","","","",""
"204","","bandit","153","468979","0.0-115.0-0.0","25746364","wem/bandit_single","A2EI075XZT9Y2S","gain","5","","75","K","2","","0","0","1","0.2858281516","","false","78","0.432197644","","main_expt","0.2662288132","","0.2858281516","","0.4076768351","","","","","","",""
"313","","bandit","154","471059","0.0-116.0-0.0","25746364","wem/bandit_single","A2EI075XZT9Y2S","gain","5","","76","L","3","","1","0","0","0.4322729224","","false","79","0.4681634707","","main_expt","0.2946750364","","0.2601805687","","0.4322729224","","","","","","",""
"9","","bandit","155","472836","0.0-117.0-0.0","25746364","wem/bandit_single","A2EI075XZT9Y2S","gain","5","","76","L","3","","0","0","1","0.4344903628","","false","80","0.4487514359","","main_expt","0.3142603933","","0.2494540003","","0.4344903628","","","","","","",""
"105","","bandit","156","474709","0.0-118.0-0.0","25746364","wem/bandit_single","A2EI075XZT9Y2S","gain","5","","76","L","3","","0","0","1","0.4128510282","","false","81","0.4278748425","","main_expt","0.3045476359","","0.2029748002","","0.4128510282","","","","","","",""
"231","","bandit","157","476707","0.0-119.0-0.0","25746364","wem/bandit_single","A2EI075XZT9Y2S","gain","5","","72","H","0","img/none_selected.jpg","0","0","1","0.3873338363","","false","82","0.3873338363","","main_expt","0.2481672469","","0.1459008349","","0.3473788204","","","","","","",""
"40","","bandit","158","478515","0.0-120.0-0.0","25746364","wem/bandit_single","A2EI075XZT9Y2S","gain","5","","76","L","3","","0","0","1","0.3964685929","","false","83","0.3676955993","","main_expt","0.2366474468","","0.1792892234","","0.3964685929","","","","","","",""
"15","","bandit","159","480292","0.0-121.0-0.0","25746364","wem/bandit_single","A2EI075XZT9Y2S","gain","5","","75","K","2","","0","0","1","0.1384159538","","false","84","0.3494013457","","main_expt","0.2327145127","","0.1384159538","","0.4058457219","","","","","","",""
"18","","bandit","160","482072","0.0-122.0-0.0","25746364","wem/bandit_single","A2EI075XZT9Y2S","gain","5","","74","J","1","","1","0","0","0.2276425053","","false","85","0.3484693071","","main_expt","0.2276425053","","0.1569521301","","0.419702676","","","","","","",""
"132","","bandit","161","483972","0.0-123.0-0.0","25746364","wem/bandit_single","A2EI075XZT9Y2S","gain","5","","74","J","1","","0","0","1","0.1932648708","","false","86","0.3738623358","","main_expt","0.1932648708","","0.2111509195","","0.3584641731","","","","","","",""
"297","","bandit","162","486036","0.0-124.0-0.0","25746364","wem/bandit_single","A2EI075XZT9Y2S","gain","5","","74","J","1","","0","0","1","0.1554886006","","false","87","0.3635865115","","main_expt","0.1554886006","","0.1855749087","","0.3362954576","","","","","","",""
"8","","bandit","163","487811","0.0-125.0-0.0","25746364","wem/bandit_single","A2EI075XZT9Y2S","gain","5","","76","L","3","","0","0","1","0.3495778317","","false","88","0.28993028","","main_expt","0.1288388744","","0.1260067519","","0.3495778317","","","","","","",""
"427","","bandit","164","490004","0.0-126.0-0.0","25746364","wem/bandit_single","A2EI075XZT9Y2S","gain","5","","75","K","2","","0","0","1","0.1930097593","","false","89","0.2529053562","","main_expt","0.1672252434","","0.1930097593","","0.3337998134","","","","","","",""
"55","","bandit","165","491827","0.0-127.0-0.0","25746364","wem/bandit_single","A2EI075XZT9Y2S","gain","5","","72","H","0","img/none_selected.jpg","0","0","1","0.2239223254","","false","90","0.2239223254","","main_expt","0.1379373657","","0.2016869017","","0.3254710898","","","","","","",""
"14","","bandit","166","493610","0.0-128.0-0.0","25746364","wem/bandit_single","A2EI075XZT9Y2S","gain","5","","76","L","3","","0","0","1","0.3248617863","","false","91","0.1874521573","","main_expt","0.1296834551","","0.2283296651","","0.3248617863","","","","","","",""
"230","","bandit","167","495603","0.0-129.0-0.0","25746364","wem/bandit_single","A2EI075XZT9Y2S","gain","5","","76","L","3","","0","0","1","0.3290731597","","false","92","0.1464907128","","main_expt","0.1601432093","","0.2253008126","","0.3290731597","","","","","","",""
"93","","bandit","168","497460","0.0-130.0-0.0","25746364","wem/bandit_single","A2EI075XZT9Y2S","gain","5","","75","K","2","","0","0","1","0.1826671142","","false","93","0.1817498408","","main_expt","0.1976873148","","0.1826671142","","0.2947126164","","","","","","",""
"43","","bandit","169","499268","0.0-131.0-0.0","25746364","wem/bandit_single","A2EI075XZT9Y2S","gain","5","","74","J","1","","0","0","1","0.2296862911","","false","94","0.1967130988","","main_expt","0.2296862911","","0.1650727581","","0.2762739163","","","","","","",""
"25","","bandit","170","501058","0.0-132.0-0.0","25746364","wem/bandit_single","A2EI075XZT9Y2S","gain","5","","76","L","3","","1","0","0","0.3184689772","","false","95","0.2294656294","","main_expt","0.1990842867","","0.1971582392","","0.3184689772","","","","","","",""
"60","","bandit","171","502884","0.0-133.0-0.0","25746364","wem/bandit_single","A2EI075XZT9Y2S","gain","5","","76","L","3","","0","0","1","0.281027734","","false","96","0.2966343553","","main_expt","0.258496532","","0.1791402521","","0.281027734","","","","","","",""
"536","","bandit","172","505187","0.0-134.0-0.0","25746364","wem/bandit_single","A2EI075XZT9Y2S","gain","5","","76","L","3","","0","0","1","0.2474299406","","false","97","0.3346257274","","main_expt","0.2766566169","","0.1516442175","","0.2474299406","","","","","","",""
"62","","bandit","173","507012","0.0-135.0-0.0","25746364","wem/bandit_single","A2EI075XZT9Y2S","gain","5","","76","L","3","","0","0","1","0.2217126022","","false","98","0.3139493976","","main_expt","0.2377114848","","0.2200018313","","0.2217126022","","","","","","",""
"459","","bandit","174","509234","0.0-136.0-0.0","25746364","wem/bandit_single","A2EI075XZT9Y2S","gain","5","","75","K","2","","1","0","0","0.2752547205","","false","99","0.2478490566","","main_expt","0.3124158187","","0.2752547205","","0.2677278576","","","","","","",""
"168","","bandit","175","511170","0.0-137.0-0.0","25746364","wem/bandit_single","A2EI075XZT9Y2S","gain","5","","75","K","2","","0","0","1","0.252850905","","false","100","0.2602221343","","main_expt","0.2059987679","","0.252850905","","0.3271916833","","","","","","",""
"488","","bandit","176","513426","0.0-138.0-0.0","25746364","wem/bandit_single","A2EI075XZT9Y2S","gain","5","","75","K","2","","0","0","1","0.1867047362","","false","101","0.2584762291","","main_expt","0.1758265216","","0.1867047362","","0.3066156257","","","","","","",""
"65","","bandit","177","515253","0.0-139.0-0.0","25746364","wem/bandit_single","A2EI075XZT9Y2S","gain","5","","76","L","3","","0","0","1","0.3260250896","","false","102","0.282093771","","main_expt","0.2262322791","","0.1175578895","","0.3260250896","","","","","","",""
"214","","bandit","178","517235","0.0-140.0-0.0","25746364","wem/bandit_single","A2EI075XZT9Y2S","gain","5","","72","H","0","img/none_selected.jpg","0","0","1","0.2725256196","","false","103","0.2725256196","","main_expt","0.2018281434","","0.09132094505","","0.3731136732","","","","","","",""
"395","","bandit","179","519397","0.0-141.0-0.0","25746364","wem/bandit_single","A2EI075XZT9Y2S","gain","5","","74","J","1","","0","0","1","0.1447482012","","false","104","0.2243623384","","main_expt","0.1447482012","","0.1422553795","","0.3941656488","","","","","","",""
"10","","bandit","180","521173","0.0-142.0-0.0","25746364","wem/bandit_single","A2EI075XZT9Y2S","gain","5","","76","L","3","","0","0","1","0.4030151573","","false","105","0.2403200944","","main_expt","0.2104813725","","0.1390697773","","0.4030151573","","","","","","",""
"451","","bandit","181","523394","0.0-143.0-0.0","25746364","wem/bandit_single","A2EI075XZT9Y2S","gain","5","","72","H","0","img/none_selected.jpg","0","0","1","0.2332798071","","false","106","0.2332798071","","main_expt","0.2492378957","","0.1155807694","","0.3715193073","","","","","","",""
"286","","bandit","182","525447","0.0-144.0-0.0","25746364","wem/bandit_single","A2EI075XZT9Y2S","gain","5","","75","K","2","","1","0","0","0.105728532","","false","107","0.181620067","","main_expt","0.217404121","","0.105728532","","0.3837270358","","","","","","",""
"56","","bandit","183","527267","0.0-145.0-0.0","25746364","wem/bandit_single","A2EI075XZT9Y2S","gain","5","","75","K","2","","0","0","1","0.08831090648","","false","108","0.2173069915","","main_expt","0.2142202377","","0.08831090648","","0.3908875135","","","","","","",""
"472","","bandit","184","529507","0.0-146.0-0.0","25746364","wem/bandit_single","A2EI075XZT9Y2S","gain","5","","75","K","2","","0","0","1","0.1043724426","","false","109","0.226697077","","main_expt","0.2683226389","","0.1043724426","","0.3774052568","","","","","","",""
"131","","bandit","185","531411","0.0-147.0-0.0","25746364","wem/bandit_single","A2EI075XZT9Y2S","gain","5","","76","L","3","","1","0","0","0.3601275089","","false","110","0.2695419639","","main_expt","0.2619142817","","0.07530108238","","0.3601275089","","","","","","",""
"91","","bandit","186","533266","0.0-148.0-0.0","25746364","wem/bandit_single","A2EI075XZT9Y2S","gain","5","","76","L","3","","0","0","1","0.3880855357","","false","111","0.2635727161","","main_expt","0.2754039507","","0.05159845725","","0.3880855357","","","","","","",""
"9","","bandit","187","535044","0.0-149.0-0.0","25746364","wem/bandit_single","A2EI075XZT9Y2S","gain","5","","76","L","3","","0","0","1","0.3864248384","","false","112","0.3202716687","","main_expt","0.2721436228","","0.08116028731","","0.3864248384","","","","","","",""
"200","","bandit","188","537012","0.0-150.0-0.0","25746364","wem/bandit_single","A2EI075XZT9Y2S","gain","5","","76","L","3","","0","0","1","0.339569604","","false","113","0.3546461764","","main_expt","0.2598768298","","0.08538759299","","0.339569604","","","","","","",""
"23","","bandit","189","538803","0.0-151.0-0.0","25746364","wem/bandit_single","A2EI075XZT9Y2S","gain","5","","76","L","3","","0","0","1","0.3612744832","","false","114","0.3339806629","","main_expt","0.2271708717","","0.106551095","","0.3612744832","","","","","","",""
"414","","bandit","190","540981","0.0-152.0-0.0","25746364","wem/bandit_single","A2EI075XZT9Y2S","gain","5","","75","K","2","","0","0","1","0.1120532439","","false","115","0.3175163572","","main_expt","0.2382373761","","0.1120532439","","0.3616298021","","","","","","",""
"141","","bandit","191","542883","0.0-153.0-0.0","25746364","wem/bandit_single","A2EI075XZT9Y2S","gain","5","","74","J","1","","0","0","1","0.2092397162","","false","116","0.3626291523","","main_expt","0.2092397162","","0.07206247825","","0.3886586702","","","","","","",""
"167","","bandit","192","544819","0.0-154.0-0.0","25746364","wem/bandit_single","A2EI075XZT9Y2S","gain","5","","72","H","0","img/none_selected.jpg","1","0","0","0.4005972513","","false","117","0.4005972513","","main_expt","0.1790603663","","0.05990892348","","0.3837198657","","","","","","",""
"45","","bandit","193","546631","0.0-155.0-0.0","25746364","wem/bandit_single","A2EI075XZT9Y2S","gain","5","","72","H","0","img/none_selected.jpg","0","0","1","0.3994725347","","false","118","0.3994725347","","main_expt","0.2515048449","","0.07349038746","","0.3831944796","","","","","","",""
"574","","bandit","194","548964","0.0-156.0-0.0","25746364","wem/bandit_single","A2EI075XZT9Y2S","gain","5","","72","H","0","img/none_selected.jpg","1","0","0","0.3690387214","","false","119","0.3690387214","","main_expt","0.2591845625","","0.0880416307","","0.3200080389","","","","","","",""
"87","","bandit","195","550820","0.0-157.0-0.0","25746364","wem/bandit_single","A2EI075XZT9Y2S","gain","5","","72","H","0","img/none_selected.jpg","1","0","0","0.3553033444","","false","120","0.3553033444","","main_expt","0.2719994365","","0.08832912692","","0.3498825307","","","","","","",""
"40","","bandit","196","552629","0.0-158.0-0.0","25746364","wem/bandit_single","A2EI075XZT9Y2S","gain","5","","72","H","0","img/none_selected.jpg","1","0","0","0.3558993888","","false","121","0.3558993888","","main_expt","0.2511552987","","0.08322673311","","0.3150568547","","","","","","",""
"21","","bandit","197","554419","0.0-159.0-0.0","25746364","wem/bandit_single","A2EI075XZT9Y2S","gain","5","","72","H","0","img/none_selected.jpg","1","0","0","0.3539125929","","false","122","0.3539125929","","main_expt","0.246059836","","0.1027924146","","0.332296042","","","","","","",""
"22","","bandit","198","556208","0.0-160.0-0.0","25746364","wem/bandit_single","A2EI075XZT9Y2S","gain","5","","72","H","0","img/none_selected.jpg","1","0","0","0.2756210624","","false","123","0.2756210624","","main_expt","0.201637063","","0.1112730508","","0.3023892254","","","","","","",""
"4","","bandit","199","557972","0.0-161.0-0.0","25746364","wem/bandit_single","A2EI075XZT9Y2S","gain","5","","72","H","0","img/none_selected.jpg","0","0","1","0.2924451827","","false","124","0.2924451827","","main_expt","0.2424225803","","0.1401536705","","0.2971441903","","","","","","",""
"41","","bandit","200","559779","0.0-162.0-0.0","25746364","wem/bandit_single","A2EI075XZT9Y2S","gain","5","","76","L","3","","0","0","1","0.2989687221","","false","125","0.3283550958","","main_expt","0.2663511033","","0.170676821","","0.2989687221","","","","","","",""
"309","","bandit","201","561857","0.0-163.0-0.0","25746364","wem/bandit_single","A2EI075XZT9Y2S","gain","5","","72","H","0","img/none_selected.jpg","0","0","1","0.3561713316","","false","126","0.3561713316","","main_expt","0.2214557307","","0.2239131839","","0.3470717071","","","","","","",""
"0","","bandit","202","563620","0.0-164.0-0.0","25746364","wem/bandit_single","A2EI075XZT9Y2S","gain","5","","72","H","0","img/none_selected.jpg","1","0","0","0.3093512765","","false","127","0.3093512765","","main_expt","0.2274120533","","0.1828765327","","0.3399927284","","","","","","",""
"76","","bandit","203","565458","0.0-165.0-0.0","25746364","wem/bandit_single","A2EI075XZT9Y2S","gain","5","","72","H","0","img/none_selected.jpg","1","0","0","0.3682433617","","false","128","0.3682433617","","main_expt","0.2035603578","","0.2182936746","","0.3039142281","","","","","","",""
"488","","bandit","204","567714","0.0-166.0-0.0","25746364","wem/bandit_single","A2EI075XZT9Y2S","gain","5","","72","H","0","img/none_selected.jpg","1","0","0","0.3485983391","","false","129","0.3485983391","","main_expt","0.1571118888","","0.2206976306","","0.331948561","","","","","","",""
"0","","bandit","205","569482","0.0-167.0-0.0","25746364","wem/bandit_single","A2EI075XZT9Y2S","gain","5","","72","H","0","img/none_selected.jpg","0","0","1","0.3907345736","","false","130","0.3907345736","","main_expt","0.08617346002","","0.1657145536","","0.3512730473","","","","","","",""
"562","","bandit","206","571811","0.0-168.0-0.0","25746364","wem/bandit_single","A2EI075XZT9Y2S","gain","5","","72","H","0","img/none_selected.jpg","0","0","1","0.3697977754","","false","131","0.3697977754","","main_expt","0.1196539686","","0.2555784817","","0.3617370935","","","","","","",""
"9","","bandit","207","573585","0.0-169.0-0.0","25746364","wem/bandit_single","A2EI075XZT9Y2S","gain","5","","76","L","3","","0","0","1","0.3520165756","","false","132","0.3916621277","","main_expt","0.1111227042","","0.287060772","","0.3520165756","","","","","","",""
"302","","bandit","208","575650","0.0-170.0-0.0","25746364","wem/bandit_single","A2EI075XZT9Y2S","gain","5","","75","K","2","","0","0","1","0.238965149","","false","133","0.3437671512","","main_expt","0.1223368092","","0.238965149","","0.3863989014","","","","","","",""
"0","","bandit","209","577412","0.0-171.0-0.0","25746364","wem/bandit_single","A2EI075XZT9Y2S","gain","5","","74","J","1","","1","0","0","0.1001486166","","false","134","0.3636108046","","main_expt","0.1001486166","","0.2457001749","","0.3391859262","","","","","","",""
"135","","bandit","210","579314","0.0-172.0-0.0","25746364","wem/bandit_single","A2EI075XZT9Y2S","gain","5","","74","J","1","","0","0","1","0.1179747861","","false","135","0.3251377881","","main_expt","0.1179747861","","0.2499382958","","0.3700101905","","","","","","",""
"77","","bandit","211","581155","0.0-173.0-0.0","25746364","wem/bandit_single","A2EI075XZT9Y2S","gain","5","","72","H","0","img/none_selected.jpg","1","0","0","0.3838305716","","false","136","0.3838305716","","main_expt","0.1167775935","","0.2553087313","","0.3002558999","","","","","","",""
"105","","bandit","212","583027","0.0-174.0-0.0","25746364","wem/bandit_single","A2EI075XZT9Y2S","gain","5","","72","H","0","img/none_selected.jpg","1","0","0","0.374624825","","false","137","0.374624825","","main_expt","0.1459170178","","0.2517181947","","0.3242357935","","","","","","",""
"410","","bandit","213","585203","0.0-175.0-0.0","25746364","wem/bandit_single","A2EI075XZT9Y2S","gain","5","","72","H","0","img/none_selected.jpg","0","0","1","0.36903936","","false","138","0.36903936","","main_expt","0.1403776257","","0.2531469116","","0.3413485239","","","","","","",""
"437","","bandit","214","587410","0.0-176.0-0.0","25746364","wem/bandit_single","A2EI075XZT9Y2S","gain","5","","72","H","0","img/none_selected.jpg","0","0","1","0.3757762965","","false","139","0.3757762965","","main_expt","0.1647502834","","0.2810662396","","0.3172825342","","","","","","",""
"280","","bandit","215","589458","0.0-177.0-0.0","25746364","wem/bandit_single","A2EI075XZT9Y2S","gain","5","","76","L","3","","1","0","0","0.3683668128","","false","140","0.3240643918","","main_expt","0.2135508935","","0.2226737135","","0.3683668128","","","","","","",""
"106","","bandit","216","591332","0.0-178.0-0.0","25746364","wem/bandit_single","A2EI075XZT9Y2S","gain","5","","76","L","3","","0","0","1","0.2976824498","","false","141","0.342151626","","main_expt","0.2286669107","","0.2330331678","","0.2976824498","","","","","","",""
"123","","bandit","217","593217","0.0-179.0-0.0","25746364","wem/bandit_single","A2EI075XZT9Y2S","gain","5","","75","K","2","","1","0","0","0.1833347363","","false","142","0.3576151309","","main_expt","0.1870561284","","0.1833347363","","0.3424177608","","","","","","",""
"413","","bandit","218","595393","0.0-180.0-0.0","25746364","wem/bandit_single","A2EI075XZT9Y2S","gain","5","","75","K","2","","0","0","1","0.2063127673","","false","143","0.3075624404","","main_expt","0.220851353","","0.2063127673","","0.3367953268","","","","","","",""
"30","","bandit","219","597188","0.0-181.0-0.0","25746364","wem/bandit_single","A2EI075XZT9Y2S","gain","5","","76","L","3","","0","0","1","0.3446852995","","false","144","0.3666812205","","main_expt","0.1581776843","","0.24054226","","0.3446852995","","","","","","",""
"49","","bandit","220","599012","0.0-182.0-0.0","25746364","wem/bandit_single","A2EI075XZT9Y2S","gain","5","","75","K","2","","0","0","1","0.3397881996","","false","145","0.373264243","","main_expt","0.1562309797","","0.3397881996","","0.3569090532","","","","","","",""
"377","","bandit","221","601153","0.0-183.0-0.0","25746364","wem/bandit_single","A2EI075XZT9Y2S","gain","5","","72","H","0","img/none_selected.jpg","0","0","1","0.3588440804","","false","146","0.3588440804","","main_expt","0.201277092","","0.334771558","","0.3546691234","","","","","","",""
"14","","bandit","222","602933","0.0-184.0-0.0","25746364","wem/bandit_single","A2EI075XZT9Y2S","gain","5","","74","J","1","","0","0","1","0.2014254916","","false","147","0.3848898601","","main_expt","0.2014254916","","0.3135854179","","0.3346193534","","","","","","",""
"59","","bandit","223","604754","0.0-185.0-0.0","25746364","wem/bandit_single","A2EI075XZT9Y2S","gain","5","","76","L","3","","0","0","1","0.3481099765","","false","148","0.4049875018","","main_expt","0.1783642851","","0.2601716543","","0.3481099765","","","","","","",""
"119","","bandit","224","606642","0.0-186.0-0.0","25746364","wem/bandit_single","A2EI075XZT9Y2S","gain","5","","72","H","0","img/none_selected.jpg","0","0","1","0.3644303146","","false","149","0.3644303146","","main_expt","0.2394621943","","0.2449203511","","0.3473239498","","","","","","",""
"35","","bandit","225","608450","0.0-187.0-0.0","25746364","wem/bandit_single","A2EI075XZT9Y2S","gain","5","","75","K","2","","1","0","0","0.2679682766","","false","150","0.3820895465","","main_expt","0.2009439561","","0.2679682766","","0.3457177179","","","","","","",""
"142","","bandit","226","610355","0.0-188.0-0.0","25746364","wem/bandit_single","A2EI075XZT9Y2S","gain","5","","75","K","2","","1","0","0","0.2811524043","","false","151","0.3715335383","","main_expt","0.1783838281","","0.2811524043","","0.3131990842","","","","","","",""
"6631","","bandit","227","618754","0.0-189.0-0.0","25746364","wem/bandit_single","A2EI075XZT9Y2S","gain","5","","76","L","3","","0","0","1","0.2632978047","","false","152","0.3270427106","","main_expt","0.2357029213","","0.2320671432","","0.2632978047","","","","","","",""
"8","","bandit","228","620530","0.0-190.0-0.0","25746364","wem/bandit_single","A2EI075XZT9Y2S","gain","5","","75","K","2","","0","0","1","0.2655606304","","false","153","0.3117301263","","main_expt","0.1701289497","","0.2655606304","","0.2782579121","","","","","","",""
"40","","bandit","229","622339","0.0-191.0-0.0","25746364","wem/bandit_single","A2EI075XZT9Y2S","gain","5","","72","H","0","img/none_selected.jpg","0","0","1","0.2860829053","","false","154","0.2860829053","","main_expt","0.1613436629","","0.3485425359","","0.2212449789","","","","","","",""
"343","","bandit","230","624452","0.0-192.0-0.0","25746364","wem/bandit_single","A2EI075XZT9Y2S","gain","5","","76","L","3","","0","0","1","0.1944586175","","false","155","0.2412247214","","main_expt","0.1419994917","","0.3302543019","","0.1944586175","","","","","","",""
"27","","bandit","231","626246","0.0-193.0-0.0","25746364","wem/bandit_single","A2EI075XZT9Y2S","gain","5","","75","K","2","","0","0","1","0.2696600886","","false","156","0.2505935016","","main_expt","0.2076402971","","0.2696600886","","0.2035424954","","","","","","",""
"8","","bandit","232","628018","0.0-194.0-0.0","25746364","wem/bandit_single","A2EI075XZT9Y2S","gain","5","","72","H","0","img/none_selected.jpg","0","0","1","0.2677381881","","false","157","0.2677381881","","main_expt","0.2253974945","","0.3095791192","","0.2039725598","","","","","","",""
"380","","bandit","233","630165","0.0-195.0-0.0","25746364","wem/bandit_single","A2EI075XZT9Y2S","gain","5","","74","J","1","","0","0","1","0.3173726248","","false","158","0.228073272","","main_expt","0.3173726248","","0.3427908005","","0.1610126092","","","","","","",""
"42","","bandit","234","631970","0.0-196.0-0.0","25746364","wem/bandit_single","A2EI075XZT9Y2S","gain","5","","76","L","3","","0","0","1","0.2244023171","","false","159","0.2181731157","","main_expt","0.2929560982","","0.3459652535","","0.2244023171","","","","","","",""
"329","","bandit","235","634066","0.0-197.0-0.0","25746364","wem/bandit_single","A2EI075XZT9Y2S","gain","5","","75","K","2","","0","0","1","0.3277363444","","false","160","0.2483475363","","main_expt","0.2599130114","","0.3277363444","","0.2550463449","","","","","","",""
"327","","bandit","236","636161","0.0-198.0-0.0","25746364","wem/bandit_single","A2EI075XZT9Y2S","gain","5","","75","K","2","","0","0","1","0.3043896987","","false","161","0.2287268475","","main_expt","0.3006759107","","0.3043896987","","0.1988840894","","","","","","",""
"51","","bandit","237","637973","0.0-199.0-0.0","25746364","wem/bandit_single","A2EI075XZT9Y2S","gain","5","","76","L","3","","0","0","1","0.3208820199","","false","162","0.2118340618","","main_expt","0.3359074288","","0.3013302692","","0.3208820199","","","","","","",""
"344","","bandit","238","640081","0.0-200.0-0.0","25746364","wem/bandit_single","A2EI075XZT9Y2S","gain","5","","72","H","0","img/none_selected.jpg","0","0","1","0.2467500447","","false","163","0.2467500447","","main_expt","0.3248254093","","0.3359404133","","0.3416291965","","","","","","",""
"11","","bandit","239","641857","0.0-201.0-0.0","25746364","wem/bandit_single","A2EI075XZT9Y2S","gain","5","","72","H","0","img/none_selected.jpg","0","0","1","0.2745506496","","false","164","0.2745506496","","main_expt","0.2480447101","","0.3449747326","","0.3531125991","","","","","","",""
"15","","bandit","240","643633","0.0-202.0-0.0","25746364","wem/bandit_single","A2EI075XZT9Y2S","gain","5","","76","L","3","","0","0","1","0.3329293945","","false","165","0.2893970703","","main_expt","0.2291527929","","0.3388680014","","0.3329293945","","","","","","",""
"431","","bandit","241","645826","0.0-203.0-0.0","25746364","wem/bandit_single","A2EI075XZT9Y2S","gain","5","","74","J","1","","1","0","0","0.2408823094","","false","166","0.326956194","","main_expt","0.2408823094","","0.3565097084","","0.368824295","","","","","","",""
"118","","bandit","242","647714","0.0-204.0-0.0","25746364","wem/bandit_single","A2EI075XZT9Y2S","gain","5","","74","J","1","","0","0","1","0.1852653973","","false","167","0.2562538154","","main_expt","0.1852653973","","0.3807311224","","0.3528049135","","","","","","",""
"12","","bandit","243","649490","0.0-205.0-0.0","25746364","wem/bandit_single","A2EI075XZT9Y2S","gain","5","","75","K","2","","0","0","1","0.4157533759","","false","168","0.259707785","","main_expt","0.1123614246","","0.4157533759","","0.3530437727","","","","","","",""
"53","","bandit","244","651314","0.0-206.0-0.0","25746364","wem/bandit_single","A2EI075XZT9Y2S","gain","5","","76","L","3","","0","0","1","0.3619584092","","false","169","0.305903145","","main_expt","0.1289140747","","0.3990846218","","0.3619584092","","","","","","",""
"426","","bandit","245","653506","0.0-207.0-0.0","25746364","wem/bandit_single","A2EI075XZT9Y2S","gain","5","","74","J","1","","0","0","1","0.1082073398","","false","170","0.2780458482","","main_expt","0.1082073398","","0.3840903594","","0.3851568221","","","","","","",""
"368","","bandit","246","655633","0.0-208.0-0.0","25746364","wem/bandit_single","A2EI075XZT9Y2S","gain","5","","72","H","0","img/none_selected.jpg","0","0","1","0.2754425626","","false","171","0.2754425626","","main_expt","0.09560917383","","0.4279034191","","0.369821393","","","","","","",""
"111","","bandit","247","657507","0.0-209.0-0.0","25746364","wem/bandit_single","A2EI075XZT9Y2S","gain","5","","76","L","3","","0","0","1","0.3238500873","","false","172","0.2801866594","","main_expt","0.09002122866","","0.4277210969","","0.3238500873","","","","","","",""
"17","","bandit","248","659297","0.0-210.0-0.0","25746364","wem/bandit_single","A2EI075XZT9Y2S","gain","5","","75","K","2","","1","0","0","0.4177409887","","false","173","0.2903169923","","main_expt","0.06359212806","","0.4177409887","","0.371178543","","","","","","",""
"412","","bandit","249","661475","0.0-211.0-0.0","25746364","wem/bandit_single","A2EI075XZT9Y2S","gain","5","","75","K","2","","0","0","1","0.4149019111","","false","174","0.3135769273","","main_expt","0.07897407323","","0.4149019111","","0.364968973","","","","","","",""
"53","","bandit","250","663298","0.0-212.0-0.0","25746364","wem/bandit_single","A2EI075XZT9Y2S","gain","5","","75","K","2","","0","0","1","0.3890834012","","false","175","0.3205535054","","main_expt","0.05374651045","","0.3890834012","","0.4172857806","","","","","","",""
"47","","bandit","251","665107","0.0-213.0-0.0","25746364","wem/bandit_single","A2EI075XZT9Y2S","gain","5","","76","L","3","","1","0","0","0.3931137538","","false","176","0.3548310205","","main_expt","0.05298342689","","0.3775492635","","0.3931137538","","","","","","",""
"389","","bandit","252","667266","0.0-214.0-0.0","25746364","wem/bandit_single","A2EI075XZT9Y2S","gain","5","","76","L","3","","0","0","1","0.4118750583","","false","177","0.3374760958","","main_expt","0.04117570961","","0.2763311933","","0.4118750583","","","","","","",""
"31","","bandit","253","669057","0.0-215.0-0.0","25746364","wem/bandit_single","A2EI075XZT9Y2S","gain","5","","76","L","3","","1","0","0","0.4019835374","","false","178","0.3045899674","","main_expt","0.0682688674","","0.2117274321","","0.4019835374","","","","","","",""
"8","","bandit","254","670835","0.0-216.0-0.0","25746364","wem/bandit_single","A2EI075XZT9Y2S","gain","5","","76","L","3","","1","0","0","0.3943962464","","false","179","0.2701203387","","main_expt","0.0699035784","","0.2071796451","","0.3943962464","","","","","","",""
"30","","bandit","255","672630","0.0-217.0-0.0","25746364","wem/bandit_single","A2EI075XZT9Y2S","gain","5","","76","L","3","","0","0","1","0.3879360396","","false","180","0.3010541938","","main_expt","0.08066818268","","0.2237333922","","0.3879360396","","","","","","",""
"343","","bandit","256","674738","0.0-218.0-0.0","25746364","wem/bandit_single","A2EI075XZT9Y2S","gain","5","","76","L","3","","0","0","1","0.3516035239","","false","181","0.2685782119","","main_expt","0.06418194011","","0.1462221579","","0.3516035239","","","","","","",""
"102","","bandit","257","676610","0.0-219.0-0.0","25746364","wem/bandit_single","A2EI075XZT9Y2S","gain","5","","75","K","2","","0","0","1","0.1745001591","","false","182","0.2333395507","","main_expt","0.05948248489","","0.1745001591","","0.3544849886","","","","","","",""
"454","","bandit","258","678834","0.0-220.0-0.0","25746364","wem/bandit_single","A2EI075XZT9Y2S","gain","5","","76","L","3","","1","0","0","0.3239224462","","false","183","0.1817222791","","main_expt","0.04249263759","","0.1840457003","","0.3239224462","","","","","","",""
"222","","bandit","259","680819","0.0-221.0-0.0","25746364","wem/bandit_single","A2EI075XZT9Y2S","gain","5","","76","L","3","","1","0","0","0.3437575642","","false","184","0.1946528514","","main_expt","0.05174265856","","0.1684271963","","0.3437575642","","","","","","",""
"21","","bandit","260","682609","0.0-222.0-0.0","25746364","wem/bandit_single","A2EI075XZT9Y2S","gain","5","","76","L","3","","1","0","0","0.3584643827","","false","185","0.1998780622","","main_expt","0.04700335152","","0.1820742113","","0.3584643827","","","","","","",""
"379","","bandit","261","684755","0.0-223.0-0.0","25746364","wem/bandit_single","A2EI075XZT9Y2S","gain","5","","76","L","3","","0","0","1","0.3968797112","","false","186","0.2674223733","","main_expt","0.0651928762","","0.2156320388","","0.3968797112","","","","","","",""
"7","","bandit","262","686529","0.0-224.0-0.0","25746364","wem/bandit_single","A2EI075XZT9Y2S","gain","5","","76","L","3","","0","0","1","0.3851297664","","false","187","0.2625155344","","main_expt","0.1006801651","","0.2805416817","","0.3851297664","","","","","","",""
"379","","bandit","263","688674","0.0-225.0-0.0","25746364","wem/bandit_single","A2EI075XZT9Y2S","gain","5","","72","H","0","img/none_selected.jpg","0","0","1","0.2428845682","","false","188","0.2428845682","","main_expt","0.1650650448","","0.255869765","","0.3861445831","","","","","","",""
"456","","bandit","264","690898","0.0-226.0-0.0","25746364","wem/bandit_single","A2EI075XZT9Y2S","gain","5","","76","L","3","","0","0","1","0.3904601473","","false","189","0.2017656849","","main_expt","0.1545550266","","0.1757761595","","0.3904601473","","","","","","",""
"437","","bandit","265","693106","0.0-227.0-0.0","25746364","wem/bandit_single","A2EI075XZT9Y2S","gain","5","","75","K","2","","0","0","1","0.1346649685","","false","190","0.2163316772","","main_expt","0.187471884","","0.1346649685","","0.430863334","","","","","","",""
"9","","bandit","266","694885","0.0-228.0-0.0","25746364","wem/bandit_single","A2EI075XZT9Y2S","gain","5","","76","L","3","","0","0","1","0.4113524325","","false","191","0.2055350187","","main_expt","0.1611513775","","0.1132332922","","0.4113524325","","","","","","",""
"468","","bandit","267","697121","0.0-229.0-0.0","25746364","wem/bandit_single","A2EI075XZT9Y2S","gain","5","","74","J","1","","0","0","1","0.1777959463","","false","192","0.1895719249","","main_expt","0.1777959463","","0.1208943264","","0.4039805352","","","","","","",""
"359","","bandit","268","699250","0.0-230.0-0.0","25746364","wem/bandit_single","A2EI075XZT9Y2S","gain","5","","76","L","3","","0","0","1","0.4245567291","","false","193","0.1748526562","","main_expt","0.1871499601","","0.1939792015","","0.4245567291","","","","","","",""
"10","","bandit","269","701027","0.0-231.0-0.0","25746364","wem/bandit_single","A2EI075XZT9Y2S","gain","5","","72","H","0","img/none_selected.jpg","1","0","0","0.1474168317","","false","194","0.1474168317","","main_expt","0.1876497678","","0.16637132","","0.3947968319","","","","","","",""
"143","","bandit","270","702947","0.0-232.0-0.0","25746364","wem/bandit_single","A2EI075XZT9Y2S","gain","5","","72","H","0","img/none_selected.jpg","0","0","1","0.192031623","","false","195","0.192031623","","main_expt","0.1091892437","","0.1730885183","","0.4142863389","","","","","","",""
"38","","bandit","271","704754","0.0-233.0-0.0","25746364","wem/bandit_single","A2EI075XZT9Y2S","gain","5","","72","H","0","img/none_selected.jpg","1","0","0","0.2058404012","","false","196","0.2058404012","","main_expt","0.1617114059","","0.215114198","","0.4233691667","","","","","","",""
"38","","bandit","272","706563","0.0-234.0-0.0","25746364","wem/bandit_single","A2EI075XZT9Y2S","gain","5","","72","H","0","img/none_selected.jpg","0","0","1","0.2424759238","","false","197","0.2424759238","","main_expt","0.1704243662","","0.2080771369","","0.3910113043","","","","","","",""
"175","","bandit","273","708499","0.0-235.0-0.0","25746364","wem/bandit_single","A2EI075XZT9Y2S","gain","5","","76","L","3","","1","0","0","0.4036427912","","false","198","0.2209877853","","main_expt","0.1547158464","","0.2349601263","","0.4036427912","","","","","","",""
"1","","bandit","274","710274","0.0-236.0-0.0","25746364","wem/bandit_single","A2EI075XZT9Y2S","gain","5","","76","L","3","","1","0","0","0.4211573591","","false","199","0.2167038869","","main_expt","0.1871633293","","0.2603506135","","0.4211573591","","","","","","",""
"39","","bandit","275","712082","0.0-237.0-0.0","25746364","wem/bandit_single","A2EI075XZT9Y2S","gain","5","","76","L","3","","0","0","1","0.4279321675","","false","200","0.1923465651","","main_expt","0.2044595191","","0.3238520586","","0.4279321675","","","","","","",""
"540","","bandit","276","714387","0.0-238.0-0.0","25746364","wem/bandit_single","A2EI075XZT9Y2S","gain","5","","76","L","3","","0","0","1","0.4164542871","","false","201","0.2292217674","","main_expt","0.2260370877","","0.3006478669","","0.4164542871","","","","","","",""
"23","","bandit","277","716179","0.0-239.0-0.0","25746364","wem/bandit_single","A2EI075XZT9Y2S","gain","5","","72","H","0","img/none_selected.jpg","1","0","0","0.2458551357","","false","202","0.2458551357","","main_expt","0.2543806879","","0.2728804465","","0.4304584766","","","","","","",""
"10","","bandit","278","717961","0.0-240.0-0.0","25746364","wem/bandit_single","A2EI075XZT9Y2S","gain","5","","72","H","0","img/none_selected.jpg","0","0","1","0.2388066436","","false","203","0.2388066436","","main_expt","0.248330882","","0.3070028205","","0.4301844238","","","","","","",""
"31","","bandit","279","719761","0.0-241.0-0.0","25746364","wem/bandit_single","A2EI075XZT9Y2S","gain","5","","75","K","2","","0","0","1","0.2937269753","","false","204","0.2087278664","","main_expt","0.272777159","","0.2937269753","","0.3900297032","","","","","","",""
"286","","bandit","280","721810","0.0-242.0-0.0","25746364","wem/bandit_single","A2EI075XZT9Y2S","gain","5","","72","H","0","img/none_selected.jpg","1","0","0","0.1498191458","","false","205","0.1498191458","","main_expt","0.3434557908","","0.2378968556","","0.3928583167","","","","","","",""
"57","","bandit","281","723634","0.0-243.0-0.0","25746364","wem/bandit_single","A2EI075XZT9Y2S","gain","5","","72","H","0","img/none_selected.jpg","0","0","1","0.1173401749","","false","206","0.1173401749","","main_expt","0.3670462125","","0.2621799838","","0.4066069638","","","","","","",""
"353","","bandit","282","725746","0.0-244.0-0.0","25746364","wem/bandit_single","A2EI075XZT9Y2S","gain","5","","76","L","3","","1","0","0","0.3973448409","","false","207","0.131911627","","main_expt","0.3762900352","","0.2751860601","","0.3973448409","","","","","","",""
"117","","bandit","283","727633","0.0-245.0-0.0","25746364","wem/bandit_single","A2EI075XZT9Y2S","gain","5","","76","L","3","","0","0","1","0.4149937731","","false","208","0.121614138","","main_expt","0.3619644859","","0.2449975294","","0.4149937731","","","","","","",""
"352","","bandit","284","729746","0.0-246.0-0.0","25746364","wem/bandit_single","A2EI075XZT9Y2S","gain","5","","72","H","0","img/none_selected.jpg","0","0","1","0.1301565943","","false","209","0.1301565943","","main_expt","0.3487947413","","0.2260792918","","0.4174336027","","","","","","",""
"317","","bandit","285","731828","0.0-247.0-0.0","25746364","wem/bandit_single","A2EI075XZT9Y2S","gain","5","","76","L","3","","0","0","1","0.3969791934","","false","210","0.09603783024","","main_expt","0.3019817091","","0.2506868781","","0.3969791934","","","","","","",""
"34","","bandit","286","733633","0.0-248.0-0.0","25746364","wem/bandit_single","A2EI075XZT9Y2S","gain","5","","76","L","3","","1","0","0","0.4109689779","","false","211","0.09853312819","","main_expt","0.3322841588","","0.2364470615","","0.4109689779","","","","","","",""
"80","","bandit","287","735475","0.0-249.0-0.0","25746364","wem/bandit_single","A2EI075XZT9Y2S","gain","5","","76","L","3","","0","0","1","0.3870841375","","false","212","0.08497623984","","main_expt","0.3257981887","","0.2097336517","","0.3870841375","","","","","","",""
"7","","bandit","288","737251","0.0-250.0-0.0","25746364","wem/bandit_single","A2EI075XZT9Y2S","gain","5","","72","H","0","img/none_selected.jpg","0","0","1","0.0690536233","","false","213","0.0690536233","","main_expt","0.299150427","","0.223293056","","0.3702451026","","","","","","",""
"42","","bandit","289","739058","0.0-251.0-0.0","25746364","wem/bandit_single","A2EI075XZT9Y2S","gain","5","","75","K","2","","0","0","1","0.2797804449","","false","214","0.05607702273","","main_expt","0.2841516905","","0.2797804449","","0.4052473305","","","","","","",""
"9","","bandit","290","740840","0.0-252.0-0.0","25746364","wem/bandit_single","A2EI075XZT9Y2S","gain","5","","76","L","3","","0","0","1","0.4003088938","","false","215","0.0612243178","","main_expt","0.2421432752","","0.3307304153","","0.4003088938","","","","","","",""
"112","","bandit","291","742723","0.0-253.0-0.0","25746364","wem/bandit_single","A2EI075XZT9Y2S","gain","5","","76","L","3","","0","0","1","0.4087675299","","false","216","0.03010565971","","main_expt","0.1705338946","","0.3341057131","","0.4087675299","","","","","","",""
"220","","bandit","292","744706","0.0-254.0-0.0","25746364","wem/bandit_single","A2EI075XZT9Y2S","gain","5","","72","H","0","img/none_selected.jpg","0","0","1","0.05034411961","","false","217","0.05034411961","","main_expt","0.219014384","","0.3086359365","","0.3947963157","","","","","","",""
"256","","bandit","293","746723","0.0-255.0-0.0","25746364","wem/bandit_single","A2EI075XZT9Y2S","gain","5","","76","L","3","","0","0","1","0.4200256015","","false","218","0.03278593655","","main_expt","0.2135739311","","0.370061562","","0.4200256015","","","","","","",""
"313","","bandit","294","748803","0.0-256.0-0.0","25746364","wem/bandit_single","A2EI075XZT9Y2S","gain","5","","72","H","0","img/none_selected.jpg","0","0","1","0.02968551415","","false","219","0.02968551415","","main_expt","0.1719688778","","0.3425962001","","0.3845181055","","","","","","",""
"353","","bandit","295","750918","0.0-257.0-0.0","25746364","wem/bandit_single","A2EI075XZT9Y2S","gain","5","","75","K","2","","1","0","0","0.3200162658","","false","220","0.03392365282","","main_expt","0.1017501311","","0.3200162658","","0.3200105211","","","","","","",""
"181","","bandit","296","752867","0.0-258.0-0.0","25746364","wem/bandit_single","A2EI075XZT9Y2S","gain","5","","75","K","2","","0","0","1","0.3209906652","","false","221","0.03139192041","","main_expt","0.1121412156","","0.3209906652","","0.297673658","","","","","","",""
"21","","bandit","297","754659","0.0-259.0-0.0","25746364","wem/bandit_single","A2EI075XZT9Y2S","gain","5","","74","J","1","","0","0","1","0.1091313961","","false","222","0.02842311261","","main_expt","0.1091313961","","0.3013890172","","0.2963768597","","","","","","",""
"8","","bandit","298","756435","0.0-260.0-0.0","25746364","wem/bandit_single","A2EI075XZT9Y2S","gain","5","","72","H","0","img/none_selected.jpg","0","0","1","0.0287580325","","false","223","0.0287580325","","main_expt","0.09983876589","","0.2614115174","","0.2927297303","","","","","","",""
"24","","bandit","299","758227","0.0-261.0-0.0","25746364","wem/bandit_single","A2EI075XZT9Y2S","gain","5","","76","L","3","","1","0","0","0.2751498343","","false","224","0.02300930076","","main_expt","0.1018501693","","0.2490141009","","0.2751498343","","","","","","",""
"70","","bandit","300","760067","0.0-262.0-0.0","25746364","wem/bandit_single","A2EI075XZT9Y2S","gain","5","","76","L","3","","1","0","0","0.2377617529","","false","225","0.02989568437","","main_expt","0.1222407881","","0.263459589","","0.2377617529","","","","","","",""
"218","","bandit","301","762055","0.0-263.0-0.0","25746364","wem/bandit_single","A2EI075XZT9Y2S","gain","5","","76","L","3","","0","0","1","0.2137681397","","false","226","0.04233903912","","main_expt","0.1332846515","","0.2828917593","","0.2137681397","","","","","","",""
"391","","bandit","302","764212","0.0-264.0-0.0","25746364","wem/bandit_single","A2EI075XZT9Y2S","gain","5","","76","L","3","","0","0","1","0.1830623781","","false","227","0.0317259717","","main_expt","0.1606351014","","0.2635957152","","0.1830623781","","","","","","",""
"169","","bandit","303","766148","0.0-265.0-0.0","25746364","wem/bandit_single","A2EI075XZT9Y2S","gain","5","","72","H","0","img/none_selected.jpg","0","0","1","0.04253553249","","false","228","0.04253553249","","main_expt","0.1292420082","","0.259674247","","0.1665925442","","","","","","",""
"420","","bandit","304","768339","0.0-266.0-0.0","25746364","wem/bandit_single","A2EI075XZT9Y2S","gain","5","","76","L","3","","0","0","1","0.2136718414","","false","229","0.06761640147","","main_expt","0.1281284096","","0.2737318667","","0.2136718414","","","","","","",""
"211","","bandit","305","770323","0.0-267.0-0.0","25746364","wem/bandit_single","A2EI075XZT9Y2S","gain","5","","72","H","0","img/none_selected.jpg","0","0","1","0.08572380951","","false","230","0.08572380951","","main_expt","0.0791291566","","0.3195589589","","0.2435987791","","","","","","",""
"40","","bandit","306","772133","0.0-268.0-0.0","25746364","wem/bandit_single","A2EI075XZT9Y2S","gain","5","","75","K","2","","0","0","1","0.3304270948","","false","231","0.07272236896","","main_expt","0.10920453","","0.3304270948","","0.2566168121","","","","","","",""
"404","","bandit","307","774308","0.0-269.0-0.0","25746364","wem/bandit_single","A2EI075XZT9Y2S","gain","5","","76","L","3","","0","0","1","0.2152843379","","false","232","0.0735724775","","main_expt","0.167261158","","0.2806951239","","0.2152843379","","","","","","",""
"5","","bandit","308","776084","0.0-270.0-0.0","25746364","wem/bandit_single","A2EI075XZT9Y2S","gain","5","","72","H","0","img/none_selected.jpg","0","0","1","0.06465645962","","false","233","0.06465645962","","main_expt","0.1078973024","","0.3115261247","","0.2361400262","","","","","","",""
"283","","bandit","309","778132","0.0-271.0-0.0","25746364","wem/bandit_single","A2EI075XZT9Y2S","gain","5","","76","L","3","","0","0","1","0.2575526348","","false","234","0.04279198238","","main_expt","0.2366146445","","0.3001083946","","0.2575526348","","","","","","",""
"72","","bandit","310","779969","0.0-272.0-0.0","25746364","wem/bandit_single","A2EI075XZT9Y2S","gain","5","","76","L","3","","0","0","1","0.2828430508","","false","235","0.06672803397","","main_expt","0.2393051992","","0.2768541542","","0.2828430508","","","","","","",""
"5","","bandit","311","781747","0.0-273.0-0.0","25746364","wem/bandit_single","A2EI075XZT9Y2S","gain","5","","76","L","3","","1","0","0","0.2860482958","","false","236","0.07100342573","","main_expt","0.2976693115","","0.332362789","","0.2860482958","","","","","","",""
"395","","bandit","312","783907","0.0-274.0-0.0","25746364","wem/bandit_single","A2EI075XZT9Y2S","gain","5","","76","L","3","","1","0","0","0.2783023894","","false","237","0.03680589181","","main_expt","0.2674299269","","0.3408832027","","0.2783023894","","","","","","",""
"313","","bandit","313","785987","0.0-275.0-0.0","25746364","wem/bandit_single","A2EI075XZT9Y2S","gain","5","","76","L","3","","0","0","1","0.2644861187","","false","238","0.02733344458","","main_expt","0.2647207175","","0.362117859","","0.2644861187","","","","","","",""
"168","","bandit","314","787923","0.0-276.0-0.0","25746364","wem/bandit_single","A2EI075XZT9Y2S","gain","5","","76","L","3","","0","0","1","0.3186717024","","false","239","0.01831396817","","main_expt","0.1936342125","","0.3574250999","","0.3186717024","","","","","","",""
"101","","bandit","315","789796","0.0-277.0-0.0","25746364","wem/bandit_single","A2EI075XZT9Y2S","gain","5","","76","L","3","","0","0","1","0.3360375491","","false","240","0.01383764992","","main_expt","0.2382432393","","0.290436356","","0.3360375491","","","","","","",""
"311","","bandit","316","791875","0.0-278.0-0.0","25746364","wem/bandit_single","A2EI075XZT9Y2S","gain","5","","72","H","0","img/none_selected.jpg","0","0","1","0.0277662638","","false","241","0.0277662638","","main_expt","0.2984572788","","0.3414967811","","0.3386213473","","","","","","",""
"342","","bandit","317","793988","0.0-279.0-0.0","25746364","wem/bandit_single","A2EI075XZT9Y2S","gain","5","","75","K","2","","0","0","1","0.3778608287","","false","242","0.04064120638","","main_expt","0.2927867707","","0.3778608287","","0.3523037021","","","","","","",""
"5","","bandit","318","795763","0.0-280.0-0.0","25746364","wem/bandit_single","A2EI075XZT9Y2S","gain","5","","76","L","3","","0","0","1","0.360543067","","false","243","0.04640587852","","main_expt","0.2870713985","","0.3552630766","","0.360543067","","","","","","",""
"222","","bandit","319","797762","0.0-281.0-0.0","25746364","wem/bandit_single","A2EI075XZT9Y2S","gain","5","","76","L","3","","0","0","1","0.3728786331","","false","244","0.06567084485","","main_expt","0.2882437102","","0.3538674815","","0.3728786331","","","","","","",""
"189","","bandit","320","799714","0.0-282.0-0.0","25746364","wem/bandit_single","A2EI075XZT9Y2S","gain","5","","76","L","3","","0","0","1","0.3736501537","","false","245","0.1069305933","","main_expt","0.3125457984","","0.3592745223","","0.3736501537","","","","","","",""
"155","","bandit","321","801634","0.0-283.0-0.0","25746364","wem/bandit_single","A2EI075XZT9Y2S","gain","5","","76","L","3","","0","0","1","0.3880614915","","false","246","0.07318543846","","main_expt","0.2949331023","","0.3784559109","","0.3880614915","","","","","","",""
"366","","bandit","322","803765","0.0-284.0-0.0","25746364","wem/bandit_single","A2EI075XZT9Y2S","gain","5","","72","H","0","img/none_selected.jpg","0","0","1","0.06866628372","","false","247","0.06866628372","","main_expt","0.3557375168","","0.3871101473","","0.3906355486","","","","","","",""
"206","","bandit","323","805731","0.0-285.0-0.0","25746364","wem/bandit_single","A2EI075XZT9Y2S","gain","5","","76","L","3","","1","0","0","0.3713177951","","false","248","0.06101724449","","main_expt","0.3190142928","","0.366594806","","0.3713177951","","","","","","",""
"43","","bandit","324","807536","0.0-286.0-0.0","25746364","wem/bandit_single","A2EI075XZT9Y2S","gain","5","","76","L","3","","0","0","1","0.2887643678","","false","249","0.07132197128","","main_expt","0.2946857214","","0.35265903","","0.2887643678","","","","","","",""
"460","","bandit","325","809763","0.0-287.0-0.0","25746364","wem/bandit_single","A2EI075XZT9Y2S","gain","5","","76","L","3","","1","0","0","0.3503459773","","false","250","0.04991986053","","main_expt","0.285145352","","0.3725690128","","0.3503459773","","","","","","",""
"422","","bandit","326","811954","0.0-288.0-0.0","25746364","wem/bandit_single","A2EI075XZT9Y2S","gain","5","","76","L","3","","0","0","1","0.3900307368","","false","251","0.087584861","","main_expt","0.2572530626","","0.3516217444","","0.3900307368","","","","","","",""
"25","","bandit","327","813746","0.0-289.0-0.0","25746364","wem/bandit_single","A2EI075XZT9Y2S","gain","5","","76","L","3","","0","0","1","0.3998204568","","false","252","0.1089760904","","main_expt","0.206609756","","0.3478664427","","0.3998204568","","","","","","",""
"12","","bandit","328","815523","0.0-290.0-0.0","25746364","wem/bandit_single","A2EI075XZT9Y2S","gain","5","","76","L","3","","0","0","1","0.4062214202","","false","253","0.1389783028","","main_expt","0.2526850855","","0.2845216812","","0.4062214202","","","","","","",""
"120","","bandit","329","817409","0.0-291.0-0.0","25746364","wem/bandit_single","A2EI075XZT9Y2S","gain","5","","75","K","2","","0","0","1","0.3395138109","","false","254","0.1438582992","","main_expt","0.2143143283","","0.3395138109","","0.434330363","","","","","","",""
"85","","bandit","330","819267","0.0-292.0-0.0","25746364","wem/bandit_single","A2EI075XZT9Y2S","gain","5","","76","L","3","","0","0","1","0.463361135","","false","255","0.1341592381","","main_expt","0.2330346229","","0.284072963","","0.463361135","","","","","","",""
"3","","bandit","331","821041","0.0-293.0-0.0","25746364","wem/bandit_single","A2EI075XZT9Y2S","gain","5","","72","H","0","img/none_selected.jpg","0","0","1","0.1539827047","","false","256","0.1539827047","","main_expt","0.1707848091","","0.2791977035","","0.4513325925","","","","","","",""
"410","","bandit","332","823218","0.0-294.0-0.0","25746364","wem/bandit_single","A2EI075XZT9Y2S","gain","5","","76","L","3","","1","0","0","0.4493477618","","false","257","0.1067893116","","main_expt","0.204762461","","0.2827618753","","0.4493477618","","","","","","",""
"36","","bandit","333","825025","0.0-295.0-0.0","25746364","wem/bandit_single","A2EI075XZT9Y2S","gain","5","","76","L","3","","1","0","0","0.4586876348","","false","258","0.05021154971","","main_expt","0.1678630312","","0.2367173663","","0.4586876348","","","","","","",""
"451","","bandit","334","827250","0.0-296.0-0.0","25746364","wem/bandit_single","A2EI075XZT9Y2S","gain","5","","76","L","3","","0","0","1","0.45931789","","false","259","0.04357518244","","main_expt","0.1739170557","","0.2715647874","","0.45931789","","","","","","",""
"33","","bandit","335","829057","0.0-297.0-0.0","25746364","wem/bandit_single","A2EI075XZT9Y2S","gain","5","","76","L","3","","0","0","1","0.4583289396","","false","260","0.05606835832","","main_expt","0.1848885371","","0.2310951927","","0.4583289396","","","","","","",""
"7","","bandit","336","830834","0.0-298.0-0.0","25746364","wem/bandit_single","A2EI075XZT9Y2S","gain","5","","72","H","0","img/none_selected.jpg","0","0","1","0.05035703518","","false","261","0.05035703518","","main_expt","0.2258440324","","0.2297288133","","0.4470277171","","","","","","",""
"326","","bandit","337","832930","0.0-299.0-0.0","25746364","wem/bandit_single","A2EI075XZT9Y2S","gain","5","","76","L","3","","1","0","0","0.457772586","","false","262","0.04352905051","","main_expt","0.2167220908","","0.2072969611","","0.457772586","","","","","","",""
"50","","bandit","338","834755","0.0-300.0-0.0","25746364","wem/bandit_single","A2EI075XZT9Y2S","gain","5","","76","L","3","","0","0","1","0.417694616","","false","263","0.0373968872","","main_expt","0.2118780444","","0.2427077321","","0.417694616","","","","","","",""
"343","","bandit","339","836870","0.0-301.0-0.0","25746364","wem/bandit_single","A2EI075XZT9Y2S","gain","5","","76","L","3","","1","0","0","0.4214939516","","false","264","0.04440415955","","main_expt","0.1870566281","","0.3052561595","","0.4214939516","","","","","","",""
"32","","bandit","340","838675","0.0-302.0-0.0","25746364","wem/bandit_single","A2EI075XZT9Y2S","gain","5","","76","L","3","","0","0","1","0.413465883","","false","265","0.0139225964","","main_expt","0.1706127143","","0.3000319327","","0.413465883","","","","","","",""
"19","","bandit","341","840465","0.0-303.0-0.0","25746364","wem/bandit_single","A2EI075XZT9Y2S","gain","5","","76","L","3","","1","0","0","0.4116424673","","false","266","0.01259799349","","main_expt","0.1693140566","","0.3134404232","","0.4116424673","","","","","","",""
"10","","bandit","342","842242","0.0-304.0-0.0","25746364","wem/bandit_single","A2EI075XZT9Y2S","gain","5","","76","L","3","","0","0","1","0.3863145418","","false","267","0.00740451457","","main_expt","0.1753800763","","0.3066387991","","0.3863145418","","","","","","",""
"16","","bandit","343","844034","0.0-305.0-0.0","25746364","wem/bandit_single","A2EI075XZT9Y2S","gain","5","","76","L","3","","1","0","0","0.4265221664","","false","268","0.004693585052","","main_expt","0.1918786918","","0.3058482798","","0.4265221664","","","","","","",""
"0","","bandit","344","845798","0.0-306.0-0.0","25746364","wem/bandit_single","A2EI075XZT9Y2S","gain","5","","76","L","3","","0","0","1","0.4515898034","","false","269","0.004824061053","","main_expt","0.1999989265","","0.2523051309","","0.4515898034","","","","","","",""
"525","","bandit","345","848098","0.0-307.0-0.0","25746364","wem/bandit_single","A2EI075XZT9Y2S","gain","5","","76","L","3","","1","0","0","0.4467147125","","false","270","0.006174480496","","main_expt","0.2211747839","","0.2663701485","","0.4467147125","","","","","","",""
"569","","bandit","346","850435","0.0-308.0-0.0","25746364","wem/bandit_single","A2EI075XZT9Y2S","gain","5","","76","L","3","","0","0","1","0.4582909467","","false","271","0.00832103917","","main_expt","0.2404792593","","0.2485798686","","0.4582909467","","","","","","",""
"3","","bandit","347","852211","0.0-309.0-0.0","25746364","wem/bandit_single","A2EI075XZT9Y2S","gain","5","","76","L","3","","1","0","0","0.4709209778","","false","272","0.00728594366","","main_expt","0.2558589782","","0.2345495347","","0.4709209778","","","","","","",""
"488","","bandit","348","854467","0.0-310.0-0.0","25746364","wem/bandit_single","A2EI075XZT9Y2S","gain","5","","76","L","3","","0","0","1","0.4660917397","","false","273","0.01114453755","","main_expt","0.1700432942","","0.2137032991","","0.4660917397","","","","","","",""
"35","","bandit","349","856275","0.0-311.0-0.0","25746364","wem/bandit_single","A2EI075XZT9Y2S","gain","5","","76","L","3","","0","0","1","0.4639522763","","false","274","0.01390500062","","main_expt","0.2452429789","","0.2108512091","","0.4639522763","","","","","","",""
"132","","bandit","350","858178","0.0-312.0-0.0","25746364","wem/bandit_single","A2EI075XZT9Y2S","gain","5","","76","L","3","","1","0","0","0.4559735555","","false","275","0.01307999715","","main_expt","0.2540496776","","0.1817434844","","0.4559735555","","","","","","",""
"123","","bandit","351","860068","0.0-313.0-0.0","25746364","wem/bandit_single","A2EI075XZT9Y2S","gain","5","","76","L","3","","0","0","1","0.4246507461","","false","276","0.01650166306","","main_expt","0.2816965905","","0.2037179719","","0.4246507461","","","","","","",""
"482","","bandit","352","862322","0.0-314.0-0.0","25746364","wem/bandit_single","A2EI075XZT9Y2S","gain","5","","76","L","3","","0","0","1","0.4061878557","","false","277","0.02228120093","","main_expt","0.2757967379","","0.211691867","","0.4061878557","","","","","","",""
"171","","bandit","353","864258","0.0-315.0-0.0","25746364","wem/bandit_single","A2EI075XZT9Y2S","gain","5","","76","L","3","","1","0","0","0.4185559707","","false","278","0.01609054627","","main_expt","0.3233086266","","0.1725584367","","0.4185559707","","","","","","",""
"297","","bandit","354","866323","0.0-316.0-0.0","25746364","wem/bandit_single","A2EI075XZT9Y2S","gain","5","","76","L","3","","0","0","1","0.4048416859","","false","279","0.03276024715","","main_expt","0.3447853064","","0.1976152383","","0.4048416859","","","","","","",""
"72","","bandit","355","868167","0.0-317.0-0.0","25746364","wem/bandit_single","A2EI075XZT9Y2S","gain","5","","76","L","3","","0","0","1","0.3930733378","","false","280","0.045813934","","main_expt","0.2944080033","","0.2245419331","","0.3930733378","","","","","","",""
"295","","bandit","356","870228","0.0-318.0-0.0","25746364","wem/bandit_single","A2EI075XZT9Y2S","gain","5","","76","L","3","","0","0","1","0.3722539572","","false","281","0.07680660156","","main_expt","0.3455536282","","0.2649095144","","0.3722539572","","","","","","",""
"1261","","bandit","357","873268","0.0-319.0-0.0","25746364","wem/bandit_single","A2EI075XZT9Y2S","gain","5","","76","L","3","","1","0","0","0.392640689","","false","282","0.08989395926","","main_expt","0.3002636441","","0.2440542309","","0.392640689","","","","","","",""
"978","","bandit","358","876018","0.0-320.0-0.0","25746364","wem/bandit_single","A2EI075XZT9Y2S","gain","5","","76","L","3","","0","0","1","0.3657249804","","false","283","0.1096048843","","main_expt","0.2433385189","","0.3074658718","","0.3657249804","","","","","","",""
"1100","","bandit","359","878886","0.0-321.0-0.0","25746364","wem/bandit_single","A2EI075XZT9Y2S","gain","5","","76","L","3","","1","0","0","0.3625644972","","false","284","0.1082817284","","main_expt","0.2108667552","","0.3224089974","","0.3625644972","","","","","","",""
"60","","bandit","360","880708","0.0-322.0-0.0","25746364","wem/bandit_single","A2EI075XZT9Y2S","gain","5","","76","L","3","","0","0","1","0.3054288932","","false","285","0.1629804938","","main_expt","0.2340218901","","0.3022873968","","0.3054288932","","","","","","",""
"193","","bandit","361","882679","0.0-323.0-0.0","25746364","wem/bandit_single","A2EI075XZT9Y2S","gain","5","","76","L","3","","0","0","1","0.3391155559","","false","286","0.1852598429","","main_expt","0.2499238339","","0.2889410052","","0.3391155559","","","","","","",""
"1","","bandit","362","884454","0.0-324.0-0.0","25746364","wem/bandit_single","A2EI075XZT9Y2S","gain","5","","76","L","3","","0","0","1","0.3328791194","","false","287","0.2065414002","","main_expt","0.2334780882","","0.3151816804","","0.3328791194","","","","","","",""
"14","","bandit","363","886243","0.0-325.0-0.0","25746364","wem/bandit_single","A2EI075XZT9Y2S","gain","5","","76","L","3","","0","0","1","0.3011075564","","false","288","0.1811366591","","main_expt","0.2784320663","","0.3489654206","","0.3011075564","","","","","","",""
"25","","bandit","364","888034","0.0-326.0-0.0","25746364","wem/bandit_single","A2EI075XZT9Y2S","gain","5","","72","H","0","img/none_selected.jpg","0","0","1","0.1202209304","","false","289","0.1202209304","","main_expt","0.2751214951","","0.3673528387","","0.3326814497","","","","","","",""
"0","","bandit","365","889804","0.0-327.0-0.0","25746364","wem/bandit_single","A2EI075XZT9Y2S","gain","5","","76","L","3","","0","0","1","0.3289320066","","false","290","0.1453470377","","main_expt","0.304381699","","0.3156989172","","0.3289320066","","","","","","",""
"172","","bandit","366","891748","0.0-328.0-0.0","25746364","wem/bandit_single","A2EI075XZT9Y2S","gain","5","","75","K","2","","1","0","0","0.3731423443","","false","291","0.1477070836","","main_expt","0.2447169523","","0.3731423443","","0.3074380044","","","","","","",""
"183","","bandit","367","893699","0.0-329.0-0.0","25746364","wem/bandit_single","A2EI075XZT9Y2S","gain","5","","75","K","2","","0","0","1","0.3819638953","","false","292","0.1442574827","","main_expt","0.2422140582","","0.3819638953","","0.247625386","","","","","","",""
"7","","bandit","368","895475","0.0-330.0-0.0","25746364","wem/bandit_single","A2EI075XZT9Y2S","gain","5","","76","L","3","","0","0","1","0.2438381571","","false","293","0.1219757373","","main_expt","0.1480972705","","0.3709780048","","0.2438381571","","","","","","",""
"2","","bandit","369","897254","0.0-331.0-0.0","25746364","wem/bandit_single","A2EI075XZT9Y2S","gain","5","","75","K","2","","0","0","1","0.4013541824","","false","294","0.149249144","","main_expt","0.1338078997","","0.4013541824","","0.2772308066","","","","","","",""
"253","","bandit","370","899279","0.0-332.0-0.0","25746364","wem/bandit_single","A2EI075XZT9Y2S","gain","5","","76","L","3","","1","0","0","0.2386370059","","false","295","0.1066825056","","main_expt","0.1452417655","","0.4203470877","","0.2386370059","","","","","","",""
"486","","bandit","371","901539","0.0-333.0-0.0","25746364","wem/bandit_single","A2EI075XZT9Y2S","gain","5","","76","L","3","","1","0","0","0.2322267342","","false","296","0.06692503618","","main_expt","0.12995508","","0.4006598815","","0.2322267342","","","","","","",""
"53","","bandit","372","903363","0.0-334.0-0.0","25746364","wem/bandit_single","A2EI075XZT9Y2S","gain","5","","76","L","3","","0","0","1","0.2930795043","","false","297","0.08806334149","","main_expt","0.1079814357","","0.4189250697","","0.2930795043","","","","","","",""
"6540","","bandit","373","911667","0.0-335.0-0.0","25746364","wem/bandit_single","A2EI075XZT9Y2S","gain","5","","76","L","3","","1","0","0","0.3168190842","","false","298","0.0708541643","","main_expt","0.08396844466","","0.4204303011","","0.3168190842","","","","","","",""
