"rt","responses","trial_type","trial_index","time_elapsed","internal_node_id","subjID","study","MID","cond","drift","key_press","respCharCode","respKey","respChoiceNum","respChoice","gems","bombs","no_reward","GemPrChosen","BombPrChosen","practice","trial_counter","WinPr_0","LosePr_0","trial_label","WinPr_1","LosePr_1","WinPr_2","LosePr_2","WinPr_3","LosePr_3","Q0","Q1","Q2","gender","age","ethnicity"
"99163","{""Q0"":"" A2UHF7UL7G0Y78""}","survey-text","0","99176","0.0-0.0","26847126","wem/bandit_single","A2UHF7UL7G0Y78","gain","4","","","","","","","","","","","","","","","","","","","","","","","","","","",""
"70108","","text","1","170290","0.0-1.0","26847126","wem/bandit_single","A2UHF7UL7G0Y78","gain","4","32","","","","","","","","","","","","","","","","","","","","","","","","","",""
"19006","","text","2","189299","0.0-2.0","26847126","wem/bandit_single","A2UHF7UL7G0Y78","gain","4","32","","","","","","","","","","","","","","","","","","","","","","","","","",""
"180801","","text","3","370103","0.0-3.0","26847126","wem/bandit_single","A2UHF7UL7G0Y78","gain","4","32","","","","","","","","","","","","","","","","","","","","","","","","","",""
"812","","text","4","370916","0.0-4.0","26847126","wem/bandit_single","A2UHF7UL7G0Y78","gain","4","32","","","","","","","","","","","","","","","","","","","","","","","","","",""
"1681","","text","5","372599","0.0-5.0","26847126","wem/bandit_single","A2UHF7UL7G0Y78","gain","4","32","","","","","","","","","","","","","","","","","","","","","","","","","",""
"1009","","text","6","373611","0.0-6.0","26847126","wem/bandit_single","A2UHF7UL7G0Y78","gain","4","32","","","","","","","","","","","","","","","","","","","","","","","","","",""
"1229","","text","7","374843","0.0-7.0","26847126","wem/bandit_single","A2UHF7UL7G0Y78","gain","4","32","","","","","","","","","","","","","","","","","","","","","","","","","",""
"1926","","text","8","376771","0.0-8.0","26847126","wem/bandit_single","A2UHF7UL7G0Y78","gain","4","32","","","","","","","","","","","","","","","","","","","","","","","","","",""
"2572","","text","9","379345","0.0-9.0","26847126","wem/bandit_single","A2UHF7UL7G0Y78","gain","4","32","","","","","","","","","","","","","","","","","","","","","","","","","",""
"16968","","text","10","396316","0.0-10.0","26847126","wem/bandit_single","A2UHF7UL7G0Y78","gain","4","32","","","","","","","","","","","","","","","","","","","","","","","","","",""
"3465","","text","11","399783","0.0-11.0","26847126","wem/bandit_single","A2UHF7UL7G0Y78","gain","4","32","","","","","","","","","","","","","","","","","","","","","","","","","",""
"66490","","bandit","12","467785","0.0-12.0-0.0","26847126","wem/bandit_single","A2UHF7UL7G0Y78","gain","4","","74","J","0","img/none_selected_demo.jpg","0","0","1","0","0","true","0","0","0","","","","","","","","","","","","",""
"1003","","bandit","13","470544","0.0-13.0-0.0","26847126","wem/bandit_single","A2UHF7UL7G0Y78","gain","4","","75","K","0","img/none_selected_demo.jpg","0","0","1","0","0","true","0","0","0","","","","","","","","","","","","",""
"10653","","text","14","481451","0.0-14.0","26847126","wem/bandit_single","A2UHF7UL7G0Y78","gain","4","32","","","","","","","","","","","","","","","","","","","","","","","","","",""
"2075","","text","15","483528","0.0-15.0","26847126","wem/bandit_single","A2UHF7UL7G0Y78","gain","4","32","","","","","","","","","","","","","","","","","","","","","","","","","",""
"5325","","text","16","488855","0.0-16.0","26847126","wem/bandit_single","A2UHF7UL7G0Y78","gain","4","32","","","","","","","","","","","","","","","","","","","","","","","","","",""
"2881","","text","17","491739","0.0-17.0","26847126","wem/bandit_single","A2UHF7UL7G0Y78","gain","4","32","","","","","","","","","","","","","","","","","","","","","","","","","",""
"11848","","bandit","18","505093","0.0-18.0-0.0","26847126","wem/bandit_single","A2UHF7UL7G0Y78","gain","4","","74","J","0","img/none_selected_demo.jpg","1","0","0","0.8","0","true","0","0.8","0","80_20_practice","0.2","0","","","","","","","","","",""
"348","","bandit","19","507199","0.0-18.0-1.0","26847126","wem/bandit_single","A2UHF7UL7G0Y78","gain","4","","75","K","1","","0","0","1","0.2","0","true","0","0.8","0","80_20_practice","0.2","0","","","","","","","","","",""
"1020","","bandit","20","509979","0.0-18.0-2.0","26847126","wem/bandit_single","A2UHF7UL7G0Y78","gain","4","","74","J","0","img/none_selected_demo.jpg","1","0","0","0.8","0","true","0","0.8","0","80_20_practice","0.2","0","","","","","","","","","",""
"432","","bandit","21","512166","0.0-18.0-3.0","26847126","wem/bandit_single","A2UHF7UL7G0Y78","gain","4","","74","J","0","img/none_selected_demo.jpg","0","0","1","0.8","0","true","0","0.8","0","80_20_practice","0.2","0","","","","","","","","","",""
"735","","bandit","22","514656","0.0-18.0-4.0","26847126","wem/bandit_single","A2UHF7UL7G0Y78","gain","4","","75","K","1","","1","0","0","0.2","0","true","0","0.8","0","80_20_practice","0.2","0","","","","","","","","","",""
"830","","bandit","23","517242","0.0-18.0-5.0","26847126","wem/bandit_single","A2UHF7UL7G0Y78","gain","4","","74","J","0","img/none_selected_demo.jpg","1","0","0","0.8","0","true","0","0.8","0","80_20_practice","0.2","0","","","","","","","","","",""
"225","","bandit","24","519223","0.0-18.0-6.0","26847126","wem/bandit_single","A2UHF7UL7G0Y78","gain","4","","75","K","1","","0","0","1","0.2","0","true","0","0.8","0","80_20_practice","0.2","0","","","","","","","","","",""
"134","","bandit","25","521116","0.0-18.0-7.0","26847126","wem/bandit_single","A2UHF7UL7G0Y78","gain","4","","74","J","0","img/none_selected_demo.jpg","1","0","0","0.8","0","true","0","0.8","0","80_20_practice","0.2","0","","","","","","","","","",""
"115","","bandit","26","522988","0.0-18.0-8.0","26847126","wem/bandit_single","A2UHF7UL7G0Y78","gain","4","","74","J","0","img/none_selected_demo.jpg","1","0","0","0.8","0","true","0","0.8","0","80_20_practice","0.2","0","","","","","","","","","",""
"143","","bandit","27","524886","0.0-18.0-9.0","26847126","wem/bandit_single","A2UHF7UL7G0Y78","gain","4","","75","K","1","","1","0","0","0.2","0","true","0","0.8","0","80_20_practice","0.2","0","","","","","","","","","",""
"118","","bandit","28","526761","0.0-18.0-10.0","26847126","wem/bandit_single","A2UHF7UL7G0Y78","gain","4","","75","K","1","","0","0","1","0.2","0","true","0","0.8","0","80_20_practice","0.2","0","","","","","","","","","",""
"152","","bandit","29","528671","0.0-18.0-11.0","26847126","wem/bandit_single","A2UHF7UL7G0Y78","gain","4","","74","J","0","img/none_selected_demo.jpg","1","0","0","0.8","0","true","0","0.8","0","80_20_practice","0.2","0","","","","","","","","","",""
"1076","","bandit","30","531504","0.0-18.0-12.0","26847126","wem/bandit_single","A2UHF7UL7G0Y78","gain","4","","75","K","1","","0","0","1","0.2","0","true","0","0.8","0","80_20_practice","0.2","0","","","","","","","","","",""
"192","","bandit","31","533452","0.0-18.0-13.0","26847126","wem/bandit_single","A2UHF7UL7G0Y78","gain","4","","75","K","1","","0","0","1","0.2","0","true","0","0.8","0","80_20_practice","0.2","0","","","","","","","","","",""
"108","","bandit","32","535320","0.0-18.0-14.0","26847126","wem/bandit_single","A2UHF7UL7G0Y78","gain","4","","74","J","0","img/none_selected_demo.jpg","1","0","0","0.8","0","true","0","0.8","0","80_20_practice","0.2","0","","","","","","","","","",""
"1969","","bandit","33","539047","0.0-18.0-15.0","26847126","wem/bandit_single","A2UHF7UL7G0Y78","gain","4","","74","J","0","img/none_selected_demo.jpg","0","0","1","0.8","0","true","0","0.8","0","80_20_practice","0.2","0","","","","","","","","","",""
"85","","bandit","34","540886","0.0-18.0-16.0","26847126","wem/bandit_single","A2UHF7UL7G0Y78","gain","4","","75","K","1","","1","0","0","0.2","0","true","0","0.8","0","80_20_practice","0.2","0","","","","","","","","","",""
"692","","bandit","35","543335","0.0-18.0-17.0","26847126","wem/bandit_single","A2UHF7UL7G0Y78","gain","4","","75","K","1","","0","0","1","0.2","0","true","0","0.8","0","80_20_practice","0.2","0","","","","","","","","","",""
"547","","bandit","36","545637","0.0-18.0-18.0","26847126","wem/bandit_single","A2UHF7UL7G0Y78","gain","4","","74","J","0","img/none_selected_demo.jpg","1","0","0","0.8","0","true","0","0.8","0","80_20_practice","0.2","0","","","","","","","","","",""
"259","","bandit","37","547653","0.0-18.0-19.0","26847126","wem/bandit_single","A2UHF7UL7G0Y78","gain","4","","74","J","0","img/none_selected_demo.jpg","0","0","1","0.8","0","true","0","0.8","0","80_20_practice","0.2","0","","","","","","","","","",""
"9012","","text","38","556918","0.0-19.0","26847126","wem/bandit_single","A2UHF7UL7G0Y78","gain","4","32","","","","","","","","","","","","","","","","","","","","","","","","","",""
"20505","","bandit","39","578930","0.0-20.0-0.0","26847126","wem/bandit_single","A2UHF7UL7G0Y78","gain","4","","75","K","1","","0","0","1","0","0","true","0","0","0","","0","0","","","","","","","","","",""
"1131","","text","40","580316","0.0-21.0","26847126","wem/bandit_single","A2UHF7UL7G0Y78","gain","4","74","","","","","","","","","","","","","","","","","","","","","","","","","",""
"12451","","text","41","592770","0.0-22.0","26847126","wem/bandit_single","A2UHF7UL7G0Y78","gain","4","32","","","","","","","","","","","","","","","","","","","","","","","","","",""
"1008","","text","42","593782","0.0-23.0","26847126","wem/bandit_single","A2UHF7UL7G0Y78","gain","4","32","","","","","","","","","","","","","","","","","","","","","","","","","",""
"638","","text","43","594424","0.0-24.0","26847126","wem/bandit_single","A2UHF7UL7G0Y78","gain","4","32","","","","","","","","","","","","","","","","","","","","","","","","","",""
"1083","","text","44","595510","0.0-25.0","26847126","wem/bandit_single","A2UHF7UL7G0Y78","gain","4","32","","","","","","","","","","","","","","","","","","","","","","","","","",""
"685","","text","45","596199","0.0-26.0","26847126","wem/bandit_single","A2UHF7UL7G0Y78","gain","4","32","","","","","","","","","","","","","","","","","","","","","","","","","",""
"671","","text","46","596874","0.0-27.0","26847126","wem/bandit_single","A2UHF7UL7G0Y78","gain","4","32","","","","","","","","","","","","","","","","","","","","","","","","","",""
"2008","","text","47","598886","0.0-28.0","26847126","wem/bandit_single","A2UHF7UL7G0Y78","gain","4","32","","","","","","","","","","","","","","","","","","","","","","","","","",""
"988","","text","48","599879","0.0-29.0","26847126","wem/bandit_single","A2UHF7UL7G0Y78","gain","4","32","","","","","","","","","","","","","","","","","","","","","","","","","",""
"867","","text","49","600750","0.0-30.0","26847126","wem/bandit_single","A2UHF7UL7G0Y78","gain","4","32","","","","","","","","","","","","","","","","","","","","","","","","","",""
"2761","","text","50","603515","0.0-31.0","26847126","wem/bandit_single","A2UHF7UL7G0Y78","gain","4","32","","","","","","","","","","","","","","","","","","","","","","","","","",""
"1469","","bandit","51","606489","0.0-32.0-0.0","26847126","wem/bandit_single","A2UHF7UL7G0Y78","gain","4","","72","H","0","img/none_selected.jpg","1","0","0","0.8","0","true","0","0.8","0","full_practice","0.2","0","0.6","0","0.2","0","","","","","",""
"221","","bandit","52","608468","0.0-32.0-1.0","26847126","wem/bandit_single","A2UHF7UL7G0Y78","gain","4","","72","H","0","img/none_selected.jpg","1","0","0","0.8","0","true","0","0.8","0","full_practice","0.2","0","0.6","0","0.2","0","","","","","",""
"1260","","bandit","53","611490","0.0-32.0-2.0","26847126","wem/bandit_single","A2UHF7UL7G0Y78","gain","4","","72","H","0","img/none_selected.jpg","1","0","0","0.8","0","true","0","0.8","0","full_practice","0.2","0","0.6","0","0.2","0","","","","","",""
"823","","bandit","54","614070","0.0-32.0-3.0","26847126","wem/bandit_single","A2UHF7UL7G0Y78","gain","4","","72","H","0","img/none_selected.jpg","1","0","0","0.8","0","true","0","0.8","0","full_practice","0.2","0","0.6","0","0.2","0","","","","","",""
"693","","bandit","55","616520","0.0-32.0-4.0","26847126","wem/bandit_single","A2UHF7UL7G0Y78","gain","4","","72","H","0","img/none_selected.jpg","0","0","1","0.8","0","true","0","0.8","0","full_practice","0.2","0","0.6","0","0.2","0","","","","","",""
"200","","bandit","56","618476","0.0-32.0-5.0","26847126","wem/bandit_single","A2UHF7UL7G0Y78","gain","4","","74","J","1","","1","0","0","0.2","0","true","0","0.8","0","full_practice","0.2","0","0.6","0","0.2","0","","","","","",""
"72","","bandit","57","620305","0.0-32.0-6.0","26847126","wem/bandit_single","A2UHF7UL7G0Y78","gain","4","","74","J","1","","0","0","1","0.2","0","true","0","0.8","0","full_practice","0.2","0","0.6","0","0.2","0","","","","","",""
"72","","bandit","58","622134","0.0-32.0-7.0","26847126","wem/bandit_single","A2UHF7UL7G0Y78","gain","4","","75","K","2","","1","0","0","0.6","0","true","0","0.8","0","full_practice","0.2","0","0.6","0","0.2","0","","","","","",""
"285","","bandit","59","624176","0.0-32.0-8.0","26847126","wem/bandit_single","A2UHF7UL7G0Y78","gain","4","","75","K","2","","1","0","0","0.6","0","true","0","0.8","0","full_practice","0.2","0","0.6","0","0.2","0","","","","","",""
"683","","bandit","60","626617","0.0-32.0-9.0","26847126","wem/bandit_single","A2UHF7UL7G0Y78","gain","4","","75","K","2","","1","0","0","0.6","0","true","0","0.8","0","full_practice","0.2","0","0.6","0","0.2","0","","","","","",""
"492","","bandit","61","628869","0.0-32.0-10.0","26847126","wem/bandit_single","A2UHF7UL7G0Y78","gain","4","","75","K","2","","0","0","1","0.6","0","true","0","0.8","0","full_practice","0.2","0","0.6","0","0.2","0","","","","","",""
"3","","bandit","62","630632","0.0-32.0-11.0","26847126","wem/bandit_single","A2UHF7UL7G0Y78","gain","4","","76","L","3","","0","0","1","0.2","0","true","0","0.8","0","full_practice","0.2","0","0.6","0","0.2","0","","","","","",""
"4326","","bandit","63","636716","0.0-32.0-12.0","26847126","wem/bandit_single","A2UHF7UL7G0Y78","gain","4","","76","L","3","","0","0","1","0.2","0","true","0","0.8","0","full_practice","0.2","0","0.6","0","0.2","0","","","","","",""
"340","","bandit","64","638811","0.0-32.0-13.0","26847126","wem/bandit_single","A2UHF7UL7G0Y78","gain","4","","72","H","0","img/none_selected.jpg","0","0","1","0.8","0","true","0","0.8","0","full_practice","0.2","0","0.6","0","0.2","0","","","","","",""
"608","","bandit","65","641176","0.0-32.0-14.0","26847126","wem/bandit_single","A2UHF7UL7G0Y78","gain","4","","74","J","1","","0","0","1","0.2","0","true","0","0.8","0","full_practice","0.2","0","0.6","0","0.2","0","","","","","",""
"220","","bandit","66","643153","0.0-32.0-15.0","26847126","wem/bandit_single","A2UHF7UL7G0Y78","gain","4","","75","K","2","","1","0","0","0.6","0","true","0","0.8","0","full_practice","0.2","0","0.6","0","0.2","0","","","","","",""
"444","","bandit","67","645356","0.0-32.0-16.0","26847126","wem/bandit_single","A2UHF7UL7G0Y78","gain","4","","75","K","2","","0","0","1","0.6","0","true","0","0.8","0","full_practice","0.2","0","0.6","0","0.2","0","","","","","",""
"386","","bandit","68","647501","0.0-32.0-17.0","26847126","wem/bandit_single","A2UHF7UL7G0Y78","gain","4","","76","L","3","","0","0","1","0.2","0","true","0","0.8","0","full_practice","0.2","0","0.6","0","0.2","0","","","","","",""
"133","","bandit","69","649395","0.0-32.0-18.0","26847126","wem/bandit_single","A2UHF7UL7G0Y78","gain","4","","72","H","0","img/none_selected.jpg","1","0","0","0.8","0","true","0","0.8","0","full_practice","0.2","0","0.6","0","0.2","0","","","","","",""
"234","","bandit","70","651388","0.0-32.0-19.0","26847126","wem/bandit_single","A2UHF7UL7G0Y78","gain","4","","72","H","0","img/none_selected.jpg","0","0","1","0.8","0","true","0","0.8","0","full_practice","0.2","0","0.6","0","0.2","0","","","","","",""
"16488","","text","71","668151","0.0-33.0","26847126","wem/bandit_single","A2UHF7UL7G0Y78","gain","4","32","","","","","","","","","","","","","","","","","","","","","","","","","",""
"17896","","text","72","687054","0.0-34.0","26847126","wem/bandit_single","A2UHF7UL7G0Y78","gain","4","32","","","","","","","","","","","","","","","","","","","","","","","","","",""
"1133","","text","73","688192","0.0-35.0","26847126","wem/bandit_single","A2UHF7UL7G0Y78","gain","4","32","","","","","","","","","","","","","","","","","","","","","","","","","",""
"4030","","text","74","692226","0.0-36.0","26847126","wem/bandit_single","A2UHF7UL7G0Y78","gain","4","32","","","","","","","","","","","","","","","","","","","","","","","","","",""
"799","","text","75","693030","0.0-37.0","26847126","wem/bandit_single","A2UHF7UL7G0Y78","gain","4","32","","","","","","","","","","","","","","","","","","","","","","","","","",""
"1689","","bandit","76","696228","0.0-38.0-0.0","26847126","wem/bandit_single","A2UHF7UL7G0Y78","gain","4","","72","H","0","img/none_selected.jpg","0","0","1","0.1530555908","","false","1","0.1530555908","","main_expt","0.1534711312","","0.2633340886","","0.04789219489","","","","","","",""
"71","","bandit","77","698060","0.0-39.0-0.0","26847126","wem/bandit_single","A2UHF7UL7G0Y78","gain","4","","74","J","1","","0","0","1","0.1140054314","","false","2","0.103598712","","main_expt","0.1140054314","","0.288049036","","0.06526788736","","","","","","",""
"376","","bandit","78","700197","0.0-40.0-0.0","26847126","wem/bandit_single","A2UHF7UL7G0Y78","gain","4","","75","K","2","","1","0","0","0.2979487298","","false","3","0.08136741005","","main_expt","0.1012650834","","0.2979487298","","0.04764418461","","","","","","",""
"29","","bandit","79","701985","0.0-41.0-0.0","26847126","wem/bandit_single","A2UHF7UL7G0Y78","gain","4","","75","K","2","","0","0","1","0.3306303211","","false","4","0.08723083084","","main_expt","0.09541256236","","0.3306303211","","0.05056035824","","","","","","",""
"162","","bandit","80","703908","0.0-42.0-0.0","26847126","wem/bandit_single","A2UHF7UL7G0Y78","gain","4","","76","L","3","","0","0","1","0.05944929255","","false","5","0.1255982651","","main_expt","0.07842998328","","0.2438199519","","0.05944929255","","","","","","",""
"76","","bandit","81","705746","0.0-43.0-0.0","26847126","wem/bandit_single","A2UHF7UL7G0Y78","gain","4","","75","K","2","","0","0","1","0.2362074668","","false","6","0.09044777998","","main_expt","0.09158282766","","0.2362074668","","0.09562353852","","","","","","",""
"65","","bandit","82","707570","0.0-44.0-0.0","26847126","wem/bandit_single","A2UHF7UL7G0Y78","gain","4","","75","K","2","","0","0","1","0.2591683673","","false","7","0.1067491613","","main_expt","0.09712353232","","0.2591683673","","0.08069121891","","","","","","",""
"122","","bandit","83","709453","0.0-45.0-0.0","26847126","wem/bandit_single","A2UHF7UL7G0Y78","gain","4","","75","K","2","","0","0","1","0.2299415188","","false","8","0.15597148","","main_expt","0.08440361392","","0.2299415188","","0.07203927837","","","","","","",""
"101","","bandit","84","711315","0.0-46.0-0.0","26847126","wem/bandit_single","A2UHF7UL7G0Y78","gain","4","","74","J","1","","0","0","1","0.102519384","","false","9","0.2250404859","","main_expt","0.102519384","","0.2057198223","","0.08219025907","","","","","","",""
"122","","bandit","85","713195","0.0-47.0-0.0","26847126","wem/bandit_single","A2UHF7UL7G0Y78","gain","4","","74","J","1","","0","0","1","0.06157476224","","false","10","0.2205918947","","main_expt","0.06157476224","","0.2002554128","","0.06517742799","","","","","","",""
"1628","","bandit","86","716581","0.0-48.0-0.0","26847126","wem/bandit_single","A2UHF7UL7G0Y78","gain","4","","74","J","1","","0","0","1","0.05516119966","","false","11","0.1999173076","","main_expt","0.05516119966","","0.2390702858","","0.0549201251","","","","","","",""
"165","","bandit","87","718503","0.0-49.0-0.0","26847126","wem/bandit_single","A2UHF7UL7G0Y78","gain","4","","75","K","2","","0","0","1","0.2309669968","","false","12","0.2006159367","","main_expt","0.04311537102","","0.2309669968","","0.0630283727","","","","","","",""
"726","","bandit","88","720986","0.0-50.0-0.0","26847126","wem/bandit_single","A2UHF7UL7G0Y78","gain","4","","72","H","0","img/none_selected.jpg","0","0","1","0.202674457","","false","13","0.202674457","","main_expt","0.03895599675","","0.2667386483","","0.07136250487","","","","","","",""
"291","","bandit","89","723034","0.0-51.0-0.0","26847126","wem/bandit_single","A2UHF7UL7G0Y78","gain","4","","72","H","0","img/none_selected.jpg","0","0","1","0.152812741","","false","14","0.152812741","","main_expt","0.03256744162","","0.2057326914","","0.07333211558","","","","","","",""
"3108","","bandit","90","727899","0.0-52.0-0.0","26847126","wem/bandit_single","A2UHF7UL7G0Y78","gain","4","","72","H","0","img/none_selected.jpg","0","0","1","0.1648564856","","false","15","0.1648564856","","main_expt","0.01982065674","","0.2081585857","","0.1154740655","","","","","","",""
"262","","bandit","91","729922","0.0-53.0-0.0","26847126","wem/bandit_single","A2UHF7UL7G0Y78","gain","4","","76","L","3","","0","0","1","0.1011313391","","false","16","0.1619055423","","main_expt","0.04082574049","","0.1909184248","","0.1011313391","","","","","","",""
"437","","bandit","92","732116","0.0-54.0-0.0","26847126","wem/bandit_single","A2UHF7UL7G0Y78","gain","4","","76","L","3","","0","0","1","0.1447019112","","false","17","0.1651197045","","main_expt","0.0363298649","","0.2198432556","","0.1447019112","","","","","","",""
"229","","bandit","93","734104","0.0-55.0-0.0","26847126","wem/bandit_single","A2UHF7UL7G0Y78","gain","4","","76","L","3","","0","0","1","0.1039364862","","false","18","0.1079041081","","main_expt","0.07917382237","","0.2347766335","","0.1039364862","","","","","","",""
"3640","","bandit","94","739502","0.0-56.0-0.0","26847126","wem/bandit_single","A2UHF7UL7G0Y78","gain","4","","72","H","0","img/none_selected.jpg","0","0","1","0.1059999363","","false","19","0.1059999363","","main_expt","0.08476555987","","0.24668571","","0.08759831402","","","","","","",""
"217","","bandit","95","741478","0.0-57.0-0.0","26847126","wem/bandit_single","A2UHF7UL7G0Y78","gain","4","","72","H","0","img/none_selected.jpg","0","0","1","0.1197169881","","false","20","0.1197169881","","main_expt","0.04047152317","","0.2355281317","","0.08010338479","","","","","","",""
"284","","bandit","96","743520","0.0-58.0-0.0","26847126","wem/bandit_single","A2UHF7UL7G0Y78","gain","4","","74","J","1","","0","0","1","0.07021106672","","false","21","0.1338215077","","main_expt","0.07021106672","","0.2290721377","","0.07820488182","","","","","","",""
"900","","bandit","97","746177","0.0-59.0-0.0","26847126","wem/bandit_single","A2UHF7UL7G0Y78","gain","4","","75","K","2","","0","0","1","0.1982968879","","false","22","0.1691749215","","main_expt","0.08794503477","","0.1982968879","","0.06301774499","","","","","","",""
"219","","bandit","98","748156","0.0-60.0-0.0","26847126","wem/bandit_single","A2UHF7UL7G0Y78","gain","4","","76","L","3","","0","0","1","0.04380944514","","false","23","0.2100599157","","main_expt","0.07274518233","","0.1991555028","","0.04380944514","","","","","","",""
"973","","bandit","99","750886","0.0-61.0-0.0","26847126","wem/bandit_single","A2UHF7UL7G0Y78","gain","4","","72","H","0","img/none_selected.jpg","0","0","1","0.1763606332","","false","24","0.1763606332","","main_expt","0.09602528561","","0.1700743611","","0.04485861341","","","","","","",""
"1547","","bandit","100","754192","0.0-62.0-0.0","26847126","wem/bandit_single","A2UHF7UL7G0Y78","gain","4","","72","H","0","img/none_selected.jpg","0","0","1","0.1155065599","","false","25","0.1155065599","","main_expt","0.07148754983","","0.2303117276","","0.08350983839","","","","","","",""
"1871","","bandit","101","757820","0.0-63.0-0.0","26847126","wem/bandit_single","A2UHF7UL7G0Y78","gain","4","","74","J","1","","0","0","1","0.05591681381","","false","26","0.08411514459","","main_expt","0.05591681381","","0.2615068669","","0.04946014148","","","","","","",""
"56","","bandit","102","759636","0.0-64.0-0.0","26847126","wem/bandit_single","A2UHF7UL7G0Y78","gain","4","","75","K","2","","0","0","1","0.2108316327","","false","27","0.1192049255","","main_expt","0.06488914964","","0.2108316327","","0.07008172503","","","","","","",""
"727","","bandit","103","762120","0.0-65.0-0.0","26847126","wem/bandit_single","A2UHF7UL7G0Y78","gain","4","","74","J","1","","0","0","1","0.07067710387","","false","28","0.1530516972","","main_expt","0.07067710387","","0.2616222854","","0.09766989806","","","","","","",""
"251","","bandit","104","764130","0.0-66.0-0.0","26847126","wem/bandit_single","A2UHF7UL7G0Y78","gain","4","","75","K","2","","0","0","1","0.2754145478","","false","29","0.1243035263","","main_expt","0.06184318105","","0.2754145478","","0.1020433103","","","","","","",""
"812","","bandit","105","766700","0.0-67.0-0.0","26847126","wem/bandit_single","A2UHF7UL7G0Y78","gain","4","","76","L","3","","0","0","1","0.1128186897","","false","30","0.2106934108","","main_expt","0.06562203124","","0.3091083038","","0.1128186897","","","","","","",""
"303","","bandit","106","768762","0.0-68.0-0.0","26847126","wem/bandit_single","A2UHF7UL7G0Y78","gain","4","","72","H","0","img/none_selected.jpg","0","0","1","0.269819176","","false","31","0.269819176","","main_expt","0.06340423818","","0.3032558385","","0.1021038766","","","","","","",""
"202","","bandit","107","770726","0.0-69.0-0.0","26847126","wem/bandit_single","A2UHF7UL7G0Y78","gain","4","","72","H","0","img/none_selected.jpg","0","0","1","0.2415851803","","false","32","0.2415851803","","main_expt","0.08582013972","","0.3160124579","","0.1010238501","","","","","","",""
"202","","bandit","108","772690","0.0-70.0-0.0","26847126","wem/bandit_single","A2UHF7UL7G0Y78","gain","4","","72","H","0","img/none_selected.jpg","0","0","1","0.2754451294","","false","33","0.2754451294","","main_expt","0.1020351259","","0.355825184","","0.0674926465","","","","","","",""
"6807","","bandit","109","781257","0.0-71.0-0.0","26847126","wem/bandit_single","A2UHF7UL7G0Y78","gain","4","","74","J","1","","0","0","1","0.07925884201","","false","34","0.3566428969","","main_expt","0.07925884201","","0.3380280112","","0.1007783216","","","","","","",""
"20987","","bandit","110","804001","0.0-72.0-0.0","26847126","wem/bandit_single","A2UHF7UL7G0Y78","gain","4","","72","H","0","img/none_selected.jpg","0","0","1","0.2652811253","","false","35","0.2652811253","","main_expt","0.06071167626","","0.3772093912","","0.09542819821","","","","","","",""
"251","","bandit","111","806010","0.0-73.0-0.0","26847126","wem/bandit_single","A2UHF7UL7G0Y78","gain","4","","74","J","1","","0","0","1","0.05331310492","","false","36","0.2472166127","","main_expt","0.05331310492","","0.3916459715","","0.07425724813","","","","","","",""
"336","","bandit","112","808104","0.0-74.0-0.0","26847126","wem/bandit_single","A2UHF7UL7G0Y78","gain","4","","75","K","2","","1","0","0","0.3724196513","","false","37","0.2941536534","","main_expt","0.08395737389","","0.3724196513","","0.07325651263","","","","","","",""
"1238","","bandit","113","811102","0.0-75.0-0.0","26847126","wem/bandit_single","A2UHF7UL7G0Y78","gain","4","","75","K","2","","0","0","1","0.3885064771","","false","38","0.2850199379","","main_expt","0.07562804978","","0.3885064771","","0.06058557764","","","","","","",""
"537","","bandit","114","813399","0.0-76.0-0.0","26847126","wem/bandit_single","A2UHF7UL7G0Y78","gain","4","","75","K","2","","1","0","0","0.4332305888","","false","39","0.2308750992","","main_expt","0.06339693541","","0.4332305888","","0.05480529152","","","","","","",""
"51","","bandit","115","815210","0.0-77.0-0.0","26847126","wem/bandit_single","A2UHF7UL7G0Y78","gain","4","","75","K","2","","1","0","0","0.4320021358","","false","40","0.2166928419","","main_expt","0.07741261751","","0.4320021358","","0.08480448704","","","","","","",""
"96","","bandit","116","817068","0.0-78.0-0.0","26847126","wem/bandit_single","A2UHF7UL7G0Y78","gain","4","","75","K","2","","0","0","1","0.4378374231","","false","41","0.222341992","","main_expt","0.08199889575","","0.4378374231","","0.07863220129","","","","","","",""
"347","","bandit","117","819174","0.0-79.0-0.0","26847126","wem/bandit_single","A2UHF7UL7G0Y78","gain","4","","75","K","2","","1","0","0","0.4138470733","","false","42","0.2420609394","","main_expt","0.1252939417","","0.4138470733","","0.07947159818","","","","","","",""
"117","","bandit","118","821055","0.0-80.0-0.0","26847126","wem/bandit_single","A2UHF7UL7G0Y78","gain","4","","75","K","2","","1","0","0","0.3618848001","","false","43","0.2683234569","","main_expt","0.1464491551","","0.3618848001","","0.0747194724","","","","","","",""
"123","","bandit","119","822946","0.0-81.0-0.0","26847126","wem/bandit_single","A2UHF7UL7G0Y78","gain","4","","75","K","2","","0","0","1","0.3902132048","","false","44","0.2592073096","","main_expt","0.1846315016","","0.3902132048","","0.06873866496","","","","","","",""
"169","","bandit","120","824881","0.0-82.0-0.0","26847126","wem/bandit_single","A2UHF7UL7G0Y78","gain","4","","75","K","2","","0","0","1","0.370584769","","false","45","0.258850709","","main_expt","0.1454302639","","0.370584769","","0.05624711086","","","","","","",""
"195","","bandit","121","826836","0.0-83.0-0.0","26847126","wem/bandit_single","A2UHF7UL7G0Y78","gain","4","","75","K","2","","0","0","1","0.3416192418","","false","46","0.2162528617","","main_expt","0.1420401956","","0.3416192418","","0.06710767933","","","","","","",""
"1","","bandit","122","828601","0.0-84.0-0.0","26847126","wem/bandit_single","A2UHF7UL7G0Y78","gain","4","","75","K","2","","0","0","1","0.3254497978","","false","47","0.1380472806","","main_expt","0.2049545467","","0.3254497978","","0.05828218186","","","","","","",""
"277","","bandit","123","830638","0.0-85.0-0.0","26847126","wem/bandit_single","A2UHF7UL7G0Y78","gain","4","","75","K","2","","0","0","1","0.3438960799","","false","48","0.1673270425","","main_expt","0.1608881285","","0.3438960799","","0.1161016377","","","","","","",""
"131","","bandit","124","832528","0.0-86.0-0.0","26847126","wem/bandit_single","A2UHF7UL7G0Y78","gain","4","","75","K","2","","1","0","0","0.3405395495","","false","49","0.1637821127","","main_expt","0.2001806823","","0.3405395495","","0.1135844416","","","","","","",""
"108","","bandit","125","834395","0.0-87.0-0.0","26847126","wem/bandit_single","A2UHF7UL7G0Y78","gain","4","","75","K","2","","1","0","0","0.3305224856","","false","50","0.1826101584","","main_expt","0.2061381611","","0.3305224856","","0.1646239324","","","","","","",""
"196","","bandit","126","836354","0.0-88.0-0.0","26847126","wem/bandit_single","A2UHF7UL7G0Y78","gain","4","","75","K","2","","0","0","1","0.2304924019","","false","51","0.2270371056","","main_expt","0.2369791141","","0.2304924019","","0.1699716213","","","","","","",""
"160","","bandit","127","838273","0.0-89.0-0.0","26847126","wem/bandit_single","A2UHF7UL7G0Y78","gain","4","","75","K","2","","1","0","0","0.2832256505","","false","52","0.2203225001","","main_expt","0.2378663067","","0.2832256505","","0.1762937123","","","","","","",""
"165","","bandit","128","840202","0.0-90.0-0.0","26847126","wem/bandit_single","A2UHF7UL7G0Y78","gain","4","","75","K","2","","1","0","0","0.2391441838","","false","53","0.2776849753","","main_expt","0.2063519028","","0.2391441838","","0.2287193473","","","","","","",""
"35","","bandit","129","841998","0.0-91.0-0.0","26847126","wem/bandit_single","A2UHF7UL7G0Y78","gain","4","","75","K","2","","1","0","0","0.2697071588","","false","54","0.2454572706","","main_expt","0.2439582882","","0.2697071588","","0.2356834932","","","","","","",""
"69","","bandit","130","843829","0.0-92.0-0.0","26847126","wem/bandit_single","A2UHF7UL7G0Y78","gain","4","","75","K","2","","0","0","1","0.2875326611","","false","55","0.2382153161","","main_expt","0.2381950618","","0.2875326611","","0.306547883","","","","","","",""
"40","","bandit","131","845627","0.0-93.0-0.0","26847126","wem/bandit_single","A2UHF7UL7G0Y78","gain","4","","75","K","2","","0","0","1","0.2854258916","","false","56","0.1960908288","","main_expt","0.1800346575","","0.2854258916","","0.2853582168","","","","","","",""
"68","","bandit","132","847458","0.0-94.0-0.0","26847126","wem/bandit_single","A2UHF7UL7G0Y78","gain","4","","75","K","2","","0","0","1","0.3445045135","","false","57","0.2042340564","","main_expt","0.2336203315","","0.3445045135","","0.2834250679","","","","","","",""
"103","","bandit","133","849321","0.0-95.0-0.0","26847126","wem/bandit_single","A2UHF7UL7G0Y78","gain","4","","75","K","2","","1","0","0","0.3390226593","","false","58","0.1490893454","","main_expt","0.189887459","","0.3390226593","","0.2690284398","","","","","","",""
"62","","bandit","134","851143","0.0-96.0-0.0","26847126","wem/bandit_single","A2UHF7UL7G0Y78","gain","4","","75","K","2","","0","0","1","0.2666291788","","false","59","0.1581154669","","main_expt","0.1548607402","","0.2666291788","","0.2616697142","","","","","","",""
"165","","bandit","135","853066","0.0-97.0-0.0","26847126","wem/bandit_single","A2UHF7UL7G0Y78","gain","4","","75","K","2","","1","0","0","0.246985882","","false","60","0.1715954381","","main_expt","0.1233285174","","0.246985882","","0.2704186185","","","","","","",""
"103","","bandit","136","854931","0.0-98.0-0.0","26847126","wem/bandit_single","A2UHF7UL7G0Y78","gain","4","","75","K","2","","0","0","1","0.2171589204","","false","61","0.1999420892","","main_expt","0.186549837","","0.2171589204","","0.3376037184","","","","","","",""
"165","","bandit","137","856855","0.0-99.0-0.0","26847126","wem/bandit_single","A2UHF7UL7G0Y78","gain","4","","75","K","2","","1","0","0","0.2677831299","","false","62","0.1539309088","","main_expt","0.1420872584","","0.2677831299","","0.3098521258","","","","","","",""
"45","","bandit","138","858663","0.0-100.0-0.0","26847126","wem/bandit_single","A2UHF7UL7G0Y78","gain","4","","75","K","2","","0","0","1","0.2303454974","","false","63","0.1085632924","","main_expt","0.151707711","","0.2303454974","","0.3137631198","","","","","","",""
"12","","bandit","139","860434","0.0-101.0-0.0","26847126","wem/bandit_single","A2UHF7UL7G0Y78","gain","4","","75","K","2","","0","0","1","0.196947777","","false","64","0.1370187426","","main_expt","0.1474827626","","0.196947777","","0.3179430645","","","","","","",""
"163","","bandit","140","862358","0.0-102.0-0.0","26847126","wem/bandit_single","A2UHF7UL7G0Y78","gain","4","","75","K","2","","0","0","1","0.1645630622","","false","65","0.1322062037","","main_expt","0.1746529425","","0.1645630622","","0.2980330155","","","","","","",""
"129","","bandit","141","864247","0.0-103.0-0.0","26847126","wem/bandit_single","A2UHF7UL7G0Y78","gain","4","","75","K","2","","0","0","1","0.1533283495","","false","66","0.1496501041","","main_expt","0.1310865155","","0.1533283495","","0.2537140377","","","","","","",""
"100","","bandit","142","866109","0.0-104.0-0.0","26847126","wem/bandit_single","A2UHF7UL7G0Y78","gain","4","","75","K","2","","0","0","1","0.1708403009","","false","67","0.1626820295","","main_expt","0.1370872981","","0.1708403009","","0.2153704701","","","","","","",""
"62","","bandit","143","867935","0.0-105.0-0.0","26847126","wem/bandit_single","A2UHF7UL7G0Y78","gain","4","","72","H","0","img/none_selected.jpg","0","0","1","0.1989514297","","false","68","0.1989514297","","main_expt","0.09914494933","","0.1887917493","","0.2417705853","","","","","","",""
"143","","bandit","144","869839","0.0-106.0-0.0","26847126","wem/bandit_single","A2UHF7UL7G0Y78","gain","4","","74","J","1","","1","0","0","0.1092411584","","false","69","0.1888867792","","main_expt","0.1092411584","","0.2160515082","","0.3235463827","","","","","","",""
"85","","bandit","145","871688","0.0-107.0-0.0","26847126","wem/bandit_single","A2UHF7UL7G0Y78","gain","4","","74","J","1","","0","0","1","0.1213917008","","false","70","0.1767550628","","main_expt","0.1213917008","","0.2778565133","","0.3647615206","","","","","","",""
"163","","bandit","146","873612","0.0-108.0-0.0","26847126","wem/bandit_single","A2UHF7UL7G0Y78","gain","4","","74","J","1","","1","0","0","0.1479005197","","false","71","0.1253641033","","main_expt","0.1479005197","","0.2623699359","","0.3472934012","","","","","","",""
"109","","bandit","147","875481","0.0-109.0-0.0","26847126","wem/bandit_single","A2UHF7UL7G0Y78","gain","4","","74","J","1","","0","0","1","0.1931369739","","false","72","0.1319365506","","main_expt","0.1931369739","","0.2574081817","","0.2965124106","","","","","","",""
"379","","bandit","148","877622","0.0-110.0-0.0","26847126","wem/bandit_single","A2UHF7UL7G0Y78","gain","4","","74","J","1","","1","0","0","0.1900103681","","false","73","0.1061905376","","main_expt","0.1900103681","","0.2503470883","","0.2823595977","","","","","","",""
"137","","bandit","149","879520","0.0-111.0-0.0","26847126","wem/bandit_single","A2UHF7UL7G0Y78","gain","4","","74","J","1","","0","0","1","0.1344428369","","false","74","0.1303083533","","main_expt","0.1344428369","","0.2710758316","","0.2835749375","","","","","","",""
"188","","bandit","150","881470","0.0-112.0-0.0","26847126","wem/bandit_single","A2UHF7UL7G0Y78","gain","4","","74","J","1","","0","0","1","0.1528357022","","false","75","0.1359111238","","main_expt","0.1528357022","","0.260759121","","0.3526847528","","","","","","",""
"92","","bandit","151","883322","0.0-113.0-0.0","26847126","wem/bandit_single","A2UHF7UL7G0Y78","gain","4","","74","J","1","","0","0","1","0.1898592508","","false","76","0.1128391495","","main_expt","0.1898592508","","0.2610050464","","0.3434196486","","","","","","",""
"147","","bandit","152","885228","0.0-114.0-0.0","26847126","wem/bandit_single","A2UHF7UL7G0Y78","gain","4","","74","J","1","","0","0","1","0.191464519","","false","77","0.1118044987","","main_expt","0.191464519","","0.1920601856","","0.3073782559","","","","","","",""
"76","","bandit","153","887070","0.0-115.0-0.0","26847126","wem/bandit_single","A2UHF7UL7G0Y78","gain","4","","75","K","2","","0","0","1","0.1726035312","","false","78","0.1315400358","","main_expt","0.2665821314","","0.1726035312","","0.3200097729","","","","","","",""
"325","","bandit","154","889156","0.0-116.0-0.0","26847126","wem/bandit_single","A2UHF7UL7G0Y78","gain","4","","75","K","2","","0","0","1","0.1974193715","","false","79","0.1421279646","","main_expt","0.2510402579","","0.1974193715","","0.3406321397","","","","","","",""
"225","","bandit","155","891141","0.0-117.0-0.0","26847126","wem/bandit_single","A2UHF7UL7G0Y78","gain","4","","75","K","2","","0","0","1","0.1771423485","","false","80","0.1666910293","","main_expt","0.2803090616","","0.1771423485","","0.2934749235","","","","","","",""
"240","","bandit","156","893142","0.0-118.0-0.0","26847126","wem/bandit_single","A2UHF7UL7G0Y78","gain","4","","75","K","2","","0","0","1","0.1689426189","","false","81","0.1514130178","","main_expt","0.3053401272","","0.1689426189","","0.3080678564","","","","","","",""
"67","","bandit","157","894969","0.0-119.0-0.0","26847126","wem/bandit_single","A2UHF7UL7G0Y78","gain","4","","75","K","2","","0","0","1","0.2008945118","","false","82","0.1667518413","","main_expt","0.3079009489","","0.2008945118","","0.3118316764","","","","","","",""
"435","","bandit","158","897168","0.0-120.0-0.0","26847126","wem/bandit_single","A2UHF7UL7G0Y78","gain","4","","75","K","2","","0","0","1","0.2679993971","","false","83","0.1620161121","","main_expt","0.3294465445","","0.2679993971","","0.2539803618","","","","","","",""
"72","","bandit","159","899005","0.0-121.0-0.0","26847126","wem/bandit_single","A2UHF7UL7G0Y78","gain","4","","75","K","2","","0","0","1","0.2187304288","","false","84","0.1920696542","","main_expt","0.3567704092","","0.2187304288","","0.2665148507","","","","","","",""
"521","","bandit","160","901287","0.0-122.0-0.0","26847126","wem/bandit_single","A2UHF7UL7G0Y78","gain","4","","75","K","2","","0","0","1","0.2668074714","","false","85","0.1790321084","","main_expt","0.3637986046","","0.2668074714","","0.2638978108","","","","","","",""
"102","","bandit","161","903154","0.0-123.0-0.0","26847126","wem/bandit_single","A2UHF7UL7G0Y78","gain","4","","75","K","2","","0","0","1","0.3011617684","","false","86","0.1644507099","","main_expt","0.3661817966","","0.3011617684","","0.2430370424","","","","","","",""
"124","","bandit","162","905039","0.0-124.0-0.0","26847126","wem/bandit_single","A2UHF7UL7G0Y78","gain","4","","74","J","1","","0","0","1","0.349996741","","false","87","0.1731377232","","main_expt","0.349996741","","0.2866912597","","0.2369050713","","","","","","",""
"944","","bandit","163","907747","0.0-125.0-0.0","26847126","wem/bandit_single","A2UHF7UL7G0Y78","gain","4","","72","H","0","img/none_selected.jpg","0","0","1","0.1562940882","","false","88","0.1562940882","","main_expt","0.3021468993","","0.2921806028","","0.2322244834","","","","","","",""
"761","","bandit","164","910270","0.0-126.0-0.0","26847126","wem/bandit_single","A2UHF7UL7G0Y78","gain","4","","74","J","1","","0","0","1","0.2752269066","","false","89","0.1344734597","","main_expt","0.2752269066","","0.2877077994","","0.214722025","","","","","","",""
"339","","bandit","165","912372","0.0-127.0-0.0","26847126","wem/bandit_single","A2UHF7UL7G0Y78","gain","4","","75","K","2","","0","0","1","0.2390413286","","false","90","0.1192135027","","main_expt","0.3172240337","","0.2390413286","","0.1767670318","","","","","","",""
"754","","bandit","166","914886","0.0-128.0-0.0","26847126","wem/bandit_single","A2UHF7UL7G0Y78","gain","4","","76","L","3","","0","0","1","0.1391375388","","false","91","0.1639104845","","main_expt","0.3049723864","","0.2582098676","","0.1391375388","","","","","","",""
"223","","bandit","167","916875","0.0-129.0-0.0","26847126","wem/bandit_single","A2UHF7UL7G0Y78","gain","4","","76","L","3","","1","0","0","0.1283323985","","false","92","0.1960431165","","main_expt","0.3261529518","","0.3066747335","","0.1283323985","","","","","","",""
"130","","bandit","168","918767","0.0-130.0-0.0","26847126","wem/bandit_single","A2UHF7UL7G0Y78","gain","4","","76","L","3","","0","0","1","0.07538544447","","false","93","0.2137056669","","main_expt","0.3550538726","","0.3051362106","","0.07538544447","","","","","","",""
"233","","bandit","169","920761","0.0-131.0-0.0","26847126","wem/bandit_single","A2UHF7UL7G0Y78","gain","4","","76","L","3","","1","0","0","0.07407963518","","false","94","0.2188004936","","main_expt","0.3335231974","","0.3433649514","","0.07407963518","","","","","","",""
"133","","bandit","170","922657","0.0-132.0-0.0","26847126","wem/bandit_single","A2UHF7UL7G0Y78","gain","4","","76","L","3","","0","0","1","0.06265185683","","false","95","0.2442185641","","main_expt","0.3060397856","","0.3638642947","","0.06265185683","","","","","","",""
"1072","","bandit","171","925498","0.0-133.0-0.0","26847126","wem/bandit_single","A2UHF7UL7G0Y78","gain","4","","76","L","3","","0","0","1","0.0626930361","","false","96","0.2062156096","","main_expt","0.3420618169","","0.3433071503","","0.0626930361","","","","","","",""
"56","","bandit","172","927316","0.0-134.0-0.0","26847126","wem/bandit_single","A2UHF7UL7G0Y78","gain","4","","76","L","3","","0","0","1","0.03702031205","","false","97","0.1824441478","","main_expt","0.3451805041","","0.3287523936","","0.03702031205","","","","","","",""
"374","","bandit","173","929453","0.0-135.0-0.0","26847126","wem/bandit_single","A2UHF7UL7G0Y78","gain","4","","76","L","3","","0","0","1","0.02896114516","","false","98","0.1741419228","","main_expt","0.3067376926","","0.3384657171","","0.02896114516","","","","","","",""
"354","","bandit","174","931570","0.0-136.0-0.0","26847126","wem/bandit_single","A2UHF7UL7G0Y78","gain","4","","76","L","3","","0","0","1","0.04301278827","","false","99","0.1402348549","","main_expt","0.2980645096","","0.3929596429","","0.04301278827","","","","","","",""
"327","","bandit","175","933658","0.0-137.0-0.0","26847126","wem/bandit_single","A2UHF7UL7G0Y78","gain","4","","76","L","3","","0","0","1","0.03198738169","","false","100","0.1856728267","","main_expt","0.2862788702","","0.3972918561","","0.03198738169","","","","","","",""
"76","","bandit","176","935498","0.0-138.0-0.0","26847126","wem/bandit_single","A2UHF7UL7G0Y78","gain","4","","75","K","2","","1","0","0","0.4064604032","","false","101","0.1731032509","","main_expt","0.2622165861","","0.4064604032","","0.03387094668","","","","","","",""
"90","","bandit","177","937352","0.0-139.0-0.0","26847126","wem/bandit_single","A2UHF7UL7G0Y78","gain","4","","75","K","2","","0","0","1","0.4273413635","","false","102","0.1387116465","","main_expt","0.3261799811","","0.4273413635","","0.0235124197","","","","","","",""
"65","","bandit","178","939181","0.0-140.0-0.0","26847126","wem/bandit_single","A2UHF7UL7G0Y78","gain","4","","75","K","2","","1","0","0","0.4566487837","","false","103","0.1880660303","","main_expt","0.334814711","","0.4566487837","","0.02482610326","","","","","","",""
"217","","bandit","179","941158","0.0-141.0-0.0","26847126","wem/bandit_single","A2UHF7UL7G0Y78","gain","4","","75","K","2","","0","0","1","0.459539636","","false","104","0.142060421","","main_expt","0.3486298313","","0.459539636","","0.03330094042","","","","","","",""
"243","","bandit","180","943165","0.0-142.0-0.0","26847126","wem/bandit_single","A2UHF7UL7G0Y78","gain","4","","75","K","2","","0","0","1","0.4462881264","","false","105","0.1839839798","","main_expt","0.3538911629","","0.4462881264","","0.06543537915","","","","","","",""
"84","","bandit","181","945011","0.0-143.0-0.0","26847126","wem/bandit_single","A2UHF7UL7G0Y78","gain","4","","75","K","2","","0","0","1","0.4417011126","","false","106","0.1691947451","","main_expt","0.3886974852","","0.4417011126","","0.07051160025","","","","","","",""
"347","","bandit","182","947120","0.0-144.0-0.0","26847126","wem/bandit_single","A2UHF7UL7G0Y78","gain","4","","75","K","2","","0","0","1","0.4419194373","","false","107","0.180010917","","main_expt","0.3489433712","","0.4419194373","","0.08830456602","","","","","","",""
"956","","bandit","183","949837","0.0-145.0-0.0","26847126","wem/bandit_single","A2UHF7UL7G0Y78","gain","4","","74","J","1","","0","0","1","0.3901728218","","false","108","0.1338722415","","main_expt","0.3901728218","","0.4061848383","","0.05921849724","","","","","","",""
"296","","bandit","184","951898","0.0-146.0-0.0","26847126","wem/bandit_single","A2UHF7UL7G0Y78","gain","4","","74","J","1","","0","0","1","0.4006799949","","false","109","0.1350853679","","main_expt","0.4006799949","","0.3906669636","","0.04581125366","","","","","","",""
"1668","","bandit","185","955328","0.0-147.0-0.0","26847126","wem/bandit_single","A2UHF7UL7G0Y78","gain","4","","75","K","2","","0","0","1","0.3969614195","","false","110","0.184551263","","main_expt","0.3867714499","","0.3969614195","","0.08345510588","","","","","","",""
"57","","bandit","186","957146","0.0-148.0-0.0","26847126","wem/bandit_single","A2UHF7UL7G0Y78","gain","4","","75","K","2","","1","0","0","0.370186674","","false","111","0.2635344293","","main_expt","0.4252141842","","0.370186674","","0.07355878572","","","","","","",""
"15","","bandit","187","958928","0.0-149.0-0.0","26847126","wem/bandit_single","A2UHF7UL7G0Y78","gain","4","","75","K","2","","1","0","0","0.3488043283","","false","112","0.2972025743","","main_expt","0.4197282726","","0.3488043283","","0.09226575929","","","","","","",""
"763","","bandit","188","961452","0.0-150.0-0.0","26847126","wem/bandit_single","A2UHF7UL7G0Y78","gain","4","","75","K","2","","0","0","1","0.2886117592","","false","113","0.2853398636","","main_expt","0.4371411526","","0.2886117592","","0.07711661396","","","","","","",""
"92","","bandit","189","963309","0.0-151.0-0.0","26847126","wem/bandit_single","A2UHF7UL7G0Y78","gain","4","","75","K","2","","0","0","1","0.3507025671","","false","114","0.2354235092","","main_expt","0.4523407119","","0.3507025671","","0.09366406151","","","","","","",""
"357","","bandit","190","965430","0.0-152.0-0.0","26847126","wem/bandit_single","A2UHF7UL7G0Y78","gain","4","","75","K","2","","0","0","1","0.3308051733","","false","115","0.2228923984","","main_expt","0.4544977282","","0.3308051733","","0.09297781317","","","","","","",""
"570","","bandit","191","967766","0.0-153.0-0.0","26847126","wem/bandit_single","A2UHF7UL7G0Y78","gain","4","","75","K","2","","0","0","1","0.2696902145","","false","116","0.182615248","","main_expt","0.4458191396","","0.2696902145","","0.09292735615","","","","","","",""
"221","","bandit","192","969748","0.0-154.0-0.0","26847126","wem/bandit_single","A2UHF7UL7G0Y78","gain","4","","75","K","2","","0","0","1","0.3048340551","","false","117","0.1702457594","","main_expt","0.4384124693","","0.3048340551","","0.1277349031","","","","","","",""
"54","","bandit","193","971569","0.0-155.0-0.0","26847126","wem/bandit_single","A2UHF7UL7G0Y78","gain","4","","75","K","2","","0","0","1","0.2682044258","","false","118","0.2075823826","","main_expt","0.4590850855","","0.2682044258","","0.1057820856","","","","","","",""
"792","","bandit","194","974126","0.0-156.0-0.0","26847126","wem/bandit_single","A2UHF7UL7G0Y78","gain","4","","75","K","2","","1","0","0","0.2314514612","","false","119","0.2281388084","","main_expt","0.4718937063","","0.2314514612","","0.08453932314","","","","","","",""
"373","","bandit","195","976264","0.0-157.0-0.0","26847126","wem/bandit_single","A2UHF7UL7G0Y78","gain","4","","75","K","2","","0","0","1","0.197474053","","false","120","0.2620651535","","main_expt","0.4645470247","","0.197474053","","0.1106897037","","","","","","",""
"295","","bandit","196","978327","0.0-158.0-0.0","26847126","wem/bandit_single","A2UHF7UL7G0Y78","gain","4","","75","K","2","","0","0","1","0.1819521248","","false","121","0.2953433235","","main_expt","0.4422277234","","0.1819521248","","0.1200625234","","","","","","",""
"437","","bandit","197","980529","0.0-159.0-0.0","26847126","wem/bandit_single","A2UHF7UL7G0Y78","gain","4","","75","K","2","","0","0","1","0.171732915","","false","122","0.2702367277","","main_expt","0.4150525319","","0.171732915","","0.1570760405","","","","","","",""
"360","","bandit","198","982653","0.0-160.0-0.0","26847126","wem/bandit_single","A2UHF7UL7G0Y78","gain","4","","75","K","2","","0","0","1","0.1577660673","","false","123","0.3190818872","","main_expt","0.4356762379","","0.1577660673","","0.1616024906","","","","","","",""
"60","","bandit","199","984479","0.0-161.0-0.0","26847126","wem/bandit_single","A2UHF7UL7G0Y78","gain","4","","75","K","2","","0","0","1","0.1384195938","","false","124","0.3415455108","","main_expt","0.4475351861","","0.1384195938","","0.1371750093","","","","","","",""
"66","","bandit","200","986315","0.0-162.0-0.0","26847126","wem/bandit_single","A2UHF7UL7G0Y78","gain","4","","75","K","2","","0","0","1","0.1367208018","","false","125","0.3955313072","","main_expt","0.4310995666","","0.1367208018","","0.1293707667","","","","","","",""
"100","","bandit","201","988179","0.0-163.0-0.0","26847126","wem/bandit_single","A2UHF7UL7G0Y78","gain","4","","75","K","2","","0","0","1","0.14570125","","false","126","0.4150522509","","main_expt","0.4246911586","","0.14570125","","0.1231453761","","","","","","",""
"235","","bandit","202","990180","0.0-164.0-0.0","26847126","wem/bandit_single","A2UHF7UL7G0Y78","gain","4","","75","K","2","","0","0","1","0.116128816","","false","127","0.3803228979","","main_expt","0.3855858577","","0.116128816","","0.1044431599","","","","","","",""
"13","","bandit","203","991958","0.0-165.0-0.0","26847126","wem/bandit_single","A2UHF7UL7G0Y78","gain","4","","75","K","2","","0","0","1","0.1118736017","","false","128","0.4028097642","","main_expt","0.3886900275","","0.1118736017","","0.07509994275","","","","","","",""
"304","","bandit","204","994024","0.0-166.0-0.0","26847126","wem/bandit_single","A2UHF7UL7G0Y78","gain","4","","75","K","2","","0","0","1","0.1153634536","","false","129","0.3759087187","","main_expt","0.3712880315","","0.1153634536","","0.07499531951","","","","","","",""
"175","","bandit","205","995968","0.0-167.0-0.0","26847126","wem/bandit_single","A2UHF7UL7G0Y78","gain","4","","75","K","2","","0","0","1","0.09323577747","","false","130","0.3578404683","","main_expt","0.3163545042","","0.09323577747","","0.06898381409","","","","","","",""
"824","","bandit","206","998557","0.0-168.0-0.0","26847126","wem/bandit_single","A2UHF7UL7G0Y78","gain","4","","75","K","2","","0","0","1","0.1064947735","","false","131","0.3874222675","","main_expt","0.3203759455","","0.1064947735","","0.08255272978","","","","","","",""
"905","","bandit","207","1001227","0.0-169.0-0.0","26847126","wem/bandit_single","A2UHF7UL7G0Y78","gain","4","","75","K","2","","0","0","1","0.1574274544","","false","132","0.3773694481","","main_expt","0.3128419263","","0.1574274544","","0.06266196304","","","","","","",""
"295","","bandit","208","1003287","0.0-170.0-0.0","26847126","wem/bandit_single","A2UHF7UL7G0Y78","gain","4","","75","K","2","","0","0","1","0.1613106331","","false","133","0.3961249281","","main_expt","0.3057041938","","0.1613106331","","0.06584579886","","","","","","",""
"303","","bandit","209","1005351","0.0-171.0-0.0","26847126","wem/bandit_single","A2UHF7UL7G0Y78","gain","4","","75","K","2","","1","0","0","0.1660744508","","false","134","0.4152923946","","main_expt","0.2816585421","","0.1660744508","","0.05935363428","","","","","","",""
"196","","bandit","210","1007315","0.0-172.0-0.0","26847126","wem/bandit_single","A2UHF7UL7G0Y78","gain","4","","75","K","2","","0","0","1","0.1973964499","","false","135","0.4424865849","","main_expt","0.2955422992","","0.1973964499","","0.05732645975","","","","","","",""
"61","","bandit","211","1009144","0.0-173.0-0.0","26847126","wem/bandit_single","A2UHF7UL7G0Y78","gain","4","","75","K","2","","0","0","1","0.1813196928","","false","136","0.4465543098","","main_expt","0.3509846551","","0.1813196928","","0.07342087183","","","","","","",""
"277","","bandit","212","1011187","0.0-174.0-0.0","26847126","wem/bandit_single","A2UHF7UL7G0Y78","gain","4","","75","K","2","","0","0","1","0.1859539446","","false","137","0.4520996047","","main_expt","0.3344410146","","0.1859539446","","0.07676045657","","","","","","",""
"83","","bandit","213","1013035","0.0-175.0-0.0","26847126","wem/bandit_single","A2UHF7UL7G0Y78","gain","4","","75","K","2","","0","0","1","0.1014888705","","false","138","0.428300575","","main_expt","0.2657268636","","0.1014888705","","0.09127868582","","","","","","",""
"521","","bandit","214","1015326","0.0-176.0-0.0","26847126","wem/bandit_single","A2UHF7UL7G0Y78","gain","4","","75","K","2","","0","0","1","0.09034098631","","false","139","0.419833238","","main_expt","0.2267955479","","0.09034098631","","0.1057771966","","","","","","",""
"183","","bandit","215","1017274","0.0-177.0-0.0","26847126","wem/bandit_single","A2UHF7UL7G0Y78","gain","4","","75","K","2","","0","0","1","0.09102227313","","false","140","0.423721229","","main_expt","0.2278141127","","0.09102227313","","0.1134354218","","","","","","",""
"160","","bandit","216","1019200","0.0-178.0-0.0","26847126","wem/bandit_single","A2UHF7UL7G0Y78","gain","4","","76","L","3","","0","0","1","0.1205694848","","false","141","0.4382479885","","main_expt","0.23653477","","0.1095349378","","0.1205694848","","","","","","",""
"172","","bandit","217","1021138","0.0-179.0-0.0","26847126","wem/bandit_single","A2UHF7UL7G0Y78","gain","4","","76","L","3","","0","0","1","0.1423721259","","false","142","0.4247465964","","main_expt","0.2155890047","","0.1184068784","","0.1423721259","","","","","","",""
"110","","bandit","218","1023011","0.0-180.0-0.0","26847126","wem/bandit_single","A2UHF7UL7G0Y78","gain","4","","76","L","3","","0","0","1","0.1199770031","","false","143","0.3978340057","","main_expt","0.2203428631","","0.1056920569","","0.1199770031","","","","","","",""
"71","","bandit","219","1024847","0.0-181.0-0.0","26847126","wem/bandit_single","A2UHF7UL7G0Y78","gain","4","","74","J","1","","0","0","1","0.1834171178","","false","144","0.4094639435","","main_expt","0.1834171178","","0.1563123998","","0.1431068991","","","","","","",""
"656","","bandit","220","1027268","0.0-182.0-0.0","26847126","wem/bandit_single","A2UHF7UL7G0Y78","gain","4","","74","J","1","","0","0","1","0.2064693802","","false","145","0.4198905501","","main_expt","0.2064693802","","0.09088636348","","0.1630017245","","","","","","",""
"129","","bandit","221","1029168","0.0-183.0-0.0","26847126","wem/bandit_single","A2UHF7UL7G0Y78","gain","4","","74","J","1","","0","0","1","0.1342941172","","false","146","0.4050886303","","main_expt","0.1342941172","","0.0827806059","","0.145034553","","","","","","",""
"192","","bandit","222","1031125","0.0-184.0-0.0","26847126","wem/bandit_single","A2UHF7UL7G0Y78","gain","4","","74","J","1","","1","0","0","0.1515740161","","false","147","0.3785891444","","main_expt","0.1515740161","","0.1149215639","","0.1488017726","","","","","","",""
"295","","bandit","223","1033187","0.0-185.0-0.0","26847126","wem/bandit_single","A2UHF7UL7G0Y78","gain","4","","74","J","1","","0","0","1","0.1212747878","","false","148","0.3854511928","","main_expt","0.1212747878","","0.1099148444","","0.1582677895","","","","","","",""
"290","","bandit","224","1035245","0.0-186.0-0.0","26847126","wem/bandit_single","A2UHF7UL7G0Y78","gain","4","","74","J","1","","0","0","1","0.08453377975","","false","149","0.3928641012","","main_expt","0.08453377975","","0.1127327795","","0.1647072654","","","","","","",""
"191","","bandit","225","1037207","0.0-187.0-0.0","26847126","wem/bandit_single","A2UHF7UL7G0Y78","gain","4","","74","J","1","","0","0","1","0.1060211344","","false","150","0.3981420368","","main_expt","0.1060211344","","0.1477728786","","0.1333243968","","","","","","",""
"79","","bandit","226","1039051","0.0-188.0-0.0","26847126","wem/bandit_single","A2UHF7UL7G0Y78","gain","4","","75","K","2","","0","0","1","0.1634569086","","false","151","0.3954234158","","main_expt","0.06473992137","","0.1634569086","","0.1232516149","","","","","","",""
"123","","bandit","227","1040938","0.0-189.0-0.0","26847126","wem/bandit_single","A2UHF7UL7G0Y78","gain","4","","75","K","2","","0","0","1","0.2119786212","","false","152","0.3684376671","","main_expt","0.07847139908","","0.2119786212","","0.1218764731","","","","","","",""
"296","","bandit","228","1043006","0.0-190.0-0.0","26847126","wem/bandit_single","A2UHF7UL7G0Y78","gain","4","","72","H","0","img/none_selected.jpg","1","0","0","0.3586265296","","false","153","0.3586265296","","main_expt","0.06170083269","","0.190815194","","0.1181944444","","","","","","",""
"223","","bandit","229","1044995","0.0-191.0-0.0","26847126","wem/bandit_single","A2UHF7UL7G0Y78","gain","4","","72","H","0","img/none_selected.jpg","1","0","0","0.3711835277","","false","154","0.3711835277","","main_expt","0.07752027139","","0.2539230859","","0.1524072167","","","","","","",""
"305","","bandit","230","1047068","0.0-192.0-0.0","26847126","wem/bandit_single","A2UHF7UL7G0Y78","gain","4","","72","H","0","img/none_selected.jpg","1","0","0","0.3296220366","","false","155","0.3296220366","","main_expt","0.07430376846","","0.2214647723","","0.2181316645","","","","","","",""
"163","","bandit","231","1049002","0.0-193.0-0.0","26847126","wem/bandit_single","A2UHF7UL7G0Y78","gain","4","","72","H","0","img/none_selected.jpg","0","0","1","0.287903252","","false","156","0.287903252","","main_expt","0.05925504694","","0.1812397975","","0.213475765","","","","","","",""
"288","","bandit","232","1051057","0.0-194.0-0.0","26847126","wem/bandit_single","A2UHF7UL7G0Y78","gain","4","","72","H","0","img/none_selected.jpg","0","0","1","0.296290929","","false","157","0.296290929","","main_expt","0.0737155059","","0.1447548225","","0.2264995707","","","","","","",""
"283","","bandit","233","1053108","0.0-195.0-0.0","26847126","wem/bandit_single","A2UHF7UL7G0Y78","gain","4","","75","K","2","","1","0","0","0.1458137519","","false","158","0.2721348168","","main_expt","0.05755321342","","0.1458137519","","0.2991482761","","","","","","",""
"545","","bandit","234","1055420","0.0-196.0-0.0","26847126","wem/bandit_single","A2UHF7UL7G0Y78","gain","4","","74","J","1","","0","0","1","0.1007830752","","false","159","0.2765185667","","main_expt","0.1007830752","","0.1035755389","","0.3365391658","","","","","","",""
"1326","","bandit","235","1058514","0.0-197.0-0.0","26847126","wem/bandit_single","A2UHF7UL7G0Y78","gain","4","","75","K","2","","1","0","0","0.1142027444","","false","160","0.3162688162","","main_expt","0.06149362121","","0.1142027444","","0.313402929","","","","","","",""
"639","","bandit","236","1060921","0.0-198.0-0.0","26847126","wem/bandit_single","A2UHF7UL7G0Y78","gain","4","","75","K","2","","1","0","0","0.1510988582","","false","161","0.3302336848","","main_expt","0.09516109007","","0.1510988582","","0.3529908654","","","","","","",""
"420","","bandit","237","1063110","0.0-199.0-0.0","26847126","wem/bandit_single","A2UHF7UL7G0Y78","gain","4","","75","K","2","","0","0","1","0.1720124831","","false","162","0.3622896815","","main_expt","0.08429007215","","0.1720124831","","0.3608295961","","","","","","",""
"695","","bandit","238","1065575","0.0-200.0-0.0","26847126","wem/bandit_single","A2UHF7UL7G0Y78","gain","4","","76","L","3","","0","0","1","0.4197284319","","false","163","0.3696580379","","main_expt","0.1199893575","","0.2119433459","","0.4197284319","","","","","","",""
"83","","bandit","239","1067426","0.0-201.0-0.0","26847126","wem/bandit_single","A2UHF7UL7G0Y78","gain","4","","72","H","0","img/none_selected.jpg","0","0","1","0.3217553384","","false","164","0.3217553384","","main_expt","0.1353867718","","0.2413639604","","0.4162507976","","","","","","",""
"260","","bandit","240","1069454","0.0-202.0-0.0","26847126","wem/bandit_single","A2UHF7UL7G0Y78","gain","4","","74","J","1","","1","0","0","0.08700720397","","false","165","0.2370356752","","main_expt","0.08700720397","","0.3231443763","","0.424344073","","","","","","",""
"29","","bandit","241","1071251","0.0-203.0-0.0","26847126","wem/bandit_single","A2UHF7UL7G0Y78","gain","4","","74","J","1","","0","0","1","0.09613155095","","false","166","0.1952619304","","main_expt","0.09613155095","","0.2907209657","","0.4385436022","","","","","","",""
"1040","","bandit","242","1074056","0.0-204.0-0.0","26847126","wem/bandit_single","A2UHF7UL7G0Y78","gain","4","","75","K","2","","0","0","1","0.2386263765","","false","167","0.2008635704","","main_expt","0.08740230362","","0.2386263765","","0.4428370211","","","","","","",""
"110","","bandit","243","1075934","0.0-205.0-0.0","26847126","wem/bandit_single","A2UHF7UL7G0Y78","gain","4","","75","K","2","","0","0","1","0.2802872421","","false","168","0.2872582577","","main_expt","0.1033010443","","0.2802872421","","0.4475632301","","","","","","",""
"515","","bandit","244","1078217","0.0-206.0-0.0","26847126","wem/bandit_single","A2UHF7UL7G0Y78","gain","4","","75","K","2","","0","0","1","0.2858578204","","false","169","0.2478638945","","main_expt","0.1288835215","","0.2858578204","","0.4358894507","","","","","","",""
"495","","bandit","245","1080478","0.0-207.0-0.0","26847126","wem/bandit_single","A2UHF7UL7G0Y78","gain","4","","75","K","2","","1","0","0","0.3542119366","","false","170","0.2335785199","","main_expt","0.0821831217","","0.3542119366","","0.4401344765","","","","","","",""
"542","","bandit","246","1082787","0.0-208.0-0.0","26847126","wem/bandit_single","A2UHF7UL7G0Y78","gain","4","","75","K","2","","0","0","1","0.363516632","","false","171","0.263029084","","main_expt","0.08448133796","","0.363516632","","0.4182824287","","","","","","",""
"316","","bandit","247","1084870","0.0-209.0-0.0","26847126","wem/bandit_single","A2UHF7UL7G0Y78","gain","4","","75","K","2","","1","0","0","0.3285232471","","false","172","0.282237019","","main_expt","0.1142172702","","0.3285232471","","0.4206293302","","","","","","",""
"356","","bandit","248","1086999","0.0-210.0-0.0","26847126","wem/bandit_single","A2UHF7UL7G0Y78","gain","4","","75","K","2","","0","0","1","0.3379934215","","false","173","0.2798091978","","main_expt","0.1585219493","","0.3379934215","","0.4424673434","","","","","","",""
"403","","bandit","249","1089169","0.0-211.0-0.0","26847126","wem/bandit_single","A2UHF7UL7G0Y78","gain","4","","76","L","3","","0","0","1","0.4470793942","","false","174","0.2782342077","","main_expt","0.2167008269","","0.2937018888","","0.4470793942","","","","","","",""
"1021","","bandit","250","1091959","0.0-212.0-0.0","26847126","wem/bandit_single","A2UHF7UL7G0Y78","gain","4","","76","L","3","","0","0","1","0.4466152725","","false","175","0.3095951925","","main_expt","0.2564405216","","0.2691073907","","0.4466152725","","","","","","",""
"110","","bandit","251","1093838","0.0-213.0-0.0","26847126","wem/bandit_single","A2UHF7UL7G0Y78","gain","4","","76","L","3","","1","0","0","0.4622816701","","false","176","0.3149167583","","main_expt","0.2740916264","","0.2797966768","","0.4622816701","","","","","","",""
"119","","bandit","252","1095725","0.0-214.0-0.0","26847126","wem/bandit_single","A2UHF7UL7G0Y78","gain","4","","76","L","3","","0","0","1","0.4791174255","","false","177","0.3057016371","","main_expt","0.2701885048","","0.2956207272","","0.4791174255","","","","","","",""
"179","","bandit","253","1097675","0.0-215.0-0.0","26847126","wem/bandit_single","A2UHF7UL7G0Y78","gain","4","","76","L","3","","1","0","0","0.4878404122","","false","178","0.2973749651","","main_expt","0.2525299603","","0.2903749226","","0.4878404122","","","","","","",""
"734","","bandit","254","1100176","0.0-216.0-0.0","26847126","wem/bandit_single","A2UHF7UL7G0Y78","gain","4","","76","L","3","","0","0","1","0.4871204803","","false","179","0.3205080684","","main_expt","0.2923151224","","0.2324022499","","0.4871204803","","","","","","",""
"477","","bandit","255","1102422","0.0-217.0-0.0","26847126","wem/bandit_single","A2UHF7UL7G0Y78","gain","4","","76","L","3","","0","0","1","0.4783768728","","false","180","0.3668921479","","main_expt","0.2712435876","","0.157369965","","0.4783768728","","","","","","",""
"203","","bandit","256","1104391","0.0-218.0-0.0","26847126","wem/bandit_single","A2UHF7UL7G0Y78","gain","4","","76","L","3","","0","0","1","0.4791844977","","false","181","0.36743573","","main_expt","0.2911825171","","0.1928111427","","0.4791844977","","","","","","",""
"342","","bandit","257","1106501","0.0-219.0-0.0","26847126","wem/bandit_single","A2UHF7UL7G0Y78","gain","4","","76","L","3","","1","0","0","0.4796326775","","false","182","0.3444330154","","main_expt","0.2812290194","","0.1831473083","","0.4796326775","","","","","","",""
"182","","bandit","258","1108454","0.0-220.0-0.0","26847126","wem/bandit_single","A2UHF7UL7G0Y78","gain","4","","76","L","3","","0","0","1","0.4610412729","","false","183","0.376594699","","main_expt","0.2998653002","","0.1367876881","","0.4610412729","","","","","","",""
"346","","bandit","259","1110569","0.0-221.0-0.0","26847126","wem/bandit_single","A2UHF7UL7G0Y78","gain","4","","76","L","3","","1","0","0","0.4654872089","","false","184","0.3576767422","","main_expt","0.3019566185","","0.1225312115","","0.4654872089","","","","","","",""
"13","","bandit","260","1112355","0.0-222.0-0.0","26847126","wem/bandit_single","A2UHF7UL7G0Y78","gain","4","","76","L","3","","1","0","0","0.4579605539","","false","185","0.3420219295","","main_expt","0.3297019868","","0.1342014861","","0.4579605539","","","","","","",""
"200","","bandit","261","1114326","0.0-223.0-0.0","26847126","wem/bandit_single","A2UHF7UL7G0Y78","gain","4","","76","L","3","","1","0","0","0.4285966985","","false","186","0.3398722127","","main_expt","0.3522504082","","0.1302900424","","0.4285966985","","","","","","",""
"264","","bandit","262","1116360","0.0-224.0-0.0","26847126","wem/bandit_single","A2UHF7UL7G0Y78","gain","4","","76","L","3","","1","0","0","0.4348535533","","false","187","0.3329123812","","main_expt","0.3716798598","","0.1721475048","","0.4348535533","","","","","","",""
"308","","bandit","263","1118435","0.0-225.0-0.0","26847126","wem/bandit_single","A2UHF7UL7G0Y78","gain","4","","76","L","3","","0","0","1","0.4485299143","","false","188","0.3185375489","","main_expt","0.3516931858","","0.194848396","","0.4485299143","","","","","","",""
"173","","bandit","264","1120377","0.0-226.0-0.0","26847126","wem/bandit_single","A2UHF7UL7G0Y78","gain","4","","76","L","3","","0","0","1","0.4108460603","","false","189","0.2819885058","","main_expt","0.311825216","","0.2010474049","","0.4108460603","","","","","","",""
"224","","bandit","265","1122369","0.0-227.0-0.0","26847126","wem/bandit_single","A2UHF7UL7G0Y78","gain","4","","76","L","3","","1","0","0","0.4276881046","","false","190","0.2938453289","","main_expt","0.3228194114","","0.2388592571","","0.4276881046","","","","","","",""
"148","","bandit","266","1124285","0.0-228.0-0.0","26847126","wem/bandit_single","A2UHF7UL7G0Y78","gain","4","","76","L","3","","0","0","1","0.4252680513","","false","191","0.3252392313","","main_expt","0.3070679034","","0.2125939305","","0.4252680513","","","","","","",""
"127","","bandit","267","1126181","0.0-229.0-0.0","26847126","wem/bandit_single","A2UHF7UL7G0Y78","gain","4","","76","L","3","","1","0","0","0.4128843357","","false","192","0.2886148476","","main_expt","0.3224985291","","0.2494953747","","0.4128843357","","","","","","",""
"279","","bandit","268","1128225","0.0-230.0-0.0","26847126","wem/bandit_single","A2UHF7UL7G0Y78","gain","4","","76","L","3","","0","0","1","0.3935422506","","false","193","0.2985788169","","main_expt","0.3869795439","","0.2831479201","","0.3935422506","","","","","","",""
"20","","bandit","269","1130011","0.0-231.0-0.0","26847126","wem/bandit_single","A2UHF7UL7G0Y78","gain","4","","76","L","3","","0","0","1","0.3844836544","","false","194","0.2480640489","","main_expt","0.4012627402","","0.3119862296","","0.3844836544","","","","","","",""
"512","","bandit","270","1132296","0.0-232.0-0.0","26847126","wem/bandit_single","A2UHF7UL7G0Y78","gain","4","","72","H","0","img/none_selected.jpg","0","0","1","0.2512767584","","false","195","0.2512767584","","main_expt","0.3984750166","","0.3216729489","","0.3676726872","","","","","","",""
"506","","bandit","271","1134570","0.0-233.0-0.0","26847126","wem/bandit_single","A2UHF7UL7G0Y78","gain","4","","72","H","0","img/none_selected.jpg","0","0","1","0.2465093633","","false","196","0.2465093633","","main_expt","0.354698241","","0.3321806914","","0.3789354293","","","","","","",""
"84","","bandit","272","1136425","0.0-234.0-0.0","26847126","wem/bandit_single","A2UHF7UL7G0Y78","gain","4","","74","J","1","","0","0","1","0.388220233","","false","197","0.2064088789","","main_expt","0.388220233","","0.3046277309","","0.3163718389","","","","","","",""
"453","","bandit","273","1138648","0.0-235.0-0.0","26847126","wem/bandit_single","A2UHF7UL7G0Y78","gain","4","","75","K","2","","0","0","1","0.2780350238","","false","198","0.1991167995","","main_expt","0.3702696144","","0.2780350238","","0.3791854339","","","","","","",""
"12","","bandit","274","1140432","0.0-236.0-0.0","26847126","wem/bandit_single","A2UHF7UL7G0Y78","gain","4","","76","L","3","","0","0","1","0.3677616307","","false","199","0.217931059","","main_expt","0.3901406761","","0.2933352516","","0.3677616307","","","","","","",""
"22","","bandit","275","1142228","0.0-237.0-0.0","26847126","wem/bandit_single","A2UHF7UL7G0Y78","gain","4","","72","H","0","img/none_selected.jpg","0","0","1","0.1684289921","","false","200","0.1684289921","","main_expt","0.3606677237","","0.2826656477","","0.3696360463","","","","","","",""
"1909","","bandit","276","1145910","0.0-238.0-0.0","26847126","wem/bandit_single","A2UHF7UL7G0Y78","gain","4","","74","J","1","","0","0","1","0.3608273241","","false","201","0.1526494416","","main_expt","0.3608273241","","0.2337361703","","0.3685313937","","","","","","",""
"523","","bandit","277","1148202","0.0-239.0-0.0","26847126","wem/bandit_single","A2UHF7UL7G0Y78","gain","4","","75","K","2","","0","0","1","0.1697000529","","false","202","0.1474087426","","main_expt","0.3495453025","","0.1697000529","","0.354480527","","","","","","",""
"684","","bandit","278","1150655","0.0-240.0-0.0","26847126","wem/bandit_single","A2UHF7UL7G0Y78","gain","4","","76","L","3","","0","0","1","0.3420940801","","false","203","0.1499100939","","main_expt","0.3660628182","","0.1941246875","","0.3420940801","","","","","","",""
"25","","bandit","279","1152448","0.0-241.0-0.0","26847126","wem/bandit_single","A2UHF7UL7G0Y78","gain","4","","76","L","3","","1","0","0","0.3365711719","","false","204","0.173155318","","main_expt","0.337040125","","0.2006574904","","0.3365711719","","","","","","",""
"72","","bandit","280","1154293","0.0-242.0-0.0","26847126","wem/bandit_single","A2UHF7UL7G0Y78","gain","4","","76","L","3","","0","0","1","0.3517226909","","false","205","0.1813441082","","main_expt","0.303371863","","0.1905393187","","0.3517226909","","","","","","",""
"1767","","bandit","281","1157829","0.0-243.0-0.0","26847126","wem/bandit_single","A2UHF7UL7G0Y78","gain","4","","72","H","0","img/none_selected.jpg","1","0","0","0.1491413167","","false","206","0.1491413167","","main_expt","0.256221391","","0.1715448013","","0.3476038752","","","","","","",""
"715","","bandit","282","1160312","0.0-244.0-0.0","26847126","wem/bandit_single","A2UHF7UL7G0Y78","gain","4","","72","H","0","img/none_selected.jpg","0","0","1","0.08847738283","","false","207","0.08847738283","","main_expt","0.2368802791","","0.1857981004","","0.3349551135","","","","","","",""
"1053","","bandit","283","1163136","0.0-245.0-0.0","26847126","wem/bandit_single","A2UHF7UL7G0Y78","gain","4","","74","J","1","","1","0","0","0.1949321076","","false","208","0.1283817583","","main_expt","0.1949321076","","0.2102455122","","0.342580335","","","","","","",""
"771","","bandit","284","1165674","0.0-246.0-0.0","26847126","wem/bandit_single","A2UHF7UL7G0Y78","gain","4","","74","J","1","","0","0","1","0.1838736563","","false","209","0.116273769","","main_expt","0.1838736563","","0.2400108979","","0.3043768385","","","","","","",""
"520","","bandit","285","1167961","0.0-247.0-0.0","26847126","wem/bandit_single","A2UHF7UL7G0Y78","gain","4","","74","J","1","","1","0","0","0.2021797606","","false","210","0.1255054793","","main_expt","0.2021797606","","0.2756077388","","0.2578785415","","","","","","",""
"215","","bandit","286","1169944","0.0-248.0-0.0","26847126","wem/bandit_single","A2UHF7UL7G0Y78","gain","4","","74","J","1","","1","0","0","0.1724183734","","false","211","0.1183517879","","main_expt","0.1724183734","","0.2509099491","","0.2684152162","","","","","","",""
"546","","bandit","287","1172260","0.0-249.0-0.0","26847126","wem/bandit_single","A2UHF7UL7G0Y78","gain","4","","74","J","1","","1","0","0","0.1730984207","","false","212","0.05794836862","","main_expt","0.1730984207","","0.1980821896","","0.2734791169","","","","","","",""
"329","","bandit","288","1174358","0.0-250.0-0.0","26847126","wem/bandit_single","A2UHF7UL7G0Y78","gain","4","","74","J","1","","1","0","0","0.1324166562","","false","213","0.05975327623","","main_expt","0.1324166562","","0.1925164192","","0.2278558496","","","","","","",""
"136","","bandit","289","1176265","0.0-251.0-0.0","26847126","wem/bandit_single","A2UHF7UL7G0Y78","gain","4","","74","J","1","","0","0","1","0.1503769339","","false","214","0.08438277685","","main_expt","0.1503769339","","0.2265747235","","0.3028606466","","","","","","",""
"179","","bandit","290","1178217","0.0-252.0-0.0","26847126","wem/bandit_single","A2UHF7UL7G0Y78","gain","4","","75","K","2","","1","0","0","0.2019374621","","false","215","0.06249742642","","main_expt","0.1957560139","","0.2019374621","","0.2931323275","","","","","","",""
"189","","bandit","291","1180177","0.0-253.0-0.0","26847126","wem/bandit_single","A2UHF7UL7G0Y78","gain","4","","75","K","2","","0","0","1","0.1789305456","","false","216","0.03962767808","","main_expt","0.2405167914","","0.1789305456","","0.3496422565","","","","","","",""
"158","","bandit","292","1182106","0.0-254.0-0.0","26847126","wem/bandit_single","A2UHF7UL7G0Y78","gain","4","","75","K","2","","0","0","1","0.1749198907","","false","217","0.04234009702","","main_expt","0.1730494568","","0.1749198907","","0.3773047798","","","","","","",""
"113","","bandit","293","1183990","0.0-255.0-0.0","26847126","wem/bandit_single","A2UHF7UL7G0Y78","gain","4","","76","L","3","","0","0","1","0.3416605923","","false","218","0.03503126556","","main_expt","0.194438436","","0.1735363699","","0.3416605923","","","","","","",""
"114","","bandit","294","1185870","0.0-256.0-0.0","26847126","wem/bandit_single","A2UHF7UL7G0Y78","gain","4","","76","L","3","","1","0","0","0.3559276739","","false","219","0.04555228435","","main_expt","0.1883779435","","0.2007391453","","0.3559276739","","","","","","",""
"222","","bandit","295","1187863","0.0-257.0-0.0","26847126","wem/bandit_single","A2UHF7UL7G0Y78","gain","4","","76","L","3","","0","0","1","0.3535435837","","false","220","0.03183460319","","main_expt","0.146052069","","0.2082644318","","0.3535435837","","","","","","",""
"448","","bandit","296","1190083","0.0-258.0-0.0","26847126","wem/bandit_single","A2UHF7UL7G0Y78","gain","4","","72","H","0","img/none_selected.jpg","0","0","1","0.05071015327","","false","221","0.05071015327","","main_expt","0.1494285134","","0.1821586712","","0.3418709783","","","","","","",""
"313","","bandit","297","1192167","0.0-259.0-0.0","26847126","wem/bandit_single","A2UHF7UL7G0Y78","gain","4","","72","H","0","img/none_selected.jpg","0","0","1","0.04027023507","","false","222","0.04027023507","","main_expt","0.182387278","","0.2158533928","","0.3004905908","","","","","","",""
"766","","bandit","298","1194704","0.0-260.0-0.0","26847126","wem/bandit_single","A2UHF7UL7G0Y78","gain","4","","74","J","1","","0","0","1","0.198140534","","false","223","0.05247893246","","main_expt","0.198140534","","0.1832968935","","0.3691689592","","","","","","",""
"309","","bandit","299","1196785","0.0-261.0-0.0","26847126","wem/bandit_single","A2UHF7UL7G0Y78","gain","4","","74","J","1","","0","0","1","0.1957066115","","false","224","0.06352932029","","main_expt","0.1957066115","","0.1701073256","","0.2915556832","","","","","","",""
"1356","","bandit","300","1199910","0.0-262.0-0.0","26847126","wem/bandit_single","A2UHF7UL7G0Y78","gain","4","","74","J","1","","0","0","1","0.2132826896","","false","225","0.04388745626","","main_expt","0.2132826896","","0.1599508429","","0.3175642321","","","","","","",""
"76","","bandit","301","1201767","0.0-263.0-0.0","26847126","wem/bandit_single","A2UHF7UL7G0Y78","gain","4","","75","K","2","","0","0","1","0.1801289829","","false","226","0.0536624769","","main_expt","0.2679811769","","0.1801289829","","0.2803716623","","","","","","",""
"276","","bandit","302","1203815","0.0-264.0-0.0","26847126","wem/bandit_single","A2UHF7UL7G0Y78","gain","4","","75","K","2","","0","0","1","0.1920788888","","false","227","0.07211167966","","main_expt","0.2101601544","","0.1920788888","","0.2506224893","","","","","","",""
"192","","bandit","303","1205778","0.0-265.0-0.0","26847126","wem/bandit_single","A2UHF7UL7G0Y78","gain","4","","76","L","3","","0","0","1","0.2890404278","","false","228","0.04486621846","","main_expt","0.1808571688","","0.1540575712","","0.2890404278","","","","","","",""
"223","","bandit","304","1207769","0.0-266.0-0.0","26847126","wem/bandit_single","A2UHF7UL7G0Y78","gain","4","","76","L","3","","0","0","1","0.2746035793","","false","229","0.05387953984","","main_expt","0.1132309001","","0.161449161","","0.2746035793","","","","","","",""
"235","","bandit","305","1209775","0.0-267.0-0.0","26847126","wem/bandit_single","A2UHF7UL7G0Y78","gain","4","","76","L","3","","1","0","0","0.282726532","","false","230","0.03848872117","","main_expt","0.1450818377","","0.1413021421","","0.282726532","","","","","","",""
"497","","bandit","306","1212042","0.0-268.0-0.0","26847126","wem/bandit_single","A2UHF7UL7G0Y78","gain","4","","76","L","3","","0","0","1","0.3472256411","","false","231","0.04669383004","","main_expt","0.1077137685","","0.1745796094","","0.3472256411","","","","","","",""
"1131","","bandit","307","1214941","0.0-269.0-0.0","26847126","wem/bandit_single","A2UHF7UL7G0Y78","gain","4","","76","L","3","","0","0","1","0.3994934702","","false","232","0.03395804074","","main_expt","0.06427161289","","0.1680880834","","0.3994934702","","","","","","",""
"311","","bandit","308","1217021","0.0-270.0-0.0","26847126","wem/bandit_single","A2UHF7UL7G0Y78","gain","4","","76","L","3","","1","0","0","0.4029083043","","false","233","0.05150109453","","main_expt","0.1060089469","","0.213250795","","0.4029083043","","","","","","",""
"702","","bandit","309","1219489","0.0-271.0-0.0","26847126","wem/bandit_single","A2UHF7UL7G0Y78","gain","4","","76","L","3","","1","0","0","0.4486287737","","false","234","0.06099663442","","main_expt","0.1117154146","","0.221091899","","0.4486287737","","","","","","",""
"337","","bandit","310","1221597","0.0-272.0-0.0","26847126","wem/bandit_single","A2UHF7UL7G0Y78","gain","4","","76","L","3","","0","0","1","0.4561120354","","false","235","0.05202127711","","main_expt","0.1276115887","","0.2688923835","","0.4561120354","","","","","","",""
"1100","","bandit","311","1224465","0.0-273.0-0.0","26847126","wem/bandit_single","A2UHF7UL7G0Y78","gain","4","","72","H","0","img/none_selected.jpg","0","0","1","0.07001303924","","false","236","0.07001303924","","main_expt","0.1786916187","","0.2323123402","","0.4375102443","","","","","","",""
"63","","bandit","312","1226298","0.0-274.0-0.0","26847126","wem/bandit_single","A2UHF7UL7G0Y78","gain","4","","74","J","1","","0","0","1","0.1896980961","","false","237","0.07602679398","","main_expt","0.1896980961","","0.174764536","","0.4582573195","","","","","","",""
"404","","bandit","313","1228476","0.0-275.0-0.0","26847126","wem/bandit_single","A2UHF7UL7G0Y78","gain","4","","75","K","2","","0","0","1","0.1654919337","","false","238","0.08775462142","","main_expt","0.2205101014","","0.1654919337","","0.4463811869","","","","","","",""
"173","","bandit","314","1230418","0.0-276.0-0.0","26847126","wem/bandit_single","A2UHF7UL7G0Y78","gain","4","","76","L","3","","0","0","1","0.4507479662","","false","239","0.06721086637","","main_expt","0.2661717939","","0.2402574844","","0.4507479662","","","","","","",""
"706","","bandit","315","1232894","0.0-277.0-0.0","26847126","wem/bandit_single","A2UHF7UL7G0Y78","gain","4","","72","H","0","img/none_selected.jpg","0","0","1","0.07433064979","","false","240","0.07433064979","","main_expt","0.1972661282","","0.2445968751","","0.4504038859","","","","","","",""
"67","","bandit","316","1234731","0.0-278.0-0.0","26847126","wem/bandit_single","A2UHF7UL7G0Y78","gain","4","","74","J","1","","0","0","1","0.1868253343","","false","241","0.08919714094","","main_expt","0.1868253343","","0.2708632627","","0.4346931185","","","","","","",""
"102","","bandit","317","1236604","0.0-279.0-0.0","26847126","wem/bandit_single","A2UHF7UL7G0Y78","gain","4","","75","K","2","","1","0","0","0.2047807489","","false","242","0.06159770715","","main_expt","0.1649449253","","0.2047807489","","0.3898892773","","","","","","",""
"244","","bandit","318","1238622","0.0-280.0-0.0","26847126","wem/bandit_single","A2UHF7UL7G0Y78","gain","4","","75","K","2","","1","0","0","0.222122474","","false","243","0.05299296545","","main_expt","0.184368772","","0.222122474","","0.4033463229","","","","","","",""
"209","","bandit","319","1240604","0.0-281.0-0.0","26847126","wem/bandit_single","A2UHF7UL7G0Y78","gain","4","","75","K","2","","0","0","1","0.2425992204","","false","244","0.06275569833","","main_expt","0.2121467569","","0.2425992204","","0.4096532456","","","","","","",""
"341","","bandit","320","1242713","0.0-282.0-0.0","26847126","wem/bandit_single","A2UHF7UL7G0Y78","gain","4","","75","K","2","","0","0","1","0.2173978931","","false","245","0.06673215917","","main_expt","0.1894702338","","0.2173978931","","0.3779527256","","","","","","",""
"505","","bandit","321","1244988","0.0-283.0-0.0","26847126","wem/bandit_single","A2UHF7UL7G0Y78","gain","4","","75","K","2","","0","0","1","0.2218069129","","false","246","0.06500670021","","main_expt","0.2018459735","","0.2218069129","","0.3953318503","","","","","","",""
"261","","bandit","322","1247023","0.0-284.0-0.0","26847126","wem/bandit_single","A2UHF7UL7G0Y78","gain","4","","75","K","2","","0","0","1","0.1888628326","","false","247","0.07271559664","","main_expt","0.1986179994","","0.1888628326","","0.4287890539","","","","","","",""
"6","","bandit","323","1248800","0.0-285.0-0.0","26847126","wem/bandit_single","A2UHF7UL7G0Y78","gain","4","","76","L","3","","1","0","0","0.4104310255","","false","248","0.09654775784","","main_expt","0.1299779064","","0.1722509531","","0.4104310255","","","","","","",""
"104","","bandit","324","1250680","0.0-286.0-0.0","26847126","wem/bandit_single","A2UHF7UL7G0Y78","gain","4","","76","L","3","","1","0","0","0.4116337798","","false","249","0.1179039307","","main_expt","0.1590650881","","0.2541205998","","0.4116337798","","","","","","",""
"140","","bandit","325","1252595","0.0-287.0-0.0","26847126","wem/bandit_single","A2UHF7UL7G0Y78","gain","4","","76","L","3","","0","0","1","0.426505214","","false","250","0.1265890049","","main_expt","0.1213614167","","0.2664885101","","0.426505214","","","","","","",""
"300","","bandit","326","1254668","0.0-288.0-0.0","26847126","wem/bandit_single","A2UHF7UL7G0Y78","gain","4","","72","H","0","img/none_selected.jpg","0","0","1","0.1039398773","","false","251","0.1039398773","","main_expt","0.1099334476","","0.2519669898","","0.3949293487","","","","","","",""
"87","","bandit","327","1256526","0.0-289.0-0.0","26847126","wem/bandit_single","A2UHF7UL7G0Y78","gain","4","","74","J","1","","0","0","1","0.1087011898","","false","252","0.107940897","","main_expt","0.1087011898","","0.2932098873","","0.3913077142","","","","","","",""
"237","","bandit","328","1258535","0.0-290.0-0.0","26847126","wem/bandit_single","A2UHF7UL7G0Y78","gain","4","","75","K","2","","0","0","1","0.3179249839","","false","253","0.1136461566","","main_expt","0.09397011719","","0.3179249839","","0.3648650894","","","","","","",""
"635","","bandit","329","1260940","0.0-291.0-0.0","26847126","wem/bandit_single","A2UHF7UL7G0Y78","gain","4","","75","K","2","","0","0","1","0.2908620441","","false","254","0.1374631792","","main_expt","0.08474648857","","0.2908620441","","0.3452883024","","","","","","",""
"312","","bandit","330","1263023","0.0-292.0-0.0","26847126","wem/bandit_single","A2UHF7UL7G0Y78","gain","4","","76","L","3","","0","0","1","0.2943306686","","false","255","0.1453945637","","main_expt","0.1025854271","","0.3067265453","","0.2943306686","","","","","","",""
"462","","bandit","331","1265256","0.0-293.0-0.0","26847126","wem/bandit_single","A2UHF7UL7G0Y78","gain","4","","76","L","3","","0","0","1","0.3225000795","","false","256","0.1543600678","","main_expt","0.08686152536","","0.3133222149","","0.3225000795","","","","","","",""
"250","","bandit","332","1267277","0.0-294.0-0.0","26847126","wem/bandit_single","A2UHF7UL7G0Y78","gain","4","","76","L","3","","0","0","1","0.3199750271","","false","257","0.107160473","","main_expt","0.08667022303","","0.3194106209","","0.3199750271","","","","","","",""
"984","","bandit","333","1270029","0.0-295.0-0.0","26847126","wem/bandit_single","A2UHF7UL7G0Y78","gain","4","","76","L","3","","1","0","0","0.355105101","","false","258","0.0567043194","","main_expt","0.1158580788","","0.35032938","","0.355105101","","","","","","",""
"69","","bandit","334","1271870","0.0-296.0-0.0","26847126","wem/bandit_single","A2UHF7UL7G0Y78","gain","4","","76","L","3","","0","0","1","0.3566572827","","false","259","0.05418204449","","main_expt","0.08241329339","","0.3856615787","","0.3566572827","","","","","","",""
"281","","bandit","335","1273927","0.0-297.0-0.0","26847126","wem/bandit_single","A2UHF7UL7G0Y78","gain","4","","72","H","0","img/none_selected.jpg","0","0","1","0.0423658587","","false","260","0.0423658587","","main_expt","0.09346186364","","0.3977147975","","0.3492833521","","","","","","",""
"56","","bandit","336","1275758","0.0-298.0-0.0","26847126","wem/bandit_single","A2UHF7UL7G0Y78","gain","4","","72","H","0","img/none_selected.jpg","0","0","1","0.08097208102","","false","261","0.08097208102","","main_expt","0.07434745577","","0.4011116255","","0.3406934897","","","","","","",""
"230","","bandit","337","1277761","0.0-299.0-0.0","26847126","wem/bandit_single","A2UHF7UL7G0Y78","gain","4","","74","J","1","","0","0","1","0.1177047137","","false","262","0.05731993864","","main_expt","0.1177047137","","0.4149706566","","0.3604065233","","","","","","",""
"54","","bandit","338","1279590","0.0-300.0-0.0","26847126","wem/bandit_single","A2UHF7UL7G0Y78","gain","4","","75","K","2","","1","0","0","0.4476629791","","false","263","0.07314079116","","main_expt","0.09530987449","","0.4476629791","","0.3584147688","","","","","","",""
"34","","bandit","339","1281392","0.0-301.0-0.0","26847126","wem/bandit_single","A2UHF7UL7G0Y78","gain","4","","75","K","2","","0","0","1","0.4640453953","","false","264","0.08382102311","","main_expt","0.07595610255","","0.4640453953","","0.3723043834","","","","","","",""
"83","","bandit","340","1283248","0.0-302.0-0.0","26847126","wem/bandit_single","A2UHF7UL7G0Y78","gain","4","","76","L","3","","0","0","1","0.316280577","","false","265","0.1065624759","","main_expt","0.08850347459","","0.4465377191","","0.316280577","","","","","","",""
"101","","bandit","341","1285127","0.0-303.0-0.0","26847126","wem/bandit_single","A2UHF7UL7G0Y78","gain","4","","76","L","3","","0","0","1","0.269287162","","false","266","0.1253885588","","main_expt","0.1215706641","","0.4183068553","","0.269287162","","","","","","",""
"51","","bandit","342","1286950","0.0-304.0-0.0","26847126","wem/bandit_single","A2UHF7UL7G0Y78","gain","4","","72","H","0","img/none_selected.jpg","0","0","1","0.09016252172","","false","267","0.09016252172","","main_expt","0.1841144129","","0.4268145795","","0.2280314931","","","","","","",""
"230","","bandit","343","1288952","0.0-305.0-0.0","26847126","wem/bandit_single","A2UHF7UL7G0Y78","gain","4","","74","J","1","","0","0","1","0.1409141681","","false","268","0.08700052181","","main_expt","0.1409141681","","0.4319202891","","0.2243604643","","","","","","",""
"104","","bandit","344","1290830","0.0-306.0-0.0","26847126","wem/bandit_single","A2UHF7UL7G0Y78","gain","4","","74","J","1","","0","0","1","0.1011197226","","false","269","0.09500676271","","main_expt","0.1011197226","","0.4493038861","","0.2334807581","","","","","","",""
"252","","bandit","345","1292857","0.0-307.0-0.0","26847126","wem/bandit_single","A2UHF7UL7G0Y78","gain","4","","75","K","2","","0","0","1","0.443059266","","false","270","0.07607499825","","main_expt","0.118556502","","0.443059266","","0.2376518603","","","","","","",""
"427","","bandit","346","1295055","0.0-308.0-0.0","26847126","wem/bandit_single","A2UHF7UL7G0Y78","gain","4","","75","K","2","","0","0","1","0.4362671961","","false","271","0.08946946819","","main_expt","0.131750931","","0.4362671961","","0.2139372972","","","","","","",""
"28","","bandit","347","1296855","0.0-309.0-0.0","26847126","wem/bandit_single","A2UHF7UL7G0Y78","gain","4","","76","L","3","","0","0","1","0.157688628","","false","272","0.108288805","","main_expt","0.174678733","","0.4452199348","","0.157688628","","","","","","",""
"107","","bandit","348","1298730","0.0-310.0-0.0","26847126","wem/bandit_single","A2UHF7UL7G0Y78","gain","4","","76","L","3","","0","0","1","0.271098703","","false","273","0.105491008","","main_expt","0.1730415972","","0.454652927","","0.271098703","","","","","","",""
"187","","bandit","349","1300691","0.0-311.0-0.0","26847126","wem/bandit_single","A2UHF7UL7G0Y78","gain","4","","76","L","3","","0","0","1","0.2778056479","","false","274","0.1059149547","","main_expt","0.1520576313","","0.4646374989","","0.2778056479","","","","","","",""
"1989","","bandit","350","1304459","0.0-312.0-0.0","26847126","wem/bandit_single","A2UHF7UL7G0Y78","gain","4","","72","H","0","img/none_selected.jpg","0","0","1","0.09894283875","","false","275","0.09894283875","","main_expt","0.1007060326","","0.4535579815","","0.2698457611","","","","","","",""
"13","","bandit","351","1306246","0.0-313.0-0.0","26847126","wem/bandit_single","A2UHF7UL7G0Y78","gain","4","","72","H","0","img/none_selected.jpg","0","0","1","0.07695295732","","false","276","0.07695295732","","main_expt","0.08844777519","","0.4319407295","","0.2774836338","","","","","","",""
"268","","bandit","352","1308291","0.0-314.0-0.0","26847126","wem/bandit_single","A2UHF7UL7G0Y78","gain","4","","74","J","1","","0","0","1","0.1315613084","","false","277","0.0896712608","","main_expt","0.1315613084","","0.4475260374","","0.3222794015","","","","","","",""
"263","","bandit","353","1310323","0.0-315.0-0.0","26847126","wem/bandit_single","A2UHF7UL7G0Y78","gain","4","","75","K","2","","0","0","1","0.4553849104","","false","278","0.1343695578","","main_expt","0.1508492864","","0.4553849104","","0.3122447371","","","","","","",""
"343","","bandit","354","1312438","0.0-316.0-0.0","26847126","wem/bandit_single","A2UHF7UL7G0Y78","gain","4","","76","L","3","","1","0","0","0.2934764685","","false","279","0.1106050404","","main_expt","0.1181182825","","0.4621871954","","0.2934764685","","","","","","",""
"356","","bandit","355","1314568","0.0-317.0-0.0","26847126","wem/bandit_single","A2UHF7UL7G0Y78","gain","4","","76","L","3","","0","0","1","0.290984208","","false","280","0.114105974","","main_expt","0.1244803533","","0.4482597109","","0.290984208","","","","","","",""
"3","","bandit","356","1316344","0.0-318.0-0.0","26847126","wem/bandit_single","A2UHF7UL7G0Y78","gain","4","","76","L","3","","0","0","1","0.2974260948","","false","281","0.1246337516","","main_expt","0.105821284","","0.4347423019","","0.2974260948","","","","","","",""
"43","","bandit","357","1318162","0.0-319.0-0.0","26847126","wem/bandit_single","A2UHF7UL7G0Y78","gain","4","","76","L","3","","0","0","1","0.2972171025","","false","282","0.079988156","","main_expt","0.1562468179","","0.4583393623","","0.2972171025","","","","","","",""
"127","","bandit","358","1320064","0.0-320.0-0.0","26847126","wem/bandit_single","A2UHF7UL7G0Y78","gain","4","","76","L","3","","1","0","0","0.2821487798","","false","283","0.06901380195","","main_expt","0.1478322318","","0.4497532375","","0.2821487798","","","","","","",""
"691","","bandit","359","1322534","0.0-321.0-0.0","26847126","wem/bandit_single","A2UHF7UL7G0Y78","gain","4","","76","L","3","","0","0","1","0.2739939459","","false","284","0.05901051183","","main_expt","0.1371678423","","0.4312811421","","0.2739939459","","","","","","",""
"417","","bandit","360","1324725","0.0-322.0-0.0","26847126","wem/bandit_single","A2UHF7UL7G0Y78","gain","4","","76","L","3","","0","0","1","0.2251097973","","false","285","0.1126944794","","main_expt","0.12762277","","0.4599346403","","0.2251097973","","","","","","",""
"1590","","bandit","361","1328101","0.0-323.0-0.0","26847126","wem/bandit_single","A2UHF7UL7G0Y78","gain","4","","72","H","0","img/none_selected.jpg","0","0","1","0.09646131279","","false","286","0.09646131279","","main_expt","0.1587978561","","0.4588450488","","0.2124690726","","","","","","",""
"740","","bandit","362","1330614","0.0-324.0-0.0","26847126","wem/bandit_single","A2UHF7UL7G0Y78","gain","4","","72","H","0","img/none_selected.jpg","0","0","1","0.0795853072","","false","287","0.0795853072","","main_expt","0.1262084743","","0.4684539465","","0.2311163105","","","","","","",""
"14","","bandit","363","1332399","0.0-325.0-0.0","26847126","wem/bandit_single","A2UHF7UL7G0Y78","gain","4","","74","J","1","","1","0","0","0.08849331384","","false","288","0.07210460151","","main_expt","0.08849331384","","0.4555823871","","0.2178761709","","","","","","",""
"142","","bandit","364","1334322","0.0-326.0-0.0","26847126","wem/bandit_single","A2UHF7UL7G0Y78","gain","4","","74","J","1","","0","0","1","0.1082793638","","false","289","0.08807043944","","main_expt","0.1082793638","","0.4779982095","","0.2656120211","","","","","","",""
"51","","bandit","365","1336146","0.0-327.0-0.0","26847126","wem/bandit_single","A2UHF7UL7G0Y78","gain","4","","75","K","2","","0","0","1","0.4806691972","","false","290","0.09097769709","","main_expt","0.1591187351","","0.4806691972","","0.2756957417","","","","","","",""
"112","","bandit","366","1338031","0.0-328.0-0.0","26847126","wem/bandit_single","A2UHF7UL7G0Y78","gain","4","","75","K","2","","1","0","0","0.4856322508","","false","291","0.1486720085","","main_expt","0.1766493085","","0.4856322508","","0.3111580235","","","","","","",""
"187","","bandit","367","1339997","0.0-329.0-0.0","26847126","wem/bandit_single","A2UHF7UL7G0Y78","gain","4","","75","K","2","","1","0","0","0.4905538215","","false","292","0.166368556","","main_expt","0.1303677554","","0.4905538215","","0.3019137931","","","","","","",""
"536","","bandit","368","1342307","0.0-330.0-0.0","26847126","wem/bandit_single","A2UHF7UL7G0Y78","gain","4","","75","K","2","","1","0","0","0.4915741327","","false","293","0.1516979355","","main_expt","0.1553518032","","0.4915741327","","0.2930542664","","","","","","",""
"153","","bandit","369","1344233","0.0-331.0-0.0","26847126","wem/bandit_single","A2UHF7UL7G0Y78","gain","4","","75","K","2","","1","0","0","0.4854109815","","false","294","0.142642289","","main_expt","0.1586445557","","0.4854109815","","0.294566814","","","","","","",""
"313","","bandit","370","1346319","0.0-332.0-0.0","26847126","wem/bandit_single","A2UHF7UL7G0Y78","gain","4","","75","K","2","","1","0","0","0.4737464351","","false","295","0.1038045902","","main_expt","0.1474370852","","0.4737464351","","0.2590601899","","","","","","",""
"243","","bandit","371","1348332","0.0-333.0-0.0","26847126","wem/bandit_single","A2UHF7UL7G0Y78","gain","4","","75","K","2","","0","0","1","0.4752126994","","false","296","0.1055366566","","main_expt","0.1281429101","","0.4752126994","","0.260130188","","","","","","",""
"228","","bandit","372","1350334","0.0-334.0-0.0","26847126","wem/bandit_single","A2UHF7UL7G0Y78","gain","4","","75","K","2","","0","0","1","0.47087989","","false","297","0.07292146603","","main_expt","0.1486346553","","0.47087989","","0.243487995","","","","","","",""
"221","","bandit","373","1352330","0.0-335.0-0.0","26847126","wem/bandit_single","A2UHF7UL7G0Y78","gain","4","","75","K","2","","1","0","0","0.454436629","","false","298","0.07361350609","","main_expt","0.154412059","","0.454436629","","0.2746908113","","","","","","",""
"60","","bandit","374","1354165","0.0-336.0-0.0","26847126","wem/bandit_single","A2UHF7UL7G0Y78","gain","4","","75","K","2","","0","0","1","0.4553067608","","false","299","0.06838735966","","main_expt","0.1773434797","","0.4553067608","","0.2709745525","","","","","","",""
"326","","bandit","375","1356266","0.0-337.0-0.0","26847126","wem/bandit_single","A2UHF7UL7G0Y78","gain","4","","75","K","2","","0","0","1","0.4529526291","","false","300","0.09958756775","","main_expt","0.2126897005","","0.4529526291","","0.2661493254","","","","","","",""
