"rt","responses","trial_type","trial_index","time_elapsed","internal_node_id","subjID","study","MID","cond","drift","key_press","respCharCode","respKey","respChoiceNum","respChoice","gems","bombs","no_reward","GemPrChosen","BombPrChosen","practice","trial_counter","WinPr_0","LosePr_0","trial_label","WinPr_1","LosePr_1","WinPr_2","LosePr_2","WinPr_3","LosePr_3","Q0","Q1","Q2","gender","age","ethnicity"
"15330","{""Q0"":""A2DXEPC4QFV4R1""}","survey-text","0","15340","0.0-0.0","28236253","wem/bandit_single","A2DXEPC4QFV4R1","pain","6","","","","","","","","","","","","","","","","","","","","","","","","","","",""
"1150","","text","1","17494","0.0-1.0","28236253","wem/bandit_single","A2DXEPC4QFV4R1","pain","6","32","","","","","","","","","","","","","","","","","","","","","","","","","",""
"5675","","text","2","23171","0.0-2.0","28236253","wem/bandit_single","A2DXEPC4QFV4R1","pain","6","32","","","","","","","","","","","","","","","","","","","","","","","","","",""
"36338","","text","3","59509","0.0-3.0","28236253","wem/bandit_single","A2DXEPC4QFV4R1","pain","6","32","","","","","","","","","","","","","","","","","","","","","","","","","",""
"11965","","text","4","71476","0.0-4.0","28236253","wem/bandit_single","A2DXEPC4QFV4R1","pain","6","32","","","","","","","","","","","","","","","","","","","","","","","","","",""
"7114","","text","5","78591","0.0-5.0","28236253","wem/bandit_single","A2DXEPC4QFV4R1","pain","6","32","","","","","","","","","","","","","","","","","","","","","","","","","",""
"10182","","text","6","88775","0.0-6.0","28236253","wem/bandit_single","A2DXEPC4QFV4R1","pain","6","32","","","","","","","","","","","","","","","","","","","","","","","","","",""
"5913","","text","7","94688","0.0-7.0","28236253","wem/bandit_single","A2DXEPC4QFV4R1","pain","6","32","","","","","","","","","","","","","","","","","","","","","","","","","",""
"4792","","text","8","99481","0.0-8.0","28236253","wem/bandit_single","A2DXEPC4QFV4R1","pain","6","32","","","","","","","","","","","","","","","","","","","","","","","","","",""
"2480","","text","9","101962","0.0-9.0","28236253","wem/bandit_single","A2DXEPC4QFV4R1","pain","6","32","","","","","","","","","","","","","","","","","","","","","","","","","",""
"3946","","text","10","105910","0.0-10.0","28236253","wem/bandit_single","A2DXEPC4QFV4R1","pain","6","32","","","","","","","","","","","","","","","","","","","","","","","","","",""
"2189","","text","11","108099","0.0-11.0","28236253","wem/bandit_single","A2DXEPC4QFV4R1","pain","6","32","","","","","","","","","","","","","","","","","","","","","","","","","",""
"623","","bandit","12","110230","0.0-12.0-0.0","28236253","wem/bandit_single","A2DXEPC4QFV4R1","pain","6","","74","J","0","img/none_selected_demo.jpg","0","0","1","0","0","true","0","0","0","","","","","","","","","","","","",""
"359","","bandit","13","112346","0.0-13.0-0.0","28236253","wem/bandit_single","A2DXEPC4QFV4R1","pain","6","","75","K","0","img/none_selected_demo.jpg","0","0","1","0","0","true","0","0","0","","","","","","","","","","","","",""
"2066","","text","14","114665","0.0-14.0","28236253","wem/bandit_single","A2DXEPC4QFV4R1","pain","6","32","","","","","","","","","","","","","","","","","","","","","","","","","",""
"1252","","text","15","115919","0.0-15.0","28236253","wem/bandit_single","A2DXEPC4QFV4R1","pain","6","32","","","","","","","","","","","","","","","","","","","","","","","","","",""
"2802","","text","16","118721","0.0-16.0","28236253","wem/bandit_single","A2DXEPC4QFV4R1","pain","6","32","","","","","","","","","","","","","","","","","","","","","","","","","",""
"1956","","text","17","120679","0.0-17.0","28236253","wem/bandit_single","A2DXEPC4QFV4R1","pain","6","32","","","","","","","","","","","","","","","","","","","","","","","","","",""
"515","","bandit","18","122700","0.0-18.0-0.0","28236253","wem/bandit_single","A2DXEPC4QFV4R1","pain","6","","74","J","0","img/none_selected_demo.jpg","0","1","0","0","0.8","true","0","0","0.8","80_20_practice","0","0.2","","","","","","","","","",""
"191","","bandit","19","124646","0.0-18.0-1.0","28236253","wem/bandit_single","A2DXEPC4QFV4R1","pain","6","","75","K","1","","0","1","0","0","0.2","true","0","0","0.8","80_20_practice","0","0.2","","","","","","","","","",""
"385","","bandit","20","126789","0.0-18.0-2.0","28236253","wem/bandit_single","A2DXEPC4QFV4R1","pain","6","","74","J","0","img/none_selected_demo.jpg","0","1","0","0","0.8","true","0","0","0.8","80_20_practice","0","0.2","","","","","","","","","",""
"35","","bandit","21","128583","0.0-18.0-3.0","28236253","wem/bandit_single","A2DXEPC4QFV4R1","pain","6","","75","K","1","","0","0","1","0","0.2","true","0","0","0.8","80_20_practice","0","0.2","","","","","","","","","",""
"8","","bandit","22","130346","0.0-18.0-4.0","28236253","wem/bandit_single","A2DXEPC4QFV4R1","pain","6","","74","J","0","img/none_selected_demo.jpg","0","1","0","0","0.8","true","0","0","0.8","80_20_practice","0","0.2","","","","","","","","","",""
"469","","bandit","23","132574","0.0-18.0-5.0","28236253","wem/bandit_single","A2DXEPC4QFV4R1","pain","6","","75","K","1","","0","0","1","0","0.2","true","0","0","0.8","80_20_practice","0","0.2","","","","","","","","","",""
"227","","bandit","24","134558","0.0-18.0-6.0","28236253","wem/bandit_single","A2DXEPC4QFV4R1","pain","6","","74","J","0","img/none_selected_demo.jpg","0","1","0","0","0.8","true","0","0","0.8","80_20_practice","0","0.2","","","","","","","","","",""
"193","","bandit","25","136508","0.0-18.0-7.0","28236253","wem/bandit_single","A2DXEPC4QFV4R1","pain","6","","75","K","1","","0","0","1","0","0.2","true","0","0","0.8","80_20_practice","0","0.2","","","","","","","","","",""
"191","","bandit","26","138458","0.0-18.0-8.0","28236253","wem/bandit_single","A2DXEPC4QFV4R1","pain","6","","74","J","0","img/none_selected_demo.jpg","0","1","0","0","0.8","true","0","0","0.8","80_20_practice","0","0.2","","","","","","","","","",""
"19","","bandit","27","140233","0.0-18.0-9.0","28236253","wem/bandit_single","A2DXEPC4QFV4R1","pain","6","","75","K","1","","0","0","1","0","0.2","true","0","0","0.8","80_20_practice","0","0.2","","","","","","","","","",""
"471","","bandit","28","142460","0.0-18.0-10.0","28236253","wem/bandit_single","A2DXEPC4QFV4R1","pain","6","","74","J","0","img/none_selected_demo.jpg","0","1","0","0","0.8","true","0","0","0.8","80_20_practice","0","0.2","","","","","","","","","",""
"171","","bandit","29","144388","0.0-18.0-11.0","28236253","wem/bandit_single","A2DXEPC4QFV4R1","pain","6","","75","K","1","","0","1","0","0","0.2","true","0","0","0.8","80_20_practice","0","0.2","","","","","","","","","",""
"137","","bandit","30","146282","0.0-18.0-12.0","28236253","wem/bandit_single","A2DXEPC4QFV4R1","pain","6","","74","J","0","img/none_selected_demo.jpg","0","1","0","0","0.8","true","0","0","0.8","80_20_practice","0","0.2","","","","","","","","","",""
"208","","bandit","31","148245","0.0-18.0-13.0","28236253","wem/bandit_single","A2DXEPC4QFV4R1","pain","6","","75","K","1","","0","0","1","0","0.2","true","0","0","0.8","80_20_practice","0","0.2","","","","","","","","","",""
"59","","bandit","32","150061","0.0-18.0-14.0","28236253","wem/bandit_single","A2DXEPC4QFV4R1","pain","6","","74","J","0","img/none_selected_demo.jpg","0","1","0","0","0.8","true","0","0","0.8","80_20_practice","0","0.2","","","","","","","","","",""
"147","","bandit","33","151966","0.0-18.0-15.0","28236253","wem/bandit_single","A2DXEPC4QFV4R1","pain","6","","75","K","1","","0","0","1","0","0.2","true","0","0","0.8","80_20_practice","0","0.2","","","","","","","","","",""
"19","","bandit","34","153742","0.0-18.0-16.0","28236253","wem/bandit_single","A2DXEPC4QFV4R1","pain","6","","74","J","0","img/none_selected_demo.jpg","0","1","0","0","0.8","true","0","0","0.8","80_20_practice","0","0.2","","","","","","","","","",""
"149","","bandit","35","155647","0.0-18.0-17.0","28236253","wem/bandit_single","A2DXEPC4QFV4R1","pain","6","","75","K","1","","0","0","1","0","0.2","true","0","0","0.8","80_20_practice","0","0.2","","","","","","","","","",""
"59","","bandit","36","157463","0.0-18.0-18.0","28236253","wem/bandit_single","A2DXEPC4QFV4R1","pain","6","","74","J","0","img/none_selected_demo.jpg","0","1","0","0","0.8","true","0","0","0.8","80_20_practice","0","0.2","","","","","","","","","",""
"181","","bandit","37","159403","0.0-18.0-19.0","28236253","wem/bandit_single","A2DXEPC4QFV4R1","pain","6","","75","K","1","","0","0","1","0","0.2","true","0","0","0.8","80_20_practice","0","0.2","","","","","","","","","",""
"2402","","text","38","162058","0.0-19.0","28236253","wem/bandit_single","A2DXEPC4QFV4R1","pain","6","32","","","","","","","","","","","","","","","","","","","","","","","","","",""
"3126","","bandit","39","166689","0.0-20.0-0.0","28236253","wem/bandit_single","A2DXEPC4QFV4R1","pain","6","","74","J","0","img/none_selected_demo.jpg","0","0","1","0","0","true","0","0","0","","0","0","","","","","","","","","",""
"4027","","text","40","170970","0.0-21.0","28236253","wem/bandit_single","A2DXEPC4QFV4R1","pain","6","32","","","","","","","","","","","","","","","","","","","","","","","","","",""
"2918","","text","41","173889","0.0-22.0","28236253","wem/bandit_single","A2DXEPC4QFV4R1","pain","6","32","","","","","","","","","","","","","","","","","","","","","","","","","",""
"4385","","text","42","178276","0.0-23.0","28236253","wem/bandit_single","A2DXEPC4QFV4R1","pain","6","32","","","","","","","","","","","","","","","","","","","","","","","","","",""
"5853","","text","43","184132","0.0-24.0","28236253","wem/bandit_single","A2DXEPC4QFV4R1","pain","6","32","","","","","","","","","","","","","","","","","","","","","","","","","",""
"9029","","text","44","193163","0.0-25.0","28236253","wem/bandit_single","A2DXEPC4QFV4R1","pain","6","32","","","","","","","","","","","","","","","","","","","","","","","","","",""
"2527","","text","45","195693","0.0-26.0","28236253","wem/bandit_single","A2DXEPC4QFV4R1","pain","6","32","","","","","","","","","","","","","","","","","","","","","","","","","",""
"3094","","text","46","198790","0.0-27.0","28236253","wem/bandit_single","A2DXEPC4QFV4R1","pain","6","32","","","","","","","","","","","","","","","","","","","","","","","","","",""
"3551","","text","47","202342","0.0-28.0","28236253","wem/bandit_single","A2DXEPC4QFV4R1","pain","6","32","","","","","","","","","","","","","","","","","","","","","","","","","",""
"6261","","text","48","208607","0.0-29.0","28236253","wem/bandit_single","A2DXEPC4QFV4R1","pain","6","32","","","","","","","","","","","","","","","","","","","","","","","","","",""
"3066","","text","49","211675","0.0-30.0","28236253","wem/bandit_single","A2DXEPC4QFV4R1","pain","6","32","","","","","","","","","","","","","","","","","","","","","","","","","",""
"3610","","text","50","215287","0.0-31.0","28236253","wem/bandit_single","A2DXEPC4QFV4R1","pain","6","32","","","","","","","","","","","","","","","","","","","","","","","","","",""
"439","","bandit","51","217230","0.0-32.0-0.0","28236253","wem/bandit_single","A2DXEPC4QFV4R1","pain","6","","72","H","0","img/none_selected.jpg","0","1","0","0","0.8","true","0","0","0.8","full_practice","0","0.2","0","0.6","0","0.2","","","","","",""
"104","","bandit","52","219090","0.0-32.0-1.0","28236253","wem/bandit_single","A2DXEPC4QFV4R1","pain","6","","72","H","0","img/none_selected.jpg","0","0","1","0","0.8","true","0","0","0.8","full_practice","0","0.2","0","0.6","0","0.2","","","","","",""
"71","","bandit","53","220922","0.0-32.0-2.0","28236253","wem/bandit_single","A2DXEPC4QFV4R1","pain","6","","72","H","0","img/none_selected.jpg","0","1","0","0","0.8","true","0","0","0.8","full_practice","0","0.2","0","0.6","0","0.2","","","","","",""
"58","","bandit","54","222739","0.0-32.0-3.0","28236253","wem/bandit_single","A2DXEPC4QFV4R1","pain","6","","72","H","0","img/none_selected.jpg","0","1","0","0","0.8","true","0","0","0.8","full_practice","0","0.2","0","0.6","0","0.2","","","","","",""
"141","","bandit","55","224637","0.0-32.0-4.0","28236253","wem/bandit_single","A2DXEPC4QFV4R1","pain","6","","72","H","0","img/none_selected.jpg","0","1","0","0","0.8","true","0","0","0.8","full_practice","0","0.2","0","0.6","0","0.2","","","","","",""
"71","","bandit","56","226464","0.0-32.0-5.0","28236253","wem/bandit_single","A2DXEPC4QFV4R1","pain","6","","72","H","0","img/none_selected.jpg","0","1","0","0","0.8","true","0","0","0.8","full_practice","0","0.2","0","0.6","0","0.2","","","","","",""
"26","","bandit","57","228248","0.0-32.0-6.0","28236253","wem/bandit_single","A2DXEPC4QFV4R1","pain","6","","74","J","1","","0","0","1","0","0.2","true","0","0","0.8","full_practice","0","0.2","0","0.6","0","0.2","","","","","",""
"100","","bandit","58","230105","0.0-32.0-7.0","28236253","wem/bandit_single","A2DXEPC4QFV4R1","pain","6","","74","J","1","","0","0","1","0","0.2","true","0","0","0.8","full_practice","0","0.2","0","0.6","0","0.2","","","","","",""
"121","","bandit","59","231984","0.0-32.0-8.0","28236253","wem/bandit_single","A2DXEPC4QFV4R1","pain","6","","74","J","1","","0","0","1","0","0.2","true","0","0","0.8","full_practice","0","0.2","0","0.6","0","0.2","","","","","",""
"11","","bandit","60","233752","0.0-32.0-9.0","28236253","wem/bandit_single","A2DXEPC4QFV4R1","pain","6","","75","K","2","","0","0","1","0","0.6","true","0","0","0.8","full_practice","0","0.2","0","0.6","0","0.2","","","","","",""
"29","","bandit","61","235538","0.0-32.0-10.0","28236253","wem/bandit_single","A2DXEPC4QFV4R1","pain","6","","75","K","2","","0","0","1","0","0.6","true","0","0","0.8","full_practice","0","0.2","0","0.6","0","0.2","","","","","",""
"123","","bandit","62","237417","0.0-32.0-11.0","28236253","wem/bandit_single","A2DXEPC4QFV4R1","pain","6","","76","L","3","","0","0","1","0","0.2","true","0","0","0.8","full_practice","0","0.2","0","0.6","0","0.2","","","","","",""
"39","","bandit","63","239211","0.0-32.0-12.0","28236253","wem/bandit_single","A2DXEPC4QFV4R1","pain","6","","76","L","3","","0","0","1","0","0.2","true","0","0","0.8","full_practice","0","0.2","0","0.6","0","0.2","","","","","",""
"155","","bandit","64","241126","0.0-32.0-13.0","28236253","wem/bandit_single","A2DXEPC4QFV4R1","pain","6","","76","L","3","","0","0","1","0","0.2","true","0","0","0.8","full_practice","0","0.2","0","0.6","0","0.2","","","","","",""
"104","","bandit","65","242987","0.0-32.0-14.0","28236253","wem/bandit_single","A2DXEPC4QFV4R1","pain","6","","75","K","2","","0","0","1","0","0.6","true","0","0","0.8","full_practice","0","0.2","0","0.6","0","0.2","","","","","",""
"202","","bandit","66","244946","0.0-32.0-15.0","28236253","wem/bandit_single","A2DXEPC4QFV4R1","pain","6","","75","K","2","","0","0","1","0","0.6","true","0","0","0.8","full_practice","0","0.2","0","0.6","0","0.2","","","","","",""
"108","","bandit","67","246811","0.0-32.0-16.0","28236253","wem/bandit_single","A2DXEPC4QFV4R1","pain","6","","74","J","1","","0","0","1","0","0.2","true","0","0","0.8","full_practice","0","0.2","0","0.6","0","0.2","","","","","",""
"6","","bandit","68","248576","0.0-32.0-17.0","28236253","wem/bandit_single","A2DXEPC4QFV4R1","pain","6","","74","J","1","","0","0","1","0","0.2","true","0","0","0.8","full_practice","0","0.2","0","0.6","0","0.2","","","","","",""
"415","","bandit","69","250749","0.0-32.0-18.0","28236253","wem/bandit_single","A2DXEPC4QFV4R1","pain","6","","72","H","0","img/none_selected.jpg","0","1","0","0","0.8","true","0","0","0.8","full_practice","0","0.2","0","0.6","0","0.2","","","","","",""
"125","","bandit","70","252630","0.0-32.0-19.0","28236253","wem/bandit_single","A2DXEPC4QFV4R1","pain","6","","72","H","0","img/none_selected.jpg","0","1","0","0","0.8","true","0","0","0.8","full_practice","0","0.2","0","0.6","0","0.2","","","","","",""
"2407","","text","71","255293","0.0-33.0","28236253","wem/bandit_single","A2DXEPC4QFV4R1","pain","6","32","","","","","","","","","","","","","","","","","","","","","","","","","",""
"11669","","text","72","267967","0.0-34.0","28236253","wem/bandit_single","A2DXEPC4QFV4R1","pain","6","32","","","","","","","","","","","","","","","","","","","","","","","","","",""
"10876","","text","73","278846","0.0-35.0","28236253","wem/bandit_single","A2DXEPC4QFV4R1","pain","6","32","","","","","","","","","","","","","","","","","","","","","","","","","",""
"8014","","text","74","286861","0.0-36.0","28236253","wem/bandit_single","A2DXEPC4QFV4R1","pain","6","32","","","","","","","","","","","","","","","","","","","","","","","","","",""
"5577","","text","75","292442","0.0-37.0","28236253","wem/bandit_single","A2DXEPC4QFV4R1","pain","6","32","","","","","","","","","","","","","","","","","","","","","","","","","",""
"672","","bandit","76","294621","0.0-38.0-0.0","28236253","wem/bandit_single","A2DXEPC4QFV4R1","pain","6","","72","H","0","img/none_selected.jpg","0","0","1","","0.1940838181","false","1","","0.1940838181","main_expt","","0.1623639982","","0.1142009487","","0.3785571591","","","","","",""
"108","","bandit","77","296486","0.0-39.0-0.0","28236253","wem/bandit_single","A2DXEPC4QFV4R1","pain","6","","72","H","0","img/none_selected.jpg","0","0","1","","0.2410489397","false","2","","0.2410489397","main_expt","","0.1864124343","","0.09165924831","","0.3894156921","","","","","",""
"6","","bandit","78","298251","0.0-40.0-0.0","28236253","wem/bandit_single","A2DXEPC4QFV4R1","pain","6","","72","H","0","img/none_selected.jpg","0","0","1","","0.2645422736","false","3","","0.2645422736","main_expt","","0.1494323563","","0.1174954382","","0.4125386255","","","","","",""
"168","","bandit","79","300175","0.0-41.0-0.0","28236253","wem/bandit_single","A2DXEPC4QFV4R1","pain","6","","74","J","1","","0","0","1","","0.1266436655","false","4","","0.1984909652","main_expt","","0.1266436655","","0.1426329369","","0.3990363537","","","","","",""
"13","","bandit","80","301944","0.0-42.0-0.0","28236253","wem/bandit_single","A2DXEPC4QFV4R1","pain","6","","74","J","1","","0","0","1","","0.1476492511","false","5","","0.1239860826","main_expt","","0.1476492511","","0.1503595054","","0.454435597","","","","","",""
"75","","bandit","81","303778","0.0-43.0-0.0","28236253","wem/bandit_single","A2DXEPC4QFV4R1","pain","6","","74","J","1","","0","0","1","","0.1525625276","false","6","","0.06805906468","main_expt","","0.1525625276","","0.1646450236","","0.4583077461","","","","","",""
"10","","bandit","82","305545","0.0-44.0-0.0","28236253","wem/bandit_single","A2DXEPC4QFV4R1","pain","6","","75","K","2","","0","0","1","","0.2031930874","false","7","","0.05890971721","main_expt","","0.1856713893","","0.2031930874","","0.4617786505","","","","","",""
"39","","bandit","83","307342","0.0-45.0-0.0","28236253","wem/bandit_single","A2DXEPC4QFV4R1","pain","6","","75","K","2","","0","1","0","","0.181996894","false","8","","0.0832196585","main_expt","","0.2108076934","","0.181996894","","0.475168559","","","","","",""
"10","","bandit","84","309110","0.0-46.0-0.0","28236253","wem/bandit_single","A2DXEPC4QFV4R1","pain","6","","75","K","2","","0","0","1","","0.1673845292","false","9","","0.1325638406","main_expt","","0.1956497028","","0.1673845292","","0.458325554","","","","","",""
"103","","bandit","85","310971","0.0-47.0-0.0","28236253","wem/bandit_single","A2DXEPC4QFV4R1","pain","6","","76","L","3","","0","0","1","","0.4316924572","false","10","","0.1196898321","main_expt","","0.1582923175","","0.2328473308","","0.4316924572","","","","","",""
"32","","bandit","86","312758","0.0-48.0-0.0","28236253","wem/bandit_single","A2DXEPC4QFV4R1","pain","6","","76","L","3","","0","1","0","","0.3756511011","false","11","","0.1103103944","main_expt","","0.167734997","","0.20589494","","0.3756511011","","","","","",""
"49","","bandit","87","314566","0.0-49.0-0.0","28236253","wem/bandit_single","A2DXEPC4QFV4R1","pain","6","","76","L","3","","0","0","1","","0.3549088727","false","12","","0.06819125589","main_expt","","0.2150601968","","0.2246944015","","0.3549088727","","","","","",""
"134","","bandit","88","316456","0.0-50.0-0.0","28236253","wem/bandit_single","A2DXEPC4QFV4R1","pain","6","","76","L","3","","0","1","0","","0.3455803359","false","13","","0.07076675629","main_expt","","0.252216208","","0.2613447163","","0.3455803359","","","","","",""
"65","","bandit","89","318281","0.0-51.0-0.0","28236253","wem/bandit_single","A2DXEPC4QFV4R1","pain","6","","76","L","3","","0","1","0","","0.3809937316","false","14","","0.09241451512","main_expt","","0.2184022087","","0.212655478","","0.3809937316","","","","","",""
"27","","bandit","90","320065","0.0-52.0-0.0","28236253","wem/bandit_single","A2DXEPC4QFV4R1","pain","6","","76","L","3","","0","0","1","","0.3479508526","false","15","","0.07205700739","main_expt","","0.210005203","","0.1679070286","","0.3479508526","","","","","",""
"114","","bandit","91","321939","0.0-53.0-0.0","28236253","wem/bandit_single","A2DXEPC4QFV4R1","pain","6","","76","L","3","","0","0","1","","0.3287514515","false","16","","0.04760190598","main_expt","","0.2402495983","","0.1774383452","","0.3287514515","","","","","",""
"12","","bandit","92","323709","0.0-54.0-0.0","28236253","wem/bandit_single","A2DXEPC4QFV4R1","pain","6","","76","L","3","","0","0","1","","0.4008698656","false","17","","0.03958098904","main_expt","","0.2766196603","","0.1562672395","","0.4008698656","","","","","",""
"429","","bandit","93","325896","0.0-55.0-0.0","28236253","wem/bandit_single","A2DXEPC4QFV4R1","pain","6","","75","K","2","","0","1","0","","0.1407597156","false","18","","0.03128671198","main_expt","","0.3193638145","","0.1407597156","","0.3845126264","","","","","",""
"129","","bandit","94","327783","0.0-56.0-0.0","28236253","wem/bandit_single","A2DXEPC4QFV4R1","pain","6","","75","K","2","","0","0","1","","0.1310890834","false","19","","0.04453616628","main_expt","","0.2953318626","","0.1310890834","","0.3979941068","","","","","",""
"25","","bandit","95","329567","0.0-57.0-0.0","28236253","wem/bandit_single","A2DXEPC4QFV4R1","pain","6","","75","K","2","","0","0","1","","0.1317163977","false","20","","0.04596917346","main_expt","","0.3007143328","","0.1317163977","","0.3920029867","","","","","",""
"1","","bandit","96","331326","0.0-58.0-0.0","28236253","wem/bandit_single","A2DXEPC4QFV4R1","pain","6","","75","K","2","","0","0","1","","0.1752537558","false","21","","0.04297504417","main_expt","","0.3105995928","","0.1752537558","","0.4057752261","","","","","",""
"27","","bandit","97","333108","0.0-59.0-0.0","28236253","wem/bandit_single","A2DXEPC4QFV4R1","pain","6","","76","L","3","","0","0","1","","0.4072420822","false","22","","0.04739698515","main_expt","","0.3742057862","","0.2064983175","","0.4072420822","","","","","",""
"79","","bandit","98","334946","0.0-60.0-0.0","28236253","wem/bandit_single","A2DXEPC4QFV4R1","pain","6","","76","L","3","","0","0","1","","0.3798298113","false","23","","0.08003173613","main_expt","","0.3439758112","","0.216691321","","0.3798298113","","","","","",""
"86","","bandit","99","336790","0.0-61.0-0.0","28236253","wem/bandit_single","A2DXEPC4QFV4R1","pain","6","","75","K","2","","0","0","1","","0.2342773894","false","24","","0.09868307827","main_expt","","0.3549138733","","0.2342773894","","0.3329856024","","","","","",""
"178","","bandit","100","338728","0.0-62.0-0.0","28236253","wem/bandit_single","A2DXEPC4QFV4R1","pain","6","","75","K","2","","0","0","1","","0.2378870173","false","25","","0.07950464875","main_expt","","0.3811330683","","0.2378870173","","0.3337381726","","","","","",""
"115","","bandit","101","340605","0.0-63.0-0.0","28236253","wem/bandit_single","A2DXEPC4QFV4R1","pain","6","","74","J","1","","0","0","1","","0.3131907418","false","26","","0.09697268327","main_expt","","0.3131907418","","0.2555438901","","0.3650510818","","","","","",""
"127","","bandit","102","342490","0.0-64.0-0.0","28236253","wem/bandit_single","A2DXEPC4QFV4R1","pain","6","","74","J","1","","0","0","1","","0.3210571327","false","27","","0.09831328215","main_expt","","0.3210571327","","0.2487754609","","0.3930286133","","","","","",""
"62","","bandit","103","344309","0.0-65.0-0.0","28236253","wem/bandit_single","A2DXEPC4QFV4R1","pain","6","","74","J","1","","0","0","1","","0.3350138966","false","28","","0.08798585883","main_expt","","0.3350138966","","0.2023297646","","0.3849328395","","","","","",""
"61","","bandit","104","346130","0.0-66.0-0.0","28236253","wem/bandit_single","A2DXEPC4QFV4R1","pain","6","","72","H","0","img/none_selected.jpg","0","0","1","","0.1001400419","false","29","","0.1001400419","main_expt","","0.3491704597","","0.1824385616","","0.3635333449","","","","","",""
"133","","bandit","105","348023","0.0-67.0-0.0","28236253","wem/bandit_single","A2DXEPC4QFV4R1","pain","6","","72","H","0","img/none_selected.jpg","0","0","1","","0.100360092","false","30","","0.100360092","main_expt","","0.3515390533","","0.2108935763","","0.3870800473","","","","","",""
"79","","bandit","106","349859","0.0-68.0-0.0","28236253","wem/bandit_single","A2DXEPC4QFV4R1","pain","6","","72","H","0","img/none_selected.jpg","0","0","1","","0.1235489826","false","31","","0.1235489826","main_expt","","0.3116189274","","0.2212072473","","0.407818568","","","","","",""
"71","","bandit","107","351692","0.0-69.0-0.0","28236253","wem/bandit_single","A2DXEPC4QFV4R1","pain","6","","76","L","3","","0","1","0","","0.4365503818","false","32","","0.0999088058","main_expt","","0.2923613921","","0.2349080289","","0.4365503818","","","","","",""
"144","","bandit","108","353595","0.0-70.0-0.0","28236253","wem/bandit_single","A2DXEPC4QFV4R1","pain","6","","76","L","3","","0","0","1","","0.438397095","false","33","","0.1229353218","main_expt","","0.2833872006","","0.2233211346","","0.438397095","","","","","",""
"112","","bandit","109","355464","0.0-71.0-0.0","28236253","wem/bandit_single","A2DXEPC4QFV4R1","pain","6","","76","L","3","","0","0","1","","0.4225996483","false","34","","0.1174339591","main_expt","","0.251012165","","0.2328620384","","0.4225996483","","","","","",""
"167","","bandit","110","357391","0.0-72.0-0.0","28236253","wem/bandit_single","A2DXEPC4QFV4R1","pain","6","","76","L","3","","0","0","1","","0.3719427837","false","35","","0.08922948311","main_expt","","0.2150204629","","0.2442853791","","0.3719427837","","","","","",""
"54","","bandit","111","359201","0.0-73.0-0.0","28236253","wem/bandit_single","A2DXEPC4QFV4R1","pain","6","","76","L","3","","0","1","0","","0.3643608465","false","36","","0.1065429935","main_expt","","0.2003821391","","0.2536962779","","0.3643608465","","","","","",""
"169","","bandit","112","361129","0.0-74.0-0.0","28236253","wem/bandit_single","A2DXEPC4QFV4R1","pain","6","","76","L","3","","0","0","1","","0.3951734682","false","37","","0.119331244","main_expt","","0.1584744983","","0.1968410568","","0.3951734682","","","","","",""
"41","","bandit","113","362928","0.0-75.0-0.0","28236253","wem/bandit_single","A2DXEPC4QFV4R1","pain","6","","76","L","3","","0","1","0","","0.4106313244","false","38","","0.1140529394","main_expt","","0.1107345946","","0.1903576104","","0.4106313244","","","","","",""
"40","","bandit","114","364726","0.0-76.0-0.0","28236253","wem/bandit_single","A2DXEPC4QFV4R1","pain","6","","76","L","3","","0","1","0","","0.385877281","false","39","","0.1377706652","main_expt","","0.1922112034","","0.2094560733","","0.385877281","","","","","",""
"21","","bandit","115","366506","0.0-77.0-0.0","28236253","wem/bandit_single","A2DXEPC4QFV4R1","pain","6","","76","L","3","","0","0","1","","0.3814638094","false","40","","0.1686011578","main_expt","","0.202991566","","0.2157952434","","0.3814638094","","","","","",""
"114","","bandit","116","368380","0.0-78.0-0.0","28236253","wem/bandit_single","A2DXEPC4QFV4R1","pain","6","","76","L","3","","0","0","1","","0.3569976603","false","41","","0.1640814413","main_expt","","0.257249123","","0.1982376225","","0.3569976603","","","","","",""
"472","","bandit","117","370613","0.0-79.0-0.0","28236253","wem/bandit_single","A2DXEPC4QFV4R1","pain","6","","76","L","3","","0","1","0","","0.3254656301","false","42","","0.1444461896","main_expt","","0.3139605103","","0.1815133425","","0.3254656301","","","","","",""
"125","","bandit","118","372498","0.0-80.0-0.0","28236253","wem/bandit_single","A2DXEPC4QFV4R1","pain","6","","76","L","3","","0","0","1","","0.3061667188","false","43","","0.1466097136","main_expt","","0.2859416922","","0.1804658283","","0.3061667188","","","","","",""
"72","","bandit","119","374330","0.0-81.0-0.0","28236253","wem/bandit_single","A2DXEPC4QFV4R1","pain","6","","76","L","3","","0","0","1","","0.3247162798","false","44","","0.1701376127","main_expt","","0.2344477797","","0.1453808853","","0.3247162798","","","","","",""
"129","","bandit","120","376223","0.0-82.0-0.0","28236253","wem/bandit_single","A2DXEPC4QFV4R1","pain","6","","76","L","3","","0","1","0","","0.3464274235","false","45","","0.2382164817","main_expt","","0.25278305","","0.1975985391","","0.3464274235","","","","","",""
"248","","bandit","121","378228","0.0-83.0-0.0","28236253","wem/bandit_single","A2DXEPC4QFV4R1","pain","6","","76","L","3","","0","0","1","","0.2853596265","false","46","","0.2817064876","main_expt","","0.2447001663","","0.2099331931","","0.2853596265","","","","","",""
"106","","bandit","122","380098","0.0-84.0-0.0","28236253","wem/bandit_single","A2DXEPC4QFV4R1","pain","6","","76","L","3","","0","0","1","","0.2781892211","false","47","","0.3449614965","main_expt","","0.2439886488","","0.2373708448","","0.2781892211","","","","","",""
"126","","bandit","123","381981","0.0-85.0-0.0","28236253","wem/bandit_single","A2DXEPC4QFV4R1","pain","6","","76","L","3","","0","1","0","","0.2802769371","false","48","","0.2846403666","main_expt","","0.3453423138","","0.2929879582","","0.2802769371","","","","","",""
"82","","bandit","124","383821","0.0-86.0-0.0","28236253","wem/bandit_single","A2DXEPC4QFV4R1","pain","6","","76","L","3","","0","1","0","","0.3162769287","false","49","","0.3292227521","main_expt","","0.3208634608","","0.2643709298","","0.3162769287","","","","","",""
"10","","bandit","125","385590","0.0-87.0-0.0","28236253","wem/bandit_single","A2DXEPC4QFV4R1","pain","6","","76","L","3","","0","1","0","","0.2524095143","false","50","","0.270904054","main_expt","","0.2600740437","","0.2666646559","","0.2524095143","","","","","",""
"6","","bandit","126","387355","0.0-88.0-0.0","28236253","wem/bandit_single","A2DXEPC4QFV4R1","pain","6","","76","L","3","","0","0","1","","0.2630113652","false","51","","0.2503066232","main_expt","","0.2451527442","","0.2550538978","","0.2630113652","","","","","",""
"76","","bandit","127","389192","0.0-89.0-0.0","28236253","wem/bandit_single","A2DXEPC4QFV4R1","pain","6","","76","L","3","","0","0","1","","0.2707742251","false","52","","0.2405173112","main_expt","","0.1882651979","","0.3235330097","","0.2707742251","","","","","",""
"54","","bandit","128","391003","0.0-90.0-0.0","28236253","wem/bandit_single","A2DXEPC4QFV4R1","pain","6","","76","L","3","","0","0","1","","0.2150274285","false","53","","0.2966352861","main_expt","","0.1930778153","","0.347433539","","0.2150274285","","","","","",""
"274","","bandit","129","393036","0.0-91.0-0.0","28236253","wem/bandit_single","A2DXEPC4QFV4R1","pain","6","","76","L","3","","0","1","0","","0.2326572497","false","54","","0.2887198369","main_expt","","0.2216955806","","0.3368202787","","0.2326572497","","","","","",""
"19","","bandit","130","394815","0.0-92.0-0.0","28236253","wem/bandit_single","A2DXEPC4QFV4R1","pain","6","","76","L","3","","0","1","0","","0.2134399586","false","55","","0.2801160178","main_expt","","0.2422165651","","0.3503124627","","0.2134399586","","","","","",""
"79","","bandit","131","396655","0.0-93.0-0.0","28236253","wem/bandit_single","A2DXEPC4QFV4R1","pain","6","","76","L","3","","0","1","0","","0.2394891912","false","56","","0.3022415889","main_expt","","0.228979269","","0.368841946","","0.2394891912","","","","","",""
"185","","bandit","132","398598","0.0-94.0-0.0","28236253","wem/bandit_single","A2DXEPC4QFV4R1","pain","6","","76","L","3","","0","0","1","","0.2942469327","false","57","","0.3300995428","main_expt","","0.243325051","","0.3883837061","","0.2942469327","","","","","",""
"101","","bandit","133","400456","0.0-95.0-0.0","28236253","wem/bandit_single","A2DXEPC4QFV4R1","pain","6","","76","L","3","","0","1","0","","0.369295693","false","58","","0.3393984951","main_expt","","0.2326991071","","0.4116863428","","0.369295693","","","","","",""
"88","","bandit","134","402305","0.0-96.0-0.0","28236253","wem/bandit_single","A2DXEPC4QFV4R1","pain","6","","76","L","3","","0","1","0","","0.3663837161","false","59","","0.3592245678","main_expt","","0.2480349675","","0.3980375199","","0.3663837161","","","","","",""
"84","","bandit","135","404147","0.0-97.0-0.0","28236253","wem/bandit_single","A2DXEPC4QFV4R1","pain","6","","76","L","3","","0","0","1","","0.3578669063","false","60","","0.3431938453","main_expt","","0.2591134247","","0.3849919156","","0.3578669063","","","","","",""
"130","","bandit","136","406036","0.0-98.0-0.0","28236253","wem/bandit_single","A2DXEPC4QFV4R1","pain","6","","76","L","3","","0","1","0","","0.3901807011","false","61","","0.3622980041","main_expt","","0.2828027123","","0.3822359719","","0.3901807011","","","","","",""
"35","","bandit","137","407829","0.0-99.0-0.0","28236253","wem/bandit_single","A2DXEPC4QFV4R1","pain","6","","76","L","3","","0","0","1","","0.4199484271","false","62","","0.3898917795","main_expt","","0.2645717152","","0.3356955782","","0.4199484271","","","","","",""
"9","","bandit","138","409598","0.0-100.0-0.0","28236253","wem/bandit_single","A2DXEPC4QFV4R1","pain","6","","76","L","3","","0","1","0","","0.431710707","false","63","","0.3730814422","main_expt","","0.3164731366","","0.2961333539","","0.431710707","","","","","",""
"111","","bandit","139","411464","0.0-101.0-0.0","28236253","wem/bandit_single","A2DXEPC4QFV4R1","pain","6","","76","L","3","","0","0","1","","0.4302834116","false","64","","0.359514794","main_expt","","0.3549458842","","0.3332154777","","0.4302834116","","","","","",""
"158","","bandit","140","413385","0.0-102.0-0.0","28236253","wem/bandit_single","A2DXEPC4QFV4R1","pain","6","","76","L","3","","0","0","1","","0.3985691748","false","65","","0.3114607296","main_expt","","0.288515421","","0.35785358","","0.3985691748","","","","","",""
"36","","bandit","141","415180","0.0-103.0-0.0","28236253","wem/bandit_single","A2DXEPC4QFV4R1","pain","6","","76","L","3","","0","0","1","","0.4041176093","false","66","","0.2942291023","main_expt","","0.3011993237","","0.406057841","","0.4041176093","","","","","",""
"0","","bandit","142","416939","0.0-104.0-0.0","28236253","wem/bandit_single","A2DXEPC4QFV4R1","pain","6","","76","L","3","","0","0","1","","0.4007812862","false","67","","0.3320533568","main_expt","","0.345072876","","0.4196038874","","0.4007812862","","","","","",""
"116","","bandit","143","418814","0.0-105.0-0.0","28236253","wem/bandit_single","A2DXEPC4QFV4R1","pain","6","","76","L","3","","0","1","0","","0.4294162969","false","68","","0.3600975808","main_expt","","0.3196529892","","0.3890604874","","0.4294162969","","","","","",""
"27","","bandit","144","420600","0.0-106.0-0.0","28236253","wem/bandit_single","A2DXEPC4QFV4R1","pain","6","","76","L","3","","0","0","1","","0.3767619451","false","69","","0.2872110667","main_expt","","0.3649702463","","0.4084138829","","0.3767619451","","","","","",""
"281","","bandit","145","422640","0.0-107.0-0.0","28236253","wem/bandit_single","A2DXEPC4QFV4R1","pain","6","","76","L","3","","0","0","1","","0.3777248691","false","70","","0.295141158","main_expt","","0.356932825","","0.3468887804","","0.3777248691","","","","","",""
"176","","bandit","146","424577","0.0-108.0-0.0","28236253","wem/bandit_single","A2DXEPC4QFV4R1","pain","6","","76","L","3","","0","1","0","","0.3795242786","false","71","","0.3206647592","main_expt","","0.3835678776","","0.341524862","","0.3795242786","","","","","",""
"182","","bandit","147","426517","0.0-109.0-0.0","28236253","wem/bandit_single","A2DXEPC4QFV4R1","pain","6","","76","L","3","","0","0","1","","0.3665841139","false","72","","0.3264000429","main_expt","","0.4212385026","","0.3749246652","","0.3665841139","","","","","",""
"105","","bandit","148","428383","0.0-110.0-0.0","28236253","wem/bandit_single","A2DXEPC4QFV4R1","pain","6","","76","L","3","","0","1","0","","0.3651794524","false","73","","0.333972891","main_expt","","0.4261424303","","0.3871824506","","0.3651794524","","","","","",""
"93","","bandit","149","430236","0.0-111.0-0.0","28236253","wem/bandit_single","A2DXEPC4QFV4R1","pain","6","","76","L","3","","0","0","1","","0.3550305672","false","74","","0.3616968722","main_expt","","0.3977974162","","0.3721906724","","0.3550305672","","","","","",""
"56","","bandit","150","432052","0.0-112.0-0.0","28236253","wem/bandit_single","A2DXEPC4QFV4R1","pain","6","","76","L","3","","0","0","1","","0.2927321298","false","75","","0.3975057441","main_expt","","0.4267201321","","0.3111946895","","0.2927321298","","","","","",""
"54","","bandit","151","433868","0.0-113.0-0.0","28236253","wem/bandit_single","A2DXEPC4QFV4R1","pain","6","","76","L","3","","0","0","1","","0.2842047713","false","76","","0.3807363423","main_expt","","0.4263250047","","0.3336428477","","0.2842047713","","","","","",""
"100","","bandit","152","435727","0.0-114.0-0.0","28236253","wem/bandit_single","A2DXEPC4QFV4R1","pain","6","","76","L","3","","0","1","0","","0.291961298","false","77","","0.394346207","main_expt","","0.4081139898","","0.2972108807","","0.291961298","","","","","",""
"3","","bandit","153","437491","0.0-115.0-0.0","28236253","wem/bandit_single","A2DXEPC4QFV4R1","pain","6","","76","L","3","","0","0","1","","0.2772504781","false","78","","0.4130135997","main_expt","","0.4081745619","","0.3500338334","","0.2772504781","","","","","",""
"9","","bandit","154","439258","0.0-116.0-0.0","28236253","wem/bandit_single","A2DXEPC4QFV4R1","pain","6","","76","L","3","","0","0","1","","0.2910266255","false","79","","0.388257836","main_expt","","0.4210543479","","0.3382579744","","0.2910266255","","","","","",""
"24","","bandit","155","441041","0.0-117.0-0.0","28236253","wem/bandit_single","A2DXEPC4QFV4R1","pain","6","","76","L","3","","0","0","1","","0.3236474027","false","80","","0.402189785","main_expt","","0.4173400146","","0.2848378437","","0.3236474027","","","","","",""
"5","","bandit","156","442806","0.0-118.0-0.0","28236253","wem/bandit_single","A2DXEPC4QFV4R1","pain","6","","76","L","3","","0","0","1","","0.3171491255","false","81","","0.4188164015","main_expt","","0.3876294662","","0.2824957966","","0.3171491255","","","","","",""
"311","","bandit","157","444875","0.0-119.0-0.0","28236253","wem/bandit_single","A2DXEPC4QFV4R1","pain","6","","75","K","2","","0","0","1","","0.2921189703","false","82","","0.3923487362","main_expt","","0.3960397656","","0.2921189703","","0.3253049084","","","","","",""
"213","","bandit","158","446846","0.0-120.0-0.0","28236253","wem/bandit_single","A2DXEPC4QFV4R1","pain","6","","75","K","2","","0","0","1","","0.346808059","false","83","","0.3765831671","main_expt","","0.4048972575","","0.346808059","","0.2650825447","","","","","",""
"22","","bandit","159","448628","0.0-121.0-0.0","28236253","wem/bandit_single","A2DXEPC4QFV4R1","pain","6","","74","J","1","","0","0","1","","0.4261464595","false","84","","0.3744655151","main_expt","","0.4261464595","","0.3142369957","","0.2860936523","","","","","",""
"3","","bandit","160","450391","0.0-122.0-0.0","28236253","wem/bandit_single","A2DXEPC4QFV4R1","pain","6","","74","J","1","","0","1","0","","0.4252889048","false","85","","0.4097897279","main_expt","","0.4252889048","","0.3336664699","","0.2965161573","","","","","",""
"159","","bandit","161","452310","0.0-123.0-0.0","28236253","wem/bandit_single","A2DXEPC4QFV4R1","pain","6","","74","J","1","","0","0","1","","0.4234238012","false","86","","0.4365994201","main_expt","","0.4234238012","","0.3487181938","","0.2718920201","","","","","",""
"332","","bandit","162","454406","0.0-124.0-0.0","28236253","wem/bandit_single","A2DXEPC4QFV4R1","pain","6","","74","J","1","","0","1","0","","0.4493325849","false","87","","0.4485753971","main_expt","","0.4493325849","","0.3595256023","","0.2663647104","","","","","",""
"128","","bandit","163","456295","0.0-125.0-0.0","28236253","wem/bandit_single","A2DXEPC4QFV4R1","pain","6","","74","J","1","","0","0","1","","0.4618336953","false","88","","0.4682155013","main_expt","","0.4618336953","","0.3633435887","","0.2505207396","","","","","",""
"136","","bandit","164","458191","0.0-126.0-0.0","28236253","wem/bandit_single","A2DXEPC4QFV4R1","pain","6","","74","J","1","","0","0","1","","0.470357169","false","89","","0.455546077","main_expt","","0.470357169","","0.3301577903","","0.2380326514","","","","","",""
"49","","bandit","165","460000","0.0-127.0-0.0","28236253","wem/bandit_single","A2DXEPC4QFV4R1","pain","6","","74","J","1","","0","0","1","","0.4756012524","false","90","","0.4648286352","main_expt","","0.4756012524","","0.2983975746","","0.2825572521","","","","","",""
"27","","bandit","166","461785","0.0-128.0-0.0","28236253","wem/bandit_single","A2DXEPC4QFV4R1","pain","6","","74","J","1","","0","1","0","","0.4661355378","false","91","","0.4597569826","main_expt","","0.4661355378","","0.2708507867","","0.3629334232","","","","","",""
"101","","bandit","167","463645","0.0-129.0-0.0","28236253","wem/bandit_single","A2DXEPC4QFV4R1","pain","6","","74","J","1","","0","0","1","","0.4640816948","false","92","","0.4636055165","main_expt","","0.4640816948","","0.2025174094","","0.4318733099","","","","","",""
"117","","bandit","168","465525","0.0-130.0-0.0","28236253","wem/bandit_single","A2DXEPC4QFV4R1","pain","6","","74","J","1","","0","1","0","","0.4745032584","false","93","","0.4344757896","main_expt","","0.4745032584","","0.1991535532","","0.4354989634","","","","","",""
"209","","bandit","169","467500","0.0-131.0-0.0","28236253","wem/bandit_single","A2DXEPC4QFV4R1","pain","6","","74","J","1","","0","1","0","","0.4713826624","false","94","","0.4540573516","main_expt","","0.4713826624","","0.2072674268","","0.4569950804","","","","","",""
"57","","bandit","170","469324","0.0-132.0-0.0","28236253","wem/bandit_single","A2DXEPC4QFV4R1","pain","6","","74","J","1","","0","1","0","","0.4518091014","false","95","","0.467393544","main_expt","","0.4518091014","","0.2139910976","","0.4626037768","","","","","",""
"152","","bandit","171","471239","0.0-133.0-0.0","28236253","wem/bandit_single","A2DXEPC4QFV4R1","pain","6","","74","J","1","","0","1","0","","0.4610288074","false","96","","0.4523779492","main_expt","","0.4610288074","","0.1714021876","","0.4632162831","","","","","",""
"277","","bandit","172","473276","0.0-134.0-0.0","28236253","wem/bandit_single","A2DXEPC4QFV4R1","pain","6","","74","J","1","","0","0","1","","0.4610411697","false","97","","0.4734298584","main_expt","","0.4610411697","","0.1776734449","","0.4574348148","","","","","",""
"222","","bandit","173","475259","0.0-135.0-0.0","28236253","wem/bandit_single","A2DXEPC4QFV4R1","pain","6","","74","J","1","","0","1","0","","0.4658458747","false","98","","0.4822123269","main_expt","","0.4658458747","","0.2143852757","","0.4551488225","","","","","",""
"52","","bandit","174","477074","0.0-136.0-0.0","28236253","wem/bandit_single","A2DXEPC4QFV4R1","pain","6","","74","J","1","","0","0","1","","0.4372748216","false","99","","0.4829706494","main_expt","","0.4372748216","","0.2341872784","","0.4604873832","","","","","",""
"64","","bandit","175","478897","0.0-137.0-0.0","28236253","wem/bandit_single","A2DXEPC4QFV4R1","pain","6","","74","J","1","","0","1","0","","0.4237986198","false","100","","0.4918551361","main_expt","","0.4237986198","","0.2835639283","","0.4364445071","","","","","",""
"20","","bandit","176","480676","0.0-138.0-0.0","28236253","wem/bandit_single","A2DXEPC4QFV4R1","pain","6","","74","J","1","","0","1","0","","0.4239408107","false","101","","0.4891782125","main_expt","","0.4239408107","","0.3342764243","","0.4152010141","","","","","",""
"54","","bandit","177","482494","0.0-139.0-0.0","28236253","wem/bandit_single","A2DXEPC4QFV4R1","pain","6","","74","J","1","","0","1","0","","0.4482877494","false","102","","0.484620563","main_expt","","0.4482877494","","0.3693598309","","0.4463558977","","","","","",""
"62","","bandit","178","484317","0.0-140.0-0.0","28236253","wem/bandit_single","A2DXEPC4QFV4R1","pain","6","","74","J","1","","0","0","1","","0.4319618448","false","103","","0.4880888492","main_expt","","0.4319618448","","0.3465782007","","0.4519222506","","","","","",""
"92","","bandit","179","486169","0.0-141.0-0.0","28236253","wem/bandit_single","A2DXEPC4QFV4R1","pain","6","","74","J","1","","0","1","0","","0.3989131432","false","104","","0.4862983338","main_expt","","0.3989131432","","0.356437927","","0.44950272","","","","","",""
"82","","bandit","180","488013","0.0-142.0-0.0","28236253","wem/bandit_single","A2DXEPC4QFV4R1","pain","6","","74","J","1","","0","0","1","","0.3718051273","false","105","","0.4761426531","main_expt","","0.3718051273","","0.349556789","","0.4631277203","","","","","",""
"139","","bandit","181","489911","0.0-143.0-0.0","28236253","wem/bandit_single","A2DXEPC4QFV4R1","pain","6","","74","J","1","","0","0","1","","0.3820213715","false","106","","0.4724420891","main_expt","","0.3820213715","","0.3368343046","","0.4761070442","","","","","",""
"22","","bandit","182","491692","0.0-144.0-0.0","28236253","wem/bandit_single","A2DXEPC4QFV4R1","pain","6","","74","J","1","","0","0","1","","0.3903902173","false","107","","0.4544285192","main_expt","","0.3903902173","","0.3492990444","","0.4574049266","","","","","",""
"173","","bandit","183","493625","0.0-145.0-0.0","28236253","wem/bandit_single","A2DXEPC4QFV4R1","pain","6","","74","J","1","","0","1","0","","0.424383047","false","108","","0.4489506099","main_expt","","0.424383047","","0.3657086014","","0.4342229458","","","","","",""
"56","","bandit","184","495441","0.0-146.0-0.0","28236253","wem/bandit_single","A2DXEPC4QFV4R1","pain","6","","74","J","1","","0","1","0","","0.3732822228","false","109","","0.4357570441","main_expt","","0.3732822228","","0.3473329542","","0.4437976733","","","","","",""
"184","","bandit","185","497385","0.0-147.0-0.0","28236253","wem/bandit_single","A2DXEPC4QFV4R1","pain","6","","74","J","1","","0","0","1","","0.3545846445","false","110","","0.4243789051","main_expt","","0.3545846445","","0.3937482981","","0.4131704669","","","","","",""
"47","","bandit","186","499193","0.0-148.0-0.0","28236253","wem/bandit_single","A2DXEPC4QFV4R1","pain","6","","74","J","1","","0","1","0","","0.2861948885","false","111","","0.4235572131","main_expt","","0.2861948885","","0.4067223002","","0.3849612216","","","","","",""
"168","","bandit","187","501122","0.0-149.0-0.0","28236253","wem/bandit_single","A2DXEPC4QFV4R1","pain","6","","74","J","1","","0","1","0","","0.3148935151","false","112","","0.4216330179","main_expt","","0.3148935151","","0.3791461054","","0.4197473064","","","","","",""
"83","","bandit","188","502966","0.0-150.0-0.0","28236253","wem/bandit_single","A2DXEPC4QFV4R1","pain","6","","74","J","1","","0","0","1","","0.310891148","false","113","","0.3981229654","main_expt","","0.310891148","","0.3697872407","","0.4477672952","","","","","",""
"106","","bandit","189","504833","0.0-151.0-0.0","28236253","wem/bandit_single","A2DXEPC4QFV4R1","pain","6","","74","J","1","","0","1","0","","0.3312817134","false","114","","0.4051483532","main_expt","","0.3312817134","","0.3542284497","","0.4347577032","","","","","",""
"112","","bandit","190","506706","0.0-152.0-0.0","28236253","wem/bandit_single","A2DXEPC4QFV4R1","pain","6","","74","J","1","","0","0","1","","0.3328181623","false","115","","0.3664587937","main_expt","","0.3328181623","","0.3424252445","","0.4123529648","","","","","",""
"301","","bandit","191","508768","0.0-153.0-0.0","28236253","wem/bandit_single","A2DXEPC4QFV4R1","pain","6","","74","J","1","","0","0","1","","0.282168926","false","116","","0.3815824605","main_expt","","0.282168926","","0.3364913945","","0.4374051313","","","","","",""
"307","","bandit","192","510836","0.0-154.0-0.0","28236253","wem/bandit_single","A2DXEPC4QFV4R1","pain","6","","74","J","1","","0","0","1","","0.3282440564","false","117","","0.3718524962","main_expt","","0.3282440564","","0.3607093693","","0.4336999329","","","","","",""
"183","","bandit","193","512777","0.0-155.0-0.0","28236253","wem/bandit_single","A2DXEPC4QFV4R1","pain","6","","74","J","1","","0","0","1","","0.3735758205","false","118","","0.3228128462","main_expt","","0.3735758205","","0.3651530194","","0.4609057125","","","","","",""
"108","","bandit","194","514646","0.0-156.0-0.0","28236253","wem/bandit_single","A2DXEPC4QFV4R1","pain","6","","74","J","1","","0","0","1","","0.4085136599","false","119","","0.3303119184","main_expt","","0.4085136599","","0.391691743","","0.4644995027","","","","","",""
"189","","bandit","195","516597","0.0-157.0-0.0","28236253","wem/bandit_single","A2DXEPC4QFV4R1","pain","6","","74","J","1","","0","1","0","","0.4152109264","false","120","","0.3566896217","main_expt","","0.4152109264","","0.3892352466","","0.4699288035","","","","","",""
"59","","bandit","196","518416","0.0-158.0-0.0","28236253","wem/bandit_single","A2DXEPC4QFV4R1","pain","6","","74","J","1","","0","0","1","","0.4362055741","false","121","","0.3938610898","main_expt","","0.4362055741","","0.4119078466","","0.48416914","","","","","",""
"2","","bandit","197","520179","0.0-159.0-0.0","28236253","wem/bandit_single","A2DXEPC4QFV4R1","pain","6","","74","J","1","","0","1","0","","0.4381361327","false","122","","0.3846692282","main_expt","","0.4381361327","","0.3864510994","","0.4744752566","","","","","",""
"158","","bandit","198","522098","0.0-160.0-0.0","28236253","wem/bandit_single","A2DXEPC4QFV4R1","pain","6","","74","J","1","","0","0","1","","0.4266523018","false","123","","0.3479888462","main_expt","","0.4266523018","","0.3206095238","","0.4770694964","","","","","",""
"38","","bandit","199","523897","0.0-161.0-0.0","28236253","wem/bandit_single","A2DXEPC4QFV4R1","pain","6","","74","J","1","","0","0","1","","0.3976500929","false","124","","0.3446564944","main_expt","","0.3976500929","","0.3004639257","","0.4882663864","","","","","",""
"161","","bandit","200","525820","0.0-162.0-0.0","28236253","wem/bandit_single","A2DXEPC4QFV4R1","pain","6","","74","J","1","","0","1","0","","0.4004048686","false","125","","0.3742116014","main_expt","","0.4004048686","","0.2718713493","","0.4867438878","","","","","",""
"175","","bandit","201","527754","0.0-163.0-0.0","28236253","wem/bandit_single","A2DXEPC4QFV4R1","pain","6","","74","J","1","","0","0","1","","0.3978852423","false","126","","0.3522130289","main_expt","","0.3978852423","","0.312825386","","0.4859509926","","","","","",""
"387","","bandit","202","529902","0.0-164.0-0.0","28236253","wem/bandit_single","A2DXEPC4QFV4R1","pain","6","","74","J","1","","0","1","0","","0.4164913371","false","127","","0.4136983804","main_expt","","0.4164913371","","0.2929193121","","0.4910312391","","","","","",""
"79","","bandit","203","531741","0.0-165.0-0.0","28236253","wem/bandit_single","A2DXEPC4QFV4R1","pain","6","","74","J","1","","0","0","1","","0.4273270633","false","128","","0.3740150402","main_expt","","0.4273270633","","0.3483635392","","0.4916106826","","","","","",""
"283","","bandit","204","533784","0.0-166.0-0.0","28236253","wem/bandit_single","A2DXEPC4QFV4R1","pain","6","","74","J","1","","0","1","0","","0.4403517336","false","129","","0.3561584853","main_expt","","0.4403517336","","0.3180783589","","0.4774596984","","","","","",""
"98","","bandit","205","535647","0.0-167.0-0.0","28236253","wem/bandit_single","A2DXEPC4QFV4R1","pain","6","","74","J","1","","0","1","0","","0.436469863","false","130","","0.3781611856","main_expt","","0.436469863","","0.332672873","","0.4792113904","","","","","",""
"188","","bandit","206","537595","0.0-168.0-0.0","28236253","wem/bandit_single","A2DXEPC4QFV4R1","pain","6","","74","J","1","","0","0","1","","0.467157068","false","131","","0.3972118802","main_expt","","0.467157068","","0.3172252399","","0.4761250173","","","","","",""
"139","","bandit","207","539495","0.0-169.0-0.0","28236253","wem/bandit_single","A2DXEPC4QFV4R1","pain","6","","74","J","1","","0","0","1","","0.4747764211","false","132","","0.3951630556","main_expt","","0.4747764211","","0.2808852702","","0.4782449011","","","","","",""
"25","","bandit","208","541280","0.0-170.0-0.0","28236253","wem/bandit_single","A2DXEPC4QFV4R1","pain","6","","74","J","1","","0","1","0","","0.4662147581","false","133","","0.3918056992","main_expt","","0.4662147581","","0.2846237695","","0.4789501527","","","","","",""
"185","","bandit","209","543229","0.0-171.0-0.0","28236253","wem/bandit_single","A2DXEPC4QFV4R1","pain","6","","74","J","1","","0","1","0","","0.4711951182","false","134","","0.395342783","main_expt","","0.4711951182","","0.3115497245","","0.4821877595","","","","","",""
"1","","bandit","210","544990","0.0-172.0-0.0","28236253","wem/bandit_single","A2DXEPC4QFV4R1","pain","6","","74","J","1","","0","1","0","","0.4540730246","false","135","","0.3867762939","main_expt","","0.4540730246","","0.3413582918","","0.4863767518","","","","","",""
"9","","bandit","211","546763","0.0-173.0-0.0","28236253","wem/bandit_single","A2DXEPC4QFV4R1","pain","6","","74","J","1","","0","1","0","","0.4412688847","false","136","","0.3929594686","main_expt","","0.4412688847","","0.316763081","","0.4887786445","","","","","",""
"82","","bandit","212","548604","0.0-174.0-0.0","28236253","wem/bandit_single","A2DXEPC4QFV4R1","pain","6","","74","J","1","","0","1","0","","0.4585130214","false","137","","0.3067223256","main_expt","","0.4585130214","","0.2585559296","","0.4896902137","","","","","",""
"40","","bandit","213","550405","0.0-175.0-0.0","28236253","wem/bandit_single","A2DXEPC4QFV4R1","pain","6","","74","J","1","","0","0","1","","0.4413786145","false","138","","0.3444805877","main_expt","","0.4413786145","","0.2320291273","","0.4754525561","","","","","",""
"453","","bandit","214","552618","0.0-176.0-0.0","28236253","wem/bandit_single","A2DXEPC4QFV4R1","pain","6","","74","J","1","","0","1","0","","0.4235974169","false","139","","0.4025185773","main_expt","","0.4235974169","","0.2705305451","","0.4525902595","","","","","",""
"103","","bandit","215","554482","0.0-177.0-0.0","28236253","wem/bandit_single","A2DXEPC4QFV4R1","pain","6","","74","J","1","","0","0","1","","0.3993595144","false","140","","0.4000290511","main_expt","","0.3993595144","","0.2115164241","","0.474141966","","","","","",""
"622","","bandit","216","556866","0.0-178.0-0.0","28236253","wem/bandit_single","A2DXEPC4QFV4R1","pain","6","","74","J","1","","0","0","1","","0.3845482665","false","141","","0.4052231698","main_expt","","0.3845482665","","0.2166269704","","0.4642583801","","","","","",""
"193","","bandit","217","558822","0.0-179.0-0.0","28236253","wem/bandit_single","A2DXEPC4QFV4R1","pain","6","","74","J","1","","0","1","0","","0.3636407915","false","142","","0.3881257509","main_expt","","0.3636407915","","0.2477117994","","0.4713728632","","","","","",""
"105","","bandit","218","560690","0.0-180.0-0.0","28236253","wem/bandit_single","A2DXEPC4QFV4R1","pain","6","","74","J","1","","0","0","1","","0.3360879677","false","143","","0.4101759482","main_expt","","0.3360879677","","0.2347168821","","0.4714731714","","","","","",""
"191","","bandit","219","562643","0.0-181.0-0.0","28236253","wem/bandit_single","A2DXEPC4QFV4R1","pain","6","","74","J","1","","0","1","0","","0.2886719504","false","144","","0.4100488723","main_expt","","0.2886719504","","0.190213181","","0.4777196865","","","","","",""
"33","","bandit","220","564439","0.0-182.0-0.0","28236253","wem/bandit_single","A2DXEPC4QFV4R1","pain","6","","74","J","1","","0","1","0","","0.2607344777","false","145","","0.4294240464","main_expt","","0.2607344777","","0.2873677543","","0.467438704","","","","","",""
"32","","bandit","221","566232","0.0-183.0-0.0","28236253","wem/bandit_single","A2DXEPC4QFV4R1","pain","6","","74","J","1","","0","1","0","","0.261523257","false","146","","0.4447984025","main_expt","","0.261523257","","0.3434581746","","0.4764572222","","","","","",""
"139","","bandit","222","568135","0.0-184.0-0.0","28236253","wem/bandit_single","A2DXEPC4QFV4R1","pain","6","","74","J","1","","0","0","1","","0.2768268543","false","147","","0.4339083406","main_expt","","0.2768268543","","0.3677167414","","0.4670163239","","","","","",""
"221","","bandit","223","570119","0.0-185.0-0.0","28236253","wem/bandit_single","A2DXEPC4QFV4R1","pain","6","","74","J","1","","0","0","1","","0.2822793125","false","148","","0.4200875786","main_expt","","0.2822793125","","0.378672096","","0.4762727371","","","","","",""
"168","","bandit","224","572051","0.0-186.0-0.0","28236253","wem/bandit_single","A2DXEPC4QFV4R1","pain","6","","74","J","1","","0","0","1","","0.3100291085","false","149","","0.4370731276","main_expt","","0.3100291085","","0.3447579657","","0.4763998188","","","","","",""
"48","","bandit","225","573865","0.0-187.0-0.0","28236253","wem/bandit_single","A2DXEPC4QFV4R1","pain","6","","74","J","1","","0","1","0","","0.3473977335","false","150","","0.4606741766","main_expt","","0.3473977335","","0.3225325285","","0.4534074178","","","","","",""
"105","","bandit","226","575731","0.0-188.0-0.0","28236253","wem/bandit_single","A2DXEPC4QFV4R1","pain","6","","74","J","1","","0","0","1","","0.3755194153","false","151","","0.4831185644","main_expt","","0.3755194153","","0.2971371866","","0.4518750411","","","","","",""
"84","","bandit","227","577576","0.0-189.0-0.0","28236253","wem/bandit_single","A2DXEPC4QFV4R1","pain","6","","74","J","1","","0","0","1","","0.3931135366","false","152","","0.489350082","main_expt","","0.3931135366","","0.2436525959","","0.4724220712","","","","","",""
"160","","bandit","228","579498","0.0-190.0-0.0","28236253","wem/bandit_single","A2DXEPC4QFV4R1","pain","6","","74","J","1","","0","0","1","","0.3704791656","false","153","","0.4874668037","main_expt","","0.3704791656","","0.2745817176","","0.4655138208","","","","","",""
"9","","bandit","229","581272","0.0-191.0-0.0","28236253","wem/bandit_single","A2DXEPC4QFV4R1","pain","6","","72","H","0","img/none_selected.jpg","0","1","0","","0.4906252114","false","154","","0.4906252114","main_expt","","0.3918087328","","0.2354012901","","0.466892577","","","","","",""
"235","","bandit","230","583267","0.0-192.0-0.0","28236253","wem/bandit_single","A2DXEPC4QFV4R1","pain","6","","72","H","0","img/none_selected.jpg","0","1","0","","0.4807331657","false","155","","0.4807331657","main_expt","","0.3629162862","","0.2125693007","","0.4696525674","","","","","",""
"7","","bandit","231","585037","0.0-193.0-0.0","28236253","wem/bandit_single","A2DXEPC4QFV4R1","pain","6","","72","H","0","img/none_selected.jpg","0","1","0","","0.4886913858","false","156","","0.4886913858","main_expt","","0.3329402669","","0.2344806361","","0.4798639378","","","","","",""
"38","","bandit","232","586842","0.0-194.0-0.0","28236253","wem/bandit_single","A2DXEPC4QFV4R1","pain","6","","72","H","0","img/none_selected.jpg","0","0","1","","0.4791259403","false","157","","0.4791259403","main_expt","","0.2681960896","","0.1314384861","","0.4706110477","","","","","",""
"180","","bandit","233","588783","0.0-195.0-0.0","28236253","wem/bandit_single","A2DXEPC4QFV4R1","pain","6","","72","H","0","img/none_selected.jpg","0","1","0","","0.4733263956","false","158","","0.4733263956","main_expt","","0.2540197996","","0.181857365","","0.4469873257","","","","","",""
"259","","bandit","234","590804","0.0-196.0-0.0","28236253","wem/bandit_single","A2DXEPC4QFV4R1","pain","6","","72","H","0","img/none_selected.jpg","0","0","1","","0.4815819336","false","159","","0.4815819336","main_expt","","0.2609952623","","0.158015958","","0.4239904196","","","","","",""
"171","","bandit","235","592736","0.0-197.0-0.0","28236253","wem/bandit_single","A2DXEPC4QFV4R1","pain","6","","72","H","0","img/none_selected.jpg","0","1","0","","0.4721468952","false","160","","0.4721468952","main_expt","","0.2023108268","","0.141078422","","0.4459131135","","","","","",""
"185","","bandit","236","594683","0.0-198.0-0.0","28236253","wem/bandit_single","A2DXEPC4QFV4R1","pain","6","","72","H","0","img/none_selected.jpg","0","1","0","","0.4711146003","false","161","","0.4711146003","main_expt","","0.2500661268","","0.1347361735","","0.4186734055","","","","","",""
"31","","bandit","237","596474","0.0-199.0-0.0","28236253","wem/bandit_single","A2DXEPC4QFV4R1","pain","6","","72","H","0","img/none_selected.jpg","0","0","1","","0.4712261849","false","162","","0.4712261849","main_expt","","0.2540596089","","0.09535719087","","0.3857154427","","","","","",""
"248","","bandit","238","598488","0.0-200.0-0.0","28236253","wem/bandit_single","A2DXEPC4QFV4R1","pain","6","","72","H","0","img/none_selected.jpg","0","1","0","","0.4845321786","false","163","","0.4845321786","main_expt","","0.2601053227","","0.08326456225","","0.4174701589","","","","","",""
"131","","bandit","239","600382","0.0-201.0-0.0","28236253","wem/bandit_single","A2DXEPC4QFV4R1","pain","6","","72","H","0","img/none_selected.jpg","0","1","0","","0.4759389929","false","164","","0.4759389929","main_expt","","0.2541421927","","0.09053498257","","0.3890878976","","","","","",""
"100","","bandit","240","602244","0.0-202.0-0.0","28236253","wem/bandit_single","A2DXEPC4QFV4R1","pain","6","","72","H","0","img/none_selected.jpg","0","0","1","","0.4720948066","false","165","","0.4720948066","main_expt","","0.2481661974","","0.08506048778","","0.4138915172","","","","","",""
"90","","bandit","241","604096","0.0-203.0-0.0","28236253","wem/bandit_single","A2DXEPC4QFV4R1","pain","6","","72","H","0","img/none_selected.jpg","0","0","1","","0.4785392204","false","166","","0.4785392204","main_expt","","0.2774316831","","0.1313511463","","0.3965001983","","","","","",""
"83","","bandit","242","605942","0.0-204.0-0.0","28236253","wem/bandit_single","A2DXEPC4QFV4R1","pain","6","","72","H","0","img/none_selected.jpg","0","1","0","","0.4807372421","false","167","","0.4807372421","main_expt","","0.2487678046","","0.1176964862","","0.3565429409","","","","","",""
"96","","bandit","243","607801","0.0-205.0-0.0","28236253","wem/bandit_single","A2DXEPC4QFV4R1","pain","6","","72","H","0","img/none_selected.jpg","0","0","1","","0.4679921472","false","168","","0.4679921472","main_expt","","0.3058486258","","0.08442850793","","0.3697134737","","","","","",""
"390","","bandit","244","609954","0.0-206.0-0.0","28236253","wem/bandit_single","A2DXEPC4QFV4R1","pain","6","","72","H","0","img/none_selected.jpg","0","1","0","","0.4504326489","false","169","","0.4504326489","main_expt","","0.3196595105","","0.08508452716","","0.3754926497","","","","","",""
"389","","bandit","245","612104","0.0-207.0-0.0","28236253","wem/bandit_single","A2DXEPC4QFV4R1","pain","6","","72","H","0","img/none_selected.jpg","0","0","1","","0.4575738232","false","170","","0.4575738232","main_expt","","0.2675331271","","0.06647736925","","0.3688606114","","","","","",""
"50","","bandit","246","613914","0.0-208.0-0.0","28236253","wem/bandit_single","A2DXEPC4QFV4R1","pain","6","","72","H","0","img/none_selected.jpg","0","0","1","","0.4515033555","false","171","","0.4515033555","main_expt","","0.2898788388","","0.05048422731","","0.3548436987","","","","","",""
"357","","bandit","247","616033","0.0-209.0-0.0","28236253","wem/bandit_single","A2DXEPC4QFV4R1","pain","6","","72","H","0","img/none_selected.jpg","0","1","0","","0.4804896953","false","172","","0.4804896953","main_expt","","0.3066863737","","0.05782489063","","0.3789739593","","","","","",""
"40","","bandit","248","617835","0.0-210.0-0.0","28236253","wem/bandit_single","A2DXEPC4QFV4R1","pain","6","","72","H","0","img/none_selected.jpg","0","0","1","","0.4915792717","false","173","","0.4915792717","main_expt","","0.2694007619","","0.05297704283","","0.361488512","","","","","",""
"730","","bandit","249","620328","0.0-211.0-0.0","28236253","wem/bandit_single","A2DXEPC4QFV4R1","pain","6","","72","H","0","img/none_selected.jpg","0","1","0","","0.4861742571","false","174","","0.4861742571","main_expt","","0.2754062015","","0.05353397103","","0.3460135238","","","","","",""
"412","","bandit","250","622502","0.0-212.0-0.0","28236253","wem/bandit_single","A2DXEPC4QFV4R1","pain","6","","72","H","0","img/none_selected.jpg","0","0","1","","0.4817940596","false","175","","0.4817940596","main_expt","","0.296446081","","0.03778759003","","0.3522158256","","","","","",""
"149","","bandit","251","624415","0.0-213.0-0.0","28236253","wem/bandit_single","A2DXEPC4QFV4R1","pain","6","","72","H","0","img/none_selected.jpg","0","1","0","","0.4757066075","false","176","","0.4757066075","main_expt","","0.3058710094","","0.02527008277","","0.2998164985","","","","","",""
"85","","bandit","252","626263","0.0-214.0-0.0","28236253","wem/bandit_single","A2DXEPC4QFV4R1","pain","6","","72","H","0","img/none_selected.jpg","0","0","1","","0.4781570811","false","177","","0.4781570811","main_expt","","0.2349503117","","0.03305249037","","0.2523084086","","","","","",""
"264","","bandit","253","628287","0.0-215.0-0.0","28236253","wem/bandit_single","A2DXEPC4QFV4R1","pain","6","","72","H","0","img/none_selected.jpg","0","1","0","","0.4800614517","false","178","","0.4800614517","main_expt","","0.2619038699","","0.03386287722","","0.304071788","","","","","",""
"13","","bandit","254","630063","0.0-216.0-0.0","28236253","wem/bandit_single","A2DXEPC4QFV4R1","pain","6","","72","H","0","img/none_selected.jpg","0","1","0","","0.4829502963","false","179","","0.4829502963","main_expt","","0.2830684205","","0.04065763291","","0.2871062198","","","","","",""
"206","","bandit","255","632031","0.0-217.0-0.0","28236253","wem/bandit_single","A2DXEPC4QFV4R1","pain","6","","72","H","0","img/none_selected.jpg","0","1","0","","0.4858173281","false","180","","0.4858173281","main_expt","","0.3534450431","","0.05743716857","","0.2266659288","","","","","",""
"48","","bandit","256","633840","0.0-218.0-0.0","28236253","wem/bandit_single","A2DXEPC4QFV4R1","pain","6","","72","H","0","img/none_selected.jpg","0","0","1","","0.4744777914","false","181","","0.4744777914","main_expt","","0.3212605574","","0.04418568229","","0.221928096","","","","","",""
"284","","bandit","257","635888","0.0-219.0-0.0","28236253","wem/bandit_single","A2DXEPC4QFV4R1","pain","6","","72","H","0","img/none_selected.jpg","0","1","0","","0.4845259409","false","182","","0.4845259409","main_expt","","0.3315430587","","0.08176319179","","0.2300829386","","","","","",""
"70","","bandit","258","637721","0.0-220.0-0.0","28236253","wem/bandit_single","A2DXEPC4QFV4R1","pain","6","","72","H","0","img/none_selected.jpg","0","0","1","","0.481953826","false","183","","0.481953826","main_expt","","0.3284942609","","0.127405614","","0.236046558","","","","","",""
"176","","bandit","259","639660","0.0-221.0-0.0","28236253","wem/bandit_single","A2DXEPC4QFV4R1","pain","6","","72","H","0","img/none_selected.jpg","0","0","1","","0.4855041368","false","184","","0.4855041368","main_expt","","0.3122619856","","0.08615736955","","0.2923178249","","","","","",""
"309","","bandit","260","641730","0.0-222.0-0.0","28236253","wem/bandit_single","A2DXEPC4QFV4R1","pain","6","","72","H","0","img/none_selected.jpg","0","0","1","","0.4698046591","false","185","","0.4698046591","main_expt","","0.2923416166","","0.1184297318","","0.2808840613","","","","","",""
"298","","bandit","261","643791","0.0-223.0-0.0","28236253","wem/bandit_single","A2DXEPC4QFV4R1","pain","6","","76","L","3","","0","0","1","","0.2016881086","false","186","","0.4595088788","main_expt","","0.2743414945","","0.1909222977","","0.2016881086","","","","","",""
"64","","bandit","262","645617","0.0-224.0-0.0","28236253","wem/bandit_single","A2DXEPC4QFV4R1","pain","6","","75","K","2","","0","0","1","","0.156943311","false","187","","0.4646501277","main_expt","","0.3313242874","","0.156943311","","0.2403842116","","","","","",""
"22","","bandit","263","647404","0.0-225.0-0.0","28236253","wem/bandit_single","A2DXEPC4QFV4R1","pain","6","","75","K","2","","0","0","1","","0.139104156","false","188","","0.4587354039","main_expt","","0.3665806697","","0.139104156","","0.2559443775","","","","","",""
"71","","bandit","264","649237","0.0-226.0-0.0","28236253","wem/bandit_single","A2DXEPC4QFV4R1","pain","6","","75","K","2","","0","0","1","","0.1984961232","false","189","","0.4433819168","main_expt","","0.3982105691","","0.1984961232","","0.2450962267","","","","","",""
"88","","bandit","265","651086","0.0-227.0-0.0","28236253","wem/bandit_single","A2DXEPC4QFV4R1","pain","6","","75","K","2","","0","0","1","","0.3152507924","false","190","","0.441597313","main_expt","","0.4063069195","","0.3152507924","","0.2520413598","","","","","",""
"120","","bandit","266","652970","0.0-228.0-0.0","28236253","wem/bandit_single","A2DXEPC4QFV4R1","pain","6","","76","L","3","","0","0","1","","0.3069822625","false","191","","0.4447050695","main_expt","","0.4073058099","","0.34868685","","0.3069822625","","","","","",""
"35","","bandit","267","654767","0.0-229.0-0.0","28236253","wem/bandit_single","A2DXEPC4QFV4R1","pain","6","","74","J","1","","0","0","1","","0.3597632315","false","192","","0.3903647542","main_expt","","0.3597632315","","0.3244392246","","0.269658105","","","","","",""
"69","","bandit","268","656599","0.0-230.0-0.0","28236253","wem/bandit_single","A2DXEPC4QFV4R1","pain","6","","74","J","1","","0","0","1","","0.3512918873","false","193","","0.37796371","main_expt","","0.3512918873","","0.3077199203","","0.2337652902","","","","","",""
"180","","bandit","269","658541","0.0-231.0-0.0","28236253","wem/bandit_single","A2DXEPC4QFV4R1","pain","6","","74","J","1","","0","0","1","","0.2959519196","false","194","","0.4130200877","main_expt","","0.2959519196","","0.3089314305","","0.232364398","","","","","",""
"114","","bandit","270","660417","0.0-232.0-0.0","28236253","wem/bandit_single","A2DXEPC4QFV4R1","pain","6","","74","J","1","","0","0","1","","0.335494982","false","195","","0.4247195967","main_expt","","0.335494982","","0.2747286701","","0.3001816851","","","","","",""
"38","","bandit","271","662220","0.0-233.0-0.0","28236253","wem/bandit_single","A2DXEPC4QFV4R1","pain","6","","74","J","1","","0","1","0","","0.349715921","false","196","","0.4243543636","main_expt","","0.349715921","","0.234477082","","0.3408234979","","","","","",""
"46","","bandit","272","664026","0.0-234.0-0.0","28236253","wem/bandit_single","A2DXEPC4QFV4R1","pain","6","","74","J","1","","0","0","1","","0.301359959","false","197","","0.3856928417","main_expt","","0.301359959","","0.2134381397","","0.3048500693","","","","","",""
"15","","bandit","273","665804","0.0-235.0-0.0","28236253","wem/bandit_single","A2DXEPC4QFV4R1","pain","6","","74","J","1","","0","0","1","","0.2948231879","false","198","","0.3619593125","main_expt","","0.2948231879","","0.1732682886","","0.320222978","","","","","",""
"86","","bandit","274","667652","0.0-236.0-0.0","28236253","wem/bandit_single","A2DXEPC4QFV4R1","pain","6","","74","J","1","","0","0","1","","0.2739130918","false","199","","0.367752629","main_expt","","0.2739130918","","0.1702760897","","0.3267381451","","","","","",""
"53","","bandit","275","669467","0.0-237.0-0.0","28236253","wem/bandit_single","A2DXEPC4QFV4R1","pain","6","","72","H","0","img/none_selected.jpg","0","0","1","","0.3243939248","false","200","","0.3243939248","main_expt","","0.2519174554","","0.1149890083","","0.3471124056","","","","","",""
"156","","bandit","276","671386","0.0-238.0-0.0","28236253","wem/bandit_single","A2DXEPC4QFV4R1","pain","6","","72","H","0","img/none_selected.jpg","0","1","0","","0.309205964","false","201","","0.309205964","main_expt","","0.2607800984","","0.1378425817","","0.377370495","","","","","",""
"38","","bandit","277","673186","0.0-239.0-0.0","28236253","wem/bandit_single","A2DXEPC4QFV4R1","pain","6","","72","H","0","img/none_selected.jpg","0","1","0","","0.2762714965","false","202","","0.2762714965","main_expt","","0.2144757733","","0.1351165101","","0.4118986778","","","","","",""
"246","","bandit","278","675195","0.0-240.0-0.0","28236253","wem/bandit_single","A2DXEPC4QFV4R1","pain","6","","72","H","0","img/none_selected.jpg","0","0","1","","0.296808735","false","203","","0.296808735","main_expt","","0.3006883459","","0.105254576","","0.4232074982","","","","","",""
"238","","bandit","279","677195","0.0-241.0-0.0","28236253","wem/bandit_single","A2DXEPC4QFV4R1","pain","6","","72","H","0","img/none_selected.jpg","0","0","1","","0.3198559136","false","204","","0.3198559136","main_expt","","0.3059688055","","0.09939331469","","0.422672589","","","","","",""
"158","","bandit","280","679117","0.0-242.0-0.0","28236253","wem/bandit_single","A2DXEPC4QFV4R1","pain","6","","72","H","0","img/none_selected.jpg","0","1","0","","0.3814451683","false","205","","0.3814451683","main_expt","","0.2810212056","","0.1099723927","","0.4290364806","","","","","",""
"124","","bandit","281","681004","0.0-243.0-0.0","28236253","wem/bandit_single","A2DXEPC4QFV4R1","pain","6","","72","H","0","img/none_selected.jpg","0","1","0","","0.3836436308","false","206","","0.3836436308","main_expt","","0.2427537705","","0.1203356594","","0.4412489094","","","","","",""
"179","","bandit","282","682947","0.0-244.0-0.0","28236253","wem/bandit_single","A2DXEPC4QFV4R1","pain","6","","72","H","0","img/none_selected.jpg","0","1","0","","0.3943212714","false","207","","0.3943212714","main_expt","","0.2312113295","","0.1887874267","","0.461161346","","","","","",""
"106","","bandit","283","684813","0.0-245.0-0.0","28236253","wem/bandit_single","A2DXEPC4QFV4R1","pain","6","","72","H","0","img/none_selected.jpg","0","1","0","","0.4100076043","false","208","","0.4100076043","main_expt","","0.2502246517","","0.1570662604","","0.4749000037","","","","","",""
"41","","bandit","284","686616","0.0-246.0-0.0","28236253","wem/bandit_single","A2DXEPC4QFV4R1","pain","6","","72","H","0","img/none_selected.jpg","0","1","0","","0.4207901851","false","209","","0.4207901851","main_expt","","0.2378747501","","0.2050570797","","0.4677638209","","","","","",""
"59","","bandit","285","688437","0.0-247.0-0.0","28236253","wem/bandit_single","A2DXEPC4QFV4R1","pain","6","","72","H","0","img/none_selected.jpg","0","0","1","","0.4261573075","false","210","","0.4261573075","main_expt","","0.2323826376","","0.1803355731","","0.4507398287","","","","","",""
"1","","bandit","286","690201","0.0-248.0-0.0","28236253","wem/bandit_single","A2DXEPC4QFV4R1","pain","6","","72","H","0","img/none_selected.jpg","0","1","0","","0.3677002177","false","211","","0.3677002177","main_expt","","0.2346446126","","0.2066302241","","0.4275102647","","","","","",""
"91","","bandit","287","692056","0.0-249.0-0.0","28236253","wem/bandit_single","A2DXEPC4QFV4R1","pain","6","","72","H","0","img/none_selected.jpg","0","0","1","","0.4030871251","false","212","","0.4030871251","main_expt","","0.2017096022","","0.2190460355","","0.4147803006","","","","","",""
"50","","bandit","288","693868","0.0-250.0-0.0","28236253","wem/bandit_single","A2DXEPC4QFV4R1","pain","6","","72","H","0","img/none_selected.jpg","0","0","1","","0.3616850983","false","213","","0.3616850983","main_expt","","0.2149770465","","0.2433731683","","0.4119553225","","","","","",""
"43","","bandit","289","695674","0.0-251.0-0.0","28236253","wem/bandit_single","A2DXEPC4QFV4R1","pain","6","","72","H","0","img/none_selected.jpg","0","1","0","","0.3380837625","false","214","","0.3380837625","main_expt","","0.2323699387","","0.2355486522","","0.4097086646","","","","","",""
"153","","bandit","290","697590","0.0-252.0-0.0","28236253","wem/bandit_single","A2DXEPC4QFV4R1","pain","6","","72","H","0","img/none_selected.jpg","0","1","0","","0.3788103814","false","215","","0.3788103814","main_expt","","0.1880023584","","0.2493822419","","0.4553079268","","","","","",""
"3","","bandit","291","699357","0.0-253.0-0.0","28236253","wem/bandit_single","A2DXEPC4QFV4R1","pain","6","","72","H","0","img/none_selected.jpg","0","0","1","","0.3844600678","false","216","","0.3844600678","main_expt","","0.2305078945","","0.2455091026","","0.4360341733","","","","","",""
"123","","bandit","292","701244","0.0-254.0-0.0","28236253","wem/bandit_single","A2DXEPC4QFV4R1","pain","6","","72","H","0","img/none_selected.jpg","0","0","1","","0.3747540642","false","217","","0.3747540642","main_expt","","0.2042922501","","0.193913996","","0.4337093526","","","","","",""
"68","","bandit","293","703073","0.0-255.0-0.0","28236253","wem/bandit_single","A2DXEPC4QFV4R1","pain","6","","72","H","0","img/none_selected.jpg","0","1","0","","0.373903774","false","218","","0.373903774","main_expt","","0.1827914188","","0.2375794361","","0.4646024675","","","","","",""
"143","","bandit","294","704979","0.0-256.0-0.0","28236253","wem/bandit_single","A2DXEPC4QFV4R1","pain","6","","72","H","0","img/none_selected.jpg","0","1","0","","0.3735380413","false","219","","0.3735380413","main_expt","","0.2630445196","","0.2477723709","","0.4630893692","","","","","",""
"78","","bandit","295","706822","0.0-257.0-0.0","28236253","wem/bandit_single","A2DXEPC4QFV4R1","pain","6","","72","H","0","img/none_selected.jpg","0","1","0","","0.383917491","false","220","","0.383917491","main_expt","","0.311946342","","0.2543503475","","0.4683356487","","","","","",""
"40","","bandit","296","708626","0.0-258.0-0.0","28236253","wem/bandit_single","A2DXEPC4QFV4R1","pain","6","","72","H","0","img/none_selected.jpg","0","1","0","","0.3479973737","false","221","","0.3479973737","main_expt","","0.2972788283","","0.2776519347","","0.4682635517","","","","","",""
"64","","bandit","297","710452","0.0-259.0-0.0","28236253","wem/bandit_single","A2DXEPC4QFV4R1","pain","6","","72","H","0","img/none_selected.jpg","0","1","0","","0.3845595158","false","222","","0.3845595158","main_expt","","0.3550400804","","0.2291835432","","0.4771668828","","","","","",""
"66","","bandit","298","712281","0.0-260.0-0.0","28236253","wem/bandit_single","A2DXEPC4QFV4R1","pain","6","","72","H","0","img/none_selected.jpg","0","0","1","","0.368723436","false","223","","0.368723436","main_expt","","0.3246239653","","0.2266132179","","0.4773959318","","","","","",""
"43","","bandit","299","714088","0.0-261.0-0.0","28236253","wem/bandit_single","A2DXEPC4QFV4R1","pain","6","","72","H","0","img/none_selected.jpg","0","0","1","","0.3566991655","false","224","","0.3566991655","main_expt","","0.351266899","","0.2124948974","","0.4567335023","","","","","",""
"146","","bandit","300","715996","0.0-262.0-0.0","28236253","wem/bandit_single","A2DXEPC4QFV4R1","pain","6","","72","H","0","img/none_selected.jpg","0","1","0","","0.3557331736","false","225","","0.3557331736","main_expt","","0.3617362435","","0.2168010387","","0.4545703871","","","","","",""
"65","","bandit","301","717825","0.0-263.0-0.0","28236253","wem/bandit_single","A2DXEPC4QFV4R1","pain","6","","72","H","0","img/none_selected.jpg","0","1","0","","0.3620904828","false","226","","0.3620904828","main_expt","","0.3625162538","","0.2286352314","","0.4563055184","","","","","",""
"6","","bandit","302","719594","0.0-264.0-0.0","28236253","wem/bandit_single","A2DXEPC4QFV4R1","pain","6","","72","H","0","img/none_selected.jpg","0","1","0","","0.3794330306","false","227","","0.3794330306","main_expt","","0.3638477037","","0.2349833204","","0.4414344485","","","","","",""
"165","","bandit","303","721522","0.0-265.0-0.0","28236253","wem/bandit_single","A2DXEPC4QFV4R1","pain","6","","72","H","0","img/none_selected.jpg","0","1","0","","0.3480060926","false","228","","0.3480060926","main_expt","","0.321865515","","0.2376541641","","0.4509897562","","","","","",""
"7","","bandit","304","723292","0.0-266.0-0.0","28236253","wem/bandit_single","A2DXEPC4QFV4R1","pain","6","","72","H","0","img/none_selected.jpg","0","1","0","","0.3197951212","false","229","","0.3197951212","main_expt","","0.2574970425","","0.2141250471","","0.4355264455","","","","","",""
"74","","bandit","305","725130","0.0-267.0-0.0","28236253","wem/bandit_single","A2DXEPC4QFV4R1","pain","6","","72","H","0","img/none_selected.jpg","0","0","1","","0.2360623461","false","230","","0.2360623461","main_expt","","0.3167366343","","0.1986478114","","0.4393215817","","","","","",""
"516","","bandit","306","727409","0.0-268.0-0.0","28236253","wem/bandit_single","A2DXEPC4QFV4R1","pain","6","","72","H","0","img/none_selected.jpg","0","1","0","","0.228441671","false","231","","0.228441671","main_expt","","0.359889087","","0.1632677176","","0.426442838","","","","","",""
"283","","bandit","307","729458","0.0-269.0-0.0","28236253","wem/bandit_single","A2DXEPC4QFV4R1","pain","6","","72","H","0","img/none_selected.jpg","0","1","0","","0.2233622879","false","232","","0.2233622879","main_expt","","0.3765691143","","0.1437929512","","0.4455015341","","","","","",""
"99","","bandit","308","731321","0.0-270.0-0.0","28236253","wem/bandit_single","A2DXEPC4QFV4R1","pain","6","","72","H","0","img/none_selected.jpg","0","0","1","","0.1782647691","false","233","","0.1782647691","main_expt","","0.351320345","","0.2490618922","","0.4370113712","","","","","",""
"108","","bandit","309","733194","0.0-271.0-0.0","28236253","wem/bandit_single","A2DXEPC4QFV4R1","pain","6","","72","H","0","img/none_selected.jpg","0","0","1","","0.1971530904","false","234","","0.1971530904","main_expt","","0.2997083133","","0.2811602772","","0.4228056097","","","","","",""
"79","","bandit","310","735037","0.0-272.0-0.0","28236253","wem/bandit_single","A2DXEPC4QFV4R1","pain","6","","72","H","0","img/none_selected.jpg","0","1","0","","0.2109348075","false","235","","0.2109348075","main_expt","","0.3526624454","","0.332316849","","0.4176536857","","","","","",""
"183","","bandit","311","736986","0.0-273.0-0.0","28236253","wem/bandit_single","A2DXEPC4QFV4R1","pain","6","","72","H","0","img/none_selected.jpg","0","1","0","","0.1891579582","false","236","","0.1891579582","main_expt","","0.3050627859","","0.3059905229","","0.419442654","","","","","",""
"81","","bandit","312","738827","0.0-274.0-0.0","28236253","wem/bandit_single","A2DXEPC4QFV4R1","pain","6","","72","H","0","img/none_selected.jpg","0","0","1","","0.1278978542","false","237","","0.1278978542","main_expt","","0.312969263","","0.3058344165","","0.4082659589","","","","","",""
"219","","bandit","313","740810","0.0-275.0-0.0","28236253","wem/bandit_single","A2DXEPC4QFV4R1","pain","6","","72","H","0","img/none_selected.jpg","0","1","0","","0.1509653188","false","238","","0.1509653188","main_expt","","0.380225341","","0.2931512536","","0.4108407801","","","","","",""
"65","","bandit","314","742641","0.0-276.0-0.0","28236253","wem/bandit_single","A2DXEPC4QFV4R1","pain","6","","72","H","0","img/none_selected.jpg","0","0","1","","0.1919733462","false","239","","0.1919733462","main_expt","","0.3657076542","","0.2922133777","","0.4378360478","","","","","",""
"129","","bandit","315","744533","0.0-277.0-0.0","28236253","wem/bandit_single","A2DXEPC4QFV4R1","pain","6","","72","H","0","img/none_selected.jpg","0","0","1","","0.1751407906","false","240","","0.1751407906","main_expt","","0.3815359164","","0.3452033359","","0.4467030129","","","","","",""
"349","","bandit","316","746649","0.0-278.0-0.0","28236253","wem/bandit_single","A2DXEPC4QFV4R1","pain","6","","72","H","0","img/none_selected.jpg","0","0","1","","0.1759125222","false","241","","0.1759125222","main_expt","","0.3251101936","","0.3682897549","","0.4705393647","","","","","",""
"157","","bandit","317","748567","0.0-279.0-0.0","28236253","wem/bandit_single","A2DXEPC4QFV4R1","pain","6","","72","H","0","img/none_selected.jpg","0","1","0","","0.2137068054","false","242","","0.2137068054","main_expt","","0.3212185421","","0.3628947189","","0.4610792938","","","","","",""
"148","","bandit","318","750478","0.0-280.0-0.0","28236253","wem/bandit_single","A2DXEPC4QFV4R1","pain","6","","72","H","0","img/none_selected.jpg","0","1","0","","0.2179170348","false","243","","0.2179170348","main_expt","","0.3270030252","","0.3766569032","","0.4437729889","","","","","",""
"116","","bandit","319","752357","0.0-281.0-0.0","28236253","wem/bandit_single","A2DXEPC4QFV4R1","pain","6","","72","H","0","img/none_selected.jpg","0","0","1","","0.2426329099","false","244","","0.2426329099","main_expt","","0.309973419","","0.377991886","","0.4199869792","","","","","",""
"91","","bandit","320","754212","0.0-282.0-0.0","28236253","wem/bandit_single","A2DXEPC4QFV4R1","pain","6","","72","H","0","img/none_selected.jpg","0","0","1","","0.2351694379","false","245","","0.2351694379","main_expt","","0.3342881273","","0.304751896","","0.4183767379","","","","","",""
"207","","bandit","321","756185","0.0-283.0-0.0","28236253","wem/bandit_single","A2DXEPC4QFV4R1","pain","6","","72","H","0","img/none_selected.jpg","0","0","1","","0.2111663312","false","246","","0.2111663312","main_expt","","0.3149240913","","0.3348187262","","0.4292136751","","","","","",""
"343","","bandit","322","758291","0.0-284.0-0.0","28236253","wem/bandit_single","A2DXEPC4QFV4R1","pain","6","","72","H","0","img/none_selected.jpg","0","1","0","","0.1899020887","false","247","","0.1899020887","main_expt","","0.296458043","","0.3307987246","","0.4577956797","","","","","",""
"149","","bandit","323","760206","0.0-285.0-0.0","28236253","wem/bandit_single","A2DXEPC4QFV4R1","pain","6","","72","H","0","img/none_selected.jpg","0","1","0","","0.2151484255","false","248","","0.2151484255","main_expt","","0.3038576119","","0.3774544282","","0.4586239927","","","","","",""
"91","","bandit","324","762065","0.0-286.0-0.0","28236253","wem/bandit_single","A2DXEPC4QFV4R1","pain","6","","72","H","0","img/none_selected.jpg","0","0","1","","0.2454548658","false","249","","0.2454548658","main_expt","","0.3383832125","","0.3553688181","","0.4709187109","","","","","",""
"231","","bandit","325","764061","0.0-287.0-0.0","28236253","wem/bandit_single","A2DXEPC4QFV4R1","pain","6","","72","H","0","img/none_selected.jpg","0","0","1","","0.1973527755","false","250","","0.1973527755","main_expt","","0.3505221498","","0.3209961504","","0.4742496359","","","","","",""
"130","","bandit","326","765954","0.0-288.0-0.0","28236253","wem/bandit_single","A2DXEPC4QFV4R1","pain","6","","72","H","0","img/none_selected.jpg","0","1","0","","0.2459600056","false","251","","0.2459600056","main_expt","","0.3439557404","","0.2938420796","","0.4684276702","","","","","",""
"238","","bandit","327","767959","0.0-289.0-0.0","28236253","wem/bandit_single","A2DXEPC4QFV4R1","pain","6","","72","H","0","img/none_selected.jpg","0","1","0","","0.2361341643","false","252","","0.2361341643","main_expt","","0.3394881367","","0.2377141092","","0.465775704","","","","","",""
"31","","bandit","328","769753","0.0-290.0-0.0","28236253","wem/bandit_single","A2DXEPC4QFV4R1","pain","6","","72","H","0","img/none_selected.jpg","0","1","0","","0.2263014677","false","253","","0.2263014677","main_expt","","0.3195186677","","0.28098189","","0.4739398589","","","","","",""
"44","","bandit","329","771564","0.0-291.0-0.0","28236253","wem/bandit_single","A2DXEPC4QFV4R1","pain","6","","72","H","0","img/none_selected.jpg","0","1","0","","0.2384195691","false","254","","0.2384195691","main_expt","","0.3607388593","","0.36168886","","0.4709597483","","","","","",""
"44","","bandit","330","773374","0.0-292.0-0.0","28236253","wem/bandit_single","A2DXEPC4QFV4R1","pain","6","","72","H","0","img/none_selected.jpg","0","1","0","","0.2186709452","false","255","","0.2186709452","main_expt","","0.3801942793","","0.3196270919","","0.468651231","","","","","",""
"268","","bandit","331","775405","0.0-293.0-0.0","28236253","wem/bandit_single","A2DXEPC4QFV4R1","pain","6","","72","H","0","img/none_selected.jpg","0","0","1","","0.1625458568","false","256","","0.1625458568","main_expt","","0.2987962353","","0.3201998045","","0.4837462493","","","","","",""
"220","","bandit","332","777392","0.0-294.0-0.0","28236253","wem/bandit_single","A2DXEPC4QFV4R1","pain","6","","72","H","0","img/none_selected.jpg","0","0","1","","0.159361747","false","257","","0.159361747","main_expt","","0.272571782","","0.3576002339","","0.4842399178","","","","","",""
"499","","bandit","333","779653","0.0-295.0-0.0","28236253","wem/bandit_single","A2DXEPC4QFV4R1","pain","6","","72","H","0","img/none_selected.jpg","0","0","1","","0.1556255119","false","258","","0.1556255119","main_expt","","0.2593204486","","0.3715220428","","0.4878873921","","","","","",""
"43","","bandit","334","781464","0.0-296.0-0.0","28236253","wem/bandit_single","A2DXEPC4QFV4R1","pain","6","","72","H","0","img/none_selected.jpg","0","0","1","","0.1256368346","false","259","","0.1256368346","main_expt","","0.2951424317","","0.3730860303","","0.4869160663","","","","","",""
"13","","bandit","335","783241","0.0-297.0-0.0","28236253","wem/bandit_single","A2DXEPC4QFV4R1","pain","6","","75","K","2","","0","0","1","","0.3724964978","false","260","","0.1449854444","main_expt","","0.2369093976","","0.3724964978","","0.4912834456","","","","","",""
"152","","bandit","336","785157","0.0-298.0-0.0","28236253","wem/bandit_single","A2DXEPC4QFV4R1","pain","6","","75","K","2","","0","1","0","","0.3574286068","false","261","","0.1647157085","main_expt","","0.2234433316","","0.3574286068","","0.4907072989","","","","","",""
"41","","bandit","337","786962","0.0-299.0-0.0","28236253","wem/bandit_single","A2DXEPC4QFV4R1","pain","6","","75","K","2","","0","1","0","","0.4204463107","false","262","","0.1586541082","main_expt","","0.215626833","","0.4204463107","","0.4904114062","","","","","",""
"162","","bandit","338","788889","0.0-300.0-0.0","28236253","wem/bandit_single","A2DXEPC4QFV4R1","pain","6","","75","K","2","","0","1","0","","0.4244263348","false","263","","0.1683870388","main_expt","","0.2227197798","","0.4244263348","","0.4900075499","","","","","",""
"170","","bandit","339","790824","0.0-301.0-0.0","28236253","wem/bandit_single","A2DXEPC4QFV4R1","pain","6","","75","K","2","","0","1","0","","0.4217668892","false","264","","0.2205087037","main_expt","","0.2113558788","","0.4217668892","","0.4922230388","","","","","",""
"93","","bandit","340","792682","0.0-302.0-0.0","28236253","wem/bandit_single","A2DXEPC4QFV4R1","pain","6","","75","K","2","","0","0","1","","0.3908218086","false","265","","0.1554736059","main_expt","","0.1814287308","","0.3908218086","","0.4892111554","","","","","",""
"127","","bandit","341","794570","0.0-303.0-0.0","28236253","wem/bandit_single","A2DXEPC4QFV4R1","pain","6","","75","K","2","","0","0","1","","0.350583855","false","266","","0.1556775797","main_expt","","0.2579261203","","0.350583855","","0.4894097466","","","","","",""
"10","","bandit","342","796344","0.0-304.0-0.0","28236253","wem/bandit_single","A2DXEPC4QFV4R1","pain","6","","75","K","2","","0","1","0","","0.2971845499","false","267","","0.1732223335","main_expt","","0.3033521226","","0.2971845499","","0.4898547377","","","","","",""
"290","","bandit","343","798397","0.0-305.0-0.0","28236253","wem/bandit_single","A2DXEPC4QFV4R1","pain","6","","75","K","2","","0","0","1","","0.3271935382","false","268","","0.1670192172","main_expt","","0.2697057224","","0.3271935382","","0.4960714099","","","","","",""
"72","","bandit","344","800235","0.0-306.0-0.0","28236253","wem/bandit_single","A2DXEPC4QFV4R1","pain","6","","75","K","2","","0","0","1","","0.2912245063","false","269","","0.1666577124","main_expt","","0.3075876552","","0.2912245063","","0.4951393121","","","","","",""
"134","","bandit","345","802136","0.0-307.0-0.0","28236253","wem/bandit_single","A2DXEPC4QFV4R1","pain","6","","75","K","2","","0","1","0","","0.3007980493","false","270","","0.1133531577","main_expt","","0.3437361696","","0.3007980493","","0.4903783272","","","","","",""
"126","","bandit","346","804025","0.0-308.0-0.0","28236253","wem/bandit_single","A2DXEPC4QFV4R1","pain","6","","75","K","2","","0","0","1","","0.3025875308","false","271","","0.1453503833","main_expt","","0.2596534978","","0.3025875308","","0.4932948231","","","","","",""
"162","","bandit","347","805950","0.0-309.0-0.0","28236253","wem/bandit_single","A2DXEPC4QFV4R1","pain","6","","75","K","2","","0","0","1","","0.2608882705","false","272","","0.1542373291","main_expt","","0.2680739133","","0.2608882705","","0.4950636705","","","","","",""
"112","","bandit","348","807830","0.0-310.0-0.0","28236253","wem/bandit_single","A2DXEPC4QFV4R1","pain","6","","75","K","2","","0","1","0","","0.2985246063","false","273","","0.1312836042","main_expt","","0.2287209558","","0.2985246063","","0.4866982898","","","","","",""
"8","","bandit","349","809605","0.0-311.0-0.0","28236253","wem/bandit_single","A2DXEPC4QFV4R1","pain","6","","75","K","2","","0","0","1","","0.296104213","false","274","","0.1616535947","main_expt","","0.2659047846","","0.296104213","","0.4654226264","","","","","",""
"252","","bandit","350","811621","0.0-312.0-0.0","28236253","wem/bandit_single","A2DXEPC4QFV4R1","pain","6","","75","K","2","","0","0","1","","0.2897414639","false","275","","0.163822666","main_expt","","0.2303642271","","0.2897414639","","0.4633702838","","","","","",""
"112","","bandit","351","813497","0.0-313.0-0.0","28236253","wem/bandit_single","A2DXEPC4QFV4R1","pain","6","","75","K","2","","0","0","1","","0.296822441","false","276","","0.1500588852","main_expt","","0.2631654739","","0.296822441","","0.4741710053","","","","","",""
"407","","bandit","352","815667","0.0-314.0-0.0","28236253","wem/bandit_single","A2DXEPC4QFV4R1","pain","6","","75","K","2","","0","0","1","","0.2769528726","false","277","","0.1975700973","main_expt","","0.2660527836","","0.2769528726","","0.4821206929","","","","","",""
"1291","","bandit","353","818722","0.0-315.0-0.0","28236253","wem/bandit_single","A2DXEPC4QFV4R1","pain","6","","75","K","2","","0","1","0","","0.3356585436","false","278","","0.1355298524","main_expt","","0.2869547209","","0.3356585436","","0.4704549119","","","","","",""
"134","","bandit","354","820621","0.0-316.0-0.0","28236253","wem/bandit_single","A2DXEPC4QFV4R1","pain","6","","75","K","2","","0","0","1","","0.3222384225","false","279","","0.1437345226","main_expt","","0.3594721793","","0.3222384225","","0.4749598821","","","","","",""
"140","","bandit","355","822524","0.0-317.0-0.0","28236253","wem/bandit_single","A2DXEPC4QFV4R1","pain","6","","75","K","2","","0","0","1","","0.27346357","false","280","","0.126787642","main_expt","","0.3903699723","","0.27346357","","0.4385317488","","","","","",""
"27","","bandit","356","824315","0.0-318.0-0.0","28236253","wem/bandit_single","A2DXEPC4QFV4R1","pain","6","","75","K","2","","0","0","1","","0.3633072925","false","281","","0.1765789866","main_expt","","0.4583904318","","0.3633072925","","0.4397970497","","","","","",""
"40","","bandit","357","826118","0.0-319.0-0.0","28236253","wem/bandit_single","A2DXEPC4QFV4R1","pain","6","","76","L","3","","0","1","0","","0.4485424667","false","282","","0.1659157347","main_expt","","0.4689346609","","0.3269934488","","0.4485424667","","","","","",""
"235","","bandit","358","828117","0.0-320.0-0.0","28236253","wem/bandit_single","A2DXEPC4QFV4R1","pain","6","","76","L","3","","0","0","1","","0.4460930912","false","283","","0.1876778028","main_expt","","0.460541741","","0.324321327","","0.4460930912","","","","","",""
"374","","bandit","359","830254","0.0-321.0-0.0","28236253","wem/bandit_single","A2DXEPC4QFV4R1","pain","6","","76","L","3","","0","0","1","","0.46041158","false","284","","0.2072959333","main_expt","","0.4485703909","","0.2677217275","","0.46041158","","","","","",""
"409","","bandit","360","832425","0.0-322.0-0.0","28236253","wem/bandit_single","A2DXEPC4QFV4R1","pain","6","","76","L","3","","0","0","1","","0.4722631388","false","285","","0.2171876524","main_expt","","0.4493749552","","0.2832280908","","0.4722631388","","","","","",""
"40","","bandit","361","834229","0.0-323.0-0.0","28236253","wem/bandit_single","A2DXEPC4QFV4R1","pain","6","","76","L","3","","0","1","0","","0.4710864859","false","286","","0.224404947","main_expt","","0.4223312446","","0.3338799161","","0.4710864859","","","","","",""
"60","","bandit","362","836051","0.0-324.0-0.0","28236253","wem/bandit_single","A2DXEPC4QFV4R1","pain","6","","76","L","3","","0","1","0","","0.4400158941","false","287","","0.2249093708","main_expt","","0.457140216","","0.3484096991","","0.4400158941","","","","","",""
"260","","bandit","363","838075","0.0-325.0-0.0","28236253","wem/bandit_single","A2DXEPC4QFV4R1","pain","6","","76","L","3","","0","0","1","","0.4036546776","false","288","","0.2219747159","main_expt","","0.4411377771","","0.3215301514","","0.4036546776","","","","","",""
"289","","bandit","364","840128","0.0-326.0-0.0","28236253","wem/bandit_single","A2DXEPC4QFV4R1","pain","6","","76","L","3","","0","1","0","","0.4324218596","false","289","","0.2183007497","main_expt","","0.4501271696","","0.2965974011","","0.4324218596","","","","","",""
"263","","bandit","365","842155","0.0-327.0-0.0","28236253","wem/bandit_single","A2DXEPC4QFV4R1","pain","6","","76","L","3","","0","1","0","","0.4536473803","false","290","","0.2481136515","main_expt","","0.4436507911","","0.2926361454","","0.4536473803","","","","","",""
"238","","bandit","366","844157","0.0-328.0-0.0","28236253","wem/bandit_single","A2DXEPC4QFV4R1","pain","6","","76","L","3","","0","1","0","","0.4634661847","false","291","","0.2972088317","main_expt","","0.4381939672","","0.243163711","","0.4634661847","","","","","",""
"68","","bandit","367","845989","0.0-329.0-0.0","28236253","wem/bandit_single","A2DXEPC4QFV4R1","pain","6","","76","L","3","","0","0","1","","0.4609966616","false","292","","0.2998647236","main_expt","","0.4101305143","","0.2064952975","","0.4609966616","","","","","",""
"115","","bandit","368","847869","0.0-330.0-0.0","28236253","wem/bandit_single","A2DXEPC4QFV4R1","pain","6","","76","L","3","","0","0","1","","0.4648618971","false","293","","0.2861810992","main_expt","","0.4297915702","","0.2099334792","","0.4648618971","","","","","",""
"77","","bandit","369","849710","0.0-331.0-0.0","28236253","wem/bandit_single","A2DXEPC4QFV4R1","pain","6","","76","L","3","","0","0","1","","0.4582487824","false","294","","0.345484004","main_expt","","0.4537219743","","0.2507358833","","0.4582487824","","","","","",""
"341","","bandit","370","851814","0.0-332.0-0.0","28236253","wem/bandit_single","A2DXEPC4QFV4R1","pain","6","","76","L","3","","0","0","1","","0.4482247061","false","295","","0.3251772281","main_expt","","0.4694953972","","0.2494268831","","0.4482247061","","","","","",""
"159","","bandit","371","853740","0.0-333.0-0.0","28236253","wem/bandit_single","A2DXEPC4QFV4R1","pain","6","","76","L","3","","0","1","0","","0.42326912","false","296","","0.2953905587","main_expt","","0.4880383038","","0.2867080039","","0.42326912","","","","","",""
"75","","bandit","372","855580","0.0-334.0-0.0","28236253","wem/bandit_single","A2DXEPC4QFV4R1","pain","6","","76","L","3","","0","0","1","","0.4151021773","false","297","","0.2717848064","main_expt","","0.4916251568","","0.2983387387","","0.4151021773","","","","","",""
