"rt","responses","trial_type","trial_index","time_elapsed","internal_node_id","subjID","study","MID","cond","drift","key_press","respCharCode","respKey","respChoiceNum","respChoice","gems","bombs","no_reward","GemPrChosen","BombPrChosen","practice","trial_counter","WinPr_0","LosePr_0","trial_label","WinPr_1","LosePr_1","WinPr_2","LosePr_2","WinPr_3","LosePr_3","Q0","Q1","Q2","gender","age","ethnicity"
"19348","{""Q0"":""A3U74S280Z4B0""}","survey-text","0","19355","0.0-0.0","29252767","wem/bandit_single","A3U74S280Z4B0","pain","3","","","","","","","","","","","","","","","","","","","","","","","","","","",""
"2894","","text","1","23255","0.0-1.0","29252767","wem/bandit_single","A3U74S280Z4B0","pain","3","32","","","","","","","","","","","","","","","","","","","","","","","","","",""
"4613","","text","2","27874","0.0-2.0","29252767","wem/bandit_single","A3U74S280Z4B0","pain","3","32","","","","","","","","","","","","","","","","","","","","","","","","","",""
"22029","","text","3","49907","0.0-3.0","29252767","wem/bandit_single","A3U74S280Z4B0","pain","3","32","","","","","","","","","","","","","","","","","","","","","","","","","",""
"16826","","text","4","66740","0.0-4.0","29252767","wem/bandit_single","A3U74S280Z4B0","pain","3","32","","","","","","","","","","","","","","","","","","","","","","","","","",""
"19303","","text","5","86046","0.0-5.0","29252767","wem/bandit_single","A3U74S280Z4B0","pain","3","32","","","","","","","","","","","","","","","","","","","","","","","","","",""
"19987","","text","6","106040","0.0-6.0","29252767","wem/bandit_single","A3U74S280Z4B0","pain","3","32","","","","","","","","","","","","","","","","","","","","","","","","","",""
"5858","","text","7","111903","0.0-7.0","29252767","wem/bandit_single","A3U74S280Z4B0","pain","3","32","","","","","","","","","","","","","","","","","","","","","","","","","",""
"4092","","text","8","116001","0.0-8.0","29252767","wem/bandit_single","A3U74S280Z4B0","pain","3","32","","","","","","","","","","","","","","","","","","","","","","","","","",""
"5468","","text","9","121473","0.0-9.0","29252767","wem/bandit_single","A3U74S280Z4B0","pain","3","32","","","","","","","","","","","","","","","","","","","","","","","","","",""
"6408","","text","10","127886","0.0-10.0","29252767","wem/bandit_single","A3U74S280Z4B0","pain","3","32","","","","","","","","","","","","","","","","","","","","","","","","","",""
"11531","","text","11","139423","0.0-11.0","29252767","wem/bandit_single","A3U74S280Z4B0","pain","3","32","","","","","","","","","","","","","","","","","","","","","","","","","",""
"2942","","bandit","12","143891","0.0-12.0-0.0","29252767","wem/bandit_single","A3U74S280Z4B0","pain","3","","74","J","0","img/none_selected_demo.jpg","0","0","1","0","0","true","0","0","0","","","","","","","","","","","","",""
"2602","","bandit","13","148256","0.0-13.0-0.0","29252767","wem/bandit_single","A3U74S280Z4B0","pain","3","","75","K","0","img/none_selected_demo.jpg","0","0","1","0","0","true","0","0","0","","","","","","","","","","","","",""
"3038","","text","14","151548","0.0-14.0","29252767","wem/bandit_single","A3U74S280Z4B0","pain","3","32","","","","","","","","","","","","","","","","","","","","","","","","","",""
"1919","","text","15","153470","0.0-15.0","29252767","wem/bandit_single","A3U74S280Z4B0","pain","3","32","","","","","","","","","","","","","","","","","","","","","","","","","",""
"2683","","text","16","156158","0.0-16.0","29252767","wem/bandit_single","A3U74S280Z4B0","pain","3","32","","","","","","","","","","","","","","","","","","","","","","","","","",""
"2573","","text","17","158736","0.0-17.0","29252767","wem/bandit_single","A3U74S280Z4B0","pain","3","32","","","","","","","","","","","","","","","","","","","","","","","","","",""
"2693","","bandit","18","162941","0.0-18.0-0.0","29252767","wem/bandit_single","A3U74S280Z4B0","pain","3","","74","J","0","img/none_selected_demo.jpg","0","1","0","0","0.8","true","0","0","0.8","80_20_practice","0","0.2","","","","","","","","","",""
"509","","bandit","19","165214","0.0-18.0-1.0","29252767","wem/bandit_single","A3U74S280Z4B0","pain","3","","75","K","1","","0","0","1","0","0.2","true","0","0","0.8","80_20_practice","0","0.2","","","","","","","","","",""
"360","","bandit","20","167342","0.0-18.0-2.0","29252767","wem/bandit_single","A3U74S280Z4B0","pain","3","","74","J","0","img/none_selected_demo.jpg","0","1","0","0","0.8","true","0","0","0.8","80_20_practice","0","0.2","","","","","","","","","",""
"160","","bandit","21","169256","0.0-18.0-3.0","29252767","wem/bandit_single","A3U74S280Z4B0","pain","3","","75","K","1","","0","1","0","0","0.2","true","0","0","0.8","80_20_practice","0","0.2","","","","","","","","","",""
"118","","bandit","22","171128","0.0-18.0-4.0","29252767","wem/bandit_single","A3U74S280Z4B0","pain","3","","74","J","0","img/none_selected_demo.jpg","0","1","0","0","0.8","true","0","0","0.8","80_20_practice","0","0.2","","","","","","","","","",""
"49","","bandit","23","172938","0.0-18.0-5.0","29252767","wem/bandit_single","A3U74S280Z4B0","pain","3","","75","K","1","","0","0","1","0","0.2","true","0","0","0.8","80_20_practice","0","0.2","","","","","","","","","",""
"80","","bandit","24","174781","0.0-18.0-6.0","29252767","wem/bandit_single","A3U74S280Z4B0","pain","3","","74","J","0","img/none_selected_demo.jpg","0","1","0","0","0.8","true","0","0","0.8","80_20_practice","0","0.2","","","","","","","","","",""
"220","","bandit","25","176769","0.0-18.0-7.0","29252767","wem/bandit_single","A3U74S280Z4B0","pain","3","","74","J","0","img/none_selected_demo.jpg","0","0","1","0","0.8","true","0","0","0.8","80_20_practice","0","0.2","","","","","","","","","",""
"23","","bandit","26","178553","0.0-18.0-8.0","29252767","wem/bandit_single","A3U74S280Z4B0","pain","3","","74","J","0","img/none_selected_demo.jpg","0","1","0","0","0.8","true","0","0","0.8","80_20_practice","0","0.2","","","","","","","","","",""
"51","","bandit","27","180364","0.0-18.0-9.0","29252767","wem/bandit_single","A3U74S280Z4B0","pain","3","","75","K","1","","0","0","1","0","0.2","true","0","0","0.8","80_20_practice","0","0.2","","","","","","","","","",""
"46","","bandit","28","182174","0.0-18.0-10.0","29252767","wem/bandit_single","A3U74S280Z4B0","pain","3","","75","K","1","","0","0","1","0","0.2","true","0","0","0.8","80_20_practice","0","0.2","","","","","","","","","",""
"57","","bandit","29","183994","0.0-18.0-11.0","29252767","wem/bandit_single","A3U74S280Z4B0","pain","3","","74","J","0","img/none_selected_demo.jpg","0","1","0","0","0.8","true","0","0","0.8","80_20_practice","0","0.2","","","","","","","","","",""
"209","","bandit","30","185959","0.0-18.0-12.0","29252767","wem/bandit_single","A3U74S280Z4B0","pain","3","","74","J","0","img/none_selected_demo.jpg","0","1","0","0","0.8","true","0","0","0.8","80_20_practice","0","0.2","","","","","","","","","",""
"1813","","bandit","31","189532","0.0-18.0-13.0","29252767","wem/bandit_single","A3U74S280Z4B0","pain","3","","74","J","0","img/none_selected_demo.jpg","0","1","0","0","0.8","true","0","0","0.8","80_20_practice","0","0.2","","","","","","","","","",""
"10","","bandit","32","191307","0.0-18.0-14.0","29252767","wem/bandit_single","A3U74S280Z4B0","pain","3","","74","J","0","img/none_selected_demo.jpg","0","1","0","0","0.8","true","0","0","0.8","80_20_practice","0","0.2","","","","","","","","","",""
"261","","bandit","33","193333","0.0-18.0-15.0","29252767","wem/bandit_single","A3U74S280Z4B0","pain","3","","74","J","0","img/none_selected_demo.jpg","0","1","0","0","0.8","true","0","0","0.8","80_20_practice","0","0.2","","","","","","","","","",""
"15","","bandit","34","195115","0.0-18.0-16.0","29252767","wem/bandit_single","A3U74S280Z4B0","pain","3","","74","J","0","img/none_selected_demo.jpg","0","0","1","0","0.8","true","0","0","0.8","80_20_practice","0","0.2","","","","","","","","","",""
"45","","bandit","35","196924","0.0-18.0-17.0","29252767","wem/bandit_single","A3U74S280Z4B0","pain","3","","74","J","0","img/none_selected_demo.jpg","0","1","0","0","0.8","true","0","0","0.8","80_20_practice","0","0.2","","","","","","","","","",""
"123","","bandit","36","198811","0.0-18.0-18.0","29252767","wem/bandit_single","A3U74S280Z4B0","pain","3","","74","J","0","img/none_selected_demo.jpg","0","0","1","0","0.8","true","0","0","0.8","80_20_practice","0","0.2","","","","","","","","","",""
"111","","bandit","37","200683","0.0-18.0-19.0","29252767","wem/bandit_single","A3U74S280Z4B0","pain","3","","74","J","0","img/none_selected_demo.jpg","0","1","0","0","0.8","true","0","0","0.8","80_20_practice","0","0.2","","","","","","","","","",""
"5598","","text","38","206540","0.0-19.0","29252767","wem/bandit_single","A3U74S280Z4B0","pain","3","32","","","","","","","","","","","","","","","","","","","","","","","","","",""
"4167","","bandit","39","212220","0.0-20.0-0.0","29252767","wem/bandit_single","A3U74S280Z4B0","pain","3","","74","J","0","img/none_selected_demo.jpg","0","0","1","0","0","true","0","0","0","","0","0","","","","","","","","","",""
"3920","","text","40","216402","0.0-21.0","29252767","wem/bandit_single","A3U74S280Z4B0","pain","3","32","","","","","","","","","","","","","","","","","","","","","","","","","",""
"3810","","text","41","220221","0.0-22.0","29252767","wem/bandit_single","A3U74S280Z4B0","pain","3","32","","","","","","","","","","","","","","","","","","","","","","","","","",""
"2999","","text","42","223228","0.0-23.0","29252767","wem/bandit_single","A3U74S280Z4B0","pain","3","32","","","","","","","","","","","","","","","","","","","","","","","","","",""
"3063","","text","43","226299","0.0-24.0","29252767","wem/bandit_single","A3U74S280Z4B0","pain","3","32","","","","","","","","","","","","","","","","","","","","","","","","","",""
"10280","","text","44","236586","0.0-25.0","29252767","wem/bandit_single","A3U74S280Z4B0","pain","3","32","","","","","","","","","","","","","","","","","","","","","","","","","",""
"6684","","text","45","243275","0.0-26.0","29252767","wem/bandit_single","A3U74S280Z4B0","pain","3","32","","","","","","","","","","","","","","","","","","","","","","","","","",""
"4345","","text","46","247628","0.0-27.0","29252767","wem/bandit_single","A3U74S280Z4B0","pain","3","32","","","","","","","","","","","","","","","","","","","","","","","","","",""
"3368","","text","47","251003","0.0-28.0","29252767","wem/bandit_single","A3U74S280Z4B0","pain","3","32","","","","","","","","","","","","","","","","","","","","","","","","","",""
"3255","","text","48","254265","0.0-29.0","29252767","wem/bandit_single","A3U74S280Z4B0","pain","3","32","","","","","","","","","","","","","","","","","","","","","","","","","",""
"2398","","text","49","256667","0.0-30.0","29252767","wem/bandit_single","A3U74S280Z4B0","pain","3","32","","","","","","","","","","","","","","","","","","","","","","","","","",""
"2058","","text","50","258732","0.0-31.0","29252767","wem/bandit_single","A3U74S280Z4B0","pain","3","32","","","","","","","","","","","","","","","","","","","","","","","","","",""
"2225","","bandit","51","262474","0.0-32.0-0.0","29252767","wem/bandit_single","A3U74S280Z4B0","pain","3","","72","H","0","img/none_selected.jpg","0","0","1","0","0.8","true","0","0","0.8","full_practice","0","0.2","0","0.6","0","0.2","","","","","",""
"89","","bandit","52","264328","0.0-32.0-1.0","29252767","wem/bandit_single","A3U74S280Z4B0","pain","3","","75","K","2","","0","1","0","0","0.6","true","0","0","0.8","full_practice","0","0.2","0","0.6","0","0.2","","","","","",""
"335","","bandit","53","266423","0.0-32.0-2.0","29252767","wem/bandit_single","A3U74S280Z4B0","pain","3","","74","J","1","","0","1","0","0","0.2","true","0","0","0.8","full_practice","0","0.2","0","0.6","0","0.2","","","","","",""
"544","","bandit","54","268729","0.0-32.0-3.0","29252767","wem/bandit_single","A3U74S280Z4B0","pain","3","","76","L","3","","0","0","1","0","0.2","true","0","0","0.8","full_practice","0","0.2","0","0.6","0","0.2","","","","","",""
"1243","","bandit","55","271734","0.0-32.0-4.0","29252767","wem/bandit_single","A3U74S280Z4B0","pain","3","","72","H","0","img/none_selected.jpg","0","0","1","0","0.8","true","0","0","0.8","full_practice","0","0.2","0","0.6","0","0.2","","","","","",""
"20","","bandit","56","273513","0.0-32.0-5.0","29252767","wem/bandit_single","A3U74S280Z4B0","pain","3","","74","J","1","","0","1","0","0","0.2","true","0","0","0.8","full_practice","0","0.2","0","0.6","0","0.2","","","","","",""
"89","","bandit","57","275369","0.0-32.0-6.0","29252767","wem/bandit_single","A3U74S280Z4B0","pain","3","","75","K","2","","0","1","0","0","0.6","true","0","0","0.8","full_practice","0","0.2","0","0.6","0","0.2","","","","","",""
"14","","bandit","58","277150","0.0-32.0-7.0","29252767","wem/bandit_single","A3U74S280Z4B0","pain","3","","76","L","3","","0","1","0","0","0.2","true","0","0","0.8","full_practice","0","0.2","0","0.6","0","0.2","","","","","",""
"804","","bandit","59","279721","0.0-32.0-8.0","29252767","wem/bandit_single","A3U74S280Z4B0","pain","3","","72","H","0","img/none_selected.jpg","0","1","0","0","0.8","true","0","0","0.8","full_practice","0","0.2","0","0.6","0","0.2","","","","","",""
"55","","bandit","60","281544","0.0-32.0-9.0","29252767","wem/bandit_single","A3U74S280Z4B0","pain","3","","74","J","1","","0","0","1","0","0.2","true","0","0","0.8","full_practice","0","0.2","0","0.6","0","0.2","","","","","",""
"40","","bandit","61","283357","0.0-32.0-10.0","29252767","wem/bandit_single","A3U74S280Z4B0","pain","3","","75","K","2","","0","0","1","0","0.6","true","0","0","0.8","full_practice","0","0.2","0","0.6","0","0.2","","","","","",""
"69","","bandit","62","285193","0.0-32.0-11.0","29252767","wem/bandit_single","A3U74S280Z4B0","pain","3","","76","L","3","","0","0","1","0","0.2","true","0","0","0.8","full_practice","0","0.2","0","0.6","0","0.2","","","","","",""
"88","","bandit","63","287046","0.0-32.0-12.0","29252767","wem/bandit_single","A3U74S280Z4B0","pain","3","","72","H","0","img/none_selected.jpg","0","0","1","0","0.8","true","0","0","0.8","full_practice","0","0.2","0","0.6","0","0.2","","","","","",""
"35","","bandit","64","288840","0.0-32.0-13.0","29252767","wem/bandit_single","A3U74S280Z4B0","pain","3","","74","J","1","","0","0","1","0","0.2","true","0","0","0.8","full_practice","0","0.2","0","0.6","0","0.2","","","","","",""
"98","","bandit","65","290698","0.0-32.0-14.0","29252767","wem/bandit_single","A3U74S280Z4B0","pain","3","","75","K","2","","0","1","0","0","0.6","true","0","0","0.8","full_practice","0","0.2","0","0.6","0","0.2","","","","","",""
"53","","bandit","66","292521","0.0-32.0-15.0","29252767","wem/bandit_single","A3U74S280Z4B0","pain","3","","76","L","3","","0","1","0","0","0.2","true","0","0","0.8","full_practice","0","0.2","0","0.6","0","0.2","","","","","",""
"438","","bandit","67","294728","0.0-32.0-16.0","29252767","wem/bandit_single","A3U74S280Z4B0","pain","3","","75","K","2","","0","0","1","0","0.6","true","0","0","0.8","full_practice","0","0.2","0","0.6","0","0.2","","","","","",""
"40","","bandit","68","296538","0.0-32.0-17.0","29252767","wem/bandit_single","A3U74S280Z4B0","pain","3","","74","J","1","","0","0","1","0","0.2","true","0","0","0.8","full_practice","0","0.2","0","0.6","0","0.2","","","","","",""
"55","","bandit","69","298360","0.0-32.0-18.0","29252767","wem/bandit_single","A3U74S280Z4B0","pain","3","","72","H","0","img/none_selected.jpg","0","1","0","0","0.8","true","0","0","0.8","full_practice","0","0.2","0","0.6","0","0.2","","","","","",""
"200","","bandit","70","300327","0.0-32.0-19.0","29252767","wem/bandit_single","A3U74S280Z4B0","pain","3","","72","H","0","img/none_selected.jpg","0","1","0","0","0.8","true","0","0","0.8","full_practice","0","0.2","0","0.6","0","0.2","","","","","",""
"3594","","text","71","304199","0.0-33.0","29252767","wem/bandit_single","A3U74S280Z4B0","pain","3","32","","","","","","","","","","","","","","","","","","","","","","","","","",""
"8470","","text","72","313674","0.0-34.0","29252767","wem/bandit_single","A3U74S280Z4B0","pain","3","32","","","","","","","","","","","","","","","","","","","","","","","","","",""
"6277","","text","73","319963","0.0-35.0","29252767","wem/bandit_single","A3U74S280Z4B0","pain","3","32","","","","","","","","","","","","","","","","","","","","","","","","","",""
"8323","","text","74","328297","0.0-36.0","29252767","wem/bandit_single","A3U74S280Z4B0","pain","3","32","","","","","","","","","","","","","","","","","","","","","","","","","",""
"6180","","text","75","334487","0.0-37.0","29252767","wem/bandit_single","A3U74S280Z4B0","pain","3","32","","","","","","","","","","","","","","","","","","","","","","","","","",""
"2443","","bandit","76","338438","0.0-38.0-0.0","29252767","wem/bandit_single","A3U74S280Z4B0","pain","3","","72","H","0","img/none_selected.jpg","0","0","1","","0.2211287853","false","1","","0.2211287853","main_expt","","0.3417032333","","0.2015711498","","0.06813583588","","","","","",""
"78","","bandit","77","340278","0.0-39.0-0.0","29252767","wem/bandit_single","A3U74S280Z4B0","pain","3","","72","H","0","img/none_selected.jpg","0","0","1","","0.2921894834","false","2","","0.2921894834","main_expt","","0.3935143322","","0.1868286341","","0.08840771113","","","","","",""
"51","","bandit","78","342105","0.0-40.0-0.0","29252767","wem/bandit_single","A3U74S280Z4B0","pain","3","","72","H","0","img/none_selected.jpg","0","1","0","","0.2712314767","false","3","","0.2712314767","main_expt","","0.3247841161","","0.2285659085","","0.14311428","","","","","",""
"21","","bandit","79","343895","0.0-41.0-0.0","29252767","wem/bandit_single","A3U74S280Z4B0","pain","3","","72","H","0","img/none_selected.jpg","0","0","1","","0.3501044345","false","4","","0.3501044345","main_expt","","0.3524809632","","0.2587006496","","0.1389033164","","","","","",""
"55","","bandit","80","345720","0.0-42.0-0.0","29252767","wem/bandit_single","A3U74S280Z4B0","pain","3","","72","H","0","img/none_selected.jpg","0","1","0","","0.3826883046","false","5","","0.3826883046","main_expt","","0.3243282494","","0.2238216231","","0.1064755534","","","","","",""
"37","","bandit","81","347527","0.0-43.0-0.0","29252767","wem/bandit_single","A3U74S280Z4B0","pain","3","","74","J","1","","0","1","0","","0.3856520047","false","6","","0.3538977559","main_expt","","0.3856520047","","0.2114086621","","0.07607549968","","","","","",""
"8","","bandit","82","349302","0.0-44.0-0.0","29252767","wem/bandit_single","A3U74S280Z4B0","pain","3","","74","J","1","","0","0","1","","0.3595299576","false","7","","0.3911179113","main_expt","","0.3595299576","","0.225256176","","0.0490522351","","","","","",""
"808","","bandit","83","351879","0.0-45.0-0.0","29252767","wem/bandit_single","A3U74S280Z4B0","pain","3","","74","J","1","","0","0","1","","0.2908809246","false","8","","0.3378010318","main_expt","","0.2908809246","","0.1920600422","","0.04564729275","","","","","",""
"53","","bandit","84","353705","0.0-46.0-0.0","29252767","wem/bandit_single","A3U74S280Z4B0","pain","3","","74","J","1","","0","0","1","","0.3401169694","false","9","","0.3584091786","main_expt","","0.3401169694","","0.222474992","","0.05361883364","","","","","",""
"84","","bandit","85","355560","0.0-47.0-0.0","29252767","wem/bandit_single","A3U74S280Z4B0","pain","3","","74","J","1","","0","0","1","","0.370347707","false","10","","0.3822252457","main_expt","","0.370347707","","0.1720297318","","0.05689605437","","","","","",""
"64","","bandit","86","357397","0.0-48.0-0.0","29252767","wem/bandit_single","A3U74S280Z4B0","pain","3","","75","K","2","","0","0","1","","0.1672236423","false","11","","0.4003480189","main_expt","","0.3385652673","","0.1672236423","","0.05596529361","","","","","",""
"25","","bandit","87","359190","0.0-49.0-0.0","29252767","wem/bandit_single","A3U74S280Z4B0","pain","3","","75","K","2","","0","0","1","","0.1908353862","false","12","","0.4035898181","main_expt","","0.3433253296","","0.1908353862","","0.07455145674","","","","","",""
"25","","bandit","88","360981","0.0-50.0-0.0","29252767","wem/bandit_single","A3U74S280Z4B0","pain","3","","75","K","2","","0","0","1","","0.1373256951","false","13","","0.3939267589","main_expt","","0.3306460316","","0.1373256951","","0.1061797552","","","","","",""
"75","","bandit","89","362822","0.0-51.0-0.0","29252767","wem/bandit_single","A3U74S280Z4B0","pain","3","","75","K","2","","0","0","1","","0.1605467602","false","14","","0.4058751809","main_expt","","0.3423394156","","0.1605467602","","0.09003395111","","","","","",""
"2086","","bandit","90","366679","0.0-52.0-0.0","29252767","wem/bandit_single","A3U74S280Z4B0","pain","3","","76","L","3","","0","0","1","","0.09190110762","false","15","","0.3784768297","main_expt","","0.3514631564","","0.1270826231","","0.09190110762","","","","","",""
"904","","bandit","91","369353","0.0-53.0-0.0","29252767","wem/bandit_single","A3U74S280Z4B0","pain","3","","76","L","3","","0","0","1","","0.1119147711","false","16","","0.3742197382","main_expt","","0.3763865137","","0.1659789958","","0.1119147711","","","","","",""
"51","","bandit","92","371177","0.0-54.0-0.0","29252767","wem/bandit_single","A3U74S280Z4B0","pain","3","","76","L","3","","0","1","0","","0.1268228496","false","17","","0.3738750299","main_expt","","0.3613216018","","0.1810296119","","0.1268228496","","","","","",""
"69","","bandit","93","373010","0.0-55.0-0.0","29252767","wem/bandit_single","A3U74S280Z4B0","pain","3","","76","L","3","","0","0","1","","0.160542793","false","18","","0.30878177","main_expt","","0.3354311471","","0.2209588372","","0.160542793","","","","","",""
"52","","bandit","94","374819","0.0-56.0-0.0","29252767","wem/bandit_single","A3U74S280Z4B0","pain","3","","76","L","3","","0","0","1","","0.1913020378","false","19","","0.3257740717","main_expt","","0.3151580681","","0.1577150754","","0.1913020378","","","","","",""
"49","","bandit","95","376631","0.0-57.0-0.0","29252767","wem/bandit_single","A3U74S280Z4B0","pain","3","","72","H","0","img/none_selected.jpg","0","0","1","","0.2780557495","false","20","","0.2780557495","main_expt","","0.2633525784","","0.2368366468","","0.2201213849","","","","","",""
"29","","bandit","96","378438","0.0-58.0-0.0","29252767","wem/bandit_single","A3U74S280Z4B0","pain","3","","72","H","0","img/none_selected.jpg","0","0","1","","0.2552615423","false","21","","0.2552615423","main_expt","","0.2730255539","","0.1692925459","","0.1747441944","","","","","",""
"55","","bandit","97","380265","0.0-59.0-0.0","29252767","wem/bandit_single","A3U74S280Z4B0","pain","3","","72","H","0","img/none_selected.jpg","0","1","0","","0.2862558775","false","22","","0.2862558775","main_expt","","0.2366183143","","0.144462955","","0.1407764438","","","","","",""
"208","","bandit","98","382245","0.0-60.0-0.0","29252767","wem/bandit_single","A3U74S280Z4B0","pain","3","","72","H","0","img/none_selected.jpg","0","0","1","","0.290674517","false","23","","0.290674517","main_expt","","0.2193011186","","0.1928882479","","0.1444197889","","","","","",""
"92","","bandit","99","384101","0.0-61.0-0.0","29252767","wem/bandit_single","A3U74S280Z4B0","pain","3","","72","H","0","img/none_selected.jpg","0","0","1","","0.2669553567","false","24","","0.2669553567","main_expt","","0.2058852999","","0.2077361259","","0.1898422889","","","","","",""
"36","","bandit","100","385916","0.0-62.0-0.0","29252767","wem/bandit_single","A3U74S280Z4B0","pain","3","","74","J","1","","0","1","0","","0.2377147794","false","25","","0.2134469473","main_expt","","0.2377147794","","0.2580980749","","0.2319991336","","","","","",""
"53","","bandit","101","387736","0.0-63.0-0.0","29252767","wem/bandit_single","A3U74S280Z4B0","pain","3","","74","J","1","","0","0","1","","0.3017638279","false","26","","0.2027981442","main_expt","","0.3017638279","","0.2593960467","","0.2140617454","","","","","",""
"52","","bandit","102","389557","0.0-64.0-0.0","29252767","wem/bandit_single","A3U74S280Z4B0","pain","3","","74","J","1","","0","0","1","","0.2647551657","false","27","","0.1669761534","main_expt","","0.2647551657","","0.2913294918","","0.2186733942","","","","","",""
"57","","bandit","103","391379","0.0-65.0-0.0","29252767","wem/bandit_single","A3U74S280Z4B0","pain","3","","75","K","2","","0","0","1","","0.2838721205","false","28","","0.1301617017","main_expt","","0.2864353885","","0.2838721205","","0.2573772923","","","","","",""
"19","","bandit","104","393157","0.0-66.0-0.0","29252767","wem/bandit_single","A3U74S280Z4B0","pain","3","","75","K","2","","0","0","1","","0.2225595658","false","29","","0.1540227795","main_expt","","0.2669447337","","0.2225595658","","0.2563684882","","","","","",""
"50","","bandit","105","394981","0.0-67.0-0.0","29252767","wem/bandit_single","A3U74S280Z4B0","pain","3","","72","H","0","img/none_selected.jpg","0","1","0","","0.1290956128","false","30","","0.1290956128","main_expt","","0.242519946","","0.2450998207","","0.3180657859","","","","","",""
"100","","bandit","106","396853","0.0-68.0-0.0","29252767","wem/bandit_single","A3U74S280Z4B0","pain","3","","72","H","0","img/none_selected.jpg","0","0","1","","0.157476084","false","31","","0.157476084","main_expt","","0.1808952067","","0.2358374841","","0.3391977199","","","","","",""
"1150","","bandit","107","399764","0.0-69.0-0.0","29252767","wem/bandit_single","A3U74S280Z4B0","pain","3","","72","H","0","img/none_selected.jpg","0","0","1","","0.1667461438","false","32","","0.1667461438","main_expt","","0.1490402933","","0.2465538883","","0.3655242212","","","","","",""
"208","","bandit","108","401754","0.0-70.0-0.0","29252767","wem/bandit_single","A3U74S280Z4B0","pain","3","","72","H","0","img/none_selected.jpg","0","0","1","","0.1698659255","false","33","","0.1698659255","main_expt","","0.1607825008","","0.2479029149","","0.3476833293","","","","","",""
"68","","bandit","109","403590","0.0-71.0-0.0","29252767","wem/bandit_single","A3U74S280Z4B0","pain","3","","72","H","0","img/none_selected.jpg","0","0","1","","0.1830702822","false","34","","0.1830702822","main_expt","","0.2019438485","","0.1813792252","","0.3287357547","","","","","",""
"915","","bandit","110","406275","0.0-72.0-0.0","29252767","wem/bandit_single","A3U74S280Z4B0","pain","3","","76","L","3","","0","0","1","","0.3568635533","false","35","","0.1648441896","main_expt","","0.1187506792","","0.1507873856","","0.3568635533","","","","","",""
"34","","bandit","111","408067","0.0-73.0-0.0","29252767","wem/bandit_single","A3U74S280Z4B0","pain","3","","76","L","3","","0","1","0","","0.2559818432","false","36","","0.1702375356","main_expt","","0.107122158","","0.185146395","","0.2559818432","","","","","",""
"40","","bandit","112","409877","0.0-74.0-0.0","29252767","wem/bandit_single","A3U74S280Z4B0","pain","3","","76","L","3","","0","0","1","","0.2095103509","false","37","","0.1248493821","main_expt","","0.1462043769","","0.1995500277","","0.2095103509","","","","","",""
"198","","bandit","113","411847","0.0-75.0-0.0","29252767","wem/bandit_single","A3U74S280Z4B0","pain","3","","76","L","3","","0","0","1","","0.1824107212","false","38","","0.1806095344","main_expt","","0.1562864446","","0.2324476024","","0.1824107212","","","","","",""
"15","","bandit","114","413639","0.0-76.0-0.0","29252767","wem/bandit_single","A3U74S280Z4B0","pain","3","","75","K","2","","0","0","1","","0.2374336796","false","39","","0.1636381498","main_expt","","0.1425148763","","0.2374336796","","0.180532013","","","","","",""
"224","","bandit","115","415637","0.0-77.0-0.0","29252767","wem/bandit_single","A3U74S280Z4B0","pain","3","","75","K","2","","0","0","1","","0.1871034738","false","40","","0.128328165","main_expt","","0.1332413707","","0.1871034738","","0.209403608","","","","","",""
"3","","bandit","116","417416","0.0-78.0-0.0","29252767","wem/bandit_single","A3U74S280Z4B0","pain","3","","74","J","1","","0","0","1","","0.170838957","false","41","","0.1128848486","main_expt","","0.170838957","","0.1923798107","","0.1790729352","","","","","",""
"23","","bandit","117","419206","0.0-79.0-0.0","29252767","wem/bandit_single","A3U74S280Z4B0","pain","3","","72","H","0","img/none_selected.jpg","0","0","1","","0.1024028154","false","42","","0.1024028154","main_expt","","0.221577246","","0.2175202152","","0.1586268334","","","","","",""
"46","","bandit","118","421032","0.0-80.0-0.0","29252767","wem/bandit_single","A3U74S280Z4B0","pain","3","","72","H","0","img/none_selected.jpg","0","0","1","","0.1842117743","false","43","","0.1842117743","main_expt","","0.2937465132","","0.199004634","","0.1953085145","","","","","",""
"718","","bandit","119","423523","0.0-81.0-0.0","29252767","wem/bandit_single","A3U74S280Z4B0","pain","3","","72","H","0","img/none_selected.jpg","0","0","1","","0.2398699605","false","44","","0.2398699605","main_expt","","0.2473378206","","0.1979694218","","0.229373846","","","","","",""
"49","","bandit","120","425329","0.0-82.0-0.0","29252767","wem/bandit_single","A3U74S280Z4B0","pain","3","","74","J","1","","0","1","0","","0.2911711657","false","45","","0.2666943954","main_expt","","0.2911711657","","0.1992427108","","0.2387173179","","","","","",""
"596","","bandit","121","427685","0.0-83.0-0.0","29252767","wem/bandit_single","A3U74S280Z4B0","pain","3","","74","J","1","","0","0","1","","0.2520057509","false","46","","0.3187479261","main_expt","","0.2520057509","","0.2240306516","","0.2142046797","","","","","",""
"24","","bandit","122","429494","0.0-84.0-0.0","29252767","wem/bandit_single","A3U74S280Z4B0","pain","3","","75","K","2","","0","0","1","","0.2065012218","false","47","","0.3190608455","main_expt","","0.2527148282","","0.2065012218","","0.2454335886","","","","","",""
"497","","bandit","123","431765","0.0-85.0-0.0","29252767","wem/bandit_single","A3U74S280Z4B0","pain","3","","76","L","3","","0","0","1","","0.2810950816","false","48","","0.3135096665","main_expt","","0.273334487","","0.1926440163","","0.2810950816","","","","","",""
"246","","bandit","124","433783","0.0-86.0-0.0","29252767","wem/bandit_single","A3U74S280Z4B0","pain","3","","76","L","3","","0","0","1","","0.2547597437","false","49","","0.3341811191","main_expt","","0.3181736471","","0.1670810943","","0.2547597437","","","","","",""
"172","","bandit","125","435733","0.0-87.0-0.0","29252767","wem/bandit_single","A3U74S280Z4B0","pain","3","","72","H","0","img/none_selected.jpg","0","1","0","","0.3459923598","false","50","","0.3459923598","main_expt","","0.3806153608","","0.1198069869","","0.224323175","","","","","",""
"353","","bandit","126","437860","0.0-88.0-0.0","29252767","wem/bandit_single","A3U74S280Z4B0","pain","3","","72","H","0","img/none_selected.jpg","0","0","1","","0.3331953563","false","51","","0.3331953563","main_expt","","0.3949296296","","0.103394302","","0.2755477452","","","","","",""
"142","","bandit","127","439778","0.0-89.0-0.0","29252767","wem/bandit_single","A3U74S280Z4B0","pain","3","","74","J","1","","0","1","0","","0.3544293331","false","52","","0.3915962888","main_expt","","0.3544293331","","0.1018912343","","0.3022170302","","","","","",""
"257","","bandit","128","441795","0.0-90.0-0.0","29252767","wem/bandit_single","A3U74S280Z4B0","pain","3","","74","J","1","","0","0","1","","0.3007967805","false","53","","0.3984086051","main_expt","","0.3007967805","","0.07233269407","","0.2886203433","","","","","",""
"185","","bandit","129","443747","0.0-91.0-0.0","29252767","wem/bandit_single","A3U74S280Z4B0","pain","3","","74","J","1","","0","0","1","","0.3376398899","false","54","","0.4181407331","main_expt","","0.3376398899","","0.09210147888","","0.3072524501","","","","","",""
"19","","bandit","130","445541","0.0-92.0-0.0","29252767","wem/bandit_single","A3U74S280Z4B0","pain","3","","72","H","0","img/none_selected.jpg","0","1","0","","0.3964386999","false","55","","0.3964386999","main_expt","","0.3625264345","","0.08866102842","","0.3847595325","","","","","",""
"3","","bandit","131","447321","0.0-93.0-0.0","29252767","wem/bandit_single","A3U74S280Z4B0","pain","3","","74","J","1","","0","0","1","","0.313137485","false","56","","0.4043277199","main_expt","","0.313137485","","0.1208391037","","0.4008313728","","","","","",""
"342","","bandit","132","449446","0.0-94.0-0.0","29252767","wem/bandit_single","A3U74S280Z4B0","pain","3","","74","J","1","","0","1","0","","0.3287581384","false","57","","0.3232173094","main_expt","","0.3287581384","","0.1429525169","","0.3763680666","","","","","",""
"47","","bandit","133","451268","0.0-95.0-0.0","29252767","wem/bandit_single","A3U74S280Z4B0","pain","3","","72","H","0","img/none_selected.jpg","0","0","1","","0.3352595409","false","58","","0.3352595409","main_expt","","0.2891608333","","0.1800007821","","0.3630839511","","","","","",""
"29","","bandit","134","453075","0.0-96.0-0.0","29252767","wem/bandit_single","A3U74S280Z4B0","pain","3","","72","H","0","img/none_selected.jpg","0","0","1","","0.3423270404","false","59","","0.3423270404","main_expt","","0.2228703537","","0.1168587732","","0.3166885591","","","","","",""
"448","","bandit","135","455300","0.0-97.0-0.0","29252767","wem/bandit_single","A3U74S280Z4B0","pain","3","","75","K","2","","0","0","1","","0.08966050757","false","60","","0.3326485747","main_expt","","0.2694349638","","0.08966050757","","0.3339947878","","","","","",""
"47","","bandit","136","457123","0.0-98.0-0.0","29252767","wem/bandit_single","A3U74S280Z4B0","pain","3","","75","K","2","","0","0","1","","0.06827284498","false","61","","0.3239501662","main_expt","","0.3291501217","","0.06827284498","","0.3559621948","","","","","",""
"158","","bandit","137","459039","0.0-99.0-0.0","29252767","wem/bandit_single","A3U74S280Z4B0","pain","3","","76","L","3","","0","0","1","","0.3565904981","false","62","","0.3140158541","main_expt","","0.3516688484","","0.0870528816","","0.3565904981","","","","","",""
"19","","bandit","138","460819","0.0-100.0-0.0","29252767","wem/bandit_single","A3U74S280Z4B0","pain","3","","76","L","3","","0","0","1","","0.3766945074","false","63","","0.2896297009","main_expt","","0.3662001291","","0.07384780705","","0.3766945074","","","","","",""
"60","","bandit","139","462660","0.0-101.0-0.0","29252767","wem/bandit_single","A3U74S280Z4B0","pain","3","","74","J","1","","0","1","0","","0.3986377969","false","64","","0.2848001348","main_expt","","0.3986377969","","0.09386223648","","0.4038560084","","","","","",""
"157","","bandit","140","464593","0.0-102.0-0.0","29252767","wem/bandit_single","A3U74S280Z4B0","pain","3","","74","J","1","","0","0","1","","0.4284050928","false","65","","0.2621939157","main_expt","","0.4284050928","","0.08656227431","","0.4081833366","","","","","",""
"234","","bandit","141","466597","0.0-103.0-0.0","29252767","wem/bandit_single","A3U74S280Z4B0","pain","3","","74","J","1","","0","0","1","","0.4295130084","false","66","","0.2218985249","main_expt","","0.4295130084","","0.1254260964","","0.4111507483","","","","","",""
"28","","bandit","142","468404","0.0-104.0-0.0","29252767","wem/bandit_single","A3U74S280Z4B0","pain","3","","74","J","1","","0","0","1","","0.4192215244","false","67","","0.2203007364","main_expt","","0.4192215244","","0.0848557225","","0.3731562577","","","","","",""
"410","","bandit","143","470579","0.0-105.0-0.0","29252767","wem/bandit_single","A3U74S280Z4B0","pain","3","","74","J","1","","0","1","0","","0.4617344849","false","68","","0.2163243509","main_expt","","0.4617344849","","0.1277621339","","0.3471707475","","","","","",""
"766","","bandit","144","473122","0.0-106.0-0.0","29252767","wem/bandit_single","A3U74S280Z4B0","pain","3","","74","J","1","","0","0","1","","0.4496684627","false","69","","0.1552451017","main_expt","","0.4496684627","","0.1425885083","","0.3163780081","","","","","",""
"752","","bandit","145","475633","0.0-107.0-0.0","29252767","wem/bandit_single","A3U74S280Z4B0","pain","3","","74","J","1","","0","0","1","","0.4572021165","false","70","","0.144295094","main_expt","","0.4572021165","","0.1765985622","","0.2872849644","","","","","",""
"852","","bandit","146","478260","0.0-108.0-0.0","29252767","wem/bandit_single","A3U74S280Z4B0","pain","3","","74","J","1","","0","1","0","","0.457930868","false","71","","0.1823242822","main_expt","","0.457930868","","0.1520060204","","0.300298776","","","","","",""
"1711","","bandit","147","481753","0.0-109.0-0.0","29252767","wem/bandit_single","A3U74S280Z4B0","pain","3","","74","J","1","","0","0","1","","0.4687468973","false","72","","0.144478384","main_expt","","0.4687468973","","0.09933583891","","0.3280152389","","","","","",""
"176","","bandit","148","483716","0.0-110.0-0.0","29252767","wem/bandit_single","A3U74S280Z4B0","pain","3","","72","H","0","img/none_selected.jpg","0","0","1","","0.1420634247","false","73","","0.1420634247","main_expt","","0.4707862587","","0.1087995109","","0.2758062481","","","","","",""
"607","","bandit","149","486097","0.0-111.0-0.0","29252767","wem/bandit_single","A3U74S280Z4B0","pain","3","","72","H","0","img/none_selected.jpg","0","1","0","","0.1358649702","false","74","","0.1358649702","main_expt","","0.4602293826","","0.150223613","","0.3370537031","","","","","",""
"13902","","bandit","150","501766","0.0-112.0-0.0","29252767","wem/bandit_single","A3U74S280Z4B0","pain","3","","72","H","0","img/none_selected.jpg","0","0","1","","0.09700523291","false","75","","0.09700523291","main_expt","","0.439891953","","0.1945690608","","0.3323795279","","","","","",""
"904","","bandit","151","504456","0.0-113.0-0.0","29252767","wem/bandit_single","A3U74S280Z4B0","pain","3","","74","J","1","","0","1","0","","0.4424180744","false","76","","0.07829726083","main_expt","","0.4424180744","","0.2454913388","","0.3822428931","","","","","",""
"56","","bandit","152","506292","0.0-114.0-0.0","29252767","wem/bandit_single","A3U74S280Z4B0","pain","3","","74","J","1","","0","1","0","","0.4066280348","false","77","","0.08460916486","main_expt","","0.4066280348","","0.2181262922","","0.4136836411","","","","","",""
"127","","bandit","153","508195","0.0-115.0-0.0","29252767","wem/bandit_single","A3U74S280Z4B0","pain","3","","74","J","1","","0","1","0","","0.3969262671","false","78","","0.0875988483","main_expt","","0.3969262671","","0.2500794828","","0.4505469687","","","","","",""
"95","","bandit","154","510064","0.0-116.0-0.0","29252767","wem/bandit_single","A3U74S280Z4B0","pain","3","","74","J","1","","0","1","0","","0.4119020232","false","79","","0.06491107755","main_expt","","0.4119020232","","0.2021405589","","0.4251749511","","","","","",""
"144","","bandit","155","511973","0.0-117.0-0.0","29252767","wem/bandit_single","A3U74S280Z4B0","pain","3","","74","J","1","","0","0","1","","0.3797331509","false","80","","0.1021818806","main_expt","","0.3797331509","","0.1654874554","","0.3976376265","","","","","",""
"71","","bandit","156","513827","0.0-118.0-0.0","29252767","wem/bandit_single","A3U74S280Z4B0","pain","3","","74","J","1","","0","0","1","","0.4024270851","false","81","","0.07175209231","main_expt","","0.4024270851","","0.1281487551","","0.409462467","","","","","",""
"28","","bandit","157","515636","0.0-119.0-0.0","29252767","wem/bandit_single","A3U74S280Z4B0","pain","3","","74","J","1","","0","0","1","","0.3976574516","false","82","","0.04651379375","main_expt","","0.3976574516","","0.1167166884","","0.4541942335","","","","","",""
"217","","bandit","158","517634","0.0-120.0-0.0","29252767","wem/bandit_single","A3U74S280Z4B0","pain","3","","72","H","0","img/none_selected.jpg","0","0","1","","0.03148502893","false","83","","0.03148502893","main_expt","","0.3749492802","","0.1426109787","","0.4452160763","","","","","",""
"64","","bandit","159","519476","0.0-121.0-0.0","29252767","wem/bandit_single","A3U74S280Z4B0","pain","3","","75","K","2","","0","0","1","","0.121887906","false","84","","0.05186863446","main_expt","","0.4021863709","","0.121887906","","0.438985114","","","","","",""
"31","","bandit","160","521283","0.0-122.0-0.0","29252767","wem/bandit_single","A3U74S280Z4B0","pain","3","","76","L","3","","0","1","0","","0.4331173667","false","85","","0.04986731509","main_expt","","0.3624574422","","0.1361926199","","0.4331173667","","","","","",""
"31","","bandit","161","523091","0.0-123.0-0.0","29252767","wem/bandit_single","A3U74S280Z4B0","pain","3","","76","L","3","","0","1","0","","0.447547065","false","86","","0.05891938772","main_expt","","0.387939101","","0.1287871674","","0.447547065","","","","","",""
"103","","bandit","162","524959","0.0-124.0-0.0","29252767","wem/bandit_single","A3U74S280Z4B0","pain","3","","76","L","3","","0","0","1","","0.4451560311","false","87","","0.06619539979","main_expt","","0.3949621072","","0.13112728","","0.4451560311","","","","","",""
"46","","bandit","163","526770","0.0-125.0-0.0","29252767","wem/bandit_single","A3U74S280Z4B0","pain","3","","76","L","3","","0","1","0","","0.4010299359","false","88","","0.03553047297","main_expt","","0.3789082299","","0.1385028762","","0.4010299359","","","","","",""
"108","","bandit","164","528657","0.0-126.0-0.0","29252767","wem/bandit_single","A3U74S280Z4B0","pain","3","","76","L","3","","0","0","1","","0.430672582","false","89","","0.03983007571","main_expt","","0.3718344374","","0.1377901848","","0.430672582","","","","","",""
"120","","bandit","165","530544","0.0-127.0-0.0","29252767","wem/bandit_single","A3U74S280Z4B0","pain","3","","76","L","3","","0","0","1","","0.4063924327","false","90","","0.02618566652","main_expt","","0.4341719303","","0.1642812903","","0.4063924327","","","","","",""
"92","","bandit","166","532399","0.0-128.0-0.0","29252767","wem/bandit_single","A3U74S280Z4B0","pain","3","","76","L","3","","0","0","1","","0.4115689239","false","91","","0.03325063158","main_expt","","0.4538289377","","0.2115922749","","0.4115689239","","","","","",""
"31","","bandit","167","534194","0.0-129.0-0.0","29252767","wem/bandit_single","A3U74S280Z4B0","pain","3","","72","H","0","img/none_selected.jpg","0","0","1","","0.02042352937","false","92","","0.02042352937","main_expt","","0.4508501544","","0.1819790886","","0.4195244723","","","","","",""
"27","","bandit","168","536002","0.0-130.0-0.0","29252767","wem/bandit_single","A3U74S280Z4B0","pain","3","","72","H","0","img/none_selected.jpg","0","0","1","","0.01887694535","false","93","","0.01887694535","main_expt","","0.4548943395","","0.2039146085","","0.3976010387","","","","","",""
"18","","bandit","169","537795","0.0-131.0-0.0","29252767","wem/bandit_single","A3U74S280Z4B0","pain","3","","72","H","0","img/none_selected.jpg","0","0","1","","0.02367451168","false","94","","0.02367451168","main_expt","","0.4646086811","","0.2307813202","","0.3668479885","","","","","",""
"711","","bandit","170","540290","0.0-132.0-0.0","29252767","wem/bandit_single","A3U74S280Z4B0","pain","3","","74","J","1","","0","1","0","","0.467541367","false","95","","0.02723032617","main_expt","","0.467541367","","0.2213313998","","0.3332342888","","","","","",""
"43","","bandit","171","542111","0.0-133.0-0.0","29252767","wem/bandit_single","A3U74S280Z4B0","pain","3","","74","J","1","","0","0","1","","0.4642351642","false","96","","0.02648196594","main_expt","","0.4642351642","","0.2568515079","","0.2884910782","","","","","",""
"687","","bandit","172","544562","0.0-134.0-0.0","29252767","wem/bandit_single","A3U74S280Z4B0","pain","3","","74","J","1","","0","0","1","","0.4467755515","false","97","","0.01585024216","main_expt","","0.4467755515","","0.2699845376","","0.2656891479","","","","","",""
"56","","bandit","173","546404","0.0-135.0-0.0","29252767","wem/bandit_single","A3U74S280Z4B0","pain","3","","74","J","1","","0","0","1","","0.4056350907","false","98","","0.01169409205","main_expt","","0.4056350907","","0.2797451528","","0.2595300749","","","","","",""
"566","","bandit","174","548754","0.0-136.0-0.0","29252767","wem/bandit_single","A3U74S280Z4B0","pain","3","","75","K","2","","0","0","1","","0.3187705275","false","99","","0.01197913588","main_expt","","0.339742379","","0.3187705275","","0.2519900202","","","","","",""
"57","","bandit","175","550592","0.0-137.0-0.0","29252767","wem/bandit_single","A3U74S280Z4B0","pain","3","","75","K","2","","0","1","0","","0.3570824245","false","100","","0.01759776774","main_expt","","0.3381167522","","0.3570824245","","0.2523409295","","","","","",""
"122","","bandit","176","552482","0.0-138.0-0.0","29252767","wem/bandit_single","A3U74S280Z4B0","pain","3","","75","K","2","","0","0","1","","0.3489468272","false","101","","0.04295615511","main_expt","","0.2803213009","","0.3489468272","","0.2146893193","","","","","",""
"71","","bandit","177","554338","0.0-139.0-0.0","29252767","wem/bandit_single","A3U74S280Z4B0","pain","3","","75","K","2","","0","1","0","","0.3015799625","false","102","","0.06572998715","main_expt","","0.317644571","","0.3015799625","","0.1843767259","","","","","",""
"25","","bandit","178","556147","0.0-140.0-0.0","29252767","wem/bandit_single","A3U74S280Z4B0","pain","3","","75","K","2","","0","0","1","","0.2656450655","false","103","","0.1043212589","main_expt","","0.3024927185","","0.2656450655","","0.2108432206","","","","","",""
"56","","bandit","179","557995","0.0-141.0-0.0","29252767","wem/bandit_single","A3U74S280Z4B0","pain","3","","75","K","2","","0","0","1","","0.261155182","false","104","","0.07063930719","main_expt","","0.3339077782","","0.261155182","","0.26792014","","","","","",""
"4","","bandit","180","559760","0.0-142.0-0.0","29252767","wem/bandit_single","A3U74S280Z4B0","pain","3","","75","K","2","","0","0","1","","0.2794756432","false","105","","0.09992353171","main_expt","","0.2966783269","","0.2794756432","","0.3302583292","","","","","",""
"686","","bandit","181","562211","0.0-143.0-0.0","29252767","wem/bandit_single","A3U74S280Z4B0","pain","3","","75","K","2","","0","0","1","","0.2719827923","false","106","","0.1074399807","main_expt","","0.3722996478","","0.2719827923","","0.3099187861","","","","","",""
"363","","bandit","182","564352","0.0-144.0-0.0","29252767","wem/bandit_single","A3U74S280Z4B0","pain","3","","76","L","3","","0","0","1","","0.3526315454","false","107","","0.1398361659","main_expt","","0.3764369168","","0.2614179637","","0.3526315454","","","","","",""
"57","","bandit","183","566195","0.0-145.0-0.0","29252767","wem/bandit_single","A3U74S280Z4B0","pain","3","","76","L","3","","0","0","1","","0.3741147492","false","108","","0.1503356919","main_expt","","0.3221289315","","0.3154283329","","0.3741147492","","","","","",""
"38","","bandit","184","568016","0.0-146.0-0.0","29252767","wem/bandit_single","A3U74S280Z4B0","pain","3","","76","L","3","","0","1","0","","0.3775387023","false","109","","0.1554773292","main_expt","","0.3394272446","","0.3965133924","","0.3775387023","","","","","",""
"57","","bandit","185","569857","0.0-147.0-0.0","29252767","wem/bandit_single","A3U74S280Z4B0","pain","3","","76","L","3","","0","0","1","","0.3603169275","false","110","","0.1862379276","main_expt","","0.3108194313","","0.4096679205","","0.3603169275","","","","","",""
"41","","bandit","186","571681","0.0-148.0-0.0","29252767","wem/bandit_single","A3U74S280Z4B0","pain","3","","72","H","0","img/none_selected.jpg","0","0","1","","0.2096222548","false","111","","0.2096222548","main_expt","","0.2754643313","","0.4107972434","","0.3492898999","","","","","",""
"20","","bandit","187","573490","0.0-149.0-0.0","29252767","wem/bandit_single","A3U74S280Z4B0","pain","3","","72","H","0","img/none_selected.jpg","0","0","1","","0.2432579143","false","112","","0.2432579143","main_expt","","0.2906444469","","0.4229867006","","0.3332089306","","","","","",""
"505","","bandit","188","575773","0.0-150.0-0.0","29252767","wem/bandit_single","A3U74S280Z4B0","pain","3","","72","H","0","img/none_selected.jpg","0","0","1","","0.1721880852","false","113","","0.1721880852","main_expt","","0.3006146448","","0.4045712819","","0.3450976056","","","","","",""
"65","","bandit","189","577597","0.0-151.0-0.0","29252767","wem/bandit_single","A3U74S280Z4B0","pain","3","","74","J","1","","0","0","1","","0.2668468313","false","114","","0.2081909003","main_expt","","0.2668468313","","0.3821667802","","0.3725565121","","","","","",""
"67","","bandit","190","579425","0.0-152.0-0.0","29252767","wem/bandit_single","A3U74S280Z4B0","pain","3","","74","J","1","","0","0","1","","0.3032344037","false","115","","0.272711811","main_expt","","0.3032344037","","0.3342096713","","0.3789561431","","","","","",""
"87","","bandit","191","581297","0.0-153.0-0.0","29252767","wem/bandit_single","A3U74S280Z4B0","pain","3","","74","J","1","","0","0","1","","0.279678247","false","116","","0.2801201945","main_expt","","0.279678247","","0.3475890958","","0.3829881954","","","","","",""
"360","","bandit","192","583441","0.0-154.0-0.0","29252767","wem/bandit_single","A3U74S280Z4B0","pain","3","","75","K","2","","0","0","1","","0.3545652452","false","117","","0.3615324036","main_expt","","0.2762620489","","0.3545652452","","0.3872477479","","","","","",""
"133","","bandit","193","585361","0.0-155.0-0.0","29252767","wem/bandit_single","A3U74S280Z4B0","pain","3","","75","K","2","","0","1","0","","0.3542043025","false","118","","0.3615177178","main_expt","","0.2880572365","","0.3542043025","","0.3952603005","","","","","",""
"100","","bandit","194","587247","0.0-156.0-0.0","29252767","wem/bandit_single","A3U74S280Z4B0","pain","3","","75","K","2","","0","0","1","","0.3471352845","false","119","","0.3875935955","main_expt","","0.2807620685","","0.3471352845","","0.3838673248","","","","","",""
"71","","bandit","195","589104","0.0-157.0-0.0","29252767","wem/bandit_single","A3U74S280Z4B0","pain","3","","75","K","2","","0","0","1","","0.3343169965","false","120","","0.4052723714","main_expt","","0.2811576832","","0.3343169965","","0.4148997213","","","","","",""
"151","","bandit","196","591038","0.0-158.0-0.0","29252767","wem/bandit_single","A3U74S280Z4B0","pain","3","","75","K","2","","0","1","0","","0.3595120763","false","121","","0.44462971","main_expt","","0.3016455194","","0.3595120763","","0.4184259471","","","","","",""
"61","","bandit","197","592859","0.0-159.0-0.0","29252767","wem/bandit_single","A3U74S280Z4B0","pain","3","","75","K","2","","0","1","0","","0.3296914373","false","122","","0.4338931322","main_expt","","0.3161331551","","0.3296914373","","0.4271141924","","","","","",""
"113","","bandit","198","594734","0.0-160.0-0.0","29252767","wem/bandit_single","A3U74S280Z4B0","pain","3","","75","K","2","","0","0","1","","0.3369167856","false","123","","0.4248885798","main_expt","","0.2882518765","","0.3369167856","","0.3994299035","","","","","",""
"171","","bandit","199","596671","0.0-161.0-0.0","29252767","wem/bandit_single","A3U74S280Z4B0","pain","3","","75","K","2","","0","0","1","","0.3181772373","false","124","","0.3773411534","main_expt","","0.3426101702","","0.3181772373","","0.4319292606","","","","","",""
"117","","bandit","200","598579","0.0-162.0-0.0","29252767","wem/bandit_single","A3U74S280Z4B0","pain","3","","75","K","2","","0","0","1","","0.3285823626","false","125","","0.3322500489","main_expt","","0.3623178769","","0.3285823626","","0.4228137624","","","","","",""
"129","","bandit","201","600482","0.0-163.0-0.0","29252767","wem/bandit_single","A3U74S280Z4B0","pain","3","","75","K","2","","0","0","1","","0.3203566048","false","126","","0.3742157909","main_expt","","0.3487147863","","0.3203566048","","0.4445824992","","","","","",""
"68","","bandit","202","602336","0.0-164.0-0.0","29252767","wem/bandit_single","A3U74S280Z4B0","pain","3","","75","K","2","","0","1","0","","0.3852478983","false","127","","0.3851047317","main_expt","","0.4137567253","","0.3852478983","","0.4525048151","","","","","",""
"149","","bandit","203","604270","0.0-165.0-0.0","29252767","wem/bandit_single","A3U74S280Z4B0","pain","3","","75","K","2","","0","1","0","","0.3389365807","false","128","","0.4043255462","main_expt","","0.3814482247","","0.3389365807","","0.4692783601","","","","","",""
"488","","bandit","204","606528","0.0-166.0-0.0","29252767","wem/bandit_single","A3U74S280Z4B0","pain","3","","75","K","2","","0","0","1","","0.3137404055","false","129","","0.4123407707","main_expt","","0.4168244781","","0.3137404055","","0.4168961411","","","","","",""
"86","","bandit","205","608401","0.0-167.0-0.0","29252767","wem/bandit_single","A3U74S280Z4B0","pain","3","","75","K","2","","0","1","0","","0.3258581953","false","130","","0.4046971735","main_expt","","0.4365918222","","0.3258581953","","0.3790243023","","","","","",""
"58","","bandit","206","610221","0.0-168.0-0.0","29252767","wem/bandit_single","A3U74S280Z4B0","pain","3","","75","K","2","","0","0","1","","0.2883577813","false","131","","0.4461276952","main_expt","","0.4389841863","","0.2883577813","","0.4049885765","","","","","",""
"31","","bandit","207","612018","0.0-169.0-0.0","29252767","wem/bandit_single","A3U74S280Z4B0","pain","3","","75","K","2","","0","0","1","","0.3560589507","false","132","","0.4611465992","main_expt","","0.4152650591","","0.3560589507","","0.4146365962","","","","","",""
"562","","bandit","208","614370","0.0-170.0-0.0","29252767","wem/bandit_single","A3U74S280Z4B0","pain","3","","75","K","2","","0","1","0","","0.358394082","false","133","","0.4798080461","main_expt","","0.4542457407","","0.358394082","","0.3895917514","","","","","",""
"1058","","bandit","209","617215","0.0-171.0-0.0","29252767","wem/bandit_single","A3U74S280Z4B0","pain","3","","75","K","2","","0","0","1","","0.3605573227","false","134","","0.4536835414","main_expt","","0.4598844585","","0.3605573227","","0.4031985028","","","","","",""
"340","","bandit","210","619344","0.0-172.0-0.0","29252767","wem/bandit_single","A3U74S280Z4B0","pain","3","","75","K","2","","0","0","1","","0.3695471057","false","135","","0.4297718384","main_expt","","0.4690925783","","0.3695471057","","0.3950250086","","","","","",""
"125","","bandit","211","621262","0.0-173.0-0.0","29252767","wem/bandit_single","A3U74S280Z4B0","pain","3","","75","K","2","","0","0","1","","0.4060603524","false","136","","0.4047290025","main_expt","","0.4382452635","","0.4060603524","","0.3958408827","","","","","",""
"87","","bandit","212","623137","0.0-174.0-0.0","29252767","wem/bandit_single","A3U74S280Z4B0","pain","3","","76","L","3","","0","0","1","","0.4025558346","false","137","","0.4062789173","main_expt","","0.4469583278","","0.3977168634","","0.4025558346","","","","","",""
"9","","bandit","213","624936","0.0-175.0-0.0","29252767","wem/bandit_single","A3U74S280Z4B0","pain","3","","76","L","3","","0","0","1","","0.3901350715","false","138","","0.3893267926","main_expt","","0.44739429","","0.3884520433","","0.3901350715","","","","","",""
"545","","bandit","214","627244","0.0-176.0-0.0","29252767","wem/bandit_single","A3U74S280Z4B0","pain","3","","76","L","3","","0","0","1","","0.4069565875","false","139","","0.3355070849","main_expt","","0.4329330235","","0.3517782966","","0.4069565875","","","","","",""
"62","","bandit","215","629070","0.0-177.0-0.0","29252767","wem/bandit_single","A3U74S280Z4B0","pain","3","","76","L","3","","0","1","0","","0.4384632306","false","140","","0.3033729388","main_expt","","0.4427321083","","0.3147433726","","0.4384632306","","","","","",""
"231","","bandit","216","631087","0.0-178.0-0.0","29252767","wem/bandit_single","A3U74S280Z4B0","pain","3","","76","L","3","","0","0","1","","0.4513823692","false","141","","0.3495942718","main_expt","","0.4630674526","","0.315874603","","0.4513823692","","","","","",""
"21","","bandit","217","632894","0.0-179.0-0.0","29252767","wem/bandit_single","A3U74S280Z4B0","pain","3","","74","J","1","","0","1","0","","0.4678156034","false","142","","0.373744609","main_expt","","0.4678156034","","0.2660579121","","0.4477105457","","","","","",""
"90","","bandit","218","634770","0.0-180.0-0.0","29252767","wem/bandit_single","A3U74S280Z4B0","pain","3","","74","J","1","","0","1","0","","0.4556942345","false","143","","0.3983109068","main_expt","","0.4556942345","","0.2791435274","","0.4399018081","","","","","",""
"112","","bandit","219","636671","0.0-181.0-0.0","29252767","wem/bandit_single","A3U74S280Z4B0","pain","3","","74","J","1","","0","0","1","","0.4606745253","false","144","","0.4290647624","main_expt","","0.4606745253","","0.3232226047","","0.3929519584","","","","","",""
"91","","bandit","220","638543","0.0-182.0-0.0","29252767","wem/bandit_single","A3U74S280Z4B0","pain","3","","74","J","1","","0","1","0","","0.4493721712","false","145","","0.4360055891","main_expt","","0.4493721712","","0.2863527335","","0.3638959839","","","","","",""
"93","","bandit","221","640437","0.0-183.0-0.0","29252767","wem/bandit_single","A3U74S280Z4B0","pain","3","","74","J","1","","0","0","1","","0.411205332","false","146","","0.4408793748","main_expt","","0.411205332","","0.2399582054","","0.3109408856","","","","","",""
"177","","bandit","222","642399","0.0-184.0-0.0","29252767","wem/bandit_single","A3U74S280Z4B0","pain","3","","74","J","1","","0","0","1","","0.4091009254","false","147","","0.4152856751","main_expt","","0.4091009254","","0.2186627863","","0.303790043","","","","","",""
"76","","bandit","223","644234","0.0-185.0-0.0","29252767","wem/bandit_single","A3U74S280Z4B0","pain","3","","74","J","1","","0","0","1","","0.3878952866","false","148","","0.400149315","main_expt","","0.3878952866","","0.233860686","","0.2836070719","","","","","",""
"331","","bandit","224","646333","0.0-186.0-0.0","29252767","wem/bandit_single","A3U74S280Z4B0","pain","3","","74","J","1","","0","0","1","","0.39239053","false","149","","0.4081055764","main_expt","","0.39239053","","0.2752018233","","0.2132997302","","","","","",""
"55","","bandit","225","648181","0.0-187.0-0.0","29252767","wem/bandit_single","A3U74S280Z4B0","pain","3","","74","J","1","","0","1","0","","0.3869122725","false","150","","0.3946041437","main_expt","","0.3869122725","","0.2306982087","","0.1906505553","","","","","",""
"494","","bandit","226","650462","0.0-188.0-0.0","29252767","wem/bandit_single","A3U74S280Z4B0","pain","3","","74","J","1","","0","0","1","","0.3562084687","false","151","","0.3517385329","main_expt","","0.3562084687","","0.272940168","","0.1887938372","","","","","",""
"120","","bandit","227","652367","0.0-189.0-0.0","29252767","wem/bandit_single","A3U74S280Z4B0","pain","3","","74","J","1","","0","0","1","","0.3975166132","false","152","","0.33807167","main_expt","","0.3975166132","","0.246833375","","0.1452925277","","","","","",""
"151","","bandit","228","654303","0.0-190.0-0.0","29252767","wem/bandit_single","A3U74S280Z4B0","pain","3","","72","H","0","img/none_selected.jpg","0","0","1","","0.3507556502","false","153","","0.3507556502","main_expt","","0.4221253747","","0.2555278221","","0.1236287895","","","","","",""
"39","","bandit","229","656128","0.0-191.0-0.0","29252767","wem/bandit_single","A3U74S280Z4B0","pain","3","","72","H","0","img/none_selected.jpg","0","0","1","","0.3484399371","false","154","","0.3484399371","main_expt","","0.3887365422","","0.1964980564","","0.119712108","","","","","",""
"131","","bandit","230","658047","0.0-192.0-0.0","29252767","wem/bandit_single","A3U74S280Z4B0","pain","3","","72","H","0","img/none_selected.jpg","0","1","0","","0.4023996329","false","155","","0.4023996329","main_expt","","0.3935049101","","0.2158986014","","0.1638630184","","","","","",""
"130","","bandit","231","659966","0.0-193.0-0.0","29252767","wem/bandit_single","A3U74S280Z4B0","pain","3","","72","H","0","img/none_selected.jpg","0","0","1","","0.3489947109","false","156","","0.3489947109","main_expt","","0.4185769797","","0.2269609611","","0.138562935","","","","","",""
"597","","bandit","232","662349","0.0-194.0-0.0","29252767","wem/bandit_single","A3U74S280Z4B0","pain","3","","72","H","0","img/none_selected.jpg","0","1","0","","0.3223479281","false","157","","0.3223479281","main_expt","","0.412821327","","0.2997599927","","0.1424057266","","","","","",""
"166","","bandit","233","664299","0.0-195.0-0.0","29252767","wem/bandit_single","A3U74S280Z4B0","pain","3","","72","H","0","img/none_selected.jpg","0","0","1","","0.3334556671","false","158","","0.3334556671","main_expt","","0.4433072999","","0.2608946303","","0.1068688432","","","","","",""
"454","","bandit","234","666524","0.0-196.0-0.0","29252767","wem/bandit_single","A3U74S280Z4B0","pain","3","","72","H","0","img/none_selected.jpg","0","0","1","","0.3686402331","false","159","","0.3686402331","main_expt","","0.4600675837","","0.2927903113","","0.08394897778","","","","","",""
"248","","bandit","235","668558","0.0-197.0-0.0","29252767","wem/bandit_single","A3U74S280Z4B0","pain","3","","72","H","0","img/none_selected.jpg","0","0","1","","0.3711838842","false","160","","0.3711838842","main_expt","","0.449399373","","0.3165869591","","0.09909711901","","","","","",""
"280","","bandit","236","670621","0.0-198.0-0.0","29252767","wem/bandit_single","A3U74S280Z4B0","pain","3","","72","H","0","img/none_selected.jpg","0","1","0","","0.385982022","false","161","","0.385982022","main_expt","","0.4303005813","","0.3355773311","","0.09256485174","","","","","",""
"435","","bandit","237","672846","0.0-199.0-0.0","29252767","wem/bandit_single","A3U74S280Z4B0","pain","3","","72","H","0","img/none_selected.jpg","0","0","1","","0.3435676447","false","162","","0.3435676447","main_expt","","0.4319487415","","0.3801839585","","0.07550585721","","","","","",""
"598","","bandit","238","675229","0.0-200.0-0.0","29252767","wem/bandit_single","A3U74S280Z4B0","pain","3","","72","H","0","img/none_selected.jpg","0","0","1","","0.3840292687","false","163","","0.3840292687","main_expt","","0.4459750046","","0.3796909961","","0.08055395315","","","","","",""
"140","","bandit","239","677131","0.0-201.0-0.0","29252767","wem/bandit_single","A3U74S280Z4B0","pain","3","","72","H","0","img/none_selected.jpg","0","0","1","","0.3427058888","false","164","","0.3427058888","main_expt","","0.4529977304","","0.3657353238","","0.07824920034","","","","","",""
"334","","bandit","240","679228","0.0-202.0-0.0","29252767","wem/bandit_single","A3U74S280Z4B0","pain","3","","76","L","3","","0","0","1","","0.08439791844","false","165","","0.3258967388","main_expt","","0.4472909282","","0.3937598932","","0.08439791844","","","","","",""
"68","","bandit","241","681085","0.0-203.0-0.0","29252767","wem/bandit_single","A3U74S280Z4B0","pain","3","","76","L","3","","0","0","1","","0.05039915739","false","166","","0.2704303424","main_expt","","0.4399772256","","0.3914196171","","0.05039915739","","","","","",""
"325","","bandit","242","683200","0.0-204.0-0.0","29252767","wem/bandit_single","A3U74S280Z4B0","pain","3","","76","L","3","","0","0","1","","0.05759530337","false","167","","0.3205555932","main_expt","","0.4636729032","","0.3919877423","","0.05759530337","","","","","",""
"85","","bandit","243","685069","0.0-205.0-0.0","29252767","wem/bandit_single","A3U74S280Z4B0","pain","3","","75","K","2","","0","0","1","","0.3647459683","false","168","","0.3639109947","main_expt","","0.4437796743","","0.3647459683","","0.04992464654","","","","","",""
"88","","bandit","244","686937","0.0-206.0-0.0","29252767","wem/bandit_single","A3U74S280Z4B0","pain","3","","75","K","2","","0","1","0","","0.4058418149","false","169","","0.3733582142","main_expt","","0.456101387","","0.4058418149","","0.03416660819","","","","","",""
"75","","bandit","245","688800","0.0-207.0-0.0","29252767","wem/bandit_single","A3U74S280Z4B0","pain","3","","75","K","2","","0","0","1","","0.3998590153","false","170","","0.3832331311","main_expt","","0.4571218852","","0.3998590153","","0.01917125828","","","","","",""
"64","","bandit","246","690655","0.0-208.0-0.0","29252767","wem/bandit_single","A3U74S280Z4B0","pain","3","","75","K","2","","0","0","1","","0.3887500458","false","171","","0.3815339887","main_expt","","0.445510323","","0.3887500458","","0.02244253376","","","","","",""
"86","","bandit","247","692524","0.0-209.0-0.0","29252767","wem/bandit_single","A3U74S280Z4B0","pain","3","","75","K","2","","0","1","0","","0.4102182378","false","172","","0.3471775219","main_expt","","0.4280794999","","0.4102182378","","0.02619280326","","","","","",""
"510","","bandit","248","694794","0.0-210.0-0.0","29252767","wem/bandit_single","A3U74S280Z4B0","pain","3","","75","K","2","","0","1","0","","0.3895773165","false","173","","0.340289466","main_expt","","0.4379780546","","0.3895773165","","0.0218428458","","","","","",""
"300","","bandit","249","696859","0.0-211.0-0.0","29252767","wem/bandit_single","A3U74S280Z4B0","pain","3","","75","K","2","","0","0","1","","0.3826402373","false","174","","0.3280863639","main_expt","","0.4160926905","","0.3826402373","","0.02840617367","","","","","",""
"278","","bandit","250","698927","0.0-212.0-0.0","29252767","wem/bandit_single","A3U74S280Z4B0","pain","3","","75","K","2","","0","0","1","","0.38572844","false","175","","0.3782643392","main_expt","","0.44195178","","0.38572844","","0.0268928826","","","","","",""
"32","","bandit","251","700766","0.0-213.0-0.0","29252767","wem/bandit_single","A3U74S280Z4B0","pain","3","","75","K","2","","0","0","1","","0.3566605828","false","176","","0.3714875018","main_expt","","0.4469840309","","0.3566605828","","0.04471375276","","","","","",""
"480","","bandit","252","703037","0.0-214.0-0.0","29252767","wem/bandit_single","A3U74S280Z4B0","pain","3","","75","K","2","","0","1","0","","0.3736379944","false","177","","0.3110573775","main_expt","","0.4732589693","","0.3736379944","","0.04508647299","","","","","",""
"194","","bandit","253","705020","0.0-215.0-0.0","29252767","wem/bandit_single","A3U74S280Z4B0","pain","3","","75","K","2","","0","1","0","","0.3835263095","false","178","","0.3725785744","main_expt","","0.4716065645","","0.3835263095","","0.07342594821","","","","","",""
"115","","bandit","254","706925","0.0-216.0-0.0","29252767","wem/bandit_single","A3U74S280Z4B0","pain","3","","75","K","2","","0","1","0","","0.3531759074","false","179","","0.4143512522","main_expt","","0.4724187392","","0.3531759074","","0.08189943715","","","","","",""
"149","","bandit","255","708861","0.0-217.0-0.0","29252767","wem/bandit_single","A3U74S280Z4B0","pain","3","","75","K","2","","0","1","0","","0.3185705061","false","180","","0.4240428135","main_expt","","0.4551908631","","0.3185705061","","0.07894611151","","","","","",""
"103","","bandit","256","710750","0.0-218.0-0.0","29252767","wem/bandit_single","A3U74S280Z4B0","pain","3","","75","K","2","","0","0","1","","0.2823592255","false","181","","0.4394908049","main_expt","","0.456416976","","0.2823592255","","0.06982230443","","","","","",""
"95","","bandit","257","712633","0.0-219.0-0.0","29252767","wem/bandit_single","A3U74S280Z4B0","pain","3","","75","K","2","","0","0","1","","0.2741397005","false","182","","0.4180692962","main_expt","","0.4525945541","","0.2741397005","","0.06674639092","","","","","",""
"46","","bandit","258","714444","0.0-220.0-0.0","29252767","wem/bandit_single","A3U74S280Z4B0","pain","3","","75","K","2","","0","0","1","","0.2936799338","false","183","","0.4468782907","main_expt","","0.4439654651","","0.2936799338","","0.04008595334","","","","","",""
"29","","bandit","259","716274","0.0-221.0-0.0","29252767","wem/bandit_single","A3U74S280Z4B0","pain","3","","75","K","2","","0","0","1","","0.3027831177","false","184","","0.4489540851","main_expt","","0.4366406792","","0.3027831177","","0.04652727321","","","","","",""
"857","","bandit","260","718909","0.0-222.0-0.0","29252767","wem/bandit_single","A3U74S280Z4B0","pain","3","","72","H","0","img/none_selected.jpg","0","1","0","","0.4669005471","false","185","","0.4669005471","main_expt","","0.4282468188","","0.3180510168","","0.05033673313","","","","","",""
"269","","bandit","261","720991","0.0-223.0-0.0","29252767","wem/bandit_single","A3U74S280Z4B0","pain","3","","72","H","0","img/none_selected.jpg","0","1","0","","0.419417397","false","186","","0.419417397","main_expt","","0.4249990568","","0.3285352945","","0.03009771755","","","","","",""
"191","","bandit","262","722973","0.0-224.0-0.0","29252767","wem/bandit_single","A3U74S280Z4B0","pain","3","","72","H","0","img/none_selected.jpg","0","1","0","","0.3735271503","false","187","","0.3735271503","main_expt","","0.4159118542","","0.3278715557","","0.02601150791","","","","","",""
"210","","bandit","263","724969","0.0-225.0-0.0","29252767","wem/bandit_single","A3U74S280Z4B0","pain","3","","72","H","0","img/none_selected.jpg","0","1","0","","0.3339942922","false","188","","0.3339942922","main_expt","","0.4294829221","","0.3408065186","","0.02389042297","","","","","",""
"89","","bandit","264","726825","0.0-226.0-0.0","29252767","wem/bandit_single","A3U74S280Z4B0","pain","3","","72","H","0","img/none_selected.jpg","0","1","0","","0.3200911101","false","189","","0.3200911101","main_expt","","0.4183094629","","0.3335894225","","0.02303770395","","","","","",""
"222","","bandit","265","728809","0.0-227.0-0.0","29252767","wem/bandit_single","A3U74S280Z4B0","pain","3","","72","H","0","img/none_selected.jpg","0","0","1","","0.379511296","false","190","","0.379511296","main_expt","","0.3769048436","","0.2560009578","","0.0156858998","","","","","",""
"272","","bandit","266","730845","0.0-228.0-0.0","29252767","wem/bandit_single","A3U74S280Z4B0","pain","3","","72","H","0","img/none_selected.jpg","0","1","0","","0.3475909393","false","191","","0.3475909393","main_expt","","0.3654839124","","0.2422543603","","0.02184200568","","","","","",""
"190","","bandit","267","732814","0.0-229.0-0.0","29252767","wem/bandit_single","A3U74S280Z4B0","pain","3","","72","H","0","img/none_selected.jpg","0","0","1","","0.3248483226","false","192","","0.3248483226","main_expt","","0.4158526776","","0.2479432207","","0.04159540118","","","","","",""
"451","","bandit","268","735052","0.0-230.0-0.0","29252767","wem/bandit_single","A3U74S280Z4B0","pain","3","","72","H","0","img/none_selected.jpg","0","0","1","","0.3530355579","false","193","","0.3530355579","main_expt","","0.4294001388","","0.2198669916","","0.02418359434","","","","","",""
"255","","bandit","269","737100","0.0-231.0-0.0","29252767","wem/bandit_single","A3U74S280Z4B0","pain","3","","72","H","0","img/none_selected.jpg","0","1","0","","0.3613612536","false","194","","0.3613612536","main_expt","","0.421006879","","0.1832858475","","0.03036789999","","","","","",""
"818","","bandit","270","739707","0.0-232.0-0.0","29252767","wem/bandit_single","A3U74S280Z4B0","pain","3","","72","H","0","img/none_selected.jpg","0","0","1","","0.3712676973","false","195","","0.3712676973","main_expt","","0.3993762185","","0.1758973168","","0.0328032794","","","","","",""
"304","","bandit","271","741804","0.0-233.0-0.0","29252767","wem/bandit_single","A3U74S280Z4B0","pain","3","","72","H","0","img/none_selected.jpg","0","0","1","","0.3797177139","false","196","","0.3797177139","main_expt","","0.3953591144","","0.1472052011","","0.03367124179","","","","","",""
"320","","bandit","272","743914","0.0-234.0-0.0","29252767","wem/bandit_single","A3U74S280Z4B0","pain","3","","72","H","0","img/none_selected.jpg","0","0","1","","0.3703437648","false","197","","0.3703437648","main_expt","","0.4186523265","","0.09357285733","","0.03515804352","","","","","",""
"491","","bandit","273","746169","0.0-235.0-0.0","29252767","wem/bandit_single","A3U74S280Z4B0","pain","3","","72","H","0","img/none_selected.jpg","0","0","1","","0.3269028648","false","198","","0.3269028648","main_expt","","0.4334783576","","0.1466532231","","0.0474911349","","","","","",""
"1337","","bandit","274","749278","0.0-236.0-0.0","29252767","wem/bandit_single","A3U74S280Z4B0","pain","3","","72","H","0","img/none_selected.jpg","0","1","0","","0.2972028605","false","199","","0.2972028605","main_expt","","0.452916177","","0.1745555733","","0.04758635843","","","","","",""
"494","","bandit","275","751565","0.0-237.0-0.0","29252767","wem/bandit_single","A3U74S280Z4B0","pain","3","","72","H","0","img/none_selected.jpg","0","0","1","","0.2548635421","false","200","","0.2548635421","main_expt","","0.4652130485","","0.1496088854","","0.06637193447","","","","","",""
"708","","bandit","276","754067","0.0-238.0-0.0","29252767","wem/bandit_single","A3U74S280Z4B0","pain","3","","72","H","0","img/none_selected.jpg","0","0","1","","0.2360204523","false","201","","0.2360204523","main_expt","","0.4544628945","","0.1144678821","","0.03961336895","","","","","",""
"7","","bandit","277","755878","0.0-239.0-0.0","29252767","wem/bandit_single","A3U74S280Z4B0","pain","3","","74","J","1","","0","1","0","","0.4346785174","false","202","","0.1847208139","main_expt","","0.4346785174","","0.08314182588","","0.04217273593","","","","","",""
"280","","bandit","278","757947","0.0-240.0-0.0","29252767","wem/bandit_single","A3U74S280Z4B0","pain","3","","74","J","1","","0","0","1","","0.4340895374","false","203","","0.1740418795","main_expt","","0.4340895374","","0.1008304514","","0.03601881868","","","","","",""
"129","","bandit","279","759865","0.0-241.0-0.0","29252767","wem/bandit_single","A3U74S280Z4B0","pain","3","","74","J","1","","0","1","0","","0.4398780919","false","204","","0.1469060572","main_expt","","0.4398780919","","0.1170364225","","0.04663301139","","","","","",""
"644","","bandit","280","762279","0.0-242.0-0.0","29252767","wem/bandit_single","A3U74S280Z4B0","pain","3","","74","J","1","","0","1","0","","0.4001316318","false","205","","0.1162446513","main_expt","","0.4001316318","","0.1228414706","","0.04643109282","","","","","",""
"319","","bandit","281","764363","0.0-243.0-0.0","29252767","wem/bandit_single","A3U74S280Z4B0","pain","3","","74","J","1","","0","0","1","","0.4347617828","false","206","","0.1289033918","main_expt","","0.4347617828","","0.1574749647","","0.06886832812","","","","","",""
"109","","bandit","282","766268","0.0-244.0-0.0","29252767","wem/bandit_single","A3U74S280Z4B0","pain","3","","74","J","1","","0","1","0","","0.4383015813","false","207","","0.1261822501","main_expt","","0.4383015813","","0.1922173773","","0.0600143171","","","","","",""
"230","","bandit","283","768284","0.0-245.0-0.0","29252767","wem/bandit_single","A3U74S280Z4B0","pain","3","","74","J","1","","0","0","1","","0.4038237536","false","208","","0.1024795668","main_expt","","0.4038237536","","0.1673160211","","0.04637571639","","","","","",""
"96","","bandit","284","770172","0.0-246.0-0.0","29252767","wem/bandit_single","A3U74S280Z4B0","pain","3","","74","J","1","","0","0","1","","0.3890753365","false","209","","0.1129838087","main_expt","","0.3890753365","","0.1269527993","","0.04040360689","","","","","",""
"141","","bandit","285","772107","0.0-247.0-0.0","29252767","wem/bandit_single","A3U74S280Z4B0","pain","3","","74","J","1","","0","0","1","","0.3792373644","false","210","","0.1562804612","main_expt","","0.3792373644","","0.1114377498","","0.02069644656","","","","","",""
"95","","bandit","286","774003","0.0-248.0-0.0","29252767","wem/bandit_single","A3U74S280Z4B0","pain","3","","74","J","1","","0","1","0","","0.3780611868","false","211","","0.1363837251","main_expt","","0.3780611868","","0.1155820846","","0.03173395488","","","","","",""
"286","","bandit","287","776066","0.0-249.0-0.0","29252767","wem/bandit_single","A3U74S280Z4B0","pain","3","","74","J","1","","0","0","1","","0.3483689532","false","212","","0.09358237554","main_expt","","0.3483689532","","0.1553323518","","0.02469601981","","","","","",""
"364","","bandit","288","778203","0.0-250.0-0.0","29252767","wem/bandit_single","A3U74S280Z4B0","pain","3","","74","J","1","","0","0","1","","0.2874103991","false","213","","0.05743859841","main_expt","","0.2874103991","","0.2062901667","","0.04258417901","","","","","",""
"91","","bandit","289","780060","0.0-251.0-0.0","29252767","wem/bandit_single","A3U74S280Z4B0","pain","3","","74","J","1","","0","0","1","","0.2620706088","false","214","","0.05800100084","main_expt","","0.2620706088","","0.2076956631","","0.05493755721","","","","","",""
"47","","bandit","290","781897","0.0-252.0-0.0","29252767","wem/bandit_single","A3U74S280Z4B0","pain","3","","75","K","2","","0","0","1","","0.2609492508","false","215","","0.05413405856","main_expt","","0.2855520155","","0.2609492508","","0.08978059799","","","","","",""
"73","","bandit","291","783754","0.0-253.0-0.0","29252767","wem/bandit_single","A3U74S280Z4B0","pain","3","","75","K","2","","0","1","0","","0.2500101786","false","216","","0.03942357166","main_expt","","0.2916786734","","0.2500101786","","0.09809121306","","","","","",""
"131","","bandit","292","785683","0.0-254.0-0.0","29252767","wem/bandit_single","A3U74S280Z4B0","pain","3","","75","K","2","","0","0","1","","0.2748248586","false","217","","0.03801572204","main_expt","","0.2823685681","","0.2748248586","","0.1427848958","","","","","",""
"145","","bandit","293","787614","0.0-255.0-0.0","29252767","wem/bandit_single","A3U74S280Z4B0","pain","3","","75","K","2","","0","0","1","","0.311954441","false","218","","0.03890441123","main_expt","","0.2423520158","","0.311954441","","0.1570322525","","","","","",""
"73","","bandit","294","789484","0.0-256.0-0.0","29252767","wem/bandit_single","A3U74S280Z4B0","pain","3","","75","K","2","","0","1","0","","0.3632760336","false","219","","0.01887456362","main_expt","","0.2949403562","","0.3632760336","","0.1805036953","","","","","",""
"177","","bandit","295","791451","0.0-257.0-0.0","29252767","wem/bandit_single","A3U74S280Z4B0","pain","3","","75","K","2","","0","0","1","","0.3369908474","false","220","","0.02149820142","main_expt","","0.3123592507","","0.3369908474","","0.1305519061","","","","","",""
"190","","bandit","296","793433","0.0-258.0-0.0","29252767","wem/bandit_single","A3U74S280Z4B0","pain","3","","75","K","2","","0","1","0","","0.3047504054","false","221","","0.03528878979","main_expt","","0.3184432139","","0.3047504054","","0.09039333473","","","","","",""
"376","","bandit","297","795574","0.0-259.0-0.0","29252767","wem/bandit_single","A3U74S280Z4B0","pain","3","","75","K","2","","0","1","0","","0.3107799438","false","222","","0.03906528797","main_expt","","0.3596246423","","0.3107799438","","0.0801847008","","","","","",""
"62","","bandit","298","797400","0.0-260.0-0.0","29252767","wem/bandit_single","A3U74S280Z4B0","pain","3","","75","K","2","","0","1","0","","0.3359374044","false","223","","0.04285152396","main_expt","","0.3048299186","","0.3359374044","","0.08930296305","","","","","",""
"219","","bandit","299","799389","0.0-261.0-0.0","29252767","wem/bandit_single","A3U74S280Z4B0","pain","3","","75","K","2","","0","1","0","","0.354776332","false","224","","0.03308098724","main_expt","","0.3097637171","","0.354776332","","0.0783544472","","","","","",""
"357","","bandit","300","801546","0.0-262.0-0.0","29252767","wem/bandit_single","A3U74S280Z4B0","pain","3","","75","K","2","","0","0","1","","0.3747964846","false","225","","0.03318257961","main_expt","","0.3313621339","","0.3747964846","","0.05733223117","","","","","",""
"98","","bandit","301","803435","0.0-263.0-0.0","29252767","wem/bandit_single","A3U74S280Z4B0","pain","3","","75","K","2","","0","1","0","","0.3530330239","false","226","","0.02568716964","main_expt","","0.2611013425","","0.3530330239","","0.09472546141","","","","","",""
"787","","bandit","302","806010","0.0-264.0-0.0","29252767","wem/bandit_single","A3U74S280Z4B0","pain","3","","75","K","2","","0","1","0","","0.3299445106","false","227","","0.03534330031","main_expt","","0.2761398934","","0.3299445106","","0.08353253247","","","","","",""
"802","","bandit","303","808598","0.0-265.0-0.0","29252767","wem/bandit_single","A3U74S280Z4B0","pain","3","","75","K","2","","0","0","1","","0.3286020352","false","228","","0.03702628412","main_expt","","0.2358148364","","0.3286020352","","0.06220105415","","","","","",""
"571","","bandit","304","810938","0.0-266.0-0.0","29252767","wem/bandit_single","A3U74S280Z4B0","pain","3","","75","K","2","","0","0","1","","0.3178943429","false","229","","0.03077125553","main_expt","","0.2091128555","","0.3178943429","","0.06639782905","","","","","",""
"297","","bandit","305","812998","0.0-267.0-0.0","29252767","wem/bandit_single","A3U74S280Z4B0","pain","3","","75","K","2","","0","0","1","","0.3254915512","false","230","","0.03752036101","main_expt","","0.181986641","","0.3254915512","","0.07029464087","","","","","",""
"61","","bandit","306","814821","0.0-268.0-0.0","29252767","wem/bandit_single","A3U74S280Z4B0","pain","3","","75","K","2","","0","0","1","","0.3298497064","false","231","","0.02736090244","main_expt","","0.1599443191","","0.3298497064","","0.07612781315","","","","","",""
"40","","bandit","307","816649","0.0-269.0-0.0","29252767","wem/bandit_single","A3U74S280Z4B0","pain","3","","75","K","2","","0","0","1","","0.300331178","false","232","","0.02154887034","main_expt","","0.125214013","","0.300331178","","0.04325191911","","","","","",""
"9","","bandit","308","818458","0.0-270.0-0.0","29252767","wem/bandit_single","A3U74S280Z4B0","pain","3","","76","L","3","","0","0","1","","0.04039924652","false","233","","0.0228348974","main_expt","","0.134118517","","0.3357562734","","0.04039924652","","","","","",""
"62","","bandit","309","820316","0.0-271.0-0.0","29252767","wem/bandit_single","A3U74S280Z4B0","pain","3","","76","L","3","","0","0","1","","0.0435796211","false","234","","0.01030782054","main_expt","","0.1238594142","","0.3257461803","","0.0435796211","","","","","",""
"31","","bandit","310","822123","0.0-272.0-0.0","29252767","wem/bandit_single","A3U74S280Z4B0","pain","3","","72","H","0","img/none_selected.jpg","0","0","1","","0.02615737471","false","235","","0.02615737471","main_expt","","0.1141846942","","0.3534766227","","0.02315237623","","","","","",""
"46","","bandit","311","823959","0.0-273.0-0.0","29252767","wem/bandit_single","A3U74S280Z4B0","pain","3","","72","H","0","img/none_selected.jpg","0","0","1","","0.0224272094","false","236","","0.0224272094","main_expt","","0.1101280349","","0.3733068719","","0.02010779399","","","","","",""
"25","","bandit","312","825759","0.0-274.0-0.0","29252767","wem/bandit_single","A3U74S280Z4B0","pain","3","","72","H","0","img/none_selected.jpg","0","0","1","","0.02679999918","false","237","","0.02679999918","main_expt","","0.09079266978","","0.4105295152","","0.01796146932","","","","","",""
"7","","bandit","313","827577","0.0-275.0-0.0","29252767","wem/bandit_single","A3U74S280Z4B0","pain","3","","74","J","1","","0","0","1","","0.1365862295","false","238","","0.07542988795","main_expt","","0.1365862295","","0.4225156592","","0.0167141813","","","","","",""
"36","","bandit","314","829381","0.0-276.0-0.0","29252767","wem/bandit_single","A3U74S280Z4B0","pain","3","","74","J","1","","0","0","1","","0.1846819155","false","239","","0.09772903","main_expt","","0.1846819155","","0.4360895212","","0.03283355296","","","","","",""
"254","","bandit","315","831401","0.0-277.0-0.0","29252767","wem/bandit_single","A3U74S280Z4B0","pain","3","","74","J","1","","0","0","1","","0.1795044078","false","240","","0.1044145256","main_expt","","0.1795044078","","0.423514393","","0.05325110434","","","","","",""
"25","","bandit","316","833211","0.0-278.0-0.0","29252767","wem/bandit_single","A3U74S280Z4B0","pain","3","","74","J","1","","0","0","1","","0.1522343712","false","241","","0.109937241","main_expt","","0.1522343712","","0.3824942702","","0.04551940083","","","","","",""
"967","","bandit","317","835975","0.0-279.0-0.0","29252767","wem/bandit_single","A3U74S280Z4B0","pain","3","","75","K","2","","0","0","1","","0.3758562762","false","242","","0.09239004846","main_expt","","0.1433696576","","0.3758562762","","0.05503183359","","","","","",""
"22","","bandit","318","837772","0.0-280.0-0.0","29252767","wem/bandit_single","A3U74S280Z4B0","pain","3","","75","K","2","","0","0","1","","0.2984655584","false","243","","0.1014218366","main_expt","","0.1427577162","","0.2984655584","","0.04467871076","","","","","",""
"500","","bandit","319","840074","0.0-281.0-0.0","29252767","wem/bandit_single","A3U74S280Z4B0","pain","3","","75","K","2","","0","1","0","","0.2901672904","false","244","","0.192841162","main_expt","","0.1340795621","","0.2901672904","","0.06552455376","","","","","",""
"71","","bandit","320","841949","0.0-282.0-0.0","29252767","wem/bandit_single","A3U74S280Z4B0","pain","3","","75","K","2","","0","0","1","","0.2495050599","false","245","","0.1953250812","main_expt","","0.1469719784","","0.2495050599","","0.1005127954","","","","","",""
"76","","bandit","321","843851","0.0-283.0-0.0","29252767","wem/bandit_single","A3U74S280Z4B0","pain","3","","75","K","2","","0","1","0","","0.2406773486","false","246","","0.1865380945","main_expt","","0.140914489","","0.2406773486","","0.11534406","","","","","",""
"720","","bandit","322","846342","0.0-284.0-0.0","29252767","wem/bandit_single","A3U74S280Z4B0","pain","3","","75","K","2","","0","1","0","","0.2265306157","false","247","","0.221100819","main_expt","","0.1592666071","","0.2265306157","","0.08579934652","","","","","",""
"605","","bandit","323","848714","0.0-285.0-0.0","29252767","wem/bandit_single","A3U74S280Z4B0","pain","3","","75","K","2","","0","0","1","","0.2000380921","false","248","","0.2106100544","main_expt","","0.2210893918","","0.2000380921","","0.08554071629","","","","","",""
"376","","bandit","324","850874","0.0-286.0-0.0","29252767","wem/bandit_single","A3U74S280Z4B0","pain","3","","75","K","2","","0","1","0","","0.1920984986","false","249","","0.2172535859","main_expt","","0.2306666851","","0.1920984986","","0.07137080198","","","","","",""
"487","","bandit","325","853162","0.0-287.0-0.0","29252767","wem/bandit_single","A3U74S280Z4B0","pain","3","","75","K","2","","0","0","1","","0.1624135027","false","250","","0.1953648199","main_expt","","0.2422322172","","0.1624135027","","0.06874505311","","","","","",""
"218","","bandit","326","855178","0.0-288.0-0.0","29252767","wem/bandit_single","A3U74S280Z4B0","pain","3","","75","K","2","","0","0","1","","0.2057369507","false","251","","0.2129795833","main_expt","","0.2425189851","","0.2057369507","","0.04927492375","","","","","",""
"636","","bandit","327","857607","0.0-289.0-0.0","29252767","wem/bandit_single","A3U74S280Z4B0","pain","3","","75","K","2","","0","0","1","","0.26034901","false","252","","0.2271134102","main_expt","","0.1980379423","","0.26034901","","0.0504542679","","","","","",""
"626","","bandit","328","860021","0.0-290.0-0.0","29252767","wem/bandit_single","A3U74S280Z4B0","pain","3","","75","K","2","","0","0","1","","0.1886300366","false","253","","0.2152809257","main_expt","","0.2040952335","","0.1886300366","","0.0313618618","","","","","",""
"276","","bandit","329","862072","0.0-291.0-0.0","29252767","wem/bandit_single","A3U74S280Z4B0","pain","3","","75","K","2","","0","0","1","","0.1978078828","false","254","","0.2065685424","main_expt","","0.1621407843","","0.1978078828","","0.0191685034","","","","","",""
"86","","bandit","330","863925","0.0-292.0-0.0","29252767","wem/bandit_single","A3U74S280Z4B0","pain","3","","72","H","0","img/none_selected.jpg","0","0","1","","0.2000715388","false","255","","0.2000715388","main_expt","","0.1817956319","","0.1544468143","","0.01882474885","","","","","",""
"250","","bandit","331","865945","0.0-293.0-0.0","29252767","wem/bandit_single","A3U74S280Z4B0","pain","3","","72","H","0","img/none_selected.jpg","0","1","0","","0.1997851389","false","256","","0.1997851389","main_expt","","0.1796151025","","0.1552120094","","0.01765542058","","","","","",""
"427","","bandit","332","868169","0.0-294.0-0.0","29252767","wem/bandit_single","A3U74S280Z4B0","pain","3","","72","H","0","img/none_selected.jpg","0","0","1","","0.1965173465","false","257","","0.1965173465","main_expt","","0.1874922979","","0.1337291471","","0.0162265086","","","","","",""
"146","","bandit","333","870102","0.0-295.0-0.0","29252767","wem/bandit_single","A3U74S280Z4B0","pain","3","","72","H","0","img/none_selected.jpg","0","0","1","","0.1816932188","false","258","","0.1816932188","main_expt","","0.2152410464","","0.1279332347","","0.01630278654","","","","","",""
"117","","bandit","334","871995","0.0-296.0-0.0","29252767","wem/bandit_single","A3U74S280Z4B0","pain","3","","72","H","0","img/none_selected.jpg","0","0","1","","0.2275026539","false","259","","0.2275026539","main_expt","","0.2311433436","","0.152418206","","0.0149919991","","","","","",""
"50","","bandit","335","873854","0.0-297.0-0.0","29252767","wem/bandit_single","A3U74S280Z4B0","pain","3","","72","H","0","img/none_selected.jpg","0","1","0","","0.1798156178","false","260","","0.1798156178","main_expt","","0.1621257941","","0.1100328583","","0.02225913397","","","","","",""
"399","","bandit","336","876066","0.0-298.0-0.0","29252767","wem/bandit_single","A3U74S280Z4B0","pain","3","","72","H","0","img/none_selected.jpg","0","0","1","","0.187122726","false","261","","0.187122726","main_expt","","0.1219102136","","0.1537012171","","0.02865634389","","","","","",""
"217","","bandit","337","878072","0.0-299.0-0.0","29252767","wem/bandit_single","A3U74S280Z4B0","pain","3","","72","H","0","img/none_selected.jpg","0","0","1","","0.1507521212","false","262","","0.1507521212","main_expt","","0.1667536199","","0.1302597035","","0.03173788073","","","","","",""
"115","","bandit","338","879955","0.0-300.0-0.0","29252767","wem/bandit_single","A3U74S280Z4B0","pain","3","","72","H","0","img/none_selected.jpg","0","0","1","","0.1374951011","false","263","","0.1374951011","main_expt","","0.1361259709","","0.1297736826","","0.04250990858","","","","","",""
"62","","bandit","339","881780","0.0-301.0-0.0","29252767","wem/bandit_single","A3U74S280Z4B0","pain","3","","72","H","0","img/none_selected.jpg","0","0","1","","0.1158818852","false","264","","0.1158818852","main_expt","","0.1217381733","","0.1326654045","","0.056503948","","","","","",""
"91","","bandit","340","883640","0.0-302.0-0.0","29252767","wem/bandit_single","A3U74S280Z4B0","pain","3","","74","J","1","","0","0","1","","0.1258265959","false","265","","0.1147359408","main_expt","","0.1258265959","","0.1586413096","","0.07592662832","","","","","",""
"105","","bandit","341","885541","0.0-303.0-0.0","29252767","wem/bandit_single","A3U74S280Z4B0","pain","3","","74","J","1","","0","0","1","","0.1445769791","false","266","","0.09491002089","main_expt","","0.1445769791","","0.1496521415","","0.1002340293","","","","","",""
"122","","bandit","342","887435","0.0-304.0-0.0","29252767","wem/bandit_single","A3U74S280Z4B0","pain","3","","74","J","1","","0","0","1","","0.1014120844","false","267","","0.1181284109","main_expt","","0.1014120844","","0.1410052581","","0.1526998269","","","","","",""
"191","","bandit","343","889417","0.0-305.0-0.0","29252767","wem/bandit_single","A3U74S280Z4B0","pain","3","","75","K","2","","0","0","1","","0.145208313","false","268","","0.1054434992","main_expt","","0.06386630904","","0.145208313","","0.1340815566","","","","","",""
"383","","bandit","344","891592","0.0-306.0-0.0","29252767","wem/bandit_single","A3U74S280Z4B0","pain","3","","75","K","2","","0","0","1","","0.1387339362","false","269","","0.1307900039","main_expt","","0.03725778621","","0.1387339362","","0.1350059692","","","","","",""
"59","","bandit","345","893447","0.0-307.0-0.0","29252767","wem/bandit_single","A3U74S280Z4B0","pain","3","","75","K","2","","0","0","1","","0.1822325734","false","270","","0.1444746669","main_expt","","0.02825676517","","0.1822325734","","0.1008257698","","","","","",""
"1653","","bandit","346","896901","0.0-308.0-0.0","29252767","wem/bandit_single","A3U74S280Z4B0","pain","3","","75","K","2","","0","1","0","","0.1752825828","false","271","","0.1622504114","main_expt","","0.02967844624","","0.1752825828","","0.1257425884","","","","","",""
"225","","bandit","347","898900","0.0-309.0-0.0","29252767","wem/bandit_single","A3U74S280Z4B0","pain","3","","75","K","2","","0","0","1","","0.1572277832","false","272","","0.1814673171","main_expt","","0.03051557875","","0.1572277832","","0.1363444874","","","","","",""
"73","","bandit","348","900743","0.0-310.0-0.0","29252767","wem/bandit_single","A3U74S280Z4B0","pain","3","","75","K","2","","0","0","1","","0.1609880977","false","273","","0.1930303076","main_expt","","0.0408401102","","0.1609880977","","0.1090842693","","","","","",""
"152","","bandit","349","902697","0.0-311.0-0.0","29252767","wem/bandit_single","A3U74S280Z4B0","pain","3","","75","K","2","","0","1","0","","0.2228580822","false","274","","0.1704680895","main_expt","","0.03240614182","","0.2228580822","","0.1397265487","","","","","",""
"410","","bandit","350","904904","0.0-312.0-0.0","29252767","wem/bandit_single","A3U74S280Z4B0","pain","3","","75","K","2","","0","0","1","","0.2126640298","false","275","","0.1785534293","main_expt","","0.04120982645","","0.2126640298","","0.210641606","","","","","",""
"74","","bandit","351","906759","0.0-313.0-0.0","29252767","wem/bandit_single","A3U74S280Z4B0","pain","3","","75","K","2","","0","0","1","","0.2006548762","false","276","","0.1843971019","main_expt","","0.04353307789","","0.2006548762","","0.1523626192","","","","","",""
"179","","bandit","352","908743","0.0-314.0-0.0","29252767","wem/bandit_single","A3U74S280Z4B0","pain","3","","75","K","2","","0","0","1","","0.1986275587","false","277","","0.2042268453","main_expt","","0.0172565486","","0.1986275587","","0.16102954","","","","","",""
"39","","bandit","353","910583","0.0-315.0-0.0","29252767","wem/bandit_single","A3U74S280Z4B0","pain","3","","75","K","2","","0","0","1","","0.1321506531","false","278","","0.1609113936","main_expt","","0.02582715814","","0.1321506531","","0.1166001048","","","","","",""
"269","","bandit","354","912662","0.0-316.0-0.0","29252767","wem/bandit_single","A3U74S280Z4B0","pain","3","","76","L","3","","0","0","1","","0.1427402012","false","279","","0.1604878733","main_expt","","0.03609925784","","0.2112193978","","0.1427402012","","","","","",""
"74","","bandit","355","914502","0.0-317.0-0.0","29252767","wem/bandit_single","A3U74S280Z4B0","pain","3","","76","L","3","","0","0","1","","0.1524149458","false","280","","0.1678567182","main_expt","","0.02629944548","","0.1872216356","","0.1524149458","","","","","",""
"202","","bandit","356","916468","0.0-318.0-0.0","29252767","wem/bandit_single","A3U74S280Z4B0","pain","3","","76","L","3","","0","1","0","","0.1638207856","false","281","","0.1338700362","main_expt","","0.01890368782","","0.1635487084","","0.1638207856","","","","","",""
"652","","bandit","357","918919","0.0-319.0-0.0","29252767","wem/bandit_single","A3U74S280Z4B0","pain","3","","76","L","3","","0","0","1","","0.1055747009","false","282","","0.2010661714","main_expt","","0.01508823693","","0.1576359327","","0.1055747009","","","","","",""
"106","","bandit","358","920824","0.0-320.0-0.0","29252767","wem/bandit_single","A3U74S280Z4B0","pain","3","","76","L","3","","0","1","0","","0.1121395768","false","283","","0.1763159594","main_expt","","0.01359220223","","0.21861051","","0.1121395768","","","","","",""
"192","","bandit","359","922808","0.0-321.0-0.0","29252767","wem/bandit_single","A3U74S280Z4B0","pain","3","","76","L","3","","0","1","0","","0.1110051372","false","284","","0.2379754842","main_expt","","0.01691173417","","0.180487154","","0.1110051372","","","","","",""
"65","","bandit","360","924660","0.0-322.0-0.0","29252767","wem/bandit_single","A3U74S280Z4B0","pain","3","","76","L","3","","0","0","1","","0.1746572204","false","285","","0.2769670592","main_expt","","0.01734240677","","0.1641106304","","0.1746572204","","","","","",""
"92","","bandit","361","926518","0.0-323.0-0.0","29252767","wem/bandit_single","A3U74S280Z4B0","pain","3","","76","L","3","","0","0","1","","0.2038956484","false","286","","0.3002963297","main_expt","","0.01574531315","","0.1866508097","","0.2038956484","","","","","",""
"46","","bandit","362","928344","0.0-324.0-0.0","29252767","wem/bandit_single","A3U74S280Z4B0","pain","3","","76","L","3","","0","0","1","","0.2396876396","false","287","","0.2804215723","main_expt","","0.011703364","","0.1339791425","","0.2396876396","","","","","",""
"90","","bandit","363","930231","0.0-325.0-0.0","29252767","wem/bandit_single","A3U74S280Z4B0","pain","3","","76","L","3","","0","0","1","","0.2300823482","false","288","","0.2873948651","main_expt","","0.01499165326","","0.1910191906","","0.2300823482","","","","","",""
"359","","bandit","364","932370","0.0-326.0-0.0","29252767","wem/bandit_single","A3U74S280Z4B0","pain","3","","72","H","0","img/none_selected.jpg","0","1","0","","0.3383825142","false","289","","0.3383825142","main_expt","","0.01307353483","","0.1987886011","","0.2697946193","","","","","",""
"24","","bandit","365","934163","0.0-327.0-0.0","29252767","wem/bandit_single","A3U74S280Z4B0","pain","3","","72","H","0","img/none_selected.jpg","0","1","0","","0.3597664772","false","290","","0.3597664772","main_expt","","0.005839555229","","0.2163493667","","0.3030113395","","","","","",""
"178","","bandit","366","936134","0.0-328.0-0.0","29252767","wem/bandit_single","A3U74S280Z4B0","pain","3","","72","H","0","img/none_selected.jpg","0","0","1","","0.3684517111","false","291","","0.3684517111","main_expt","","0.00760433752","","0.1987756658","","0.2903670118","","","","","",""
"51","","bandit","367","937973","0.0-329.0-0.0","29252767","wem/bandit_single","A3U74S280Z4B0","pain","3","","72","H","0","img/none_selected.jpg","0","0","1","","0.3471931258","false","292","","0.3471931258","main_expt","","0.01807310376","","0.1996771378","","0.3219279298","","","","","",""
"73","","bandit","368","939848","0.0-330.0-0.0","29252767","wem/bandit_single","A3U74S280Z4B0","pain","3","","72","H","0","img/none_selected.jpg","0","0","1","","0.3742872252","false","293","","0.3742872252","main_expt","","0.02882206876","","0.2067525645","","0.2585416619","","","","","",""
"99","","bandit","369","941751","0.0-331.0-0.0","29252767","wem/bandit_single","A3U74S280Z4B0","pain","3","","72","H","0","img/none_selected.jpg","0","1","0","","0.3937541296","false","294","","0.3937541296","main_expt","","0.02728804169","","0.230585761","","0.3093607287","","","","","",""
"138","","bandit","370","943688","0.0-332.0-0.0","29252767","wem/bandit_single","A3U74S280Z4B0","pain","3","","72","H","0","img/none_selected.jpg","0","0","1","","0.3331550888","false","295","","0.3331550888","main_expt","","0.01545304162","","0.1936278336","","0.315069057","","","","","",""
"17","","bandit","371","945493","0.0-333.0-0.0","29252767","wem/bandit_single","A3U74S280Z4B0","pain","3","","72","H","0","img/none_selected.jpg","0","0","1","","0.3564327955","false","296","","0.3564327955","main_expt","","0.01463146341","","0.1733248866","","0.3556215031","","","","","",""
"67","","bandit","372","947363","0.0-334.0-0.0","29252767","wem/bandit_single","A3U74S280Z4B0","pain","3","","72","H","0","img/none_selected.jpg","0","1","0","","0.3344242189","false","297","","0.3344242189","main_expt","","0.03487584845","","0.1762096585","","0.3380436511","","","","","",""
"244","","bandit","373","949383","0.0-335.0-0.0","29252767","wem/bandit_single","A3U74S280Z4B0","pain","3","","72","H","0","img/none_selected.jpg","0","0","1","","0.3434582948","false","298","","0.3434582948","main_expt","","0.04917346329","","0.176801175","","0.347815101","","","","","",""
