"rt","responses","trial_type","trial_index","time_elapsed","internal_node_id","subjID","study","MID","cond","drift","key_press","respCharCode","respKey","respChoiceNum","respChoice","gems","bombs","no_reward","GemPrChosen","BombPrChosen","practice","trial_counter","WinPr_0","LosePr_0","trial_label","WinPr_1","LosePr_1","WinPr_2","LosePr_2","WinPr_3","LosePr_3","Q0","Q1","Q2","gender","age","ethnicity"
"20652","{""Q0"":""A23BMD8M0RLV77""}","survey-text","0","20660","0.0-0.0","29289683","wem/bandit_single","A23BMD8M0RLV77","gain","2","","","","","","","","","","","","","","","","","","","","","","","","","","",""
"2603","","text","1","24268","0.0-1.0","29289683","wem/bandit_single","A23BMD8M0RLV77","gain","2","32","","","","","","","","","","","","","","","","","","","","","","","","","",""
"6543","","text","2","30812","0.0-2.0","29289683","wem/bandit_single","A23BMD8M0RLV77","gain","2","32","","","","","","","","","","","","","","","","","","","","","","","","","",""
"24529","","text","3","55344","0.0-3.0","29289683","wem/bandit_single","A23BMD8M0RLV77","gain","2","32","","","","","","","","","","","","","","","","","","","","","","","","","",""
"26094","","text","4","81441","0.0-4.0","29289683","wem/bandit_single","A23BMD8M0RLV77","gain","2","32","","","","","","","","","","","","","","","","","","","","","","","","","",""
"9425","","text","5","90868","0.0-5.0","29289683","wem/bandit_single","A23BMD8M0RLV77","gain","2","32","","","","","","","","","","","","","","","","","","","","","","","","","",""
"8602","","text","6","99472","0.0-6.0","29289683","wem/bandit_single","A23BMD8M0RLV77","gain","2","32","","","","","","","","","","","","","","","","","","","","","","","","","",""
"12597","","text","7","112071","0.0-7.0","29289683","wem/bandit_single","A23BMD8M0RLV77","gain","2","32","","","","","","","","","","","","","","","","","","","","","","","","","",""
"3298","","text","8","115372","0.0-8.0","29289683","wem/bandit_single","A23BMD8M0RLV77","gain","2","32","","","","","","","","","","","","","","","","","","","","","","","","","",""
"2645","","text","9","118019","0.0-9.0","29289683","wem/bandit_single","A23BMD8M0RLV77","gain","2","32","","","","","","","","","","","","","","","","","","","","","","","","","",""
"5759","","text","10","123781","0.0-10.0","29289683","wem/bandit_single","A23BMD8M0RLV77","gain","2","32","","","","","","","","","","","","","","","","","","","","","","","","","",""
"5493","","text","11","129276","0.0-11.0","29289683","wem/bandit_single","A23BMD8M0RLV77","gain","2","32","","","","","","","","","","","","","","","","","","","","","","","","","",""
"1415","","bandit","12","132218","0.0-12.0-0.0","29289683","wem/bandit_single","A23BMD8M0RLV77","gain","2","","74","J","0","img/none_selected_demo.jpg","0","0","1","0","0","true","0","0","0","","","","","","","","","","","","",""
"880","","bandit","13","134868","0.0-13.0-0.0","29289683","wem/bandit_single","A23BMD8M0RLV77","gain","2","","75","K","0","img/none_selected_demo.jpg","0","0","1","0","0","true","0","0","0","","","","","","","","","","","","",""
"3744","","text","14","138875","0.0-14.0","29289683","wem/bandit_single","A23BMD8M0RLV77","gain","2","32","","","","","","","","","","","","","","","","","","","","","","","","","",""
"3311","","text","15","142188","0.0-15.0","29289683","wem/bandit_single","A23BMD8M0RLV77","gain","2","32","","","","","","","","","","","","","","","","","","","","","","","","","",""
"3928","","text","16","146119","0.0-16.0","29289683","wem/bandit_single","A23BMD8M0RLV77","gain","2","32","","","","","","","","","","","","","","","","","","","","","","","","","",""
"3063","","text","17","149188","0.0-17.0","29289683","wem/bandit_single","A23BMD8M0RLV77","gain","2","32","","","","","","","","","","","","","","","","","","","","","","","","","",""
"1612","","bandit","18","152321","0.0-18.0-0.0","29289683","wem/bandit_single","A23BMD8M0RLV77","gain","2","","74","J","0","img/none_selected_demo.jpg","0","0","1","0.8","0","true","0","0.8","0","80_20_practice","0.2","0","","","","","","","","","",""
"363","","bandit","19","154458","0.0-18.0-1.0","29289683","wem/bandit_single","A23BMD8M0RLV77","gain","2","","74","J","0","img/none_selected_demo.jpg","1","0","0","0.8","0","true","0","0.8","0","80_20_practice","0.2","0","","","","","","","","","",""
"111","","bandit","20","156346","0.0-18.0-2.0","29289683","wem/bandit_single","A23BMD8M0RLV77","gain","2","","74","J","0","img/none_selected_demo.jpg","0","0","1","0.8","0","true","0","0.8","0","80_20_practice","0.2","0","","","","","","","","","",""
"2031","","bandit","21","160157","0.0-18.0-3.0","29289683","wem/bandit_single","A23BMD8M0RLV77","gain","2","","75","K","1","","1","0","0","0.2","0","true","0","0.8","0","80_20_practice","0.2","0","","","","","","","","","",""
"70","","bandit","22","162009","0.0-18.0-4.0","29289683","wem/bandit_single","A23BMD8M0RLV77","gain","2","","75","K","1","","0","0","1","0.2","0","true","0","0.8","0","80_20_practice","0.2","0","","","","","","","","","",""
"142","","bandit","23","163908","0.0-18.0-5.0","29289683","wem/bandit_single","A23BMD8M0RLV77","gain","2","","75","K","1","","0","0","1","0.2","0","true","0","0.8","0","80_20_practice","0.2","0","","","","","","","","","",""
"1695","","bandit","24","167377","0.0-18.0-6.0","29289683","wem/bandit_single","A23BMD8M0RLV77","gain","2","","75","K","1","","0","0","1","0.2","0","true","0","0.8","0","80_20_practice","0.2","0","","","","","","","","","",""
"190","","bandit","25","169334","0.0-18.0-7.0","29289683","wem/bandit_single","A23BMD8M0RLV77","gain","2","","75","K","1","","0","0","1","0.2","0","true","0","0.8","0","80_20_practice","0.2","0","","","","","","","","","",""
"232","","bandit","26","171340","0.0-18.0-8.0","29289683","wem/bandit_single","A23BMD8M0RLV77","gain","2","","74","J","0","img/none_selected_demo.jpg","1","0","0","0.8","0","true","0","0.8","0","80_20_practice","0.2","0","","","","","","","","","",""
"278","","bandit","27","173402","0.0-18.0-9.0","29289683","wem/bandit_single","A23BMD8M0RLV77","gain","2","","74","J","0","img/none_selected_demo.jpg","1","0","0","0.8","0","true","0","0.8","0","80_20_practice","0.2","0","","","","","","","","","",""
"81","","bandit","28","175254","0.0-18.0-10.0","29289683","wem/bandit_single","A23BMD8M0RLV77","gain","2","","74","J","0","img/none_selected_demo.jpg","1","0","0","0.8","0","true","0","0.8","0","80_20_practice","0.2","0","","","","","","","","","",""
"1058","","bandit","29","178133","0.0-18.0-11.0","29289683","wem/bandit_single","A23BMD8M0RLV77","gain","2","","74","J","0","img/none_selected_demo.jpg","1","0","0","0.8","0","true","0","0.8","0","80_20_practice","0.2","0","","","","","","","","","",""
"338","","bandit","30","180241","0.0-18.0-12.0","29289683","wem/bandit_single","A23BMD8M0RLV77","gain","2","","74","J","0","img/none_selected_demo.jpg","0","0","1","0.8","0","true","0","0.8","0","80_20_practice","0.2","0","","","","","","","","","",""
"68","","bandit","31","182072","0.0-18.0-13.0","29289683","wem/bandit_single","A23BMD8M0RLV77","gain","2","","74","J","0","img/none_selected_demo.jpg","1","0","0","0.8","0","true","0","0.8","0","80_20_practice","0.2","0","","","","","","","","","",""
"87","","bandit","32","183939","0.0-18.0-14.0","29289683","wem/bandit_single","A23BMD8M0RLV77","gain","2","","74","J","0","img/none_selected_demo.jpg","0","0","1","0.8","0","true","0","0.8","0","80_20_practice","0.2","0","","","","","","","","","",""
"172","","bandit","33","185894","0.0-18.0-15.0","29289683","wem/bandit_single","A23BMD8M0RLV77","gain","2","","74","J","0","img/none_selected_demo.jpg","1","0","0","0.8","0","true","0","0.8","0","80_20_practice","0.2","0","","","","","","","","","",""
"261","","bandit","34","187939","0.0-18.0-16.0","29289683","wem/bandit_single","A23BMD8M0RLV77","gain","2","","74","J","0","img/none_selected_demo.jpg","1","0","0","0.8","0","true","0","0.8","0","80_20_practice","0.2","0","","","","","","","","","",""
"231","","bandit","35","189958","0.0-18.0-17.0","29289683","wem/bandit_single","A23BMD8M0RLV77","gain","2","","74","J","0","img/none_selected_demo.jpg","1","0","0","0.8","0","true","0","0.8","0","80_20_practice","0.2","0","","","","","","","","","",""
"864","","bandit","36","192593","0.0-18.0-18.0","29289683","wem/bandit_single","A23BMD8M0RLV77","gain","2","","74","J","0","img/none_selected_demo.jpg","1","0","0","0.8","0","true","0","0.8","0","80_20_practice","0.2","0","","","","","","","","","",""
"315","","bandit","37","194687","0.0-18.0-19.0","29289683","wem/bandit_single","A23BMD8M0RLV77","gain","2","","74","J","0","img/none_selected_demo.jpg","1","0","0","0.8","0","true","0","0.8","0","80_20_practice","0.2","0","","","","","","","","","",""
"5266","","text","38","200220","0.0-19.0","29289683","wem/bandit_single","A23BMD8M0RLV77","gain","2","32","","","","","","","","","","","","","","","","","","","","","","","","","",""
"1157","","bandit","39","202894","0.0-20.0-0.0","29289683","wem/bandit_single","A23BMD8M0RLV77","gain","2","","74","J","0","img/none_selected_demo.jpg","0","0","1","0","0","true","0","0","0","","0","0","","","","","","","","","",""
"7633","","text","40","210821","0.0-21.0","29289683","wem/bandit_single","A23BMD8M0RLV77","gain","2","32","","","","","","","","","","","","","","","","","","","","","","","","","",""
"4175","","text","41","214999","0.0-22.0","29289683","wem/bandit_single","A23BMD8M0RLV77","gain","2","32","","","","","","","","","","","","","","","","","","","","","","","","","",""
"6265","","text","42","221268","0.0-23.0","29289683","wem/bandit_single","A23BMD8M0RLV77","gain","2","32","","","","","","","","","","","","","","","","","","","","","","","","","",""
"3461","","text","43","224732","0.0-24.0","29289683","wem/bandit_single","A23BMD8M0RLV77","gain","2","32","","","","","","","","","","","","","","","","","","","","","","","","","",""
"9253","","text","44","233988","0.0-25.0","29289683","wem/bandit_single","A23BMD8M0RLV77","gain","2","32","","","","","","","","","","","","","","","","","","","","","","","","","",""
"3830","","text","45","237820","0.0-26.0","29289683","wem/bandit_single","A23BMD8M0RLV77","gain","2","32","","","","","","","","","","","","","","","","","","","","","","","","","",""
"8421","","text","46","246244","0.0-27.0","29289683","wem/bandit_single","A23BMD8M0RLV77","gain","2","32","","","","","","","","","","","","","","","","","","","","","","","","","",""
"4125","","text","47","250372","0.0-28.0","29289683","wem/bandit_single","A23BMD8M0RLV77","gain","2","32","","","","","","","","","","","","","","","","","","","","","","","","","",""
"5347","","text","48","255724","0.0-29.0","29289683","wem/bandit_single","A23BMD8M0RLV77","gain","2","32","","","","","","","","","","","","","","","","","","","","","","","","","",""
"2296","","text","49","258023","0.0-30.0","29289683","wem/bandit_single","A23BMD8M0RLV77","gain","2","32","","","","","","","","","","","","","","","","","","","","","","","","","",""
"1402","","text","50","259428","0.0-31.0","29289683","wem/bandit_single","A23BMD8M0RLV77","gain","2","32","","","","","","","","","","","","","","","","","","","","","","","","","",""
"746","","bandit","51","261703","0.0-32.0-0.0","29289683","wem/bandit_single","A23BMD8M0RLV77","gain","2","","72","H","0","img/none_selected.jpg","1","0","0","0.8","0","true","0","0.8","0","full_practice","0.2","0","0.6","0","0.2","0","","","","","",""
"13","","bandit","52","263483","0.0-32.0-1.0","29289683","wem/bandit_single","A23BMD8M0RLV77","gain","2","","72","H","0","img/none_selected.jpg","0","0","1","0.8","0","true","0","0.8","0","full_practice","0.2","0","0.6","0","0.2","0","","","","","",""
"891","","bandit","53","266149","0.0-32.0-2.0","29289683","wem/bandit_single","A23BMD8M0RLV77","gain","2","","72","H","0","img/none_selected.jpg","1","0","0","0.8","0","true","0","0.8","0","full_practice","0.2","0","0.6","0","0.2","0","","","","","",""
"106","","bandit","54","268039","0.0-32.0-3.0","29289683","wem/bandit_single","A23BMD8M0RLV77","gain","2","","72","H","0","img/none_selected.jpg","1","0","0","0.8","0","true","0","0.8","0","full_practice","0.2","0","0.6","0","0.2","0","","","","","",""
"57","","bandit","55","269872","0.0-32.0-4.0","29289683","wem/bandit_single","A23BMD8M0RLV77","gain","2","","72","H","0","img/none_selected.jpg","1","0","0","0.8","0","true","0","0.8","0","full_practice","0.2","0","0.6","0","0.2","0","","","","","",""
"86","","bandit","56","271725","0.0-32.0-5.0","29289683","wem/bandit_single","A23BMD8M0RLV77","gain","2","","72","H","0","img/none_selected.jpg","1","0","0","0.8","0","true","0","0.8","0","full_practice","0.2","0","0.6","0","0.2","0","","","","","",""
"45","","bandit","57","273595","0.0-32.0-6.0","29289683","wem/bandit_single","A23BMD8M0RLV77","gain","2","","72","H","0","img/none_selected.jpg","0","0","1","0.8","0","true","0","0.8","0","full_practice","0.2","0","0.6","0","0.2","0","","","","","",""
"103","","bandit","58","275471","0.0-32.0-7.0","29289683","wem/bandit_single","A23BMD8M0RLV77","gain","2","","72","H","0","img/none_selected.jpg","1","0","0","0.8","0","true","0","0.8","0","full_practice","0.2","0","0.6","0","0.2","0","","","","","",""
"43","","bandit","59","277278","0.0-32.0-8.0","29289683","wem/bandit_single","A23BMD8M0RLV77","gain","2","","72","H","0","img/none_selected.jpg","1","0","0","0.8","0","true","0","0.8","0","full_practice","0.2","0","0.6","0","0.2","0","","","","","",""
"65","","bandit","60","279118","0.0-32.0-9.0","29289683","wem/bandit_single","A23BMD8M0RLV77","gain","2","","72","H","0","img/none_selected.jpg","1","0","0","0.8","0","true","0","0.8","0","full_practice","0.2","0","0.6","0","0.2","0","","","","","",""
"7","","bandit","61","280904","0.0-32.0-10.0","29289683","wem/bandit_single","A23BMD8M0RLV77","gain","2","","72","H","0","img/none_selected.jpg","1","0","0","0.8","0","true","0","0.8","0","full_practice","0.2","0","0.6","0","0.2","0","","","","","",""
"43","","bandit","62","282723","0.0-32.0-11.0","29289683","wem/bandit_single","A23BMD8M0RLV77","gain","2","","72","H","0","img/none_selected.jpg","1","0","0","0.8","0","true","0","0.8","0","full_practice","0.2","0","0.6","0","0.2","0","","","","","",""
"44","","bandit","63","284542","0.0-32.0-12.0","29289683","wem/bandit_single","A23BMD8M0RLV77","gain","2","","72","H","0","img/none_selected.jpg","1","0","0","0.8","0","true","0","0.8","0","full_practice","0.2","0","0.6","0","0.2","0","","","","","",""
"27","","bandit","64","286332","0.0-32.0-13.0","29289683","wem/bandit_single","A23BMD8M0RLV77","gain","2","","72","H","0","img/none_selected.jpg","1","0","0","0.8","0","true","0","0.8","0","full_practice","0.2","0","0.6","0","0.2","0","","","","","",""
"16","","bandit","65","288131","0.0-32.0-14.0","29289683","wem/bandit_single","A23BMD8M0RLV77","gain","2","","72","H","0","img/none_selected.jpg","1","0","0","0.8","0","true","0","0.8","0","full_practice","0.2","0","0.6","0","0.2","0","","","","","",""
"58","","bandit","66","289977","0.0-32.0-15.0","29289683","wem/bandit_single","A23BMD8M0RLV77","gain","2","","72","H","0","img/none_selected.jpg","1","0","0","0.8","0","true","0","0.8","0","full_practice","0.2","0","0.6","0","0.2","0","","","","","",""
"112","","bandit","67","291881","0.0-32.0-16.0","29289683","wem/bandit_single","A23BMD8M0RLV77","gain","2","","72","H","0","img/none_selected.jpg","1","0","0","0.8","0","true","0","0.8","0","full_practice","0.2","0","0.6","0","0.2","0","","","","","",""
"252","","bandit","68","293898","0.0-32.0-17.0","29289683","wem/bandit_single","A23BMD8M0RLV77","gain","2","","72","H","0","img/none_selected.jpg","1","0","0","0.8","0","true","0","0.8","0","full_practice","0.2","0","0.6","0","0.2","0","","","","","",""
"54","","bandit","69","295735","0.0-32.0-18.0","29289683","wem/bandit_single","A23BMD8M0RLV77","gain","2","","72","H","0","img/none_selected.jpg","0","0","1","0.8","0","true","0","0.8","0","full_practice","0.2","0","0.6","0","0.2","0","","","","","",""
"240","","bandit","70","297772","0.0-32.0-19.0","29289683","wem/bandit_single","A23BMD8M0RLV77","gain","2","","72","H","0","img/none_selected.jpg","0","0","1","0.8","0","true","0","0.8","0","full_practice","0.2","0","0.6","0","0.2","0","","","","","",""
"3718","","text","71","301759","0.0-33.0","29289683","wem/bandit_single","A23BMD8M0RLV77","gain","2","32","","","","","","","","","","","","","","","","","","","","","","","","","",""
"11881","","text","72","314656","0.0-34.0","29289683","wem/bandit_single","A23BMD8M0RLV77","gain","2","32","","","","","","","","","","","","","","","","","","","","","","","","","",""
"4643","","text","73","319306","0.0-35.0","29289683","wem/bandit_single","A23BMD8M0RLV77","gain","2","32","","","","","","","","","","","","","","","","","","","","","","","","","",""
"6795","","text","74","326104","0.0-36.0","29289683","wem/bandit_single","A23BMD8M0RLV77","gain","2","32","","","","","","","","","","","","","","","","","","","","","","","","","",""
"4998","","text","75","331107","0.0-37.0","29289683","wem/bandit_single","A23BMD8M0RLV77","gain","2","32","","","","","","","","","","","","","","","","","","","","","","","","","",""
"867","","bandit","76","333502","0.0-38.0-0.0","29289683","wem/bandit_single","A23BMD8M0RLV77","gain","2","","72","H","0","img/none_selected.jpg","0","0","1","0.03692567881","","false","1","0.03692567881","","main_expt","0.1196507759","","0.1047922924","","0.1473353724","","","","","","",""
"81","","bandit","77","335375","0.0-39.0-0.0","29289683","wem/bandit_single","A23BMD8M0RLV77","gain","2","","72","H","0","img/none_selected.jpg","0","0","1","0.0535834513","","false","2","0.0535834513","","main_expt","0.1434551849","","0.09232691068","","0.1471364572","","","","","","",""
"70","","bandit","78","337227","0.0-40.0-0.0","29289683","wem/bandit_single","A23BMD8M0RLV77","gain","2","","74","J","1","","0","0","1","0.1966750378","","false","3","0.06455495551","","main_expt","0.1966750378","","0.07878604621","","0.1792173289","","","","","","",""
"26","","bandit","79","339024","0.0-41.0-0.0","29289683","wem/bandit_single","A23BMD8M0RLV77","gain","2","","74","J","1","","0","0","1","0.1731728381","","false","4","0.1075220519","","main_expt","0.1731728381","","0.06180226224","","0.2089457512","","","","","","",""
"89","","bandit","80","340879","0.0-42.0-0.0","29289683","wem/bandit_single","A23BMD8M0RLV77","gain","2","","74","J","1","","0","0","1","0.151671232","","false","5","0.1459974634","","main_expt","0.151671232","","0.05657605877","","0.2627176439","","","","","","",""
"18","","bandit","81","342679","0.0-43.0-0.0","29289683","wem/bandit_single","A23BMD8M0RLV77","gain","2","","75","K","2","","0","0","1","0.03926223851","","false","6","0.1119865757","","main_expt","0.2201434377","","0.03926223851","","0.2052823447","","","","","","",""
"50","","bandit","82","344505","0.0-44.0-0.0","29289683","wem/bandit_single","A23BMD8M0RLV77","gain","2","","75","K","2","","0","0","1","0.02952185798","","false","7","0.1135710889","","main_expt","0.1924323999","","0.02952185798","","0.2424381104","","","","","","",""
"12","","bandit","83","346299","0.0-45.0-0.0","29289683","wem/bandit_single","A23BMD8M0RLV77","gain","2","","75","K","2","","0","0","1","0.01847757052","","false","8","0.148696524","","main_expt","0.187431757","","0.01847757052","","0.2324683495","","","","","","",""
"0","","bandit","84","348070","0.0-46.0-0.0","29289683","wem/bandit_single","A23BMD8M0RLV77","gain","2","","76","L","3","","0","0","1","0.2440295668","","false","9","0.1181121295","","main_expt","0.197470847","","0.02695314055","","0.2440295668","","","","","","",""
"22","","bandit","85","349853","0.0-47.0-0.0","29289683","wem/bandit_single","A23BMD8M0RLV77","gain","2","","76","L","3","","1","0","0","0.2465422232","","false","10","0.1082266346","","main_expt","0.2298270047","","0.02234311218","","0.2465422232","","","","","","",""
"14","","bandit","86","351645","0.0-48.0-0.0","29289683","wem/bandit_single","A23BMD8M0RLV77","gain","2","","76","L","3","","0","0","1","0.1529972956","","false","11","0.1102162287","","main_expt","0.2124937163","","0.04960883058","","0.1529972956","","","","","","",""
"37","","bandit","87","353456","0.0-49.0-0.0","29289683","wem/bandit_single","A23BMD8M0RLV77","gain","2","","76","L","3","","0","0","1","0.1827224572","","false","12","0.1420736562","","main_expt","0.2043121782","","0.06086541187","","0.1827224572","","","","","","",""
"860","","bandit","88","356093","0.0-50.0-0.0","29289683","wem/bandit_single","A23BMD8M0RLV77","gain","2","","76","L","3","","0","0","1","0.1973099221","","false","13","0.1582971975","","main_expt","0.2122729008","","0.06603274732","","0.1973099221","","","","","","",""
"59","","bandit","89","357930","0.0-51.0-0.0","29289683","wem/bandit_single","A23BMD8M0RLV77","gain","2","","76","L","3","","0","0","1","0.2002936143","","false","14","0.1278364912","","main_expt","0.1748916548","","0.06952645267","","0.2002936143","","","","","","",""
"798","","bandit","90","360514","0.0-52.0-0.0","29289683","wem/bandit_single","A23BMD8M0RLV77","gain","2","","76","L","3","","0","0","1","0.2100222876","","false","15","0.1389591295","","main_expt","0.1598041939","","0.06705093019","","0.2100222876","","","","","","",""
"778","","bandit","91","363067","0.0-53.0-0.0","29289683","wem/bandit_single","A23BMD8M0RLV77","gain","2","","74","J","1","","0","0","1","0.1496559895","","false","16","0.1087507618","","main_expt","0.1496559895","","0.08739136862","","0.192095419","","","","","","",""
"35","","bandit","92","364878","0.0-54.0-0.0","29289683","wem/bandit_single","A23BMD8M0RLV77","gain","2","","74","J","1","","0","0","1","0.1855105105","","false","17","0.1591778588","","main_expt","0.1855105105","","0.0633177824","","0.2057363858","","","","","","",""
"3","","bandit","93","366652","0.0-55.0-0.0","29289683","wem/bandit_single","A23BMD8M0RLV77","gain","2","","74","J","1","","0","0","1","0.180786103","","false","18","0.1612769879","","main_expt","0.180786103","","0.05969087175","","0.2142317849","","","","","","",""
"326","","bandit","94","368755","0.0-56.0-0.0","29289683","wem/bandit_single","A23BMD8M0RLV77","gain","2","","74","J","1","","0","0","1","0.1867551017","","false","19","0.1706614454","","main_expt","0.1867551017","","0.08316546351","","0.2416868574","","","","","","",""
"314","","bandit","95","370841","0.0-57.0-0.0","29289683","wem/bandit_single","A23BMD8M0RLV77","gain","2","","74","J","1","","0","0","1","0.2414580321","","false","20","0.2173206475","","main_expt","0.2414580321","","0.08506169859","","0.2556662882","","","","","","",""
"142","","bandit","96","372771","0.0-58.0-0.0","29289683","wem/bandit_single","A23BMD8M0RLV77","gain","2","","75","K","2","","0","0","1","0.08337624199","","false","21","0.2297715145","","main_expt","0.2552731096","","0.08337624199","","0.2484624222","","","","","","",""
"34","","bandit","97","374569","0.0-59.0-0.0","29289683","wem/bandit_single","A23BMD8M0RLV77","gain","2","","75","K","2","","0","0","1","0.09400888178","","false","22","0.2893552095","","main_expt","0.2706059063","","0.09400888178","","0.3180013331","","","","","","",""
"25","","bandit","98","376376","0.0-60.0-0.0","29289683","wem/bandit_single","A23BMD8M0RLV77","gain","2","","75","K","2","","0","0","1","0.08373077729","","false","23","0.1756353462","","main_expt","0.2240124609","","0.08373077729","","0.3018869565","","","","","","",""
"559","","bandit","99","378722","0.0-61.0-0.0","29289683","wem/bandit_single","A23BMD8M0RLV77","gain","2","","75","K","2","","0","0","1","0.07394888686","","false","24","0.144307289","","main_expt","0.2337623096","","0.07394888686","","0.3479913718","","","","","","",""
"307","","bandit","100","380820","0.0-62.0-0.0","29289683","wem/bandit_single","A23BMD8M0RLV77","gain","2","","76","L","3","","0","0","1","0.3851600672","","false","25","0.1103761204","","main_expt","0.1992837424","","0.1177231478","","0.3851600672","","","","","","",""
"20","","bandit","101","382603","0.0-63.0-0.0","29289683","wem/bandit_single","A23BMD8M0RLV77","gain","2","","76","L","3","","1","0","0","0.3771699284","","false","26","0.09313295331","","main_expt","0.2273902023","","0.1137187285","","0.3771699284","","","","","","",""
"17","","bandit","102","384412","0.0-64.0-0.0","29289683","wem/bandit_single","A23BMD8M0RLV77","gain","2","","76","L","3","","0","0","1","0.3284072512","","false","27","0.07841862492","","main_expt","0.2020281611","","0.1380279251","","0.3284072512","","","","","","",""
"12","","bandit","103","386203","0.0-65.0-0.0","29289683","wem/bandit_single","A23BMD8M0RLV77","gain","2","","76","L","3","","0","0","1","0.3708797381","","false","28","0.0635621653","","main_expt","0.2121805601","","0.1926536066","","0.3708797381","","","","","","",""
"702","","bandit","104","388690","0.0-66.0-0.0","29289683","wem/bandit_single","A23BMD8M0RLV77","gain","2","","76","L","3","","0","0","1","0.3630760189","","false","29","0.04349452081","","main_expt","0.1986823058","","0.1919064193","","0.3630760189","","","","","","",""
"87","","bandit","105","390559","0.0-67.0-0.0","29289683","wem/bandit_single","A23BMD8M0RLV77","gain","2","","76","L","3","","0","0","1","0.3414786107","","false","30","0.06175929786","","main_expt","0.2674628916","","0.1767437005","","0.3414786107","","","","","","",""
"16","","bandit","106","392356","0.0-68.0-0.0","29289683","wem/bandit_single","A23BMD8M0RLV77","gain","2","","76","L","3","","1","0","0","0.3536929226","","false","31","0.06380111671","","main_expt","0.2862820789","","0.2417082081","","0.3536929226","","","","","","",""
"23","","bandit","107","394152","0.0-69.0-0.0","29289683","wem/bandit_single","A23BMD8M0RLV77","gain","2","","76","L","3","","1","0","0","0.3238646006","","false","32","0.08507033619","","main_expt","0.2895619367","","0.2312742115","","0.3238646006","","","","","","",""
"435","","bandit","108","396375","0.0-70.0-0.0","29289683","wem/bandit_single","A23BMD8M0RLV77","gain","2","","76","L","3","","0","0","1","0.3018803865","","false","33","0.1242974044","","main_expt","0.312502841","","0.2247834387","","0.3018803865","","","","","","",""
"9","","bandit","109","398172","0.0-71.0-0.0","29289683","wem/bandit_single","A23BMD8M0RLV77","gain","2","","76","L","3","","1","0","0","0.2551449341","","false","34","0.158311101","","main_expt","0.2830864838","","0.1192543008","","0.2551449341","","","","","","",""
"53","","bandit","110","400009","0.0-72.0-0.0","29289683","wem/bandit_single","A23BMD8M0RLV77","gain","2","","76","L","3","","0","0","1","0.3200580053","","false","35","0.1293969191","","main_expt","0.2489219385","","0.1336327135","","0.3200580053","","","","","","",""
"63","","bandit","111","401842","0.0-73.0-0.0","29289683","wem/bandit_single","A23BMD8M0RLV77","gain","2","","76","L","3","","1","0","0","0.3241899647","","false","36","0.1800853883","","main_expt","0.2090346537","","0.09851205292","","0.3241899647","","","","","","",""
"144","","bandit","112","403754","0.0-74.0-0.0","29289683","wem/bandit_single","A23BMD8M0RLV77","gain","2","","76","L","3","","1","0","0","0.3029113802","","false","37","0.1025448258","","main_expt","0.210385238","","0.05943694951","","0.3029113802","","","","","","",""
"61","","bandit","113","405601","0.0-75.0-0.0","29289683","wem/bandit_single","A23BMD8M0RLV77","gain","2","","76","L","3","","0","0","1","0.2958592888","","false","38","0.1604021245","","main_expt","0.162227856","","0.06217728149","","0.2958592888","","","","","","",""
"262","","bandit","114","407644","0.0-76.0-0.0","29289683","wem/bandit_single","A23BMD8M0RLV77","gain","2","","76","L","3","","1","0","0","0.2941945884","","false","39","0.1336531769","","main_expt","0.1444893634","","0.08902833973","","0.2941945884","","","","","","",""
"100","","bandit","115","409519","0.0-77.0-0.0","29289683","wem/bandit_single","A23BMD8M0RLV77","gain","2","","76","L","3","","1","0","0","0.2784490849","","false","40","0.1356889635","","main_expt","0.1340169349","","0.1098655825","","0.2784490849","","","","","","",""
"17","","bandit","116","411304","0.0-78.0-0.0","29289683","wem/bandit_single","A23BMD8M0RLV77","gain","2","","76","L","3","","0","0","1","0.2943099773","","false","41","0.1434276379","","main_expt","0.1019114547","","0.125718056","","0.2943099773","","","","","","",""
"60","","bandit","117","413131","0.0-79.0-0.0","29289683","wem/bandit_single","A23BMD8M0RLV77","gain","2","","76","L","3","","0","0","1","0.2502187242","","false","42","0.1432973755","","main_expt","0.07379386716","","0.07668278466","","0.2502187242","","","","","","",""
"76","","bandit","118","414980","0.0-80.0-0.0","29289683","wem/bandit_single","A23BMD8M0RLV77","gain","2","","76","L","3","","0","0","1","0.2691097515","","false","43","0.1605884153","","main_expt","0.08186566242","","0.08403116819","","0.2691097515","","","","","","",""
"157","","bandit","119","416901","0.0-81.0-0.0","29289683","wem/bandit_single","A23BMD8M0RLV77","gain","2","","76","L","3","","0","0","1","0.2601206974","","false","44","0.1396132557","","main_expt","0.08692603594","","0.08258467284","","0.2601206974","","","","","","",""
"46","","bandit","120","418721","0.0-82.0-0.0","29289683","wem/bandit_single","A23BMD8M0RLV77","gain","2","","76","L","3","","0","0","1","0.3222012474","","false","45","0.2250933593","","main_expt","0.1212470101","","0.07253936928","","0.3222012474","","","","","","",""
"467","","bandit","121","420965","0.0-83.0-0.0","29289683","wem/bandit_single","A23BMD8M0RLV77","gain","2","","76","L","3","","0","0","1","0.3060845752","","false","46","0.1826421925","","main_expt","0.134661007","","0.05374479905","","0.3060845752","","","","","","",""
"25","","bandit","122","422755","0.0-84.0-0.0","29289683","wem/bandit_single","A23BMD8M0RLV77","gain","2","","72","H","0","img/none_selected.jpg","0","0","1","0.1706758886","","false","47","0.1706758886","","main_expt","0.1377890551","","0.06764850751","","0.290950603","","","","","","",""
"18","","bandit","123","424561","0.0-85.0-0.0","29289683","wem/bandit_single","A23BMD8M0RLV77","gain","2","","72","H","0","img/none_selected.jpg","0","0","1","0.1686178854","","false","48","0.1686178854","","main_expt","0.1325860966","","0.05656727153","","0.329307254","","","","","","",""
"11","","bandit","124","426344","0.0-86.0-0.0","29289683","wem/bandit_single","A23BMD8M0RLV77","gain","2","","72","H","0","img/none_selected.jpg","0","0","1","0.1822379713","","false","49","0.1822379713","","main_expt","0.1231750139","","0.08131597157","","0.405044281","","","","","","",""
"28","","bandit","125","428149","0.0-87.0-0.0","29289683","wem/bandit_single","A23BMD8M0RLV77","gain","2","","72","H","0","img/none_selected.jpg","0","0","1","0.2513484478","","false","50","0.2513484478","","main_expt","0.1565964086","","0.08274267654","","0.4121919591","","","","","","",""
"25","","bandit","126","429955","0.0-88.0-0.0","29289683","wem/bandit_single","A23BMD8M0RLV77","gain","2","","72","H","0","img/none_selected.jpg","0","0","1","0.2812942615","","false","51","0.2812942615","","main_expt","0.1464659706","","0.1154896937","","0.4271607293","","","","","","",""
"92","","bandit","127","431817","0.0-89.0-0.0","29289683","wem/bandit_single","A23BMD8M0RLV77","gain","2","","72","H","0","img/none_selected.jpg","1","0","0","0.2224049931","","false","52","0.2224049931","","main_expt","0.1196909414","","0.07649260985","","0.4249516559","","","","","","",""
"85","","bandit","128","433667","0.0-90.0-0.0","29289683","wem/bandit_single","A23BMD8M0RLV77","gain","2","","72","H","0","img/none_selected.jpg","1","0","0","0.2135714686","","false","53","0.2135714686","","main_expt","0.1578713891","","0.06211708307","","0.414238899","","","","","","",""
"15","","bandit","129","435463","0.0-91.0-0.0","29289683","wem/bandit_single","A23BMD8M0RLV77","gain","2","","72","H","0","img/none_selected.jpg","0","0","1","0.2471494284","","false","54","0.2471494284","","main_expt","0.1420893662","","0.05122165179","","0.4404827494","","","","","","",""
"23","","bandit","130","437271","0.0-92.0-0.0","29289683","wem/bandit_single","A23BMD8M0RLV77","gain","2","","72","H","0","img/none_selected.jpg","0","0","1","0.26732004","","false","55","0.26732004","","main_expt","0.1255118638","","0.05779626682","","0.4258944343","","","","","","",""
"21","","bandit","131","439055","0.0-93.0-0.0","29289683","wem/bandit_single","A23BMD8M0RLV77","gain","2","","72","H","0","img/none_selected.jpg","0","0","1","0.258853447","","false","56","0.258853447","","main_expt","0.1040792381","","0.06578325953","","0.4058732664","","","","","","",""
"68","","bandit","132","440893","0.0-94.0-0.0","29289683","wem/bandit_single","A23BMD8M0RLV77","gain","2","","72","H","0","img/none_selected.jpg","0","0","1","0.247757255","","false","57","0.247757255","","main_expt","0.1058118143","","0.07487929626","","0.4269212616","","","","","","",""
"0","","bandit","133","442667","0.0-95.0-0.0","29289683","wem/bandit_single","A23BMD8M0RLV77","gain","2","","72","H","0","img/none_selected.jpg","0","0","1","0.2380046022","","false","58","0.2380046022","","main_expt","0.08107820888","","0.05601765109","","0.4120073189","","","","","","",""
"815","","bandit","134","445264","0.0-96.0-0.0","29289683","wem/bandit_single","A23BMD8M0RLV77","gain","2","","72","H","0","img/none_selected.jpg","0","0","1","0.273239949","","false","59","0.273239949","","main_expt","0.115954585","","0.07158824907","","0.367464959","","","","","","",""
"793","","bandit","135","447847","0.0-97.0-0.0","29289683","wem/bandit_single","A23BMD8M0RLV77","gain","2","","72","H","0","img/none_selected.jpg","0","0","1","0.314936794","","false","60","0.314936794","","main_expt","0.190529156","","0.1021813758","","0.3113576115","","","","","","",""
"22","","bandit","136","449657","0.0-98.0-0.0","29289683","wem/bandit_single","A23BMD8M0RLV77","gain","2","","74","J","1","","0","0","1","0.2024767933","","false","61","0.3361315769","","main_expt","0.2024767933","","0.1422244628","","0.3217665369","","","","","","",""
"581","","bandit","137","452012","0.0-99.0-0.0","29289683","wem/bandit_single","A23BMD8M0RLV77","gain","2","","74","J","1","","0","0","1","0.1478811465","","false","62","0.3012470308","","main_expt","0.1478811465","","0.1543762338","","0.3396020841","","","","","","",""
"158","","bandit","138","453953","0.0-100.0-0.0","29289683","wem/bandit_single","A23BMD8M0RLV77","gain","2","","74","J","1","","0","0","1","0.1472080331","","false","63","0.3035933772","","main_expt","0.1472080331","","0.1957871903","","0.3326008901","","","","","","",""
"61","","bandit","139","455795","0.0-101.0-0.0","29289683","wem/bandit_single","A23BMD8M0RLV77","gain","2","","74","J","1","","1","0","0","0.1523556625","","false","64","0.3061864711","","main_expt","0.1523556625","","0.1998827037","","0.2759567044","","","","","","",""
"88","","bandit","140","457672","0.0-102.0-0.0","29289683","wem/bandit_single","A23BMD8M0RLV77","gain","2","","74","J","1","","0","0","1","0.1640586258","","false","65","0.2795045379","","main_expt","0.1640586258","","0.2229124218","","0.330340259","","","","","","",""
"34","","bandit","141","459496","0.0-103.0-0.0","29289683","wem/bandit_single","A23BMD8M0RLV77","gain","2","","74","J","1","","0","0","1","0.1559289375","","false","66","0.2624990872","","main_expt","0.1559289375","","0.2821528041","","0.394496842","","","","","","",""
"479","","bandit","142","461749","0.0-104.0-0.0","29289683","wem/bandit_single","A23BMD8M0RLV77","gain","2","","74","J","1","","0","0","1","0.09042099393","","false","67","0.2316809648","","main_expt","0.09042099393","","0.2228434199","","0.3780229448","","","","","","",""
"322","","bandit","143","463837","0.0-105.0-0.0","29289683","wem/bandit_single","A23BMD8M0RLV77","gain","2","","74","J","1","","0","0","1","0.08874767337","","false","68","0.2266776066","","main_expt","0.08874767337","","0.2039549584","","0.313258317","","","","","","",""
"38","","bandit","144","465644","0.0-106.0-0.0","29289683","wem/bandit_single","A23BMD8M0RLV77","gain","2","","75","K","2","","0","0","1","0.1998164138","","false","69","0.1734363374","","main_expt","0.09103688118","","0.1998164138","","0.3466590849","","","","","","",""
"155","","bandit","145","467585","0.0-107.0-0.0","29289683","wem/bandit_single","A23BMD8M0RLV77","gain","2","","75","K","2","","0","0","1","0.1936545157","","false","70","0.1469163378","","main_expt","0.139461016","","0.1936545157","","0.3389702644","","","","","","",""
"69","","bandit","146","469429","0.0-108.0-0.0","29289683","wem/bandit_single","A23BMD8M0RLV77","gain","2","","75","K","2","","0","0","1","0.1875420319","","false","71","0.1903103683","","main_expt","0.1269809057","","0.1875420319","","0.3037518088","","","","","","",""
"85","","bandit","147","471293","0.0-109.0-0.0","29289683","wem/bandit_single","A23BMD8M0RLV77","gain","2","","75","K","2","","1","0","0","0.2275961541","","false","72","0.2364630875","","main_expt","0.1541032278","","0.2275961541","","0.3007282465","","","","","","",""
"266","","bandit","148","473340","0.0-110.0-0.0","29289683","wem/bandit_single","A23BMD8M0RLV77","gain","2","","75","K","2","","0","0","1","0.2485431464","","false","73","0.2715971604","","main_expt","0.1618198783","","0.2485431464","","0.2796446257","","","","","","",""
"144","","bandit","149","475261","0.0-111.0-0.0","29289683","wem/bandit_single","A23BMD8M0RLV77","gain","2","","75","K","2","","0","0","1","0.2394527842","","false","74","0.2716254876","","main_expt","0.1428156761","","0.2394527842","","0.2729876577","","","","","","",""
"180","","bandit","150","477232","0.0-112.0-0.0","29289683","wem/bandit_single","A23BMD8M0RLV77","gain","2","","75","K","2","","0","0","1","0.2074684787","","false","75","0.2998540279","","main_expt","0.1312504708","","0.2074684787","","0.2067723694","","","","","","",""
"214","","bandit","151","479217","0.0-113.0-0.0","29289683","wem/bandit_single","A23BMD8M0RLV77","gain","2","","75","K","2","","0","0","1","0.178133335","","false","76","0.3195890579","","main_expt","0.1002429729","","0.178133335","","0.2130899639","","","","","","",""
"679","","bandit","152","481683","0.0-114.0-0.0","29289683","wem/bandit_single","A23BMD8M0RLV77","gain","2","","76","L","3","","1","0","0","0.2109525889","","false","77","0.2856322382","","main_expt","0.07543037954","","0.1788248706","","0.2109525889","","","","","","",""
"584","","bandit","153","484048","0.0-115.0-0.0","29289683","wem/bandit_single","A23BMD8M0RLV77","gain","2","","76","L","3","","0","0","1","0.1884332626","","false","78","0.2919105172","","main_expt","0.1153668935","","0.1530293784","","0.1884332626","","","","","","",""
"50","","bandit","154","485884","0.0-116.0-0.0","29289683","wem/bandit_single","A23BMD8M0RLV77","gain","2","","76","L","3","","0","0","1","0.1883433777","","false","79","0.2567181874","","main_expt","0.07716777456","","0.1593806387","","0.1883433777","","","","","","",""
"41","","bandit","155","487710","0.0-117.0-0.0","29289683","wem/bandit_single","A23BMD8M0RLV77","gain","2","","76","L","3","","1","0","0","0.1998795799","","false","80","0.3200023444","","main_expt","0.08058819474","","0.1428411119","","0.1998795799","","","","","","",""
"106","","bandit","156","489597","0.0-118.0-0.0","29289683","wem/bandit_single","A23BMD8M0RLV77","gain","2","","76","L","3","","0","0","1","0.1651756375","","false","81","0.3117755618","","main_expt","0.09856946308","","0.1982686668","","0.1651756375","","","","","","",""
"125","","bandit","157","491504","0.0-119.0-0.0","29289683","wem/bandit_single","A23BMD8M0RLV77","gain","2","","76","L","3","","0","0","1","0.2235829688","","false","82","0.3379160562","","main_expt","0.1000946235","","0.2291501313","","0.2235829688","","","","","","",""
"428","","bandit","158","493755","0.0-120.0-0.0","29289683","wem/bandit_single","A23BMD8M0RLV77","gain","2","","76","L","3","","0","0","1","0.2456561592","","false","83","0.3620865136","","main_expt","0.06687408093","","0.2259362275","","0.2456561592","","","","","","",""
"494","","bandit","159","496022","0.0-121.0-0.0","29289683","wem/bandit_single","A23BMD8M0RLV77","gain","2","","76","L","3","","0","0","1","0.2790354554","","false","84","0.3904685548","","main_expt","0.06463964557","","0.1733031115","","0.2790354554","","","","","","",""
"172","","bandit","160","497977","0.0-122.0-0.0","29289683","wem/bandit_single","A23BMD8M0RLV77","gain","2","","76","L","3","","0","0","1","0.2389339959","","false","85","0.4201611698","","main_expt","0.09044174456","","0.1577379057","","0.2389339959","","","","","","",""
"160","","bandit","161","499914","0.0-123.0-0.0","29289683","wem/bandit_single","A23BMD8M0RLV77","gain","2","","76","L","3","","0","0","1","0.2905830411","","false","86","0.4544588035","","main_expt","0.07242924321","","0.1646880331","","0.2905830411","","","","","","",""
"273","","bandit","162","501980","0.0-124.0-0.0","29289683","wem/bandit_single","A23BMD8M0RLV77","gain","2","","76","L","3","","0","0","1","0.3336128518","","false","87","0.4444110865","","main_expt","0.06356931104","","0.157008097","","0.3336128518","","","","","","",""
"148","","bandit","163","503901","0.0-125.0-0.0","29289683","wem/bandit_single","A23BMD8M0RLV77","gain","2","","76","L","3","","1","0","0","0.3720796031","","false","88","0.4276611285","","main_expt","0.08819972964","","0.14663069","","0.3720796031","","","","","","",""
"25","","bandit","164","505703","0.0-126.0-0.0","29289683","wem/bandit_single","A23BMD8M0RLV77","gain","2","","76","L","3","","1","0","0","0.3383028484","","false","89","0.395063318","","main_expt","0.09388884115","","0.1510377787","","0.3383028484","","","","","","",""
"89","","bandit","165","507572","0.0-127.0-0.0","29289683","wem/bandit_single","A23BMD8M0RLV77","gain","2","","76","L","3","","1","0","0","0.3550100304","","false","90","0.3790569413","","main_expt","0.1265583984","","0.1600185234","","0.3550100304","","","","","","",""
"1056","","bandit","166","510413","0.0-128.0-0.0","29289683","wem/bandit_single","A23BMD8M0RLV77","gain","2","","76","L","3","","0","0","1","0.4198742783","","false","91","0.3763017738","","main_expt","0.09433033469","","0.1618321768","","0.4198742783","","","","","","",""
"428","","bandit","167","512625","0.0-129.0-0.0","29289683","wem/bandit_single","A23BMD8M0RLV77","gain","2","","76","L","3","","0","0","1","0.4522920775","","false","92","0.3829045729","","main_expt","0.05111462501","","0.1408839615","","0.4522920775","","","","","","",""
"92","","bandit","168","514498","0.0-130.0-0.0","29289683","wem/bandit_single","A23BMD8M0RLV77","gain","2","","76","L","3","","0","0","1","0.4572096334","","false","93","0.4155552038","","main_expt","0.05378689714","","0.1675332925","","0.4572096334","","","","","","",""
"388","","bandit","169","516674","0.0-131.0-0.0","29289683","wem/bandit_single","A23BMD8M0RLV77","gain","2","","76","L","3","","0","0","1","0.457248447","","false","94","0.3964247486","","main_expt","0.04385487208","","0.2154783406","","0.457248447","","","","","","",""
"286","","bandit","170","518752","0.0-132.0-0.0","29289683","wem/bandit_single","A23BMD8M0RLV77","gain","2","","76","L","3","","0","0","1","0.4284600246","","false","95","0.4028729744","","main_expt","0.02374316345","","0.2434825378","","0.4284600246","","","","","","",""
"1","","bandit","171","520535","0.0-133.0-0.0","29289683","wem/bandit_single","A23BMD8M0RLV77","gain","2","","76","L","3","","0","0","1","0.4213934208","","false","96","0.3937220057","","main_expt","0.01119532444","","0.300751002","","0.4213934208","","","","","","",""
"164","","bandit","172","522467","0.0-134.0-0.0","29289683","wem/bandit_single","A23BMD8M0RLV77","gain","2","","76","L","3","","0","0","1","0.4093218277","","false","97","0.3951408858","","main_expt","0.01205949719","","0.2390268827","","0.4093218277","","","","","","",""
"140","","bandit","173","524387","0.0-135.0-0.0","29289683","wem/bandit_single","A23BMD8M0RLV77","gain","2","","76","L","3","","0","0","1","0.4011771953","","false","98","0.3872505806","","main_expt","0.02530753644","","0.1872158766","","0.4011771953","","","","","","",""
"70","","bandit","174","526231","0.0-136.0-0.0","29289683","wem/bandit_single","A23BMD8M0RLV77","gain","2","","76","L","3","","0","0","1","0.4319140629","","false","99","0.3237376228","","main_expt","0.02318317113","","0.2281726053","","0.4319140629","","","","","","",""
"17","","bandit","175","528023","0.0-137.0-0.0","29289683","wem/bandit_single","A23BMD8M0RLV77","gain","2","","76","L","3","","0","0","1","0.4388591553","","false","100","0.3840854176","","main_expt","0.01577819671","","0.2322026393","","0.4388591553","","","","","","",""
"541","","bandit","176","530359","0.0-138.0-0.0","29289683","wem/bandit_single","A23BMD8M0RLV77","gain","2","","76","L","3","","0","0","1","0.4405661836","","false","101","0.4043087267","","main_expt","0.03767304301","","0.2675158553","","0.4405661836","","","","","","",""
"43","","bandit","177","532205","0.0-139.0-0.0","29289683","wem/bandit_single","A23BMD8M0RLV77","gain","2","","72","H","0","img/none_selected.jpg","0","0","1","0.423372456","","false","102","0.423372456","","main_expt","0.03003558128","","0.2334450153","","0.4155134761","","","","","","",""
"581","","bandit","178","534573","0.0-140.0-0.0","29289683","wem/bandit_single","A23BMD8M0RLV77","gain","2","","72","H","0","img/none_selected.jpg","1","0","0","0.4305794097","","false","103","0.4305794097","","main_expt","0.04748945294","","0.2546104349","","0.4079284656","","","","","","",""
"103","","bandit","179","536470","0.0-141.0-0.0","29289683","wem/bandit_single","A23BMD8M0RLV77","gain","2","","72","H","0","img/none_selected.jpg","0","0","1","0.4515631957","","false","104","0.4515631957","","main_expt","0.06674284653","","0.2657782481","","0.3827156199","","","","","","",""
"39","","bandit","180","538274","0.0-142.0-0.0","29289683","wem/bandit_single","A23BMD8M0RLV77","gain","2","","72","H","0","img/none_selected.jpg","1","0","0","0.454723383","","false","105","0.454723383","","main_expt","0.0806059128","","0.2397797145","","0.3892206975","","","","","","",""
"39","","bandit","181","540098","0.0-143.0-0.0","29289683","wem/bandit_single","A23BMD8M0RLV77","gain","2","","72","H","0","img/none_selected.jpg","1","0","0","0.4487898282","","false","106","0.4487898282","","main_expt","0.1147522423","","0.1744994936","","0.3499671591","","","","","","",""
"87","","bandit","182","541975","0.0-144.0-0.0","29289683","wem/bandit_single","A23BMD8M0RLV77","gain","2","","72","H","0","img/none_selected.jpg","0","0","1","0.4300484018","","false","107","0.4300484018","","main_expt","0.1225979079","","0.2004436591","","0.3378870415","","","","","","",""
"123","","bandit","183","543885","0.0-145.0-0.0","29289683","wem/bandit_single","A23BMD8M0RLV77","gain","2","","72","H","0","img/none_selected.jpg","0","0","1","0.4056187414","","false","108","0.4056187414","","main_expt","0.1808232933","","0.1781349215","","0.3206855754","","","","","","",""
"31","","bandit","184","545685","0.0-146.0-0.0","29289683","wem/bandit_single","A23BMD8M0RLV77","gain","2","","72","H","0","img/none_selected.jpg","0","0","1","0.4145536126","","false","109","0.4145536126","","main_expt","0.2004688742","","0.1603989886","","0.3412252333","","","","","","",""
"208","","bandit","185","547671","0.0-147.0-0.0","29289683","wem/bandit_single","A23BMD8M0RLV77","gain","2","","72","H","0","img/none_selected.jpg","0","0","1","0.3897928763","","false","110","0.3897928763","","main_expt","0.2261403934","","0.1300992081","","0.3650365033","","","","","","",""
"153","","bandit","186","549610","0.0-148.0-0.0","29289683","wem/bandit_single","A23BMD8M0RLV77","gain","2","","72","H","0","img/none_selected.jpg","0","0","1","0.4150540561","","false","111","0.4150540561","","main_expt","0.1612973213","","0.1740321776","","0.341048274","","","","","","",""
"272","","bandit","187","551668","0.0-149.0-0.0","29289683","wem/bandit_single","A23BMD8M0RLV77","gain","2","","72","H","0","img/none_selected.jpg","1","0","0","0.4394636757","","false","112","0.4394636757","","main_expt","0.1655724556","","0.2444477537","","0.3254027875","","","","","","",""
"260","","bandit","188","553708","0.0-150.0-0.0","29289683","wem/bandit_single","A23BMD8M0RLV77","gain","2","","72","H","0","img/none_selected.jpg","1","0","0","0.4301961846","","false","113","0.4301961846","","main_expt","0.1319876284","","0.2195244909","","0.308059901","","","","","","",""
"131","","bandit","189","555634","0.0-151.0-0.0","29289683","wem/bandit_single","A23BMD8M0RLV77","gain","2","","72","H","0","img/none_selected.jpg","1","0","0","0.4497687286","","false","114","0.4497687286","","main_expt","0.1147934267","","0.2719971232","","0.3238695313","","","","","","",""
"179","","bandit","190","557593","0.0-152.0-0.0","29289683","wem/bandit_single","A23BMD8M0RLV77","gain","2","","72","H","0","img/none_selected.jpg","0","0","1","0.4448888627","","false","115","0.4448888627","","main_expt","0.1301750396","","0.2447677414","","0.3315084933","","","","","","",""
"77","","bandit","191","559459","0.0-153.0-0.0","29289683","wem/bandit_single","A23BMD8M0RLV77","gain","2","","72","H","0","img/none_selected.jpg","1","0","0","0.3905844751","","false","116","0.3905844751","","main_expt","0.130185029","","0.2296513069","","0.3234657333","","","","","","",""
"101","","bandit","192","561352","0.0-154.0-0.0","29289683","wem/bandit_single","A23BMD8M0RLV77","gain","2","","72","H","0","img/none_selected.jpg","0","0","1","0.424359093","","false","117","0.424359093","","main_expt","0.1548944576","","0.2151266314","","0.300593156","","","","","","",""
"42","","bandit","193","563167","0.0-155.0-0.0","29289683","wem/bandit_single","A23BMD8M0RLV77","gain","2","","72","H","0","img/none_selected.jpg","1","0","0","0.4121010571","","false","118","0.4121010571","","main_expt","0.172903741","","0.1311834018","","0.3585138177","","","","","","",""
"37","","bandit","194","564981","0.0-156.0-0.0","29289683","wem/bandit_single","A23BMD8M0RLV77","gain","2","","72","H","0","img/none_selected.jpg","0","0","1","0.4117558181","","false","119","0.4117558181","","main_expt","0.1707570171","","0.1190099868","","0.3062020697","","","","","","",""
"80","","bandit","195","566834","0.0-157.0-0.0","29289683","wem/bandit_single","A23BMD8M0RLV77","gain","2","","72","H","0","img/none_selected.jpg","0","0","1","0.4275669698","","false","120","0.4275669698","","main_expt","0.1870802187","","0.1117686876","","0.3312553157","","","","","","",""
"265","","bandit","196","568894","0.0-158.0-0.0","29289683","wem/bandit_single","A23BMD8M0RLV77","gain","2","","72","H","0","img/none_selected.jpg","0","0","1","0.4428986123","","false","121","0.4428986123","","main_expt","0.1870161021","","0.1415869423","","0.3892509988","","","","","","",""
"138","","bandit","197","570818","0.0-159.0-0.0","29289683","wem/bandit_single","A23BMD8M0RLV77","gain","2","","72","H","0","img/none_selected.jpg","1","0","0","0.4376246318","","false","122","0.4376246318","","main_expt","0.1926804843","","0.1398412585","","0.4330036483","","","","","","",""
"169","","bandit","198","572768","0.0-160.0-0.0","29289683","wem/bandit_single","A23BMD8M0RLV77","gain","2","","72","H","0","img/none_selected.jpg","1","0","0","0.4153394585","","false","123","0.4153394585","","main_expt","0.2057615037","","0.1163210087","","0.4555957022","","","","","","",""
"204","","bandit","199","574759","0.0-161.0-0.0","29289683","wem/bandit_single","A23BMD8M0RLV77","gain","2","","72","H","0","img/none_selected.jpg","0","0","1","0.4203389285","","false","124","0.4203389285","","main_expt","0.2639565913","","0.07344578178","","0.4565029776","","","","","","",""
"85","","bandit","200","576633","0.0-162.0-0.0","29289683","wem/bandit_single","A23BMD8M0RLV77","gain","2","","72","H","0","img/none_selected.jpg","0","0","1","0.3710029205","","false","125","0.3710029205","","main_expt","0.3672341475","","0.08752025541","","0.4511527373","","","","","","",""
"516","","bandit","201","578935","0.0-163.0-0.0","29289683","wem/bandit_single","A23BMD8M0RLV77","gain","2","","72","H","0","img/none_selected.jpg","1","0","0","0.3465273485","","false","126","0.3465273485","","main_expt","0.3606148775","","0.1064058914","","0.4426171603","","","","","","",""
"192","","bandit","202","580909","0.0-164.0-0.0","29289683","wem/bandit_single","A23BMD8M0RLV77","gain","2","","72","H","0","img/none_selected.jpg","0","0","1","0.4106613481","","false","127","0.4106613481","","main_expt","0.4079700646","","0.1103525866","","0.4259104728","","","","","","",""
"113","","bandit","203","582804","0.0-165.0-0.0","29289683","wem/bandit_single","A23BMD8M0RLV77","gain","2","","72","H","0","img/none_selected.jpg","1","0","0","0.4377707947","","false","128","0.4377707947","","main_expt","0.4204919645","","0.1060480298","","0.4543754413","","","","","","",""
"167","","bandit","204","584747","0.0-166.0-0.0","29289683","wem/bandit_single","A23BMD8M0RLV77","gain","2","","72","H","0","img/none_selected.jpg","0","0","1","0.4481781661","","false","129","0.4481781661","","main_expt","0.4040923387","","0.1332603285","","0.4587533269","","","","","","",""
"167","","bandit","205","586698","0.0-167.0-0.0","29289683","wem/bandit_single","A23BMD8M0RLV77","gain","2","","72","H","0","img/none_selected.jpg","1","0","0","0.4301237728","","false","130","0.4301237728","","main_expt","0.3906791758","","0.09182468565","","0.4618517855","","","","","","",""
"25","","bandit","206","588498","0.0-168.0-0.0","29289683","wem/bandit_single","A23BMD8M0RLV77","gain","2","","72","H","0","img/none_selected.jpg","1","0","0","0.4457858875","","false","131","0.4457858875","","main_expt","0.380553204","","0.09388333002","","0.4622878414","","","","","","",""
"473","","bandit","207","590744","0.0-169.0-0.0","29289683","wem/bandit_single","A23BMD8M0RLV77","gain","2","","72","H","0","img/none_selected.jpg","0","0","1","0.4732894157","","false","132","0.4732894157","","main_expt","0.4000467043","","0.07277513685","","0.4624711794","","","","","","",""
"93","","bandit","208","592609","0.0-170.0-0.0","29289683","wem/bandit_single","A23BMD8M0RLV77","gain","2","","72","H","0","img/none_selected.jpg","1","0","0","0.4607838047","","false","133","0.4607838047","","main_expt","0.3929100345","","0.1108266248","","0.4794526202","","","","","","",""
"378","","bandit","209","594774","0.0-171.0-0.0","29289683","wem/bandit_single","A23BMD8M0RLV77","gain","2","","72","H","0","img/none_selected.jpg","1","0","0","0.4663808264","","false","134","0.4663808264","","main_expt","0.4009617203","","0.1466671782","","0.481632873","","","","","","",""
"511","","bandit","210","597075","0.0-172.0-0.0","29289683","wem/bandit_single","A23BMD8M0RLV77","gain","2","","72","H","0","img/none_selected.jpg","0","0","1","0.4625615306","","false","135","0.4625615306","","main_expt","0.3859426802","","0.1625995743","","0.4667599148","","","","","","",""
"117","","bandit","211","598976","0.0-173.0-0.0","29289683","wem/bandit_single","A23BMD8M0RLV77","gain","2","","72","H","0","img/none_selected.jpg","1","0","0","0.4629143089","","false","136","0.4629143089","","main_expt","0.4089350186","","0.1555673637","","0.4468402508","","","","","","",""
"374","","bandit","212","601127","0.0-174.0-0.0","29289683","wem/bandit_single","A23BMD8M0RLV77","gain","2","","72","H","0","img/none_selected.jpg","1","0","0","0.4644074349","","false","137","0.4644074349","","main_expt","0.4009707033","","0.1395554881","","0.4331537256","","","","","","",""
"380","","bandit","213","603301","0.0-175.0-0.0","29289683","wem/bandit_single","A23BMD8M0RLV77","gain","2","","72","H","0","img/none_selected.jpg","0","0","1","0.4741213624","","false","138","0.4741213624","","main_expt","0.4116224971","","0.1387442451","","0.4578477473","","","","","","",""
"73","","bandit","214","605165","0.0-176.0-0.0","29289683","wem/bandit_single","A23BMD8M0RLV77","gain","2","","72","H","0","img/none_selected.jpg","1","0","0","0.4736492243","","false","139","0.4736492243","","main_expt","0.4129411324","","0.1693780048","","0.464919911","","","","","","",""
"117","","bandit","215","607057","0.0-177.0-0.0","29289683","wem/bandit_single","A23BMD8M0RLV77","gain","2","","72","H","0","img/none_selected.jpg","0","0","1","0.4752570035","","false","140","0.4752570035","","main_expt","0.4494235083","","0.1753437518","","0.4614371154","","","","","","",""
"244","","bandit","216","609074","0.0-178.0-0.0","29289683","wem/bandit_single","A23BMD8M0RLV77","gain","2","","72","H","0","img/none_selected.jpg","1","0","0","0.4857055712","","false","141","0.4857055712","","main_expt","0.4453484197","","0.2288512635","","0.4747872093","","","","","","",""
"412","","bandit","217","611277","0.0-179.0-0.0","29289683","wem/bandit_single","A23BMD8M0RLV77","gain","2","","72","H","0","img/none_selected.jpg","1","0","0","0.4792724089","","false","142","0.4792724089","","main_expt","0.4604546146","","0.2579513082","","0.4513335087","","","","","","",""
"834","","bandit","218","613891","0.0-180.0-0.0","29289683","wem/bandit_single","A23BMD8M0RLV77","gain","2","","72","H","0","img/none_selected.jpg","1","0","0","0.48057755","","false","143","0.48057755","","main_expt","0.4826245684","","0.21432658","","0.4198830698","","","","","","",""
"439","","bandit","219","616106","0.0-181.0-0.0","29289683","wem/bandit_single","A23BMD8M0RLV77","gain","2","","72","H","0","img/none_selected.jpg","0","0","1","0.4777600445","","false","144","0.4777600445","","main_expt","0.4890981767","","0.1938021535","","0.3673231636","","","","","","",""
"37","","bandit","220","617944","0.0-182.0-0.0","29289683","wem/bandit_single","A23BMD8M0RLV77","gain","2","","72","H","0","img/none_selected.jpg","0","0","1","0.4735071841","","false","145","0.4735071841","","main_expt","0.4680822138","","0.206497324","","0.3772368795","","","","","","",""
"177","","bandit","221","619897","0.0-183.0-0.0","29289683","wem/bandit_single","A23BMD8M0RLV77","gain","2","","72","H","0","img/none_selected.jpg","1","0","0","0.4598241197","","false","146","0.4598241197","","main_expt","0.4660155258","","0.1857351915","","0.3767069828","","","","","","",""
"105","","bandit","222","621785","0.0-184.0-0.0","29289683","wem/bandit_single","A23BMD8M0RLV77","gain","2","","72","H","0","img/none_selected.jpg","1","0","0","0.4279993213","","false","147","0.4279993213","","main_expt","0.4723880167","","0.1046475439","","0.4039806626","","","","","","",""
"861","","bandit","223","624426","0.0-185.0-0.0","29289683","wem/bandit_single","A23BMD8M0RLV77","gain","2","","72","H","0","img/none_selected.jpg","0","0","1","0.4422782314","","false","148","0.4422782314","","main_expt","0.4692947112","","0.1098111678","","0.4178396587","","","","","","",""
"52","","bandit","224","626271","0.0-186.0-0.0","29289683","wem/bandit_single","A23BMD8M0RLV77","gain","2","","72","H","0","img/none_selected.jpg","0","0","1","0.4514785706","","false","149","0.4514785706","","main_expt","0.4702562614","","0.1221971929","","0.3932004216","","","","","","",""
"53","","bandit","225","628115","0.0-187.0-0.0","29289683","wem/bandit_single","A23BMD8M0RLV77","gain","2","","72","H","0","img/none_selected.jpg","1","0","0","0.4189864991","","false","150","0.4189864991","","main_expt","0.4714094479","","0.1354034315","","0.4103897693","","","","","","",""
"295","","bandit","226","630194","0.0-188.0-0.0","29289683","wem/bandit_single","A23BMD8M0RLV77","gain","2","","72","H","0","img/none_selected.jpg","0","0","1","0.4389233528","","false","151","0.4389233528","","main_expt","0.4761401221","","0.1041822367","","0.4122179041","","","","","","",""
"92","","bandit","227","632068","0.0-189.0-0.0","29289683","wem/bandit_single","A23BMD8M0RLV77","gain","2","","72","H","0","img/none_selected.jpg","0","0","1","0.4244236929","","false","152","0.4244236929","","main_expt","0.4697737123","","0.09038071171","","0.3952463752","","","","","","",""
"80","","bandit","228","633914","0.0-190.0-0.0","29289683","wem/bandit_single","A23BMD8M0RLV77","gain","2","","72","H","0","img/none_selected.jpg","1","0","0","0.4476471014","","false","153","0.4476471014","","main_expt","0.446753433","","0.08460578514","","0.3877384472","","","","","","",""
"285","","bandit","229","635965","0.0-191.0-0.0","29289683","wem/bandit_single","A23BMD8M0RLV77","gain","2","","72","H","0","img/none_selected.jpg","1","0","0","0.4505336387","","false","154","0.4505336387","","main_expt","0.4588815304","","0.06957086972","","0.3551427127","","","","","","",""
"299","","bandit","230","638052","0.0-192.0-0.0","29289683","wem/bandit_single","A23BMD8M0RLV77","gain","2","","72","H","0","img/none_selected.jpg","0","0","1","0.466992112","","false","155","0.466992112","","main_expt","0.4483664475","","0.07570805595","","0.3027898514","","","","","","",""
"125","","bandit","231","639967","0.0-193.0-0.0","29289683","wem/bandit_single","A23BMD8M0RLV77","gain","2","","72","H","0","img/none_selected.jpg","1","0","0","0.4383448919","","false","156","0.4383448919","","main_expt","0.4383670719","","0.1010055374","","0.3245978035","","","","","","",""
"56","","bandit","232","641794","0.0-194.0-0.0","29289683","wem/bandit_single","A23BMD8M0RLV77","gain","2","","72","H","0","img/none_selected.jpg","1","0","0","0.4181306447","","false","157","0.4181306447","","main_expt","0.42990192","","0.09959580587","","0.3293821827","","","","","","",""
"181","","bandit","233","643763","0.0-195.0-0.0","29289683","wem/bandit_single","A23BMD8M0RLV77","gain","2","","72","H","0","img/none_selected.jpg","0","0","1","0.4322591637","","false","158","0.4322591637","","main_expt","0.4112902825","","0.09130540219","","0.3053991167","","","","","","",""
"134","","bandit","234","645696","0.0-196.0-0.0","29289683","wem/bandit_single","A23BMD8M0RLV77","gain","2","","72","H","0","img/none_selected.jpg","0","0","1","0.4129829621","","false","159","0.4129829621","","main_expt","0.4085113589","","0.07080299429","","0.3475565739","","","","","","",""
"163","","bandit","235","647654","0.0-197.0-0.0","29289683","wem/bandit_single","A23BMD8M0RLV77","gain","2","","72","H","0","img/none_selected.jpg","1","0","0","0.4094933958","","false","160","0.4094933958","","main_expt","0.4079314082","","0.05017383151","","0.327393219","","","","","","",""
"899","","bandit","236","650326","0.0-198.0-0.0","29289683","wem/bandit_single","A23BMD8M0RLV77","gain","2","","72","H","0","img/none_selected.jpg","1","0","0","0.404058003","","false","161","0.404058003","","main_expt","0.3631501835","","0.03820476969","","0.303429729","","","","","","",""
"105","","bandit","237","652221","0.0-199.0-0.0","29289683","wem/bandit_single","A23BMD8M0RLV77","gain","2","","72","H","0","img/none_selected.jpg","1","0","0","0.3846726044","","false","162","0.3846726044","","main_expt","0.3470346279","","0.02512507724","","0.3079210788","","","","","","",""
"134","","bandit","238","654130","0.0-200.0-0.0","29289683","wem/bandit_single","A23BMD8M0RLV77","gain","2","","72","H","0","img/none_selected.jpg","1","0","0","0.4016559577","","false","163","0.4016559577","","main_expt","0.372656257","","0.03932379445","","0.3004483846","","","","","","",""
"145","","bandit","239","656054","0.0-201.0-0.0","29289683","wem/bandit_single","A23BMD8M0RLV77","gain","2","","72","H","0","img/none_selected.jpg","1","0","0","0.3566256613","","false","164","0.3566256613","","main_expt","0.3802753243","","0.01829840099","","0.2886014424","","","","","","",""
"82","","bandit","240","657907","0.0-202.0-0.0","29289683","wem/bandit_single","A23BMD8M0RLV77","gain","2","","72","H","0","img/none_selected.jpg","0","0","1","0.3509524146","","false","165","0.3509524146","","main_expt","0.3881672334","","0.02415252971","","0.2088325088","","","","","","",""
"199","","bandit","241","659893","0.0-203.0-0.0","29289683","wem/bandit_single","A23BMD8M0RLV77","gain","2","","72","H","0","img/none_selected.jpg","0","0","1","0.2773632025","","false","166","0.2773632025","","main_expt","0.359536632","","0.02185778449","","0.2160195985","","","","","","",""
"284","","bandit","242","661954","0.0-204.0-0.0","29289683","wem/bandit_single","A23BMD8M0RLV77","gain","2","","72","H","0","img/none_selected.jpg","1","0","0","0.3022689801","","false","167","0.3022689801","","main_expt","0.3693034809","","0.02761124673","","0.1836534764","","","","","","",""
"412","","bandit","243","664157","0.0-205.0-0.0","29289683","wem/bandit_single","A23BMD8M0RLV77","gain","2","","72","H","0","img/none_selected.jpg","1","0","0","0.2937690027","","false","168","0.2937690027","","main_expt","0.3449050916","","0.02160611799","","0.1701024481","","","","","","",""
"433","","bandit","244","666375","0.0-206.0-0.0","29289683","wem/bandit_single","A23BMD8M0RLV77","gain","2","","72","H","0","img/none_selected.jpg","0","0","1","0.2488586406","","false","169","0.2488586406","","main_expt","0.3515710367","","0.02113437328","","0.1896079261","","","","","","",""
"304","","bandit","245","668456","0.0-207.0-0.0","29289683","wem/bandit_single","A23BMD8M0RLV77","gain","2","","72","H","0","img/none_selected.jpg","1","0","0","0.2112819205","","false","170","0.2112819205","","main_expt","0.3233833909","","0.01292956957","","0.2377789273","","","","","","",""
"1294","","bandit","246","671523","0.0-208.0-0.0","29289683","wem/bandit_single","A23BMD8M0RLV77","gain","2","","72","H","0","img/none_selected.jpg","0","0","1","0.2217900108","","false","171","0.2217900108","","main_expt","0.2468086364","","0.01989811998","","0.2640247014","","","","","","",""
"531","","bandit","247","673830","0.0-209.0-0.0","29289683","wem/bandit_single","A23BMD8M0RLV77","gain","2","","72","H","0","img/none_selected.jpg","0","0","1","0.2387596097","","false","172","0.2387596097","","main_expt","0.3408906282","","0.0296351857","","0.2055846389","","","","","","",""
"728","","bandit","248","676340","0.0-210.0-0.0","29289683","wem/bandit_single","A23BMD8M0RLV77","gain","2","","72","H","0","img/none_selected.jpg","0","0","1","0.2602125502","","false","173","0.2602125502","","main_expt","0.3252944763","","0.03540771295","","0.2438181894","","","","","","",""
"744","","bandit","249","678858","0.0-211.0-0.0","29289683","wem/bandit_single","A23BMD8M0RLV77","gain","2","","72","H","0","img/none_selected.jpg","0","0","1","0.2202846771","","false","174","0.2202846771","","main_expt","0.3200904142","","0.03725130304","","0.2733147352","","","","","","",""
"214","","bandit","250","680846","0.0-212.0-0.0","29289683","wem/bandit_single","A23BMD8M0RLV77","gain","2","","72","H","0","img/none_selected.jpg","0","0","1","0.233285157","","false","175","0.233285157","","main_expt","0.3622659173","","0.03242602151","","0.2767671147","","","","","","",""
"344","","bandit","251","682984","0.0-213.0-0.0","29289683","wem/bandit_single","A23BMD8M0RLV77","gain","2","","72","H","0","img/none_selected.jpg","0","0","1","0.2264555061","","false","176","0.2264555061","","main_expt","0.2937007374","","0.04697917163","","0.2195478827","","","","","","",""
"362","","bandit","252","685130","0.0-214.0-0.0","29289683","wem/bandit_single","A23BMD8M0RLV77","gain","2","","72","H","0","img/none_selected.jpg","0","0","1","0.241841845","","false","177","0.241841845","","main_expt","0.2513366018","","0.04124559051","","0.1515864758","","","","","","",""
"163","","bandit","253","687076","0.0-215.0-0.0","29289683","wem/bandit_single","A23BMD8M0RLV77","gain","2","","74","J","1","","0","0","1","0.3159509921","","false","178","0.2423953475","","main_expt","0.3159509921","","0.06205026603","","0.1618037694","","","","","","",""
"80","","bandit","254","688931","0.0-216.0-0.0","29289683","wem/bandit_single","A23BMD8M0RLV77","gain","2","","74","J","1","","0","0","1","0.2899582247","","false","179","0.2523089652","","main_expt","0.2899582247","","0.08412795639","","0.1653326191","","","","","","",""
"39","","bandit","255","690758","0.0-217.0-0.0","29289683","wem/bandit_single","A23BMD8M0RLV77","gain","2","","74","J","1","","0","0","1","0.3371390753","","false","180","0.2223981335","","main_expt","0.3371390753","","0.1304099397","","0.1751853148","","","","","","",""
"4","","bandit","256","692551","0.0-218.0-0.0","29289683","wem/bandit_single","A23BMD8M0RLV77","gain","2","","74","J","1","","1","0","0","0.3365963609","","false","181","0.2319473409","","main_expt","0.3365963609","","0.1801801058","","0.211978586","","","","","","",""
"220","","bandit","257","694577","0.0-219.0-0.0","29289683","wem/bandit_single","A23BMD8M0RLV77","gain","2","","74","J","1","","1","0","0","0.2643366398","","false","182","0.2338578761","","main_expt","0.2643366398","","0.1951504204","","0.2323199139","","","","","","",""
"9","","bandit","258","696374","0.0-220.0-0.0","29289683","wem/bandit_single","A23BMD8M0RLV77","gain","2","","74","J","1","","0","0","1","0.2464000872","","false","183","0.265472663","","main_expt","0.2464000872","","0.2330781564","","0.2252803731","","","","","","",""
"115","","bandit","259","698257","0.0-221.0-0.0","29289683","wem/bandit_single","A23BMD8M0RLV77","gain","2","","74","J","1","","0","0","1","0.3039071009","","false","184","0.2826161147","","main_expt","0.3039071009","","0.2711395555","","0.1614269484","","","","","","",""
"406","","bandit","260","700442","0.0-222.0-0.0","29289683","wem/bandit_single","A23BMD8M0RLV77","gain","2","","74","J","1","","1","0","0","0.3100879913","","false","185","0.2542525597","","main_expt","0.3100879913","","0.2182249031","","0.1636939604","","","","","","",""
"442","","bandit","261","702688","0.0-223.0-0.0","29289683","wem/bandit_single","A23BMD8M0RLV77","gain","2","","74","J","1","","0","0","1","0.28505789","","false","186","0.260460085","","main_expt","0.28505789","","0.2609412602","","0.1744134641","","","","","","",""
"98","","bandit","262","704585","0.0-224.0-0.0","29289683","wem/bandit_single","A23BMD8M0RLV77","gain","2","","74","J","1","","0","0","1","0.2698122055","","false","187","0.2119714508","","main_expt","0.2698122055","","0.2242136054","","0.1955069844","","","","","","",""
"43","","bandit","263","706409","0.0-225.0-0.0","29289683","wem/bandit_single","A23BMD8M0RLV77","gain","2","","74","J","1","","0","0","1","0.2270240414","","false","188","0.1887053186","","main_expt","0.2270240414","","0.2404864381","","0.2289740151","","","","","","",""
"51","","bandit","264","708251","0.0-226.0-0.0","29289683","wem/bandit_single","A23BMD8M0RLV77","gain","2","","74","J","1","","0","0","1","0.2182158859","","false","189","0.1944753942","","main_expt","0.2182158859","","0.2177927796","","0.2495887903","","","","","","",""
"7","","bandit","265","710041","0.0-227.0-0.0","29289683","wem/bandit_single","A23BMD8M0RLV77","gain","2","","74","J","1","","0","0","1","0.2445882628","","false","190","0.2163673671","","main_expt","0.2445882628","","0.2445379922","","0.2815424982","","","","","","",""
"13","","bandit","266","711827","0.0-228.0-0.0","29289683","wem/bandit_single","A23BMD8M0RLV77","gain","2","","75","K","2","","0","0","1","0.2910265903","","false","191","0.2584180811","","main_expt","0.2733302752","","0.2910265903","","0.2401402076","","","","","","",""
"61","","bandit","267","713677","0.0-229.0-0.0","29289683","wem/bandit_single","A23BMD8M0RLV77","gain","2","","75","K","2","","0","0","1","0.3095983682","","false","192","0.2555063139","","main_expt","0.2776932955","","0.3095983682","","0.2510809658","","","","","","",""
"54","","bandit","268","715562","0.0-230.0-0.0","29289683","wem/bandit_single","A23BMD8M0RLV77","gain","2","","75","K","2","","0","0","1","0.3217156539","","false","193","0.2694863875","","main_expt","0.3335190616","","0.3217156539","","0.2875405407","","","","","","",""
"228","","bandit","269","717569","0.0-231.0-0.0","29289683","wem/bandit_single","A23BMD8M0RLV77","gain","2","","75","K","2","","0","0","1","0.278878796","","false","194","0.2894821148","","main_expt","0.3308991278","","0.278878796","","0.2183543786","","","","","","",""
"519","","bandit","270","719871","0.0-232.0-0.0","29289683","wem/bandit_single","A23BMD8M0RLV77","gain","2","","75","K","2","","1","0","0","0.2738334973","","false","195","0.3028339589","","main_expt","0.3676749275","","0.2738334973","","0.2626349305","","","","","","",""
"89","","bandit","271","721754","0.0-233.0-0.0","29289683","wem/bandit_single","A23BMD8M0RLV77","gain","2","","75","K","2","","0","0","1","0.2494818112","","false","196","0.3051171059","","main_expt","0.3523241719","","0.2494818112","","0.2046446137","","","","","","",""
"81","","bandit","272","723622","0.0-234.0-0.0","29289683","wem/bandit_single","A23BMD8M0RLV77","gain","2","","75","K","2","","0","0","1","0.2620473779","","false","197","0.2901305303","","main_expt","0.3874168703","","0.2620473779","","0.2122082762","","","","","","",""
"59","","bandit","273","725472","0.0-235.0-0.0","29289683","wem/bandit_single","A23BMD8M0RLV77","gain","2","","75","K","2","","0","0","1","0.3153682745","","false","198","0.2403600488","","main_expt","0.4072223947","","0.3153682745","","0.1962120249","","","","","","",""
"242","","bandit","274","727502","0.0-236.0-0.0","29289683","wem/bandit_single","A23BMD8M0RLV77","gain","2","","75","K","2","","0","0","1","0.2424407548","","false","199","0.2034733728","","main_expt","0.4284861426","","0.2424407548","","0.1840541487","","","","","","",""
"112","","bandit","275","729401","0.0-237.0-0.0","29289683","wem/bandit_single","A23BMD8M0RLV77","gain","2","","75","K","2","","0","0","1","0.2692586032","","false","200","0.2193557146","","main_expt","0.4181746593","","0.2692586032","","0.1575563837","","","","","","",""
"602","","bandit","276","731793","0.0-238.0-0.0","29289683","wem/bandit_single","A23BMD8M0RLV77","gain","2","","72","H","0","img/none_selected.jpg","1","0","0","0.2412650678","","false","201","0.2412650678","","main_expt","0.4134190678","","0.2605377594","","0.138860739","","","","","","",""
"76","","bandit","277","733658","0.0-239.0-0.0","29289683","wem/bandit_single","A23BMD8M0RLV77","gain","2","","72","H","0","img/none_selected.jpg","0","0","1","0.2106041824","","false","202","0.2106041824","","main_expt","0.4255663607","","0.2372211354","","0.1216759056","","","","","","",""
"241","","bandit","278","735690","0.0-240.0-0.0","29289683","wem/bandit_single","A23BMD8M0RLV77","gain","2","","72","H","0","img/none_selected.jpg","0","0","1","0.2182463191","","false","203","0.2182463191","","main_expt","0.4267176133","","0.20896917","","0.1085797693","","","","","","",""
"68","","bandit","279","737539","0.0-241.0-0.0","29289683","wem/bandit_single","A23BMD8M0RLV77","gain","2","","72","H","0","img/none_selected.jpg","0","0","1","0.2060997213","","false","204","0.2060997213","","main_expt","0.460819217","","0.2277156902","","0.08750272662","","","","","","",""
"71","","bandit","280","739414","0.0-242.0-0.0","29289683","wem/bandit_single","A23BMD8M0RLV77","gain","2","","72","H","0","img/none_selected.jpg","0","0","1","0.2179237498","","false","205","0.2179237498","","main_expt","0.4797370756","","0.2096017385","","0.1119911725","","","","","","",""
"118","","bandit","281","741329","0.0-243.0-0.0","29289683","wem/bandit_single","A23BMD8M0RLV77","gain","2","","72","H","0","img/none_selected.jpg","0","0","1","0.194566176","","false","206","0.194566176","","main_expt","0.4850202511","","0.2293009918","","0.105166696","","","","","","",""
"93","","bandit","282","743219","0.0-244.0-0.0","29289683","wem/bandit_single","A23BMD8M0RLV77","gain","2","","72","H","0","img/none_selected.jpg","0","0","1","0.2540459421","","false","207","0.2540459421","","main_expt","0.4588339162","","0.2613461541","","0.07428909222","","","","","","",""
"82","","bandit","283","745088","0.0-245.0-0.0","29289683","wem/bandit_single","A23BMD8M0RLV77","gain","2","","72","H","0","img/none_selected.jpg","0","0","1","0.2165425212","","false","208","0.2165425212","","main_expt","0.4704498371","","0.2921374763","","0.08415887516","","","","","","",""
"229","","bandit","284","747096","0.0-246.0-0.0","29289683","wem/bandit_single","A23BMD8M0RLV77","gain","2","","72","H","0","img/none_selected.jpg","0","0","1","0.1808740619","","false","209","0.1808740619","","main_expt","0.4498430745","","0.2679345114","","0.05558253146","","","","","","",""
"831","","bandit","285","749714","0.0-247.0-0.0","29289683","wem/bandit_single","A23BMD8M0RLV77","gain","2","","74","J","1","","1","0","0","0.4463117693","","false","210","0.2298827717","","main_expt","0.4463117693","","0.2356021564","","0.04914985493","","","","","","",""
"136","","bandit","286","751639","0.0-248.0-0.0","29289683","wem/bandit_single","A23BMD8M0RLV77","gain","2","","74","J","1","","0","0","1","0.422163821","","false","211","0.2533880575","","main_expt","0.422163821","","0.2152320876","","0.03798033643","","","","","","",""
"140","","bandit","287","753551","0.0-249.0-0.0","29289683","wem/bandit_single","A23BMD8M0RLV77","gain","2","","74","J","1","","0","0","1","0.3852039581","","false","212","0.2771241442","","main_expt","0.3852039581","","0.2216595069","","0.03974322714","","","","","","",""
"24","","bandit","288","755349","0.0-250.0-0.0","29289683","wem/bandit_single","A23BMD8M0RLV77","gain","2","","74","J","1","","1","0","0","0.3822954745","","false","213","0.3010302337","","main_expt","0.3822954745","","0.2150176613","","0.02384455773","","","","","","",""
"168","","bandit","289","757299","0.0-251.0-0.0","29289683","wem/bandit_single","A23BMD8M0RLV77","gain","2","","74","J","1","","0","0","1","0.3608549874","","false","214","0.3409008015","","main_expt","0.3608549874","","0.1772129937","","0.03216660231","","","","","","",""
"35","","bandit","290","759110","0.0-252.0-0.0","29289683","wem/bandit_single","A23BMD8M0RLV77","gain","2","","74","J","1","","0","0","1","0.3621739951","","false","215","0.3227810677","","main_expt","0.3621739951","","0.1584975441","","0.03095464101","","","","","","",""
"34","","bandit","291","760913","0.0-253.0-0.0","29289683","wem/bandit_single","A23BMD8M0RLV77","gain","2","","74","J","1","","0","0","1","0.3733564142","","false","216","0.3636386285","","main_expt","0.3733564142","","0.1256434713","","0.04011500866","","","","","","",""
"319","","bandit","292","763026","0.0-254.0-0.0","29289683","wem/bandit_single","A23BMD8M0RLV77","gain","2","","74","J","1","","1","0","0","0.3856473275","","false","217","0.3649758886","","main_expt","0.3856473275","","0.1601534085","","0.02351309264","","","","","","",""
"125","","bandit","293","764941","0.0-255.0-0.0","29289683","wem/bandit_single","A23BMD8M0RLV77","gain","2","","74","J","1","","0","0","1","0.3645608201","","false","218","0.3641131336","","main_expt","0.3645608201","","0.1514518834","","0.01650540734","","","","","","",""
"619","","bandit","294","767352","0.0-256.0-0.0","29289683","wem/bandit_single","A23BMD8M0RLV77","gain","2","","74","J","1","","0","0","1","0.3851453746","","false","219","0.341156599","","main_expt","0.3851453746","","0.2415223947","","0.03577324375","","","","","","",""
"586","","bandit","295","769709","0.0-257.0-0.0","29289683","wem/bandit_single","A23BMD8M0RLV77","gain","2","","74","J","1","","1","0","0","0.4075423229","","false","220","0.266049218","","main_expt","0.4075423229","","0.2248182851","","0.03655385126","","","","","","",""
"761","","bandit","296","772256","0.0-258.0-0.0","29289683","wem/bandit_single","A23BMD8M0RLV77","gain","2","","74","J","1","","0","0","1","0.4083347012","","false","221","0.2359154628","","main_expt","0.4083347012","","0.2588925836","","0.03282050992","","","","","","",""
"309","","bandit","297","774361","0.0-259.0-0.0","29289683","wem/bandit_single","A23BMD8M0RLV77","gain","2","","74","J","1","","1","0","0","0.4083223781","","false","222","0.2640726019","","main_expt","0.4083223781","","0.2025188389","","0.02558717114","","","","","","",""
"392","","bandit","298","776528","0.0-260.0-0.0","29289683","wem/bandit_single","A23BMD8M0RLV77","gain","2","","74","J","1","","0","0","1","0.4240474742","","false","223","0.1860418506","","main_expt","0.4240474742","","0.1609755914","","0.04788205671","","","","","","",""
"72","","bandit","299","778372","0.0-261.0-0.0","29289683","wem/bandit_single","A23BMD8M0RLV77","gain","2","","74","J","1","","1","0","0","0.4346876605","","false","224","0.151875944","","main_expt","0.4346876605","","0.2316748255","","0.05498715651","","","","","","",""
"248","","bandit","300","780415","0.0-262.0-0.0","29289683","wem/bandit_single","A23BMD8M0RLV77","gain","2","","74","J","1","","0","0","1","0.4541072866","","false","225","0.1209973656","","main_expt","0.4541072866","","0.1605893144","","0.056476577","","","","","","",""
"261","","bandit","301","782466","0.0-263.0-0.0","29289683","wem/bandit_single","A23BMD8M0RLV77","gain","2","","74","J","1","","1","0","0","0.4239515892","","false","226","0.1503457952","","main_expt","0.4239515892","","0.1389366963","","0.06361054401","","","","","","",""
"436","","bandit","302","784699","0.0-264.0-0.0","29289683","wem/bandit_single","A23BMD8M0RLV77","gain","2","","74","J","1","","0","0","1","0.4122914309","","false","227","0.1784166707","","main_expt","0.4122914309","","0.09987042713","","0.03819722012","","","","","","",""
"61","","bandit","303","786545","0.0-265.0-0.0","29289683","wem/bandit_single","A23BMD8M0RLV77","gain","2","","74","J","1","","1","0","0","0.4022765074","","false","228","0.1729157366","","main_expt","0.4022765074","","0.1511988136","","0.03706892342","","","","","","",""
"350","","bandit","304","788689","0.0-266.0-0.0","29289683","wem/bandit_single","A23BMD8M0RLV77","gain","2","","74","J","1","","1","0","0","0.3991813765","","false","229","0.2035050609","","main_expt","0.3991813765","","0.1165125066","","0.05619366589","","","","","","",""
"157","","bandit","305","790617","0.0-267.0-0.0","29289683","wem/bandit_single","A23BMD8M0RLV77","gain","2","","74","J","1","","1","0","0","0.3771825363","","false","230","0.1677195288","","main_expt","0.3771825363","","0.09058018373","","0.02398835026","","","","","","",""
"202","","bandit","306","792600","0.0-268.0-0.0","29289683","wem/bandit_single","A23BMD8M0RLV77","gain","2","","74","J","1","","0","0","1","0.4081115595","","false","231","0.1568417205","","main_expt","0.4081115595","","0.1254599363","","0.01087418165","","","","","","",""
"32","","bandit","307","794419","0.0-269.0-0.0","29289683","wem/bandit_single","A23BMD8M0RLV77","gain","2","","74","J","1","","0","0","1","0.4227202023","","false","232","0.1733774055","","main_expt","0.4227202023","","0.09699218641","","0.005667282796","","","","","","",""
"83","","bandit","308","796302","0.0-270.0-0.0","29289683","wem/bandit_single","A23BMD8M0RLV77","gain","2","","74","J","1","","0","0","1","0.4267606383","","false","233","0.2318808439","","main_expt","0.4267606383","","0.07122003092","","0.00711790457","","","","","","",""
"109","","bandit","309","798211","0.0-271.0-0.0","29289683","wem/bandit_single","A23BMD8M0RLV77","gain","2","","74","J","1","","1","0","0","0.4076790224","","false","234","0.2728484722","","main_expt","0.4076790224","","0.07078025717","","0.01087448681","","","","","","",""
"62","","bandit","310","800049","0.0-272.0-0.0","29289683","wem/bandit_single","A23BMD8M0RLV77","gain","2","","74","J","1","","1","0","0","0.3750136452","","false","235","0.230842538","","main_expt","0.3750136452","","0.04546889639","","0.008183852991","","","","","","",""
"400","","bandit","311","802235","0.0-273.0-0.0","29289683","wem/bandit_single","A23BMD8M0RLV77","gain","2","","74","J","1","","0","0","1","0.3579900966","","false","236","0.2565969246","","main_expt","0.3579900966","","0.07949547843","","0.00957014591","","","","","","",""
"48","","bandit","312","804066","0.0-274.0-0.0","29289683","wem/bandit_single","A23BMD8M0RLV77","gain","2","","74","J","1","","1","0","0","0.3685919787","","false","237","0.2661079812","","main_expt","0.3685919787","","0.06498208703","","0.02345003211","","","","","","",""
"224","","bandit","313","806068","0.0-275.0-0.0","29289683","wem/bandit_single","A23BMD8M0RLV77","gain","2","","74","J","1","","1","0","0","0.3220789964","","false","238","0.3192940022","","main_expt","0.3220789964","","0.07283675032","","0.02056264696","","","","","","",""
"338","","bandit","314","808195","0.0-276.0-0.0","29289683","wem/bandit_single","A23BMD8M0RLV77","gain","2","","74","J","1","","1","0","0","0.3059519391","","false","239","0.3150738333","","main_expt","0.3059519391","","0.08723568047","","0.02436326326","","","","","","",""
"333","","bandit","315","810324","0.0-277.0-0.0","29289683","wem/bandit_single","A23BMD8M0RLV77","gain","2","","74","J","1","","1","0","0","0.3168560559","","false","240","0.3008600842","","main_expt","0.3168560559","","0.06404566497","","0.0242835944","","","","","","",""
"379","","bandit","316","812499","0.0-278.0-0.0","29289683","wem/bandit_single","A23BMD8M0RLV77","gain","2","","74","J","1","","0","0","1","0.269391424","","false","241","0.2677087501","","main_expt","0.269391424","","0.05187051438","","0.02652021178","","","","","","",""
"288","","bandit","317","814573","0.0-279.0-0.0","29289683","wem/bandit_single","A23BMD8M0RLV77","gain","2","","74","J","1","","0","0","1","0.2061132751","","false","242","0.2645585527","","main_expt","0.2061132751","","0.04056120823","","0.0264543433","","","","","","",""
"2","","bandit","318","816365","0.0-280.0-0.0","29289683","wem/bandit_single","A23BMD8M0RLV77","gain","2","","74","J","1","","0","0","1","0.1996760118","","false","243","0.2793098336","","main_expt","0.1996760118","","0.02806248696","","0.02176476481","","","","","","",""
"225","","bandit","319","818367","0.0-281.0-0.0","29289683","wem/bandit_single","A23BMD8M0RLV77","gain","2","","74","J","1","","0","0","1","0.1719334629","","false","244","0.285685864","","main_expt","0.1719334629","","0.04063524207","","0.01301534777","","","","","","",""
"32","","bandit","320","820179","0.0-282.0-0.0","29289683","wem/bandit_single","A23BMD8M0RLV77","gain","2","","74","J","1","","1","0","0","0.2264626889","","false","245","0.2792363563","","main_expt","0.2264626889","","0.03258124644","","0.02332936253","","","","","","",""
"245","","bandit","321","822205","0.0-283.0-0.0","29289683","wem/bandit_single","A23BMD8M0RLV77","gain","2","","74","J","1","","0","0","1","0.2097999869","","false","246","0.2721020884","","main_expt","0.2097999869","","0.034431304","","0.02379131239","","","","","","",""
"185","","bandit","322","824162","0.0-284.0-0.0","29289683","wem/bandit_single","A23BMD8M0RLV77","gain","2","","74","J","1","","0","0","1","0.2190078117","","false","247","0.2784836582","","main_expt","0.2190078117","","0.0335896152","","0.02988301985","","","","","","",""
"23","","bandit","323","825968","0.0-285.0-0.0","29289683","wem/bandit_single","A23BMD8M0RLV77","gain","2","","74","J","1","","0","0","1","0.214739415","","false","248","0.2155360038","","main_expt","0.214739415","","0.0373608022","","0.04121629219","","","","","","",""
"124","","bandit","324","827874","0.0-286.0-0.0","29289683","wem/bandit_single","A23BMD8M0RLV77","gain","2","","74","J","1","","0","0","1","0.2361668487","","false","249","0.2182269439","","main_expt","0.2361668487","","0.04629433077","","0.03081548873","","","","","","",""
"142","","bandit","325","829806","0.0-287.0-0.0","29289683","wem/bandit_single","A23BMD8M0RLV77","gain","2","","74","J","1","","0","0","1","0.2730147117","","false","250","0.2794373206","","main_expt","0.2730147117","","0.04794370872","","0.02831669856","","","","","","",""
"28","","bandit","326","831630","0.0-288.0-0.0","29289683","wem/bandit_single","A23BMD8M0RLV77","gain","2","","74","J","1","","0","0","1","0.2591269664","","false","251","0.2925698281","","main_expt","0.2591269664","","0.06568157066","","0.02600870455","","","","","","",""
"205","","bandit","327","833608","0.0-289.0-0.0","29289683","wem/bandit_single","A23BMD8M0RLV77","gain","2","","75","K","2","","1","0","0","0.07567030371","","false","252","0.2727886948","","main_expt","0.3091321407","","0.07567030371","","0.02705961599","","","","","","",""
"148","","bandit","328","835530","0.0-290.0-0.0","29289683","wem/bandit_single","A23BMD8M0RLV77","gain","2","","75","K","2","","0","0","1","0.06628052114","","false","253","0.2470803404","","main_expt","0.2284010385","","0.06628052114","","0.01805963102","","","","","","",""
"319","","bandit","329","837638","0.0-291.0-0.0","29289683","wem/bandit_single","A23BMD8M0RLV77","gain","2","","75","K","2","","0","0","1","0.08321976201","","false","254","0.3366881304","","main_expt","0.2452739286","","0.08321976201","","0.01631706542","","","","","","",""
"1","","bandit","330","839426","0.0-292.0-0.0","29289683","wem/bandit_single","A23BMD8M0RLV77","gain","2","","75","K","2","","0","0","1","0.1379446817","","false","255","0.3781216995","","main_expt","0.2769296881","","0.1379446817","","0.01966147099","","","","","","",""
"223","","bandit","331","841430","0.0-293.0-0.0","29289683","wem/bandit_single","A23BMD8M0RLV77","gain","2","","75","K","2","","0","0","1","0.1104053019","","false","256","0.3565974786","","main_expt","0.222598086","","0.1104053019","","0.02801527349","","","","","","",""
"396","","bandit","332","843620","0.0-294.0-0.0","29289683","wem/bandit_single","A23BMD8M0RLV77","gain","2","","75","K","2","","0","0","1","0.110095483","","false","257","0.3668333327","","main_expt","0.2497605863","","0.110095483","","0.02393064904","","","","","","",""
"157","","bandit","333","845568","0.0-295.0-0.0","29289683","wem/bandit_single","A23BMD8M0RLV77","gain","2","","75","K","2","","0","0","1","0.09250214804","","false","258","0.3978392262","","main_expt","0.248028097","","0.09250214804","","0.01715644076","","","","","","",""
"253","","bandit","334","847611","0.0-296.0-0.0","29289683","wem/bandit_single","A23BMD8M0RLV77","gain","2","","75","K","2","","0","0","1","0.1288972452","","false","259","0.3892622443","","main_expt","0.210079309","","0.1288972452","","0.01812234738","","","","","","",""
"424","","bandit","335","849822","0.0-297.0-0.0","29289683","wem/bandit_single","A23BMD8M0RLV77","gain","2","","75","K","2","","1","0","0","0.127844668","","false","260","0.3787635018","","main_expt","0.1785868889","","0.127844668","","0.01699252537","","","","","","",""
"109","","bandit","336","851721","0.0-298.0-0.0","29289683","wem/bandit_single","A23BMD8M0RLV77","gain","2","","75","K","2","","1","0","0","0.1408125104","","false","261","0.4151771386","","main_expt","0.1855690742","","0.1408125104","","0.02027773674","","","","","","",""
"7","","bandit","337","853516","0.0-299.0-0.0","29289683","wem/bandit_single","A23BMD8M0RLV77","gain","2","","75","K","2","","0","0","1","0.1423762304","","false","262","0.4184001904","","main_expt","0.2454672077","","0.1423762304","","0.008159173947","","","","","","",""
"107","","bandit","338","855395","0.0-300.0-0.0","29289683","wem/bandit_single","A23BMD8M0RLV77","gain","2","","75","K","2","","0","0","1","0.1237094287","","false","263","0.4397427278","","main_expt","0.2423041147","","0.1237094287","","0.00730364875","","","","","","",""
"119","","bandit","339","857290","0.0-301.0-0.0","29289683","wem/bandit_single","A23BMD8M0RLV77","gain","2","","75","K","2","","0","0","1","0.1110826985","","false","264","0.4308816061","","main_expt","0.2771483686","","0.1110826985","","0.008891010149","","","","","","",""
"1","","bandit","340","859072","0.0-302.0-0.0","29289683","wem/bandit_single","A23BMD8M0RLV77","gain","2","","75","K","2","","0","0","1","0.09816719149","","false","265","0.4310956018","","main_expt","0.2066329382","","0.09816719149","","0.009434589262","","","","","","",""
"298","","bandit","341","861160","0.0-303.0-0.0","29289683","wem/bandit_single","A23BMD8M0RLV77","gain","2","","75","K","2","","0","0","1","0.1313615454","","false","266","0.4462346174","","main_expt","0.1954640054","","0.1313615454","","0.009503255165","","","","","","",""
"147","","bandit","342","863077","0.0-304.0-0.0","29289683","wem/bandit_single","A23BMD8M0RLV77","gain","2","","75","K","2","","0","0","1","0.1039649444","","false","267","0.4649068607","","main_expt","0.132533774","","0.1039649444","","0.01294763698","","","","","","",""
"301","","bandit","343","865154","0.0-305.0-0.0","29289683","wem/bandit_single","A23BMD8M0RLV77","gain","2","","75","K","2","","1","0","0","0.0758663636","","false","268","0.4499385749","","main_expt","0.1212355483","","0.0758663636","","0.01002763249","","","","","","",""
"418","","bandit","344","867362","0.0-306.0-0.0","29289683","wem/bandit_single","A23BMD8M0RLV77","gain","2","","75","K","2","","0","0","1","0.08641939852","","false","269","0.4702815535","","main_expt","0.1363236216","","0.08641939852","","0.009339874814","","","","","","",""
"91","","bandit","345","869258","0.0-307.0-0.0","29289683","wem/bandit_single","A23BMD8M0RLV77","gain","2","","75","K","2","","0","0","1","0.08694739741","","false","270","0.4738293899","","main_expt","0.1061923246","","0.08694739741","","0.0101894737","","","","","","",""
"59","","bandit","346","871083","0.0-308.0-0.0","29289683","wem/bandit_single","A23BMD8M0RLV77","gain","2","","75","K","2","","0","0","1","0.07507278363","","false","271","0.4552130477","","main_expt","0.09682021381","","0.07507278363","","0.0101062795","","","","","","",""
"23","","bandit","347","872887","0.0-309.0-0.0","29289683","wem/bandit_single","A23BMD8M0RLV77","gain","2","","75","K","2","","0","0","1","0.09002305832","","false","272","0.4571227508","","main_expt","0.0728164368","","0.09002305832","","0.009276773287","","","","","","",""
"295","","bandit","348","874977","0.0-310.0-0.0","29289683","wem/bandit_single","A23BMD8M0RLV77","gain","2","","75","K","2","","0","0","1","0.07941117108","","false","273","0.4262778794","","main_expt","0.1026255411","","0.07941117108","","0.0113492324","","","","","","",""
"551","","bandit","349","877304","0.0-311.0-0.0","29289683","wem/bandit_single","A23BMD8M0RLV77","gain","2","","75","K","2","","0","0","1","0.09301171309","","false","274","0.4017895895","","main_expt","0.08683802548","","0.09301171309","","0.005483919941","","","","","","",""
"321","","bandit","350","879416","0.0-312.0-0.0","29289683","wem/bandit_single","A23BMD8M0RLV77","gain","2","","76","L","3","","0","0","1","0.00462874381","","false","275","0.4017548056","","main_expt","0.08250982893","","0.1012072593","","0.00462874381","","","","","","",""
"60","","bandit","351","881261","0.0-313.0-0.0","29289683","wem/bandit_single","A23BMD8M0RLV77","gain","2","","76","L","3","","0","0","1","0.009610611089","","false","276","0.4072561249","","main_expt","0.06031930624","","0.1230964009","","0.009610611089","","","","","","",""
"30","","bandit","352","883073","0.0-314.0-0.0","29289683","wem/bandit_single","A23BMD8M0RLV77","gain","2","","76","L","3","","0","0","1","0.01319252808","","false","277","0.3248287115","","main_expt","0.07169075363","","0.1320105939","","0.01319252808","","","","","","",""
"55","","bandit","353","884913","0.0-315.0-0.0","29289683","wem/bandit_single","A23BMD8M0RLV77","gain","2","","76","L","3","","0","0","1","0.008560453299","","false","278","0.2954662343","","main_expt","0.119525529","","0.100271112","","0.008560453299","","","","","","",""
"225","","bandit","354","886913","0.0-316.0-0.0","29289683","wem/bandit_single","A23BMD8M0RLV77","gain","2","","76","L","3","","0","0","1","0.02270234009","","false","279","0.3430788315","","main_expt","0.05136608794","","0.0752783975","","0.02270234009","","","","","","",""
"587","","bandit","355","889304","0.0-317.0-0.0","29289683","wem/bandit_single","A23BMD8M0RLV77","gain","2","","72","H","0","img/none_selected.jpg","0","0","1","0.298888987","","false","280","0.298888987","","main_expt","0.06692305053","","0.04609407158","","0.01842994591","","","","","","",""
"89","","bandit","356","891177","0.0-318.0-0.0","29289683","wem/bandit_single","A23BMD8M0RLV77","gain","2","","72","H","0","img/none_selected.jpg","0","0","1","0.317374049","","false","281","0.317374049","","main_expt","0.08594942048","","0.05874754036","","0.01750385803","","","","","","",""
"57","","bandit","357","893012","0.0-319.0-0.0","29289683","wem/bandit_single","A23BMD8M0RLV77","gain","2","","72","H","0","img/none_selected.jpg","1","0","0","0.2905756231","","false","282","0.2905756231","","main_expt","0.08562343316","","0.05911354127","","0.01075771148","","","","","","",""
"45","","bandit","358","894863","0.0-320.0-0.0","29289683","wem/bandit_single","A23BMD8M0RLV77","gain","2","","72","H","0","img/none_selected.jpg","0","0","1","0.335540713","","false","283","0.335540713","","main_expt","0.06507866554","","0.0444902615","","0.009487342711","","","","","","",""
"55","","bandit","359","896696","0.0-321.0-0.0","29289683","wem/bandit_single","A23BMD8M0RLV77","gain","2","","72","H","0","img/none_selected.jpg","0","0","1","0.3569674754","","false","284","0.3569674754","","main_expt","0.05738126215","","0.03666520406","","0.01035814212","","","","","","",""
"8","","bandit","360","898504","0.0-322.0-0.0","29289683","wem/bandit_single","A23BMD8M0RLV77","gain","2","","72","H","0","img/none_selected.jpg","0","0","1","0.4068019922","","false","285","0.4068019922","","main_expt","0.06337296056","","0.02451873239","","0.01056818013","","","","","","",""
"260","","bandit","361","900559","0.0-323.0-0.0","29289683","wem/bandit_single","A23BMD8M0RLV77","gain","2","","74","J","1","","1","0","0","0.04649068967","","false","286","0.432978486","","main_expt","0.04649068967","","0.02877547985","","0.007821227136","","","","","","",""
"207","","bandit","362","902547","0.0-324.0-0.0","29289683","wem/bandit_single","A23BMD8M0RLV77","gain","2","","74","J","1","","0","0","1","0.04946639224","","false","287","0.4213006965","","main_expt","0.04946639224","","0.03331393821","","0.01039042452","","","","","","",""
"91","","bandit","363","904440","0.0-325.0-0.0","29289683","wem/bandit_single","A23BMD8M0RLV77","gain","2","","74","J","1","","0","0","1","0.03962947871","","false","288","0.4094413186","","main_expt","0.03962947871","","0.02363643209","","0.02141961277","","","","","","",""
"53","","bandit","364","906280","0.0-326.0-0.0","29289683","wem/bandit_single","A23BMD8M0RLV77","gain","2","","74","J","1","","0","0","1","0.05295486238","","false","289","0.3731302572","","main_expt","0.05295486238","","0.0366455232","","0.02062414181","","","","","","",""
"66","","bandit","365","908142","0.0-327.0-0.0","29289683","wem/bandit_single","A23BMD8M0RLV77","gain","2","","74","J","1","","0","0","1","0.06311332932","","false","290","0.4076032329","","main_expt","0.06311332932","","0.04887184979","","0.01411690602","","","","","","",""
"99","","bandit","366","910009","0.0-328.0-0.0","29289683","wem/bandit_single","A23BMD8M0RLV77","gain","2","","74","J","1","","0","0","1","0.07741633782","","false","291","0.4134699565","","main_expt","0.07741633782","","0.03783642248","","0.03188260643","","","","","","",""
"50","","bandit","367","911864","0.0-329.0-0.0","29289683","wem/bandit_single","A23BMD8M0RLV77","gain","2","","74","J","1","","0","0","1","0.09064252153","","false","292","0.3827884258","","main_expt","0.09064252153","","0.07820299584","","0.03429620073","","","","","","",""
"276","","bandit","368","913937","0.0-330.0-0.0","29289683","wem/bandit_single","A23BMD8M0RLV77","gain","2","","74","J","1","","0","0","1","0.07659126906","","false","293","0.4162015812","","main_expt","0.07659126906","","0.07060894185","","0.030392347","","","","","","",""
"3","","bandit","369","915725","0.0-331.0-0.0","29289683","wem/bandit_single","A23BMD8M0RLV77","gain","2","","74","J","1","","0","0","1","0.08042624432","","false","294","0.447674372","","main_expt","0.08042624432","","0.1051632986","","0.04782046051","","","","","","",""
