"rt","responses","trial_type","trial_index","time_elapsed","internal_node_id","subjID","study","MID","cond","drift","key_press","respCharCode","respKey","respChoiceNum","respChoice","gems","bombs","no_reward","GemPrChosen","BombPrChosen","practice","trial_counter","WinPr_0","LosePr_0","trial_label","WinPr_1","LosePr_1","WinPr_2","LosePr_2","WinPr_3","LosePr_3","Q0","Q1","Q2","gender","age","ethnicity"
"15293","{""Q0"":""AYVARBZ9EH6J1""}","survey-text","0","15301","0.0-0.0","29655236","wem/bandit_single","AYVARBZ9EH6J1","pain","5","","","","","","","","","","","","","","","","","","","","","","","","","","",""
"29771","","text","1","46076","0.0-1.0","29655236","wem/bandit_single","AYVARBZ9EH6J1","pain","5","32","","","","","","","","","","","","","","","","","","","","","","","","","",""
"919","","text","2","46997","0.0-2.0","29655236","wem/bandit_single","AYVARBZ9EH6J1","pain","5","32","","","","","","","","","","","","","","","","","","","","","","","","","",""
"1079","","text","3","48078","0.0-3.0","29655236","wem/bandit_single","AYVARBZ9EH6J1","pain","5","32","","","","","","","","","","","","","","","","","","","","","","","","","",""
"622","","text","4","48701","0.0-4.0","29655236","wem/bandit_single","AYVARBZ9EH6J1","pain","5","32","","","","","","","","","","","","","","","","","","","","","","","","","",""
"966","","text","5","49669","0.0-5.0","29655236","wem/bandit_single","AYVARBZ9EH6J1","pain","5","32","","","","","","","","","","","","","","","","","","","","","","","","","",""
"631","","text","6","50302","0.0-6.0","29655236","wem/bandit_single","AYVARBZ9EH6J1","pain","5","32","","","","","","","","","","","","","","","","","","","","","","","","","",""
"660","","text","7","50964","0.0-7.0","29655236","wem/bandit_single","AYVARBZ9EH6J1","pain","5","32","","","","","","","","","","","","","","","","","","","","","","","","","",""
"608","","text","8","51573","0.0-8.0","29655236","wem/bandit_single","AYVARBZ9EH6J1","pain","5","32","","","","","","","","","","","","","","","","","","","","","","","","","",""
"630","","text","9","52204","0.0-9.0","29655236","wem/bandit_single","AYVARBZ9EH6J1","pain","5","32","","","","","","","","","","","","","","","","","","","","","","","","","",""
"1041","","text","10","53245","0.0-10.0","29655236","wem/bandit_single","AYVARBZ9EH6J1","pain","5","32","","","","","","","","","","","","","","","","","","","","","","","","","",""
"1452","","text","11","54699","0.0-11.0","29655236","wem/bandit_single","AYVARBZ9EH6J1","pain","5","32","","","","","","","","","","","","","","","","","","","","","","","","","",""
"9148","","bandit","12","65356","0.0-12.0-0.0","29655236","wem/bandit_single","AYVARBZ9EH6J1","pain","5","","74","J","0","img/none_selected_demo.jpg","0","0","1","0","0","true","0","0","0","","","","","","","","","","","","",""
"546","","bandit","13","67659","0.0-13.0-0.0","29655236","wem/bandit_single","AYVARBZ9EH6J1","pain","5","","75","K","0","img/none_selected_demo.jpg","0","0","1","0","0","true","0","0","0","","","","","","","","","","","","",""
"1316","","text","14","69228","0.0-14.0","29655236","wem/bandit_single","AYVARBZ9EH6J1","pain","5","32","","","","","","","","","","","","","","","","","","","","","","","","","",""
"2950","","text","15","72179","0.0-15.0","29655236","wem/bandit_single","AYVARBZ9EH6J1","pain","5","32","","","","","","","","","","","","","","","","","","","","","","","","","",""
"1584","","text","16","73764","0.0-16.0","29655236","wem/bandit_single","AYVARBZ9EH6J1","pain","5","32","","","","","","","","","","","","","","","","","","","","","","","","","",""
"11374","","text","17","85138","0.0-17.0","29655236","wem/bandit_single","AYVARBZ9EH6J1","pain","5","32","","","","","","","","","","","","","","","","","","","","","","","","","",""
"934","","bandit","18","87578","0.0-18.0-0.0","29655236","wem/bandit_single","AYVARBZ9EH6J1","pain","5","","74","J","0","img/none_selected_demo.jpg","0","1","0","0","0.8","true","0","0","0.8","80_20_practice","0","0.2","","","","","","","","","",""
"605","","bandit","19","89939","0.0-18.0-1.0","29655236","wem/bandit_single","AYVARBZ9EH6J1","pain","5","","74","J","0","img/none_selected_demo.jpg","0","1","0","0","0.8","true","0","0","0.8","80_20_practice","0","0.2","","","","","","","","","",""
"1082","","bandit","20","92779","0.0-18.0-2.0","29655236","wem/bandit_single","AYVARBZ9EH6J1","pain","5","","74","J","0","img/none_selected_demo.jpg","0","0","1","0","0.8","true","0","0","0.8","80_20_practice","0","0.2","","","","","","","","","",""
"499","","bandit","21","95035","0.0-18.0-3.0","29655236","wem/bandit_single","AYVARBZ9EH6J1","pain","5","","75","K","1","","0","0","1","0","0.2","true","0","0","0.8","80_20_practice","0","0.2","","","","","","","","","",""
"163","","bandit","22","96955","0.0-18.0-4.0","29655236","wem/bandit_single","AYVARBZ9EH6J1","pain","5","","74","J","0","img/none_selected_demo.jpg","0","1","0","0","0.8","true","0","0","0.8","80_20_practice","0","0.2","","","","","","","","","",""
"964","","bandit","23","99676","0.0-18.0-5.0","29655236","wem/bandit_single","AYVARBZ9EH6J1","pain","5","","74","J","0","img/none_selected_demo.jpg","0","1","0","0","0.8","true","0","0","0.8","80_20_practice","0","0.2","","","","","","","","","",""
"235","","bandit","24","101666","0.0-18.0-6.0","29655236","wem/bandit_single","AYVARBZ9EH6J1","pain","5","","74","J","0","img/none_selected_demo.jpg","0","1","0","0","0.8","true","0","0","0.8","80_20_practice","0","0.2","","","","","","","","","",""
"653","","bandit","25","104076","0.0-18.0-7.0","29655236","wem/bandit_single","AYVARBZ9EH6J1","pain","5","","74","J","0","img/none_selected_demo.jpg","0","0","1","0","0.8","true","0","0","0.8","80_20_practice","0","0.2","","","","","","","","","",""
"498","","bandit","26","106329","0.0-18.0-8.0","29655236","wem/bandit_single","AYVARBZ9EH6J1","pain","5","","74","J","0","img/none_selected_demo.jpg","0","1","0","0","0.8","true","0","0","0.8","80_20_practice","0","0.2","","","","","","","","","",""
"317","","bandit","27","108401","0.0-18.0-9.0","29655236","wem/bandit_single","AYVARBZ9EH6J1","pain","5","","74","J","0","img/none_selected_demo.jpg","0","0","1","0","0.8","true","0","0","0.8","80_20_practice","0","0.2","","","","","","","","","",""
"85","","bandit","28","110243","0.0-18.0-10.0","29655236","wem/bandit_single","AYVARBZ9EH6J1","pain","5","","74","J","0","img/none_selected_demo.jpg","0","1","0","0","0.8","true","0","0","0.8","80_20_practice","0","0.2","","","","","","","","","",""
"202","","bandit","29","112202","0.0-18.0-11.0","29655236","wem/bandit_single","AYVARBZ9EH6J1","pain","5","","75","K","1","","0","0","1","0","0.2","true","0","0","0.8","80_20_practice","0","0.2","","","","","","","","","",""
"179","","bandit","30","114137","0.0-18.0-12.0","29655236","wem/bandit_single","AYVARBZ9EH6J1","pain","5","","75","K","1","","0","0","1","0","0.2","true","0","0","0.8","80_20_practice","0","0.2","","","","","","","","","",""
"1116","","bandit","31","117010","0.0-18.0-13.0","29655236","wem/bandit_single","AYVARBZ9EH6J1","pain","5","","75","K","1","","0","0","1","0","0.2","true","0","0","0.8","80_20_practice","0","0.2","","","","","","","","","",""
"1274","","bandit","32","120042","0.0-18.0-14.0","29655236","wem/bandit_single","AYVARBZ9EH6J1","pain","5","","75","K","1","","0","0","1","0","0.2","true","0","0","0.8","80_20_practice","0","0.2","","","","","","","","","",""
"614","","bandit","33","122411","0.0-18.0-15.0","29655236","wem/bandit_single","AYVARBZ9EH6J1","pain","5","","75","K","1","","0","0","1","0","0.2","true","0","0","0.8","80_20_practice","0","0.2","","","","","","","","","",""
"739","","bandit","34","124907","0.0-18.0-16.0","29655236","wem/bandit_single","AYVARBZ9EH6J1","pain","5","","74","J","0","img/none_selected_demo.jpg","0","1","0","0","0.8","true","0","0","0.8","80_20_practice","0","0.2","","","","","","","","","",""
"513","","bandit","35","127177","0.0-18.0-17.0","29655236","wem/bandit_single","AYVARBZ9EH6J1","pain","5","","74","J","0","img/none_selected_demo.jpg","0","0","1","0","0.8","true","0","0","0.8","80_20_practice","0","0.2","","","","","","","","","",""
"195","","bandit","36","129128","0.0-18.0-18.0","29655236","wem/bandit_single","AYVARBZ9EH6J1","pain","5","","75","K","1","","0","0","1","0","0.2","true","0","0","0.8","80_20_practice","0","0.2","","","","","","","","","",""
"9956","","bandit","37","140840","0.0-18.0-19.0","29655236","wem/bandit_single","AYVARBZ9EH6J1","pain","5","","74","J","0","img/none_selected_demo.jpg","0","1","0","0","0.8","true","0","0","0.8","80_20_practice","0","0.2","","","","","","","","","",""
"8926","","text","38","150018","0.0-19.0","29655236","wem/bandit_single","AYVARBZ9EH6J1","pain","5","32","","","","","","","","","","","","","","","","","","","","","","","","","",""
"526","","bandit","39","152051","0.0-20.0-0.0","29655236","wem/bandit_single","AYVARBZ9EH6J1","pain","5","","74","J","0","img/none_selected_demo.jpg","0","0","1","0","0","true","0","0","0","","0","0","","","","","","","","","",""
"124","","text","40","152428","0.0-21.0","29655236","wem/bandit_single","AYVARBZ9EH6J1","pain","5","75","","","","","","","","","","","","","","","","","","","","","","","","","",""
"1652","","text","41","154082","0.0-22.0","29655236","wem/bandit_single","AYVARBZ9EH6J1","pain","5","32","","","","","","","","","","","","","","","","","","","","","","","","","",""
"517","","text","42","154601","0.0-23.0","29655236","wem/bandit_single","AYVARBZ9EH6J1","pain","5","32","","","","","","","","","","","","","","","","","","","","","","","","","",""
"1158","","text","43","155761","0.0-24.0","29655236","wem/bandit_single","AYVARBZ9EH6J1","pain","5","32","","","","","","","","","","","","","","","","","","","","","","","","","",""
"2501","","text","44","158263","0.0-25.0","29655236","wem/bandit_single","AYVARBZ9EH6J1","pain","5","32","","","","","","","","","","","","","","","","","","","","","","","","","",""
"863","","text","45","159128","0.0-26.0","29655236","wem/bandit_single","AYVARBZ9EH6J1","pain","5","32","","","","","","","","","","","","","","","","","","","","","","","","","",""
"7735","","text","46","166865","0.0-27.0","29655236","wem/bandit_single","AYVARBZ9EH6J1","pain","5","32","","","","","","","","","","","","","","","","","","","","","","","","","",""
"600","","text","47","167467","0.0-28.0","29655236","wem/bandit_single","AYVARBZ9EH6J1","pain","5","32","","","","","","","","","","","","","","","","","","","","","","","","","",""
"524","","text","48","167993","0.0-29.0","29655236","wem/bandit_single","AYVARBZ9EH6J1","pain","5","32","","","","","","","","","","","","","","","","","","","","","","","","","",""
"1025","","text","49","169020","0.0-30.0","29655236","wem/bandit_single","AYVARBZ9EH6J1","pain","5","32","","","","","","","","","","","","","","","","","","","","","","","","","",""
"515","","text","50","169537","0.0-31.0","29655236","wem/bandit_single","AYVARBZ9EH6J1","pain","5","32","","","","","","","","","","","","","","","","","","","","","","","","","",""
"3436","","bandit","51","174478","0.0-32.0-0.0","29655236","wem/bandit_single","AYVARBZ9EH6J1","pain","5","","76","L","3","","0","0","1","0","0.2","true","0","0","0.8","full_practice","0","0.2","0","0.6","0","0.2","","","","","",""
"1604","","bandit","52","177837","0.0-32.0-1.0","29655236","wem/bandit_single","AYVARBZ9EH6J1","pain","5","","74","J","1","","0","0","1","0","0.2","true","0","0","0.8","full_practice","0","0.2","0","0.6","0","0.2","","","","","",""
"187","","bandit","53","179783","0.0-32.0-2.0","29655236","wem/bandit_single","AYVARBZ9EH6J1","pain","5","","75","K","2","","0","0","1","0","0.6","true","0","0","0.8","full_practice","0","0.2","0","0.6","0","0.2","","","","","",""
"217","","bandit","54","181757","0.0-32.0-3.0","29655236","wem/bandit_single","AYVARBZ9EH6J1","pain","5","","74","J","1","","0","0","1","0","0.2","true","0","0","0.8","full_practice","0","0.2","0","0.6","0","0.2","","","","","",""
"75","","bandit","55","183590","0.0-32.0-4.0","29655236","wem/bandit_single","AYVARBZ9EH6J1","pain","5","","76","L","3","","0","0","1","0","0.2","true","0","0","0.8","full_practice","0","0.2","0","0.6","0","0.2","","","","","",""
"411","","bandit","56","185758","0.0-32.0-5.0","29655236","wem/bandit_single","AYVARBZ9EH6J1","pain","5","","76","L","3","","0","1","0","0","0.2","true","0","0","0.8","full_practice","0","0.2","0","0.6","0","0.2","","","","","",""
"443","","bandit","57","187957","0.0-32.0-6.0","29655236","wem/bandit_single","AYVARBZ9EH6J1","pain","5","","76","L","3","","0","1","0","0","0.2","true","0","0","0.8","full_practice","0","0.2","0","0.6","0","0.2","","","","","",""
"29","","bandit","58","189741","0.0-32.0-7.0","29655236","wem/bandit_single","AYVARBZ9EH6J1","pain","5","","74","J","1","","0","0","1","0","0.2","true","0","0","0.8","full_practice","0","0.2","0","0.6","0","0.2","","","","","",""
"675","","bandit","59","192172","0.0-32.0-8.0","29655236","wem/bandit_single","AYVARBZ9EH6J1","pain","5","","72","H","0","img/none_selected.jpg","0","0","1","0","0.8","true","0","0","0.8","full_practice","0","0.2","0","0.6","0","0.2","","","","","",""
"1149","","bandit","60","195076","0.0-32.0-9.0","29655236","wem/bandit_single","AYVARBZ9EH6J1","pain","5","","76","L","3","","0","0","1","0","0.2","true","0","0","0.8","full_practice","0","0.2","0","0.6","0","0.2","","","","","",""
"445","","bandit","61","197280","0.0-32.0-10.0","29655236","wem/bandit_single","AYVARBZ9EH6J1","pain","5","","75","K","2","","0","0","1","0","0.6","true","0","0","0.8","full_practice","0","0.2","0","0.6","0","0.2","","","","","",""
"576","","bandit","62","199613","0.0-32.0-11.0","29655236","wem/bandit_single","AYVARBZ9EH6J1","pain","5","","74","J","1","","0","0","1","0","0.2","true","0","0","0.8","full_practice","0","0.2","0","0.6","0","0.2","","","","","",""
"434","","bandit","63","201806","0.0-32.0-12.0","29655236","wem/bandit_single","AYVARBZ9EH6J1","pain","5","","76","L","3","","0","0","1","0","0.2","true","0","0","0.8","full_practice","0","0.2","0","0.6","0","0.2","","","","","",""
"75","","bandit","64","203636","0.0-32.0-13.0","29655236","wem/bandit_single","AYVARBZ9EH6J1","pain","5","","72","H","0","img/none_selected.jpg","0","1","0","0","0.8","true","0","0","0.8","full_practice","0","0.2","0","0.6","0","0.2","","","","","",""
"245","","bandit","65","205639","0.0-32.0-14.0","29655236","wem/bandit_single","AYVARBZ9EH6J1","pain","5","","75","K","2","","0","1","0","0","0.6","true","0","0","0.8","full_practice","0","0.2","0","0.6","0","0.2","","","","","",""
"157","","bandit","66","207553","0.0-32.0-15.0","29655236","wem/bandit_single","AYVARBZ9EH6J1","pain","5","","75","K","2","","0","1","0","0","0.6","true","0","0","0.8","full_practice","0","0.2","0","0.6","0","0.2","","","","","",""
"800","","bandit","67","210108","0.0-32.0-16.0","29655236","wem/bandit_single","AYVARBZ9EH6J1","pain","5","","76","L","3","","0","0","1","0","0.2","true","0","0","0.8","full_practice","0","0.2","0","0.6","0","0.2","","","","","",""
"76","","bandit","68","211940","0.0-32.0-17.0","29655236","wem/bandit_single","AYVARBZ9EH6J1","pain","5","","72","H","0","img/none_selected.jpg","0","1","0","0","0.8","true","0","0","0.8","full_practice","0","0.2","0","0.6","0","0.2","","","","","",""
"357","","bandit","69","214053","0.0-32.0-18.0","29655236","wem/bandit_single","AYVARBZ9EH6J1","pain","5","","75","K","2","","0","1","0","0","0.6","true","0","0","0.8","full_practice","0","0.2","0","0.6","0","0.2","","","","","",""
"867","","bandit","70","216677","0.0-32.0-19.0","29655236","wem/bandit_single","AYVARBZ9EH6J1","pain","5","","76","L","3","","0","0","1","0","0.2","true","0","0","0.8","full_practice","0","0.2","0","0.6","0","0.2","","","","","",""
"2419","","text","71","219352","0.0-33.0","29655236","wem/bandit_single","AYVARBZ9EH6J1","pain","5","32","","","","","","","","","","","","","","","","","","","","","","","","","",""
"1163","","text","72","221519","0.0-34.0","29655236","wem/bandit_single","AYVARBZ9EH6J1","pain","5","32","","","","","","","","","","","","","","","","","","","","","","","","","",""
"854","","text","73","222375","0.0-35.0","29655236","wem/bandit_single","AYVARBZ9EH6J1","pain","5","32","","","","","","","","","","","","","","","","","","","","","","","","","",""
"359","","text","74","222737","0.0-36.0","29655236","wem/bandit_single","AYVARBZ9EH6J1","pain","5","32","","","","","","","","","","","","","","","","","","","","","","","","","",""
"309","","text","75","223048","0.0-37.0","29655236","wem/bandit_single","AYVARBZ9EH6J1","pain","5","32","","","","","","","","","","","","","","","","","","","","","","","","","",""
"307","","bandit","76","224861","0.0-38.0-0.0","29655236","wem/bandit_single","AYVARBZ9EH6J1","pain","5","","74","J","1","","0","1","0","","0.4657241486","false","1","","0.04962883862","main_expt","","0.4657241486","","0.1478184891","","0.3811303016","","","","","",""
"1491","","bandit","77","228110","0.0-39.0-0.0","29655236","wem/bandit_single","AYVARBZ9EH6J1","pain","5","","74","J","1","","0","0","1","","0.4660849779","false","2","","0.03569255153","main_expt","","0.4660849779","","0.2081060842","","0.350111504","","","","","",""
"804","","bandit","78","230670","0.0-40.0-0.0","29655236","wem/bandit_single","AYVARBZ9EH6J1","pain","5","","76","L","3","","0","0","1","","0.3436486883","false","3","","0.02901958263","main_expt","","0.4687539887","","0.1722167697","","0.3436486883","","","","","",""
"748","","bandit","79","233173","0.0-41.0-0.0","29655236","wem/bandit_single","AYVARBZ9EH6J1","pain","5","","72","H","0","img/none_selected.jpg","0","0","1","","0.04894390993","false","4","","0.04894390993","main_expt","","0.48401473","","0.1424145416","","0.3419997506","","","","","",""
"1347","","bandit","80","236278","0.0-42.0-0.0","29655236","wem/bandit_single","AYVARBZ9EH6J1","pain","5","","75","K","2","","0","0","1","","0.1446667298","false","5","","0.04206610475","main_expt","","0.4755123677","","0.1446667298","","0.3692180445","","","","","",""
"177","","bandit","81","238212","0.0-43.0-0.0","29655236","wem/bandit_single","AYVARBZ9EH6J1","pain","5","","74","J","1","","0","1","0","","0.4802482158","false","6","","0.04292771587","main_expt","","0.4802482158","","0.1447199692","","0.3602257359","","","","","",""
"1100","","bandit","82","241069","0.0-44.0-0.0","29655236","wem/bandit_single","AYVARBZ9EH6J1","pain","5","","76","L","3","","0","1","0","","0.3568498895","false","7","","0.06035830385","main_expt","","0.4780438684","","0.1001258446","","0.3568498895","","","","","",""
"1107","","bandit","83","243933","0.0-45.0-0.0","29655236","wem/bandit_single","AYVARBZ9EH6J1","pain","5","","76","L","3","","0","0","1","","0.294604339","false","8","","0.09727842944","main_expt","","0.4575173044","","0.1244671667","","0.294604339","","","","","",""
"554","","bandit","84","246245","0.0-46.0-0.0","29655236","wem/bandit_single","AYVARBZ9EH6J1","pain","5","","74","J","1","","0","1","0","","0.4525933246","false","9","","0.07952196982","main_expt","","0.4525933246","","0.1293804987","","0.3802768622","","","","","",""
"428","","bandit","85","248429","0.0-47.0-0.0","29655236","wem/bandit_single","AYVARBZ9EH6J1","pain","5","","72","H","0","img/none_selected.jpg","0","0","1","","0.1049852556","false","10","","0.1049852556","main_expt","","0.4476408152","","0.1606810952","","0.3530595227","","","","","",""
"450","","bandit","86","250635","0.0-48.0-0.0","29655236","wem/bandit_single","AYVARBZ9EH6J1","pain","5","","75","K","2","","0","1","0","","0.1585385462","false","11","","0.1118692116","main_expt","","0.4484644352","","0.1585385462","","0.358648576","","","","","",""
"308","","bandit","87","252701","0.0-49.0-0.0","29655236","wem/bandit_single","AYVARBZ9EH6J1","pain","5","","74","J","1","","0","1","0","","0.4466341879","false","12","","0.1270372311","main_expt","","0.4466341879","","0.1492634201","","0.3382469396","","","","","",""
"267","","bandit","88","254724","0.0-50.0-0.0","29655236","wem/bandit_single","AYVARBZ9EH6J1","pain","5","","74","J","1","","0","1","0","","0.4642511008","false","13","","0.1278892577","main_expt","","0.4642511008","","0.1106465011","","0.3092021245","","","","","",""
"643","","bandit","89","257125","0.0-51.0-0.0","29655236","wem/bandit_single","AYVARBZ9EH6J1","pain","5","","76","L","3","","0","0","1","","0.3532484784","false","14","","0.1024725346","main_expt","","0.4615970843","","0.1232346967","","0.3532484784","","","","","",""
"219","","bandit","90","259100","0.0-52.0-0.0","29655236","wem/bandit_single","AYVARBZ9EH6J1","pain","5","","76","L","3","","0","0","1","","0.3371384495","false","15","","0.1234109619","main_expt","","0.4692442536","","0.1323340596","","0.3371384495","","","","","",""
"339","","bandit","91","261197","0.0-53.0-0.0","29655236","wem/bandit_single","AYVARBZ9EH6J1","pain","5","","74","J","1","","0","1","0","","0.4755425263","false","16","","0.1360550169","main_expt","","0.4755425263","","0.1410223318","","0.3282622062","","","","","",""
"1147","","bandit","92","264099","0.0-54.0-0.0","29655236","wem/bandit_single","AYVARBZ9EH6J1","pain","5","","74","J","1","","0","0","1","","0.4828633911","false","17","","0.1070219664","main_expt","","0.4828633911","","0.1498636582","","0.3032164303","","","","","",""
"570","","bandit","93","266428","0.0-55.0-0.0","29655236","wem/bandit_single","AYVARBZ9EH6J1","pain","5","","74","J","1","","0","0","1","","0.4784959143","false","18","","0.09318331203","main_expt","","0.4784959143","","0.1132842199","","0.2834034058","","","","","",""
"218","","bandit","94","268403","0.0-56.0-0.0","29655236","wem/bandit_single","AYVARBZ9EH6J1","pain","5","","72","H","0","img/none_selected.jpg","0","0","1","","0.08644374764","false","19","","0.08644374764","main_expt","","0.4645747316","","0.08554013857","","0.376157017","","","","","",""
"259","","bandit","95","270420","0.0-57.0-0.0","29655236","wem/bandit_single","AYVARBZ9EH6J1","pain","5","","76","L","3","","0","0","1","","0.3718288413","false","20","","0.1066513301","main_expt","","0.4441513352","","0.1176407844","","0.3718288413","","","","","",""
"175","","bandit","96","272350","0.0-58.0-0.0","29655236","wem/bandit_single","AYVARBZ9EH6J1","pain","5","","74","J","1","","0","0","1","","0.4281495132","false","21","","0.1143532382","main_expt","","0.4281495132","","0.09701455477","","0.3755251961","","","","","",""
"520","","bandit","97","274629","0.0-59.0-0.0","29655236","wem/bandit_single","AYVARBZ9EH6J1","pain","5","","74","J","1","","0","0","1","","0.4374563715","false","22","","0.111858438","main_expt","","0.4374563715","","0.08683592795","","0.3536603278","","","","","",""
"114","","bandit","98","276499","0.0-60.0-0.0","29655236","wem/bandit_single","AYVARBZ9EH6J1","pain","5","","76","L","3","","0","1","0","","0.3908816919","false","23","","0.09088087914","main_expt","","0.4408316507","","0.1062952262","","0.3908816919","","","","","",""
"59","","bandit","99","278314","0.0-61.0-0.0","29655236","wem/bandit_single","AYVARBZ9EH6J1","pain","5","","75","K","2","","0","0","1","","0.1320295984","false","24","","0.1045917755","main_expt","","0.4249736282","","0.1320295984","","0.3639752867","","","","","",""
"1763","","bandit","100","281834","0.0-62.0-0.0","29655236","wem/bandit_single","AYVARBZ9EH6J1","pain","5","","72","H","0","img/none_selected.jpg","0","0","1","","0.107118439","false","25","","0.107118439","main_expt","","0.4542404639","","0.18562956","","0.3569796848","","","","","",""
"2733","","bandit","101","286322","0.0-63.0-0.0","29655236","wem/bandit_single","AYVARBZ9EH6J1","pain","5","","72","H","0","img/none_selected.jpg","0","0","1","","0.08847958778","false","26","","0.08847958778","main_expt","","0.4707756245","","0.1589772959","","0.3466804264","","","","","",""
"204","","bandit","102","288283","0.0-64.0-0.0","29655236","wem/bandit_single","AYVARBZ9EH6J1","pain","5","","76","L","3","","0","0","1","","0.3487144915","false","27","","0.105958259","main_expt","","0.4492807888","","0.1361305173","","0.3487144915","","","","","",""
"1787","","bandit","103","291826","0.0-65.0-0.0","29655236","wem/bandit_single","AYVARBZ9EH6J1","pain","5","","74","J","1","","0","1","0","","0.4630254912","false","28","","0.09976229861","main_expt","","0.4630254912","","0.1517112547","","0.31872733","","","","","",""
"1171","","bandit","104","294753","0.0-66.0-0.0","29655236","wem/bandit_single","AYVARBZ9EH6J1","pain","5","","74","J","1","","0","1","0","","0.4582460064","false","29","","0.1117783291","main_expt","","0.4582460064","","0.1207272987","","0.3351256986","","","","","",""
"484","","bandit","105","296993","0.0-67.0-0.0","29655236","wem/bandit_single","AYVARBZ9EH6J1","pain","5","","74","J","1","","0","0","1","","0.44398484","false","30","","0.104708879","main_expt","","0.44398484","","0.06619286558","","0.3165147827","","","","","",""
"742","","bandit","106","299491","0.0-68.0-0.0","29655236","wem/bandit_single","AYVARBZ9EH6J1","pain","5","","76","L","3","","0","0","1","","0.3587164307","false","31","","0.1168740313","main_expt","","0.4662875842","","0.08172424971","","0.3587164307","","","","","",""
"385","","bandit","107","301633","0.0-69.0-0.0","29655236","wem/bandit_single","AYVARBZ9EH6J1","pain","5","","76","L","3","","0","0","1","","0.384091524","false","32","","0.1193100679","main_expt","","0.4823207571","","0.1118972321","","0.384091524","","","","","",""
"92","","bandit","108","303482","0.0-70.0-0.0","29655236","wem/bandit_single","AYVARBZ9EH6J1","pain","5","","72","H","0","img/none_selected.jpg","0","0","1","","0.1160378653","false","33","","0.1160378653","main_expt","","0.4887640326","","0.07764728595","","0.3410562849","","","","","",""
"1172","","bandit","109","306410","0.0-71.0-0.0","29655236","wem/bandit_single","AYVARBZ9EH6J1","pain","5","","74","J","1","","0","1","0","","0.4871413525","false","34","","0.1240203414","main_expt","","0.4871413525","","0.1021677232","","0.3772037995","","","","","",""
"248","","bandit","110","308416","0.0-72.0-0.0","29655236","wem/bandit_single","AYVARBZ9EH6J1","pain","5","","76","L","3","","0","0","1","","0.3601610849","false","35","","0.1568527985","main_expt","","0.472467875","","0.09263198197","","0.3601610849","","","","","",""
"350","","bandit","111","310524","0.0-73.0-0.0","29655236","wem/bandit_single","AYVARBZ9EH6J1","pain","5","","74","J","1","","0","0","1","","0.4801988656","false","36","","0.1887398002","main_expt","","0.4801988656","","0.1395706987","","0.3199141994","","","","","",""
"393","","bandit","112","312673","0.0-74.0-0.0","29655236","wem/bandit_single","AYVARBZ9EH6J1","pain","5","","72","H","0","img/none_selected.jpg","0","0","1","","0.1567271146","false","37","","0.1567271146","main_expt","","0.4658101737","","0.1166343238","","0.3022128767","","","","","",""
"45","","bandit","113","314474","0.0-75.0-0.0","29655236","wem/bandit_single","AYVARBZ9EH6J1","pain","5","","75","K","2","","0","0","1","","0.1344783462","false","38","","0.1213003185","main_expt","","0.4725237643","","0.1344783462","","0.220841548","","","","","",""
"187","","bandit","114","316416","0.0-76.0-0.0","29655236","wem/bandit_single","AYVARBZ9EH6J1","pain","5","","74","J","1","","0","1","0","","0.4863678522","false","39","","0.1129188575","main_expt","","0.4863678522","","0.1132701409","","0.2273815274","","","","","",""
"186","","bandit","115","318360","0.0-77.0-0.0","29655236","wem/bandit_single","AYVARBZ9EH6J1","pain","5","","76","L","3","","0","1","0","","0.2216047912","false","40","","0.1490040727","main_expt","","0.4756100127","","0.1269330716","","0.2216047912","","","","","",""
"484","","bandit","116","320600","0.0-78.0-0.0","29655236","wem/bandit_single","AYVARBZ9EH6J1","pain","5","","72","H","0","img/none_selected.jpg","0","0","1","","0.20555416","false","41","","0.20555416","main_expt","","0.4644843691","","0.1043764639","","0.1790357129","","","","","",""
"283","","bandit","117","322639","0.0-79.0-0.0","29655236","wem/bandit_single","AYVARBZ9EH6J1","pain","5","","74","J","1","","0","1","0","","0.4595487669","false","42","","0.2458082757","main_expt","","0.4595487669","","0.123259557","","0.1124402831","","","","","",""
"620","","bandit","118","325017","0.0-80.0-0.0","29655236","wem/bandit_single","AYVARBZ9EH6J1","pain","5","","74","J","1","","0","1","0","","0.4598563523","false","43","","0.1980967925","main_expt","","0.4598563523","","0.1523094635","","0.1309909921","","","","","",""
"298","","bandit","119","327073","0.0-81.0-0.0","29655236","wem/bandit_single","AYVARBZ9EH6J1","pain","5","","74","J","1","","0","0","1","","0.4444935065","false","44","","0.2011817551","main_expt","","0.4444935065","","0.1438901127","","0.1620245532","","","","","",""
"178","","bandit","120","329008","0.0-82.0-0.0","29655236","wem/bandit_single","AYVARBZ9EH6J1","pain","5","","74","J","1","","0","1","0","","0.4201454787","false","45","","0.1908172103","main_expt","","0.4201454787","","0.1381896233","","0.1962154431","","","","","",""
"916","","bandit","121","331681","0.0-83.0-0.0","29655236","wem/bandit_single","AYVARBZ9EH6J1","pain","5","","74","J","1","","0","0","1","","0.4420567968","false","46","","0.1682898959","main_expt","","0.4420567968","","0.08118013389","","0.1548021256","","","","","",""
"201","","bandit","122","333640","0.0-84.0-0.0","29655236","wem/bandit_single","AYVARBZ9EH6J1","pain","5","","74","J","1","","0","0","1","","0.4454115659","false","47","","0.114950809","main_expt","","0.4454115659","","0.08279503272","","0.155425446","","","","","",""
"530","","bandit","123","335928","0.0-85.0-0.0","29655236","wem/bandit_single","AYVARBZ9EH6J1","pain","5","","74","J","1","","0","0","1","","0.4409121906","false","48","","0.1231508501","main_expt","","0.4409121906","","0.09757227309","","0.2368850053","","","","","",""
"1365","","bandit","124","339050","0.0-86.0-0.0","29655236","wem/bandit_single","AYVARBZ9EH6J1","pain","5","","74","J","1","","0","0","1","","0.4640555105","false","49","","0.1264715503","main_expt","","0.4640555105","","0.1407466139","","0.1712995484","","","","","",""
"705","","bandit","125","341513","0.0-87.0-0.0","29655236","wem/bandit_single","AYVARBZ9EH6J1","pain","5","","76","L","3","","0","0","1","","0.2371897999","false","50","","0.1119267987","main_expt","","0.4619625264","","0.1128896644","","0.2371897999","","","","","",""
"610","","bandit","126","343882","0.0-88.0-0.0","29655236","wem/bandit_single","AYVARBZ9EH6J1","pain","5","","74","J","1","","0","1","0","","0.4686499241","false","51","","0.1192285775","main_expt","","0.4686499241","","0.1292206793","","0.2520952739","","","","","",""
"2113","","bandit","127","347753","0.0-89.0-0.0","29655236","wem/bandit_single","AYVARBZ9EH6J1","pain","5","","76","L","3","","0","0","1","","0.2201249325","false","52","","0.1536714506","main_expt","","0.4721244997","","0.117204758","","0.2201249325","","","","","",""
"682","","bandit","128","350192","0.0-90.0-0.0","29655236","wem/bandit_single","AYVARBZ9EH6J1","pain","5","","74","J","1","","0","0","1","","0.4776765754","false","53","","0.1817289366","main_expt","","0.4776765754","","0.1180232867","","0.2019083534","","","","","",""
"1122","","bandit","129","353070","0.0-91.0-0.0","29655236","wem/bandit_single","AYVARBZ9EH6J1","pain","5","","74","J","1","","0","0","1","","0.4788042678","false","54","","0.1664376657","main_expt","","0.4788042678","","0.09503139185","","0.2133100918","","","","","",""
"170","","bandit","130","354998","0.0-92.0-0.0","29655236","wem/bandit_single","AYVARBZ9EH6J1","pain","5","","76","L","3","","0","0","1","","0.2210295122","false","55","","0.1219288973","main_expt","","0.4852168201","","0.1238025275","","0.2210295122","","","","","",""
"2555","","bandit","131","359310","0.0-93.0-0.0","29655236","wem/bandit_single","AYVARBZ9EH6J1","pain","5","","74","J","1","","0","0","1","","0.4860946669","false","56","","0.1392062569","main_expt","","0.4860946669","","0.1544257673","","0.1728424853","","","","","",""
"620","","bandit","132","361687","0.0-94.0-0.0","29655236","wem/bandit_single","AYVARBZ9EH6J1","pain","5","","72","H","0","img/none_selected.jpg","0","0","1","","0.2060247316","false","57","","0.2060247316","main_expt","","0.4859962979","","0.1492478473","","0.2301797189","","","","","",""
"158","","bandit","133","363602","0.0-95.0-0.0","29655236","wem/bandit_single","AYVARBZ9EH6J1","pain","5","","75","K","2","","0","0","1","","0.1392181034","false","58","","0.1723567799","main_expt","","0.4751013025","","0.1392181034","","0.2820892606","","","","","",""
"688","","bandit","134","366046","0.0-96.0-0.0","29655236","wem/bandit_single","AYVARBZ9EH6J1","pain","5","","74","J","1","","0","0","1","","0.4816883425","false","59","","0.16345501","main_expt","","0.4816883425","","0.1854998728","","0.308641684","","","","","",""
"876","","bandit","135","368679","0.0-97.0-0.0","29655236","wem/bandit_single","AYVARBZ9EH6J1","pain","5","","72","H","0","img/none_selected.jpg","0","0","1","","0.1552759559","false","60","","0.1552759559","main_expt","","0.4846541976","","0.1306651225","","0.3012287428","","","","","",""
"1666","","bandit","136","372102","0.0-98.0-0.0","29655236","wem/bandit_single","AYVARBZ9EH6J1","pain","5","","74","J","1","","0","1","0","","0.4848840061","false","61","","0.1652193455","main_expt","","0.4848840061","","0.1567024934","","0.263166603","","","","","",""
"6947","","bandit","137","380807","0.0-99.0-0.0","29655236","wem/bandit_single","AYVARBZ9EH6J1","pain","5","","72","H","0","img/none_selected.jpg","0","0","1","","0.1813222976","false","62","","0.1813222976","main_expt","","0.4856292504","","0.1622246099","","0.2428038775","","","","","",""
"2436","","bandit","138","385000","0.0-100.0-0.0","29655236","wem/bandit_single","AYVARBZ9EH6J1","pain","5","","74","J","1","","0","0","1","","0.4865153319","false","63","","0.1727004114","main_expt","","0.4865153319","","0.2196770705","","0.2843805899","","","","","",""
"3122","","bandit","139","389878","0.0-101.0-0.0","29655236","wem/bandit_single","AYVARBZ9EH6J1","pain","5","","74","J","1","","0","0","1","","0.4874146034","false","64","","0.2105999223","main_expt","","0.4874146034","","0.218319606","","0.2895992306","","","","","",""
"826","","bandit","140","392461","0.0-102.0-0.0","29655236","wem/bandit_single","AYVARBZ9EH6J1","pain","5","","74","J","1","","0","1","0","","0.4781609215","false","65","","0.240225816","main_expt","","0.4781609215","","0.2278721313","","0.3847688","","","","","",""
"190","","bandit","141","394408","0.0-103.0-0.0","29655236","wem/bandit_single","AYVARBZ9EH6J1","pain","5","","72","H","0","img/none_selected.jpg","0","0","1","","0.2924754864","false","66","","0.2924754864","main_expt","","0.4848714892","","0.1599393353","","0.4083751038","","","","","",""
"3328","","bandit","142","399495","0.0-104.0-0.0","29655236","wem/bandit_single","AYVARBZ9EH6J1","pain","5","","74","J","1","","0","0","1","","0.4872204599","false","67","","0.2363072125","main_expt","","0.4872204599","","0.1647045883","","0.4036944211","","","","","",""
"1483","","bandit","143","402735","0.0-105.0-0.0","29655236","wem/bandit_single","AYVARBZ9EH6J1","pain","5","","75","K","2","","0","1","0","","0.1442333851","false","68","","0.264359064","main_expt","","0.4749956953","","0.1442333851","","0.3910329043","","","","","",""
"9026","","bandit","144","413520","0.0-106.0-0.0","29655236","wem/bandit_single","AYVARBZ9EH6J1","pain","5","","76","L","3","","0","1","0","","0.3438989047","false","69","","0.2755227552","main_expt","","0.4776093432","","0.1757685765","","0.3438989047","","","","","",""
"288","","bandit","145","415565","0.0-107.0-0.0","29655236","wem/bandit_single","AYVARBZ9EH6J1","pain","5","","74","J","1","","0","0","1","","0.4550183311","false","70","","0.2978365432","main_expt","","0.4550183311","","0.1995177274","","0.3282106587","","","","","",""
"1714","","bandit","146","419039","0.0-108.0-0.0","29655236","wem/bandit_single","AYVARBZ9EH6J1","pain","5","","74","J","1","","0","0","1","","0.4466984445","false","71","","0.2788476436","main_expt","","0.4466984445","","0.2429348876","","0.3085852942","","","","","",""
"672","","bandit","147","421468","0.0-109.0-0.0","29655236","wem/bandit_single","AYVARBZ9EH6J1","pain","5","","75","K","2","","0","0","1","","0.2134703404","false","72","","0.2983184618","main_expt","","0.453817204","","0.2134703404","","0.317066931","","","","","",""
"557","","bandit","148","423782","0.0-110.0-0.0","29655236","wem/bandit_single","AYVARBZ9EH6J1","pain","5","","74","J","1","","0","1","0","","0.4421557619","false","73","","0.3235064893","main_expt","","0.4421557619","","0.2779115064","","0.3118309255","","","","","",""
"762","","bandit","149","426300","0.0-111.0-0.0","29655236","wem/bandit_single","AYVARBZ9EH6J1","pain","5","","76","L","3","","0","0","1","","0.3442292265","false","74","","0.2605282151","main_expt","","0.4340536998","","0.2696493969","","0.3442292265","","","","","",""
"1764","","bandit","150","429821","0.0-112.0-0.0","29655236","wem/bandit_single","AYVARBZ9EH6J1","pain","5","","74","J","1","","0","1","0","","0.4148912722","false","75","","0.3081503464","main_expt","","0.4148912722","","0.2929582525","","0.3392290825","","","","","",""
"178","","bandit","151","431756","0.0-113.0-0.0","29655236","wem/bandit_single","AYVARBZ9EH6J1","pain","5","","75","K","2","","0","1","0","","0.2925997362","false","76","","0.3793773342","main_expt","","0.4049452856","","0.2925997362","","0.3019050266","","","","","",""
"716","","bandit","152","434230","0.0-114.0-0.0","29655236","wem/bandit_single","AYVARBZ9EH6J1","pain","5","","74","J","1","","0","0","1","","0.3804311168","false","77","","0.4108459626","main_expt","","0.3804311168","","0.2402419665","","0.3346778491","","","","","",""
"129","","bandit","153","436116","0.0-115.0-0.0","29655236","wem/bandit_single","AYVARBZ9EH6J1","pain","5","","75","K","2","","0","0","1","","0.2662288132","false","78","","0.432197644","main_expt","","0.4076768351","","0.2662288132","","0.2858281516","","","","","",""
"185","","bandit","154","438060","0.0-116.0-0.0","29655236","wem/bandit_single","AYVARBZ9EH6J1","pain","5","","74","J","1","","0","1","0","","0.4322729224","false","79","","0.4681634707","main_expt","","0.4322729224","","0.2946750364","","0.2601805687","","","","","",""
"460","","bandit","155","440277","0.0-117.0-0.0","29655236","wem/bandit_single","AYVARBZ9EH6J1","pain","5","","76","L","3","","0","0","1","","0.2494540003","false","80","","0.4487514359","main_expt","","0.4344903628","","0.3142603933","","0.2494540003","","","","","",""
"9","","bandit","156","442043","0.0-118.0-0.0","29655236","wem/bandit_single","AYVARBZ9EH6J1","pain","5","","72","H","0","img/none_selected.jpg","0","0","1","","0.4278748425","false","81","","0.4278748425","main_expt","","0.4128510282","","0.3045476359","","0.2029748002","","","","","",""
"828","","bandit","157","444628","0.0-119.0-0.0","29655236","wem/bandit_single","AYVARBZ9EH6J1","pain","5","","74","J","1","","0","0","1","","0.3473788204","false","82","","0.3873338363","main_expt","","0.3473788204","","0.2481672469","","0.1459008349","","","","","",""
"40","","bandit","158","446427","0.0-120.0-0.0","29655236","wem/bandit_single","AYVARBZ9EH6J1","pain","5","","75","K","2","","0","1","0","","0.2366474468","false","83","","0.3676955993","main_expt","","0.3964685929","","0.2366474468","","0.1792892234","","","","","",""
"379","","bandit","159","448565","0.0-121.0-0.0","29655236","wem/bandit_single","AYVARBZ9EH6J1","pain","5","","74","J","1","","0","1","0","","0.4058457219","false","84","","0.3494013457","main_expt","","0.4058457219","","0.2327145127","","0.1384159538","","","","","",""
"409","","bandit","160","450734","0.0-122.0-0.0","29655236","wem/bandit_single","AYVARBZ9EH6J1","pain","5","","75","K","2","","0","1","0","","0.2276425053","false","85","","0.3484693071","main_expt","","0.419702676","","0.2276425053","","0.1569521301","","","","","",""
"777","","bandit","161","453270","0.0-123.0-0.0","29655236","wem/bandit_single","AYVARBZ9EH6J1","pain","5","","76","L","3","","0","0","1","","0.2111509195","false","86","","0.3738623358","main_expt","","0.3584641731","","0.1932648708","","0.2111509195","","","","","",""
"336","","bandit","162","455363","0.0-124.0-0.0","29655236","wem/bandit_single","AYVARBZ9EH6J1","pain","5","","72","H","0","img/none_selected.jpg","0","0","1","","0.3635865115","false","87","","0.3635865115","main_expt","","0.3362954576","","0.1554886006","","0.1855749087","","","","","",""
"451","","bandit","163","457572","0.0-125.0-0.0","29655236","wem/bandit_single","AYVARBZ9EH6J1","pain","5","","76","L","3","","0","0","1","","0.1260067519","false","88","","0.28993028","main_expt","","0.3495778317","","0.1288388744","","0.1260067519","","","","","",""
"465","","bandit","164","459797","0.0-126.0-0.0","29655236","wem/bandit_single","AYVARBZ9EH6J1","pain","5","","74","J","1","","0","0","1","","0.3337998134","false","89","","0.2529053562","main_expt","","0.3337998134","","0.1672252434","","0.1930097593","","","","","",""
"16","","bandit","165","461571","0.0-127.0-0.0","29655236","wem/bandit_single","AYVARBZ9EH6J1","pain","5","","75","K","2","","0","0","1","","0.1379373657","false","90","","0.2239223254","main_expt","","0.3254710898","","0.1379373657","","0.2016869017","","","","","",""
"594","","bandit","166","463922","0.0-128.0-0.0","29655236","wem/bandit_single","AYVARBZ9EH6J1","pain","5","","75","K","2","","0","0","1","","0.1296834551","false","91","","0.1874521573","main_expt","","0.3248617863","","0.1296834551","","0.2283296651","","","","","",""
"147","","bandit","167","465826","0.0-129.0-0.0","29655236","wem/bandit_single","AYVARBZ9EH6J1","pain","5","","74","J","1","","0","1","0","","0.3290731597","false","92","","0.1464907128","main_expt","","0.3290731597","","0.1601432093","","0.2253008126","","","","","",""
"348","","bandit","168","467933","0.0-130.0-0.0","29655236","wem/bandit_single","AYVARBZ9EH6J1","pain","5","","72","H","0","img/none_selected.jpg","0","1","0","","0.1817498408","false","93","","0.1817498408","main_expt","","0.2947126164","","0.1976873148","","0.1826671142","","","","","",""
"96","","bandit","169","469787","0.0-131.0-0.0","29655236","wem/bandit_single","AYVARBZ9EH6J1","pain","5","","76","L","3","","0","0","1","","0.1650727581","false","94","","0.1967130988","main_expt","","0.2762739163","","0.2296862911","","0.1650727581","","","","","",""
"84","","bandit","170","471631","0.0-132.0-0.0","29655236","wem/bandit_single","AYVARBZ9EH6J1","pain","5","","72","H","0","img/none_selected.jpg","0","1","0","","0.2294656294","false","95","","0.2294656294","main_expt","","0.3184689772","","0.1990842867","","0.1971582392","","","","","",""
"163","","bandit","171","473551","0.0-133.0-0.0","29655236","wem/bandit_single","AYVARBZ9EH6J1","pain","5","","75","K","2","","0","1","0","","0.258496532","false","96","","0.2966343553","main_expt","","0.281027734","","0.258496532","","0.1791402521","","","","","",""
"207","","bandit","172","475517","0.0-134.0-0.0","29655236","wem/bandit_single","AYVARBZ9EH6J1","pain","5","","74","J","1","","0","0","1","","0.2474299406","false","97","","0.3346257274","main_expt","","0.2474299406","","0.2766566169","","0.1516442175","","","","","",""
"584","","bandit","173","477858","0.0-135.0-0.0","29655236","wem/bandit_single","AYVARBZ9EH6J1","pain","5","","76","L","3","","0","0","1","","0.2200018313","false","98","","0.3139493976","main_expt","","0.2217126022","","0.2377114848","","0.2200018313","","","","","",""
"65","","bandit","174","479682","0.0-136.0-0.0","29655236","wem/bandit_single","AYVARBZ9EH6J1","pain","5","","74","J","1","","0","0","1","","0.2677278576","false","99","","0.2478490566","main_expt","","0.2677278576","","0.3124158187","","0.2752547205","","","","","",""
"2068","","bandit","175","483509","0.0-137.0-0.0","29655236","wem/bandit_single","AYVARBZ9EH6J1","pain","5","","72","H","0","img/none_selected.jpg","0","0","1","","0.2602221343","false","100","","0.2602221343","main_expt","","0.3271916833","","0.2059987679","","0.252850905","","","","","",""
"1439","","bandit","176","486706","0.0-138.0-0.0","29655236","wem/bandit_single","AYVARBZ9EH6J1","pain","5","","75","K","2","","0","0","1","","0.1758265216","false","101","","0.2584762291","main_expt","","0.3066156257","","0.1758265216","","0.1867047362","","","","","",""
"427","","bandit","177","488892","0.0-139.0-0.0","29655236","wem/bandit_single","AYVARBZ9EH6J1","pain","5","","74","J","1","","0","0","1","","0.3260250896","false","102","","0.282093771","main_expt","","0.3260250896","","0.2262322791","","0.1175578895","","","","","",""
"978","","bandit","178","491629","0.0-140.0-0.0","29655236","wem/bandit_single","AYVARBZ9EH6J1","pain","5","","74","J","1","","0","0","1","","0.3731136732","false","103","","0.2725256196","main_expt","","0.3731136732","","0.2018281434","","0.09132094505","","","","","",""
"1390","","bandit","179","494780","0.0-141.0-0.0","29655236","wem/bandit_single","AYVARBZ9EH6J1","pain","5","","72","H","0","img/none_selected.jpg","0","1","0","","0.2243623384","false","104","","0.2243623384","main_expt","","0.3941656488","","0.1447482012","","0.1422553795","","","","","",""
"178","","bandit","180","496715","0.0-142.0-0.0","29655236","wem/bandit_single","AYVARBZ9EH6J1","pain","5","","76","L","3","","0","0","1","","0.1390697773","false","105","","0.2403200944","main_expt","","0.4030151573","","0.2104813725","","0.1390697773","","","","","",""
"919","","bandit","181","499395","0.0-143.0-0.0","29655236","wem/bandit_single","AYVARBZ9EH6J1","pain","5","","74","J","1","","0","0","1","","0.3715193073","false","106","","0.2332798071","main_expt","","0.3715193073","","0.2492378957","","0.1155807694","","","","","",""
"762","","bandit","182","501916","0.0-144.0-0.0","29655236","wem/bandit_single","AYVARBZ9EH6J1","pain","5","","74","J","1","","0","1","0","","0.3837270358","false","107","","0.181620067","main_expt","","0.3837270358","","0.217404121","","0.105728532","","","","","",""
"2337","","bandit","183","506010","0.0-145.0-0.0","29655236","wem/bandit_single","AYVARBZ9EH6J1","pain","5","","76","L","3","","0","0","1","","0.08831090648","false","108","","0.2173069915","main_expt","","0.3908875135","","0.2142202377","","0.08831090648","","","","","",""
"1348","","bandit","184","509115","0.0-146.0-0.0","29655236","wem/bandit_single","AYVARBZ9EH6J1","pain","5","","74","J","1","","0","0","1","","0.3774052568","false","109","","0.226697077","main_expt","","0.3774052568","","0.2683226389","","0.1043724426","","","","","",""
"368","","bandit","185","511242","0.0-147.0-0.0","29655236","wem/bandit_single","AYVARBZ9EH6J1","pain","5","","76","L","3","","0","0","1","","0.07530108238","false","110","","0.2695419639","main_expt","","0.3601275089","","0.2619142817","","0.07530108238","","","","","",""
"369","","bandit","186","513369","0.0-148.0-0.0","29655236","wem/bandit_single","AYVARBZ9EH6J1","pain","5","","72","H","0","img/none_selected.jpg","0","0","1","","0.2635727161","false","111","","0.2635727161","main_expt","","0.3880855357","","0.2754039507","","0.05159845725","","","","","",""
"506","","bandit","187","515635","0.0-149.0-0.0","29655236","wem/bandit_single","AYVARBZ9EH6J1","pain","5","","72","H","0","img/none_selected.jpg","0","0","1","","0.3202716687","false","112","","0.3202716687","main_expt","","0.3864248384","","0.2721436228","","0.08116028731","","","","","",""
"49","","bandit","188","517441","0.0-150.0-0.0","29655236","wem/bandit_single","AYVARBZ9EH6J1","pain","5","","76","L","3","","0","0","1","","0.08538759299","false","113","","0.3546461764","main_expt","","0.339569604","","0.2598768298","","0.08538759299","","","","","",""
"498","","bandit","189","519699","0.0-151.0-0.0","29655236","wem/bandit_single","AYVARBZ9EH6J1","pain","5","","74","J","1","","0","1","0","","0.3612744832","false","114","","0.3339806629","main_expt","","0.3612744832","","0.2271708717","","0.106551095","","","","","",""
"2506","","bandit","190","523963","0.0-152.0-0.0","29655236","wem/bandit_single","AYVARBZ9EH6J1","pain","5","","75","K","2","","0","0","1","","0.2382373761","false","115","","0.3175163572","main_expt","","0.3616298021","","0.2382373761","","0.1120532439","","","","","",""
"1737","","bandit","191","527459","0.0-153.0-0.0","29655236","wem/bandit_single","AYVARBZ9EH6J1","pain","5","","74","J","1","","0","1","0","","0.3886586702","false","116","","0.3626291523","main_expt","","0.3886586702","","0.2092397162","","0.07206247825","","","","","",""
"72","","bandit","192","529296","0.0-154.0-0.0","29655236","wem/bandit_single","AYVARBZ9EH6J1","pain","5","","76","L","3","","0","1","0","","0.05990892348","false","117","","0.4005972513","main_expt","","0.3837198657","","0.1790603663","","0.05990892348","","","","","",""
"552","","bandit","193","531609","0.0-155.0-0.0","29655236","wem/bandit_single","AYVARBZ9EH6J1","pain","5","","72","H","0","img/none_selected.jpg","0","0","1","","0.3994725347","false","118","","0.3994725347","main_expt","","0.3831944796","","0.2515048449","","0.07349038746","","","","","",""
"2562","","bandit","194","535930","0.0-156.0-0.0","29655236","wem/bandit_single","AYVARBZ9EH6J1","pain","5","","74","J","1","","0","1","0","","0.3200080389","false","119","","0.3690387214","main_expt","","0.3200080389","","0.2591845625","","0.0880416307","","","","","",""
"1033","","bandit","195","538722","0.0-157.0-0.0","29655236","wem/bandit_single","AYVARBZ9EH6J1","pain","5","","72","H","0","img/none_selected.jpg","0","1","0","","0.3553033444","false","120","","0.3553033444","main_expt","","0.3498825307","","0.2719994365","","0.08832912692","","","","","",""
"823","","bandit","196","541305","0.0-158.0-0.0","29655236","wem/bandit_single","AYVARBZ9EH6J1","pain","5","","72","H","0","img/none_selected.jpg","0","1","0","","0.3558993888","false","121","","0.3558993888","main_expt","","0.3150568547","","0.2511552987","","0.08322673311","","","","","",""
"808","","bandit","197","543873","0.0-159.0-0.0","29655236","wem/bandit_single","AYVARBZ9EH6J1","pain","5","","75","K","2","","0","0","1","","0.246059836","false","122","","0.3539125929","main_expt","","0.332296042","","0.246059836","","0.1027924146","","","","","",""
"929","","bandit","198","546561","0.0-160.0-0.0","29655236","wem/bandit_single","AYVARBZ9EH6J1","pain","5","","72","H","0","img/none_selected.jpg","0","1","0","","0.2756210624","false","123","","0.2756210624","main_expt","","0.3023892254","","0.201637063","","0.1112730508","","","","","",""
"826","","bandit","199","549145","0.0-161.0-0.0","29655236","wem/bandit_single","AYVARBZ9EH6J1","pain","5","","74","J","1","","0","0","1","","0.2971441903","false","124","","0.2924451827","main_expt","","0.2971441903","","0.2424225803","","0.1401536705","","","","","",""
"1306","","bandit","200","552208","0.0-162.0-0.0","29655236","wem/bandit_single","AYVARBZ9EH6J1","pain","5","","75","K","2","","0","0","1","","0.2663511033","false","125","","0.3283550958","main_expt","","0.2989687221","","0.2663511033","","0.170676821","","","","","",""
"25","","bandit","201","553994","0.0-163.0-0.0","29655236","wem/bandit_single","AYVARBZ9EH6J1","pain","5","","72","H","0","img/none_selected.jpg","0","0","1","","0.3561713316","false","126","","0.3561713316","main_expt","","0.3470717071","","0.2214557307","","0.2239131839","","","","","",""
"377","","bandit","202","556129","0.0-164.0-0.0","29655236","wem/bandit_single","AYVARBZ9EH6J1","pain","5","","72","H","0","img/none_selected.jpg","0","1","0","","0.3093512765","false","127","","0.3093512765","main_expt","","0.3399927284","","0.2274120533","","0.1828765327","","","","","",""
"473","","bandit","203","558360","0.0-165.0-0.0","29655236","wem/bandit_single","AYVARBZ9EH6J1","pain","5","","74","J","1","","0","0","1","","0.3039142281","false","128","","0.3682433617","main_expt","","0.3039142281","","0.2035603578","","0.2182936746","","","","","",""
"273","","bandit","204","560391","0.0-166.0-0.0","29655236","wem/bandit_single","AYVARBZ9EH6J1","pain","5","","72","H","0","img/none_selected.jpg","0","0","1","","0.3485983391","false","129","","0.3485983391","main_expt","","0.331948561","","0.1571118888","","0.2206976306","","","","","",""
"1067","","bandit","205","563217","0.0-167.0-0.0","29655236","wem/bandit_single","AYVARBZ9EH6J1","pain","5","","76","L","3","","0","0","1","","0.1657145536","false","130","","0.3907345736","main_expt","","0.3512730473","","0.08617346002","","0.1657145536","","","","","",""
"1762","","bandit","206","566737","0.0-168.0-0.0","29655236","wem/bandit_single","AYVARBZ9EH6J1","pain","5","","74","J","1","","0","1","0","","0.3617370935","false","131","","0.3697977754","main_expt","","0.3617370935","","0.1196539686","","0.2555784817","","","","","",""
"302","","bandit","207","568799","0.0-169.0-0.0","29655236","wem/bandit_single","AYVARBZ9EH6J1","pain","5","","74","J","1","","0","1","0","","0.3520165756","false","132","","0.3916621277","main_expt","","0.3520165756","","0.1111227042","","0.287060772","","","","","",""
"443","","bandit","208","571001","0.0-170.0-0.0","29655236","wem/bandit_single","AYVARBZ9EH6J1","pain","5","","76","L","3","","0","1","0","","0.238965149","false","133","","0.3437671512","main_expt","","0.3863989014","","0.1223368092","","0.238965149","","","","","",""
"305","","bandit","209","573065","0.0-171.0-0.0","29655236","wem/bandit_single","AYVARBZ9EH6J1","pain","5","","76","L","3","","0","0","1","","0.2457001749","false","134","","0.3636108046","main_expt","","0.3391859262","","0.1001486166","","0.2457001749","","","","","",""
"769","","bandit","210","575591","0.0-172.0-0.0","29655236","wem/bandit_single","AYVARBZ9EH6J1","pain","5","","72","H","0","img/none_selected.jpg","0","1","0","","0.3251377881","false","135","","0.3251377881","main_expt","","0.3700101905","","0.1179747861","","0.2499382958","","","","","",""
"146","","bandit","211","577495","0.0-173.0-0.0","29655236","wem/bandit_single","AYVARBZ9EH6J1","pain","5","","74","J","1","","0","0","1","","0.3002558999","false","136","","0.3838305716","main_expt","","0.3002558999","","0.1167775935","","0.2553087313","","","","","",""
"1891","","bandit","212","581145","0.0-174.0-0.0","29655236","wem/bandit_single","AYVARBZ9EH6J1","pain","5","","76","L","3","","0","0","1","","0.2517181947","false","137","","0.374624825","main_expt","","0.3242357935","","0.1459170178","","0.2517181947","","","","","",""
"368","","bandit","213","583271","0.0-175.0-0.0","29655236","wem/bandit_single","AYVARBZ9EH6J1","pain","5","","74","J","1","","0","1","0","","0.3413485239","false","138","","0.36903936","main_expt","","0.3413485239","","0.1403776257","","0.2531469116","","","","","",""
"682","","bandit","214","585711","0.0-176.0-0.0","29655236","wem/bandit_single","AYVARBZ9EH6J1","pain","5","","74","J","1","","0","0","1","","0.3172825342","false","139","","0.3757762965","main_expt","","0.3172825342","","0.1647502834","","0.2810662396","","","","","",""
"217","","bandit","215","587687","0.0-177.0-0.0","29655236","wem/bandit_single","AYVARBZ9EH6J1","pain","5","","74","J","1","","0","1","0","","0.3683668128","false","140","","0.3240643918","main_expt","","0.3683668128","","0.2135508935","","0.2226737135","","","","","",""
"745","","bandit","216","590191","0.0-178.0-0.0","29655236","wem/bandit_single","AYVARBZ9EH6J1","pain","5","","75","K","2","","0","1","0","","0.2286669107","false","141","","0.342151626","main_expt","","0.2976824498","","0.2286669107","","0.2330331678","","","","","",""
"807","","bandit","217","592759","0.0-179.0-0.0","29655236","wem/bandit_single","AYVARBZ9EH6J1","pain","5","","72","H","0","img/none_selected.jpg","0","1","0","","0.3576151309","false","142","","0.3576151309","main_expt","","0.3424177608","","0.1870561284","","0.1833347363","","","","","",""
"210","","bandit","218","594727","0.0-180.0-0.0","29655236","wem/bandit_single","AYVARBZ9EH6J1","pain","5","","74","J","1","","0","1","0","","0.3367953268","false","143","","0.3075624404","main_expt","","0.3367953268","","0.220851353","","0.2063127673","","","","","",""
"483","","bandit","219","596969","0.0-181.0-0.0","29655236","wem/bandit_single","AYVARBZ9EH6J1","pain","5","","72","H","0","img/none_selected.jpg","0","1","0","","0.3666812205","false","144","","0.3666812205","main_expt","","0.3446852995","","0.1581776843","","0.24054226","","","","","",""
"115196","","bandit","220","713925","0.0-182.0-0.0","29655236","wem/bandit_single","AYVARBZ9EH6J1","pain","5","","75","K","2","","0","0","1","","0.1562309797","false","145","","0.373264243","main_expt","","0.3569090532","","0.1562309797","","0.3397881996","","","","","",""
"318","","bandit","221","716003","0.0-183.0-0.0","29655236","wem/bandit_single","AYVARBZ9EH6J1","pain","5","","76","L","3","","0","1","0","","0.334771558","false","146","","0.3588440804","main_expt","","0.3546691234","","0.201277092","","0.334771558","","","","","",""
"158","","bandit","222","717923","0.0-184.0-0.0","29655236","wem/bandit_single","AYVARBZ9EH6J1","pain","5","","74","J","1","","0","1","0","","0.3346193534","false","147","","0.3848898601","main_expt","","0.3346193534","","0.2014254916","","0.3135854179","","","","","",""
"1482","","bandit","223","721163","0.0-185.0-0.0","29655236","wem/bandit_single","AYVARBZ9EH6J1","pain","5","","74","J","1","","0","1","0","","0.3481099765","false","148","","0.4049875018","main_expt","","0.3481099765","","0.1783642851","","0.2601716543","","","","","",""
"1265","","bandit","224","724187","0.0-186.0-0.0","29655236","wem/bandit_single","AYVARBZ9EH6J1","pain","5","","75","K","2","","0","0","1","","0.2394621943","false","149","","0.3644303146","main_expt","","0.3473239498","","0.2394621943","","0.2449203511","","","","","",""
"151","","bandit","225","726098","0.0-187.0-0.0","29655236","wem/bandit_single","AYVARBZ9EH6J1","pain","5","","75","K","2","","0","0","1","","0.2009439561","false","150","","0.3820895465","main_expt","","0.3457177179","","0.2009439561","","0.2679682766","","","","","",""
"704","","bandit","226","728563","0.0-188.0-0.0","29655236","wem/bandit_single","AYVARBZ9EH6J1","pain","5","","74","J","1","","0","1","0","","0.3131990842","false","151","","0.3715335383","main_expt","","0.3131990842","","0.1783838281","","0.2811524043","","","","","",""
"1013","","bandit","227","731337","0.0-189.0-0.0","29655236","wem/bandit_single","AYVARBZ9EH6J1","pain","5","","75","K","2","","0","0","1","","0.2357029213","false","152","","0.3270427106","main_expt","","0.2632978047","","0.2357029213","","0.2320671432","","","","","",""
"1220","","bandit","228","734315","0.0-190.0-0.0","29655236","wem/bandit_single","AYVARBZ9EH6J1","pain","5","","74","J","1","","0","0","1","","0.2782579121","false","153","","0.3117301263","main_expt","","0.2782579121","","0.1701289497","","0.2655606304","","","","","",""
"2318","","bandit","229","738392","0.0-191.0-0.0","29655236","wem/bandit_single","AYVARBZ9EH6J1","pain","5","","76","L","3","","0","0","1","","0.3485425359","false","154","","0.2860829053","main_expt","","0.2212449789","","0.1613436629","","0.3485425359","","","","","",""
"851","","bandit","230","741003","0.0-192.0-0.0","29655236","wem/bandit_single","AYVARBZ9EH6J1","pain","5","","74","J","1","","0","0","1","","0.1944586175","false","155","","0.2412247214","main_expt","","0.1944586175","","0.1419994917","","0.3302543019","","","","","",""
"12207","","bandit","231","754970","0.0-193.0-0.0","29655236","wem/bandit_single","AYVARBZ9EH6J1","pain","5","","74","J","1","","0","0","1","","0.2035424954","false","156","","0.2505935016","main_expt","","0.2035424954","","0.2076402971","","0.2696600886","","","","","",""
"848","","bandit","232","757578","0.0-194.0-0.0","29655236","wem/bandit_single","AYVARBZ9EH6J1","pain","5","","74","J","1","","0","1","0","","0.2039725598","false","157","","0.2677381881","main_expt","","0.2039725598","","0.2253974945","","0.3095791192","","","","","",""
"642","","bandit","233","759985","0.0-195.0-0.0","29655236","wem/bandit_single","AYVARBZ9EH6J1","pain","5","","75","K","2","","0","1","0","","0.3173726248","false","158","","0.228073272","main_expt","","0.1610126092","","0.3173726248","","0.3427908005","","","","","",""
"783","","bandit","234","762530","0.0-196.0-0.0","29655236","wem/bandit_single","AYVARBZ9EH6J1","pain","5","","76","L","3","","0","0","1","","0.3459652535","false","159","","0.2181731157","main_expt","","0.2244023171","","0.2929560982","","0.3459652535","","","","","",""
"956","","bandit","235","765244","0.0-197.0-0.0","29655236","wem/bandit_single","AYVARBZ9EH6J1","pain","5","","74","J","1","","0","1","0","","0.2550463449","false","160","","0.2483475363","main_expt","","0.2550463449","","0.2599130114","","0.3277363444","","","","","",""
"885","","bandit","236","767891","0.0-198.0-0.0","29655236","wem/bandit_single","AYVARBZ9EH6J1","pain","5","","74","J","1","","0","0","1","","0.1988840894","false","161","","0.2287268475","main_expt","","0.1988840894","","0.3006759107","","0.3043896987","","","","","",""
"1023","","bandit","237","770674","0.0-199.0-0.0","29655236","wem/bandit_single","AYVARBZ9EH6J1","pain","5","","74","J","1","","0","1","0","","0.3208820199","false","162","","0.2118340618","main_expt","","0.3208820199","","0.3359074288","","0.3013302692","","","","","",""
"79","","bandit","238","772514","0.0-200.0-0.0","29655236","wem/bandit_single","AYVARBZ9EH6J1","pain","5","","72","H","0","img/none_selected.jpg","0","0","1","","0.2467500447","false","163","","0.2467500447","main_expt","","0.3416291965","","0.3248254093","","0.3359404133","","","","","",""
"239","","bandit","239","774514","0.0-201.0-0.0","29655236","wem/bandit_single","AYVARBZ9EH6J1","pain","5","","74","J","1","","0","1","0","","0.3531125991","false","164","","0.2745506496","main_expt","","0.3531125991","","0.2480447101","","0.3449747326","","","","","",""
"272","","bandit","240","776545","0.0-202.0-0.0","29655236","wem/bandit_single","AYVARBZ9EH6J1","pain","5","","72","H","0","img/none_selected.jpg","0","1","0","","0.2893970703","false","165","","0.2893970703","main_expt","","0.3329293945","","0.2291527929","","0.3388680014","","","","","",""
"290","","bandit","241","778595","0.0-203.0-0.0","29655236","wem/bandit_single","AYVARBZ9EH6J1","pain","5","","74","J","1","","0","1","0","","0.368824295","false","166","","0.326956194","main_expt","","0.368824295","","0.2408823094","","0.3565097084","","","","","",""
"582","","bandit","242","780938","0.0-204.0-0.0","29655236","wem/bandit_single","AYVARBZ9EH6J1","pain","5","","74","J","1","","0","0","1","","0.3528049135","false","167","","0.2562538154","main_expt","","0.3528049135","","0.1852653973","","0.3807311224","","","","","",""
"202","","bandit","243","782898","0.0-205.0-0.0","29655236","wem/bandit_single","AYVARBZ9EH6J1","pain","5","","74","J","1","","0","0","1","","0.3530437727","false","168","","0.259707785","main_expt","","0.3530437727","","0.1123614246","","0.4157533759","","","","","",""
"10","","bandit","244","784669","0.0-206.0-0.0","29655236","wem/bandit_single","AYVARBZ9EH6J1","pain","5","","72","H","0","img/none_selected.jpg","0","0","1","","0.305903145","false","169","","0.305903145","main_expt","","0.3619584092","","0.1289140747","","0.3990846218","","","","","",""
"2105","","bandit","245","788538","0.0-207.0-0.0","29655236","wem/bandit_single","AYVARBZ9EH6J1","pain","5","","74","J","1","","0","0","1","","0.3851568221","false","170","","0.2780458482","main_expt","","0.3851568221","","0.1082073398","","0.3840903594","","","","","",""
"225","","bandit","246","790522","0.0-208.0-0.0","29655236","wem/bandit_single","AYVARBZ9EH6J1","pain","5","","75","K","2","","0","0","1","","0.09560917383","false","171","","0.2754425626","main_expt","","0.369821393","","0.09560917383","","0.4279034191","","","","","",""
"840","","bandit","247","793120","0.0-209.0-0.0","29655236","wem/bandit_single","AYVARBZ9EH6J1","pain","5","","75","K","2","","0","0","1","","0.09002122866","false","172","","0.2801866594","main_expt","","0.3238500873","","0.09002122866","","0.4277210969","","","","","",""
"240","","bandit","248","795121","0.0-210.0-0.0","29655236","wem/bandit_single","AYVARBZ9EH6J1","pain","5","","72","H","0","img/none_selected.jpg","0","0","1","","0.2903169923","false","173","","0.2903169923","main_expt","","0.371178543","","0.06359212806","","0.4177409887","","","","","",""
"2504","","bandit","249","799385","0.0-211.0-0.0","29655236","wem/bandit_single","AYVARBZ9EH6J1","pain","5","","74","J","1","","0","0","1","","0.364968973","false","174","","0.3135769273","main_expt","","0.364968973","","0.07897407323","","0.4149019111","","","","","",""
"65","","bandit","250","801209","0.0-212.0-0.0","29655236","wem/bandit_single","AYVARBZ9EH6J1","pain","5","","72","H","0","img/none_selected.jpg","0","1","0","","0.3205535054","false","175","","0.3205535054","main_expt","","0.4172857806","","0.05374651045","","0.3890834012","","","","","",""
"410","","bandit","251","803377","0.0-213.0-0.0","29655236","wem/bandit_single","AYVARBZ9EH6J1","pain","5","","72","H","0","img/none_selected.jpg","0","1","0","","0.3548310205","false","176","","0.3548310205","main_expt","","0.3931137538","","0.05298342689","","0.3775492635","","","","","",""
"473","","bandit","252","805609","0.0-214.0-0.0","29655236","wem/bandit_single","AYVARBZ9EH6J1","pain","5","","74","J","1","","0","0","1","","0.4118750583","false","177","","0.3374760958","main_expt","","0.4118750583","","0.04117570961","","0.2763311933","","","","","",""
"993","","bandit","253","808361","0.0-215.0-0.0","29655236","wem/bandit_single","AYVARBZ9EH6J1","pain","5","","72","H","0","img/none_selected.jpg","0","1","0","","0.3045899674","false","178","","0.3045899674","main_expt","","0.4019835374","","0.0682688674","","0.2117274321","","","","","",""
"207","","bandit","254","810329","0.0-216.0-0.0","29655236","wem/bandit_single","AYVARBZ9EH6J1","pain","5","","74","J","1","","0","0","1","","0.3943962464","false","179","","0.2701203387","main_expt","","0.3943962464","","0.0699035784","","0.2071796451","","","","","",""
"72","","bandit","255","812159","0.0-217.0-0.0","29655236","wem/bandit_single","AYVARBZ9EH6J1","pain","5","","74","J","1","","0","1","0","","0.3879360396","false","180","","0.3010541938","main_expt","","0.3879360396","","0.08066818268","","0.2237333922","","","","","",""
"435","","bandit","256","814353","0.0-218.0-0.0","29655236","wem/bandit_single","AYVARBZ9EH6J1","pain","5","","72","H","0","img/none_selected.jpg","0","0","1","","0.2685782119","false","181","","0.2685782119","main_expt","","0.3516035239","","0.06418194011","","0.1462221579","","","","","",""
"1313","","bandit","257","817423","0.0-219.0-0.0","29655236","wem/bandit_single","AYVARBZ9EH6J1","pain","5","","74","J","1","","0","1","0","","0.3544849886","false","182","","0.2333395507","main_expt","","0.3544849886","","0.05948248489","","0.1745001591","","","","","",""
"42","","bandit","258","819224","0.0-220.0-0.0","29655236","wem/bandit_single","AYVARBZ9EH6J1","pain","5","","75","K","2","","0","0","1","","0.04249263759","false","183","","0.1817222791","main_expt","","0.3239224462","","0.04249263759","","0.1840457003","","","","","",""
"152","","bandit","259","821136","0.0-221.0-0.0","29655236","wem/bandit_single","AYVARBZ9EH6J1","pain","5","","74","J","1","","0","0","1","","0.3437575642","false","184","","0.1946528514","main_expt","","0.3437575642","","0.05174265856","","0.1684271963","","","","","",""
"507","","bandit","260","823401","0.0-222.0-0.0","29655236","wem/bandit_single","AYVARBZ9EH6J1","pain","5","","76","L","3","","0","1","0","","0.1820742113","false","185","","0.1998780622","main_expt","","0.3584643827","","0.04700335152","","0.1820742113","","","","","",""
"422","","bandit","261","825583","0.0-223.0-0.0","29655236","wem/bandit_single","AYVARBZ9EH6J1","pain","5","","72","H","0","img/none_selected.jpg","0","0","1","","0.2674223733","false","186","","0.2674223733","main_expt","","0.3968797112","","0.0651928762","","0.2156320388","","","","","",""
"1000","","bandit","262","828344","0.0-224.0-0.0","29655236","wem/bandit_single","AYVARBZ9EH6J1","pain","5","","76","L","3","","0","1","0","","0.2805416817","false","187","","0.2625155344","main_expt","","0.3851297664","","0.1006801651","","0.2805416817","","","","","",""
"8","","bandit","263","830111","0.0-225.0-0.0","29655236","wem/bandit_single","AYVARBZ9EH6J1","pain","5","","74","J","1","","0","1","0","","0.3861445831","false","188","","0.2428845682","main_expt","","0.3861445831","","0.1650650448","","0.255869765","","","","","",""
"1310","","bandit","264","833182","0.0-226.0-0.0","29655236","wem/bandit_single","AYVARBZ9EH6J1","pain","5","","76","L","3","","0","0","1","","0.1757761595","false","189","","0.2017656849","main_expt","","0.3904601473","","0.1545550266","","0.1757761595","","","","","",""
"115","","bandit","265","835055","0.0-227.0-0.0","29655236","wem/bandit_single","AYVARBZ9EH6J1","pain","5","","74","J","1","","0","1","0","","0.430863334","false","190","","0.2163316772","main_expt","","0.430863334","","0.187471884","","0.1346649685","","","","","",""
"1480","","bandit","266","838294","0.0-228.0-0.0","29655236","wem/bandit_single","AYVARBZ9EH6J1","pain","5","","74","J","1","","0","0","1","","0.4113524325","false","191","","0.2055350187","main_expt","","0.4113524325","","0.1611513775","","0.1132332922","","","","","",""
"26","","bandit","267","840077","0.0-229.0-0.0","29655236","wem/bandit_single","AYVARBZ9EH6J1","pain","5","","76","L","3","","0","0","1","","0.1208943264","false","192","","0.1895719249","main_expt","","0.4039805352","","0.1777959463","","0.1208943264","","","","","",""
"529","","bandit","268","842366","0.0-230.0-0.0","29655236","wem/bandit_single","AYVARBZ9EH6J1","pain","5","","76","L","3","","0","0","1","","0.1939792015","false","193","","0.1748526562","main_expt","","0.4245567291","","0.1871499601","","0.1939792015","","","","","",""
"897","","bandit","269","845022","0.0-231.0-0.0","29655236","wem/bandit_single","AYVARBZ9EH6J1","pain","5","","74","J","1","","0","1","0","","0.3947968319","false","194","","0.1474168317","main_expt","","0.3947968319","","0.1876497678","","0.16637132","","","","","",""
"479","","bandit","270","847263","0.0-232.0-0.0","29655236","wem/bandit_single","AYVARBZ9EH6J1","pain","5","","75","K","2","","0","0","1","","0.1091892437","false","195","","0.192031623","main_expt","","0.4142863389","","0.1091892437","","0.1730885183","","","","","",""
"197","","bandit","271","849222","0.0-233.0-0.0","29655236","wem/bandit_single","AYVARBZ9EH6J1","pain","5","","76","L","3","","0","0","1","","0.215114198","false","196","","0.2058404012","main_expt","","0.4233691667","","0.1617114059","","0.215114198","","","","","",""
"385","","bandit","272","851367","0.0-234.0-0.0","29655236","wem/bandit_single","AYVARBZ9EH6J1","pain","5","","76","L","3","","0","0","1","","0.2080771369","false","197","","0.2424759238","main_expt","","0.3910113043","","0.1704243662","","0.2080771369","","","","","",""
"384","","bandit","273","853511","0.0-235.0-0.0","29655236","wem/bandit_single","AYVARBZ9EH6J1","pain","5","","72","H","0","img/none_selected.jpg","0","0","1","","0.2209877853","false","198","","0.2209877853","main_expt","","0.4036427912","","0.1547158464","","0.2349601263","","","","","",""
"844","","bandit","274","856119","0.0-236.0-0.0","29655236","wem/bandit_single","AYVARBZ9EH6J1","pain","5","","76","L","3","","0","0","1","","0.2603506135","false","199","","0.2167038869","main_expt","","0.4211573591","","0.1871633293","","0.2603506135","","","","","",""
"279","","bandit","275","858157","0.0-237.0-0.0","29655236","wem/bandit_single","AYVARBZ9EH6J1","pain","5","","72","H","0","img/none_selected.jpg","0","0","1","","0.1923465651","false","200","","0.1923465651","main_expt","","0.4279321675","","0.2044595191","","0.3238520586","","","","","",""
"240","","bandit","276","860157","0.0-238.0-0.0","29655236","wem/bandit_single","AYVARBZ9EH6J1","pain","5","","74","J","1","","0","1","0","","0.4164542871","false","201","","0.2292217674","main_expt","","0.4164542871","","0.2260370877","","0.3006478669","","","","","",""
"1044","","bandit","277","862958","0.0-239.0-0.0","29655236","wem/bandit_single","AYVARBZ9EH6J1","pain","5","","76","L","3","","0","0","1","","0.2728804465","false","202","","0.2458551357","main_expt","","0.4304584766","","0.2543806879","","0.2728804465","","","","","",""
"1062","","bandit","278","865781","0.0-240.0-0.0","29655236","wem/bandit_single","AYVARBZ9EH6J1","pain","5","","75","K","2","","0","0","1","","0.248330882","false","203","","0.2388066436","main_expt","","0.4301844238","","0.248330882","","0.3070028205","","","","","",""
"1707","","bandit","279","869246","0.0-241.0-0.0","29655236","wem/bandit_single","AYVARBZ9EH6J1","pain","5","","74","J","1","","0","0","1","","0.3900297032","false","204","","0.2087278664","main_expt","","0.3900297032","","0.272777159","","0.2937269753","","","","","",""
"185","","bandit","280","871190","0.0-242.0-0.0","29655236","wem/bandit_single","AYVARBZ9EH6J1","pain","5","","74","J","1","","0","0","1","","0.3928583167","false","205","","0.1498191458","main_expt","","0.3928583167","","0.3434557908","","0.2378968556","","","","","",""
"280","","bandit","281","873230","0.0-243.0-0.0","29655236","wem/bandit_single","AYVARBZ9EH6J1","pain","5","","75","K","2","","0","0","1","","0.3670462125","false","206","","0.1173401749","main_expt","","0.4066069638","","0.3670462125","","0.2621799838","","","","","",""
"169","","bandit","282","875158","0.0-244.0-0.0","29655236","wem/bandit_single","AYVARBZ9EH6J1","pain","5","","72","H","0","img/none_selected.jpg","0","0","1","","0.131911627","false","207","","0.131911627","main_expt","","0.3973448409","","0.3762900352","","0.2751860601","","","","","",""
"612","","bandit","283","877534","0.0-245.0-0.0","29655236","wem/bandit_single","AYVARBZ9EH6J1","pain","5","","72","H","0","img/none_selected.jpg","0","0","1","","0.121614138","false","208","","0.121614138","main_expt","","0.4149937731","","0.3619644859","","0.2449975294","","","","","",""
"8","","bandit","284","879301","0.0-246.0-0.0","29655236","wem/bandit_single","AYVARBZ9EH6J1","pain","5","","74","J","1","","0","1","0","","0.4174336027","false","209","","0.1301565943","main_expt","","0.4174336027","","0.3487947413","","0.2260792918","","","","","",""
"799","","bandit","285","881860","0.0-247.0-0.0","29655236","wem/bandit_single","AYVARBZ9EH6J1","pain","5","","74","J","1","","0","0","1","","0.3969791934","false","210","","0.09603783024","main_expt","","0.3969791934","","0.3019817091","","0.2506868781","","","","","",""
"717","","bandit","286","884339","0.0-248.0-0.0","29655236","wem/bandit_single","AYVARBZ9EH6J1","pain","5","","72","H","0","img/none_selected.jpg","0","0","1","","0.09853312819","false","211","","0.09853312819","main_expt","","0.4109689779","","0.3322841588","","0.2364470615","","","","","",""
"811","","bandit","287","886910","0.0-249.0-0.0","29655236","wem/bandit_single","AYVARBZ9EH6J1","pain","5","","74","J","1","","0","0","1","","0.3870841375","false","212","","0.08497623984","main_expt","","0.3870841375","","0.3257981887","","0.2097336517","","","","","",""
"557","","bandit","288","889231","0.0-250.0-0.0","29655236","wem/bandit_single","AYVARBZ9EH6J1","pain","5","","72","H","0","img/none_selected.jpg","0","0","1","","0.0690536233","false","213","","0.0690536233","main_expt","","0.3702451026","","0.299150427","","0.223293056","","","","","",""
"411","","bandit","289","891401","0.0-251.0-0.0","29655236","wem/bandit_single","AYVARBZ9EH6J1","pain","5","","76","L","3","","0","1","0","","0.2797804449","false","214","","0.05607702273","main_expt","","0.4052473305","","0.2841516905","","0.2797804449","","","","","",""
"1310","","bandit","290","894470","0.0-252.0-0.0","29655236","wem/bandit_single","AYVARBZ9EH6J1","pain","5","","76","L","3","","0","1","0","","0.3307304153","false","215","","0.0612243178","main_expt","","0.4003088938","","0.2421432752","","0.3307304153","","","","","",""
"1190","","bandit","291","897421","0.0-253.0-0.0","29655236","wem/bandit_single","AYVARBZ9EH6J1","pain","5","","72","H","0","img/none_selected.jpg","0","0","1","","0.03010565971","false","216","","0.03010565971","main_expt","","0.4087675299","","0.1705338946","","0.3341057131","","","","","",""
"880","","bandit","292","900060","0.0-254.0-0.0","29655236","wem/bandit_single","AYVARBZ9EH6J1","pain","5","","76","L","3","","0","0","1","","0.3086359365","false","217","","0.05034411961","main_expt","","0.3947963157","","0.219014384","","0.3086359365","","","","","",""
"152","","bandit","293","901974","0.0-255.0-0.0","29655236","wem/bandit_single","AYVARBZ9EH6J1","pain","5","","74","J","1","","0","1","0","","0.4200256015","false","218","","0.03278593655","main_expt","","0.4200256015","","0.2135739311","","0.370061562","","","","","",""
"880","","bandit","294","904613","0.0-256.0-0.0","29655236","wem/bandit_single","AYVARBZ9EH6J1","pain","5","","72","H","0","img/none_selected.jpg","0","0","1","","0.02968551415","false","219","","0.02968551415","main_expt","","0.3845181055","","0.1719688778","","0.3425962001","","","","","",""
"181","","bandit","295","906553","0.0-257.0-0.0","29655236","wem/bandit_single","AYVARBZ9EH6J1","pain","5","","76","L","3","","0","0","1","","0.3200162658","false","220","","0.03392365282","main_expt","","0.3200105211","","0.1017501311","","0.3200162658","","","","","",""
"1445","","bandit","296","909758","0.0-258.0-0.0","29655236","wem/bandit_single","AYVARBZ9EH6J1","pain","5","","72","H","0","img/none_selected.jpg","0","0","1","","0.03139192041","false","221","","0.03139192041","main_expt","","0.297673658","","0.1121412156","","0.3209906652","","","","","",""
"176","","bandit","297","911694","0.0-259.0-0.0","29655236","wem/bandit_single","AYVARBZ9EH6J1","pain","5","","74","J","1","","0","0","1","","0.2963768597","false","222","","0.02842311261","main_expt","","0.2963768597","","0.1091313961","","0.3013890172","","","","","",""
"94","","bandit","298","913548","0.0-260.0-0.0","29655236","wem/bandit_single","AYVARBZ9EH6J1","pain","5","","76","L","3","","0","0","1","","0.2614115174","false","223","","0.0287580325","main_expt","","0.2927297303","","0.09983876589","","0.2614115174","","","","","",""
"817","","bandit","299","916126","0.0-261.0-0.0","29655236","wem/bandit_single","AYVARBZ9EH6J1","pain","5","","72","H","0","img/none_selected.jpg","0","0","1","","0.02300930076","false","224","","0.02300930076","main_expt","","0.2751498343","","0.1018501693","","0.2490141009","","","","","",""
"786","","bandit","300","918676","0.0-262.0-0.0","29655236","wem/bandit_single","AYVARBZ9EH6J1","pain","5","","72","H","0","img/none_selected.jpg","0","0","1","","0.02989568437","false","225","","0.02989568437","main_expt","","0.2377617529","","0.1222407881","","0.263459589","","","","","",""
"594","","bandit","301","921029","0.0-263.0-0.0","29655236","wem/bandit_single","AYVARBZ9EH6J1","pain","5","","74","J","1","","0","0","1","","0.2137681397","false","226","","0.04233903912","main_expt","","0.2137681397","","0.1332846515","","0.2828917593","","","","","",""
"799","","bandit","302","923588","0.0-264.0-0.0","29655236","wem/bandit_single","AYVARBZ9EH6J1","pain","5","","75","K","2","","0","1","0","","0.1606351014","false","227","","0.0317259717","main_expt","","0.1830623781","","0.1606351014","","0.2635957152","","","","","",""
"657","","bandit","303","926004","0.0-265.0-0.0","29655236","wem/bandit_single","AYVARBZ9EH6J1","pain","5","","72","H","0","img/none_selected.jpg","0","0","1","","0.04253553249","false","228","","0.04253553249","main_expt","","0.1665925442","","0.1292420082","","0.259674247","","","","","",""
"82","","bandit","304","927846","0.0-266.0-0.0","29655236","wem/bandit_single","AYVARBZ9EH6J1","pain","5","","76","L","3","","0","1","0","","0.2737318667","false","229","","0.06761640147","main_expt","","0.2136718414","","0.1281284096","","0.2737318667","","","","","",""
"719","","bandit","305","930323","0.0-267.0-0.0","29655236","wem/bandit_single","AYVARBZ9EH6J1","pain","5","","72","H","0","img/none_selected.jpg","0","0","1","","0.08572380951","false","230","","0.08572380951","main_expt","","0.2435987791","","0.0791291566","","0.3195589589","","","","","",""
"585","","bandit","306","932669","0.0-268.0-0.0","29655236","wem/bandit_single","AYVARBZ9EH6J1","pain","5","","76","L","3","","0","1","0","","0.3304270948","false","231","","0.07272236896","main_expt","","0.2566168121","","0.10920453","","0.3304270948","","","","","",""
"331","","bandit","307","934763","0.0-269.0-0.0","29655236","wem/bandit_single","AYVARBZ9EH6J1","pain","5","","72","H","0","img/none_selected.jpg","0","0","1","","0.0735724775","false","232","","0.0735724775","main_expt","","0.2152843379","","0.167261158","","0.2806951239","","","","","",""
"870","","bandit","308","937396","0.0-270.0-0.0","29655236","wem/bandit_single","AYVARBZ9EH6J1","pain","5","","72","H","0","img/none_selected.jpg","0","0","1","","0.06465645962","false","233","","0.06465645962","main_expt","","0.2361400262","","0.1078973024","","0.3115261247","","","","","",""
"808","","bandit","309","939963","0.0-271.0-0.0","29655236","wem/bandit_single","AYVARBZ9EH6J1","pain","5","","72","H","0","img/none_selected.jpg","0","0","1","","0.04279198238","false","234","","0.04279198238","main_expt","","0.2575526348","","0.2366146445","","0.3001083946","","","","","",""
"1111","","bandit","310","942837","0.0-272.0-0.0","29655236","wem/bandit_single","AYVARBZ9EH6J1","pain","5","","76","L","3","","0","1","0","","0.2768541542","false","235","","0.06672803397","main_expt","","0.2828430508","","0.2393051992","","0.2768541542","","","","","",""
"114","","bandit","311","944714","0.0-273.0-0.0","29655236","wem/bandit_single","AYVARBZ9EH6J1","pain","5","","74","J","1","","0","0","1","","0.2860482958","false","236","","0.07100342573","main_expt","","0.2860482958","","0.2976693115","","0.332362789","","","","","",""
"1537","","bandit","312","948013","0.0-274.0-0.0","29655236","wem/bandit_single","AYVARBZ9EH6J1","pain","5","","74","J","1","","0","0","1","","0.2783023894","false","237","","0.03680589181","main_expt","","0.2783023894","","0.2674299269","","0.3408832027","","","","","",""
"1147","","bandit","313","950923","0.0-275.0-0.0","29655236","wem/bandit_single","AYVARBZ9EH6J1","pain","5","","74","J","1","","0","1","0","","0.2644861187","false","238","","0.02733344458","main_expt","","0.2644861187","","0.2647207175","","0.362117859","","","","","",""
"1247","","bandit","314","953931","0.0-276.0-0.0","29655236","wem/bandit_single","AYVARBZ9EH6J1","pain","5","","75","K","2","","0","1","0","","0.1936342125","false","239","","0.01831396817","main_expt","","0.3186717024","","0.1936342125","","0.3574250999","","","","","",""
"1260","","bandit","315","956956","0.0-277.0-0.0","29655236","wem/bandit_single","AYVARBZ9EH6J1","pain","5","","74","J","1","","0","0","1","","0.3360375491","false","240","","0.01383764992","main_expt","","0.3360375491","","0.2382432393","","0.290436356","","","","","",""
"864","","bandit","316","959579","0.0-278.0-0.0","29655236","wem/bandit_single","AYVARBZ9EH6J1","pain","5","","72","H","0","img/none_selected.jpg","0","0","1","","0.0277662638","false","241","","0.0277662638","main_expt","","0.3386213473","","0.2984572788","","0.3414967811","","","","","",""
"887","","bandit","317","962229","0.0-279.0-0.0","29655236","wem/bandit_single","AYVARBZ9EH6J1","pain","5","","74","J","1","","0","0","1","","0.3523037021","false","242","","0.04064120638","main_expt","","0.3523037021","","0.2927867707","","0.3778608287","","","","","",""
"445","","bandit","318","964435","0.0-280.0-0.0","29655236","wem/bandit_single","AYVARBZ9EH6J1","pain","5","","74","J","1","","0","0","1","","0.360543067","false","243","","0.04640587852","main_expt","","0.360543067","","0.2870713985","","0.3552630766","","","","","",""
"526","","bandit","319","966722","0.0-281.0-0.0","29655236","wem/bandit_single","AYVARBZ9EH6J1","pain","5","","76","L","3","","0","1","0","","0.3538674815","false","244","","0.06567084485","main_expt","","0.3728786331","","0.2882437102","","0.3538674815","","","","","",""
"215","","bandit","320","968698","0.0-282.0-0.0","29655236","wem/bandit_single","AYVARBZ9EH6J1","pain","5","","72","H","0","img/none_selected.jpg","0","0","1","","0.1069305933","false","245","","0.1069305933","main_expt","","0.3736501537","","0.3125457984","","0.3592745223","","","","","",""
"935","","bandit","321","971394","0.0-283.0-0.0","29655236","wem/bandit_single","AYVARBZ9EH6J1","pain","5","","76","L","3","","0","0","1","","0.3784559109","false","246","","0.07318543846","main_expt","","0.3880614915","","0.2949331023","","0.3784559109","","","","","",""
"357","","bandit","322","973514","0.0-284.0-0.0","29655236","wem/bandit_single","AYVARBZ9EH6J1","pain","5","","72","H","0","img/none_selected.jpg","0","0","1","","0.06866628372","false","247","","0.06866628372","main_expt","","0.3906355486","","0.3557375168","","0.3871101473","","","","","",""
"1287","","bandit","323","976562","0.0-285.0-0.0","29655236","wem/bandit_single","AYVARBZ9EH6J1","pain","5","","76","L","3","","0","0","1","","0.366594806","false","248","","0.06101724449","main_expt","","0.3713177951","","0.3190142928","","0.366594806","","","","","",""
"815","","bandit","324","979136","0.0-286.0-0.0","29655236","wem/bandit_single","AYVARBZ9EH6J1","pain","5","","72","H","0","img/none_selected.jpg","0","0","1","","0.07132197128","false","249","","0.07132197128","main_expt","","0.2887643678","","0.2946857214","","0.35265903","","","","","",""
"281","","bandit","325","981178","0.0-287.0-0.0","29655236","wem/bandit_single","AYVARBZ9EH6J1","pain","5","","76","L","3","","0","1","0","","0.3725690128","false","250","","0.04991986053","main_expt","","0.3503459773","","0.285145352","","0.3725690128","","","","","",""
"959","","bandit","326","983899","0.0-288.0-0.0","29655236","wem/bandit_single","AYVARBZ9EH6J1","pain","5","","72","H","0","img/none_selected.jpg","0","0","1","","0.087584861","false","251","","0.087584861","main_expt","","0.3900307368","","0.2572530626","","0.3516217444","","","","","",""
"846","","bandit","327","986504","0.0-289.0-0.0","29655236","wem/bandit_single","AYVARBZ9EH6J1","pain","5","","76","L","3","","0","0","1","","0.3478664427","false","252","","0.1089760904","main_expt","","0.3998204568","","0.206609756","","0.3478664427","","","","","",""
"783","","bandit","328","989048","0.0-290.0-0.0","29655236","wem/bandit_single","AYVARBZ9EH6J1","pain","5","","74","J","1","","0","1","0","","0.4062214202","false","253","","0.1389783028","main_expt","","0.4062214202","","0.2526850855","","0.2845216812","","","","","",""
"648","","bandit","329","991457","0.0-291.0-0.0","29655236","wem/bandit_single","AYVARBZ9EH6J1","pain","5","","76","L","3","","0","1","0","","0.3395138109","false","254","","0.1438582992","main_expt","","0.434330363","","0.2143143283","","0.3395138109","","","","","",""
"367","","bandit","330","993586","0.0-292.0-0.0","29655236","wem/bandit_single","AYVARBZ9EH6J1","pain","5","","74","J","1","","0","1","0","","0.463361135","false","255","","0.1341592381","main_expt","","0.463361135","","0.2330346229","","0.284072963","","","","","",""
"1919","","bandit","331","997265","0.0-293.0-0.0","29655236","wem/bandit_single","AYVARBZ9EH6J1","pain","5","","76","L","3","","0","0","1","","0.2791977035","false","256","","0.1539827047","main_expt","","0.4513325925","","0.1707848091","","0.2791977035","","","","","",""
"1383","","bandit","332","1000409","0.0-294.0-0.0","29655236","wem/bandit_single","AYVARBZ9EH6J1","pain","5","","76","L","3","","0","0","1","","0.2827618753","false","257","","0.1067893116","main_expt","","0.4493477618","","0.204762461","","0.2827618753","","","","","",""
"1578","","bandit","333","1003752","0.0-295.0-0.0","29655236","wem/bandit_single","AYVARBZ9EH6J1","pain","5","","76","L","3","","0","0","1","","0.2367173663","false","258","","0.05021154971","main_expt","","0.4586876348","","0.1678630312","","0.2367173663","","","","","",""
"938","","bandit","334","1006451","0.0-296.0-0.0","29655236","wem/bandit_single","AYVARBZ9EH6J1","pain","5","","76","L","3","","0","0","1","","0.2715647874","false","259","","0.04357518244","main_expt","","0.45931789","","0.1739170557","","0.2715647874","","","","","",""
"7","","bandit","335","1008221","0.0-297.0-0.0","29655236","wem/bandit_single","AYVARBZ9EH6J1","pain","5","","74","J","1","","0","0","1","","0.4583289396","false","260","","0.05606835832","main_expt","","0.4583289396","","0.1848885371","","0.2310951927","","","","","",""
"141","","bandit","336","1010122","0.0-298.0-0.0","29655236","wem/bandit_single","AYVARBZ9EH6J1","pain","5","","72","H","0","img/none_selected.jpg","0","0","1","","0.05035703518","false","261","","0.05035703518","main_expt","","0.4470277171","","0.2258440324","","0.2297288133","","","","","",""
"423","","bandit","337","1012307","0.0-299.0-0.0","29655236","wem/bandit_single","AYVARBZ9EH6J1","pain","5","","75","K","2","","0","0","1","","0.2167220908","false","262","","0.04352905051","main_expt","","0.457772586","","0.2167220908","","0.2072969611","","","","","",""
"469","","bandit","338","1014537","0.0-300.0-0.0","29655236","wem/bandit_single","AYVARBZ9EH6J1","pain","5","","74","J","1","","0","1","0","","0.417694616","false","263","","0.0373968872","main_expt","","0.417694616","","0.2118780444","","0.2427077321","","","","","",""
"49","","bandit","339","1016345","0.0-301.0-0.0","29655236","wem/bandit_single","AYVARBZ9EH6J1","pain","5","","75","K","2","","0","0","1","","0.1870566281","false","264","","0.04440415955","main_expt","","0.4214939516","","0.1870566281","","0.3052561595","","","","","",""
"175","","bandit","340","1018280","0.0-302.0-0.0","29655236","wem/bandit_single","AYVARBZ9EH6J1","pain","5","","75","K","2","","0","0","1","","0.1706127143","false","265","","0.0139225964","main_expt","","0.413465883","","0.1706127143","","0.3000319327","","","","","",""
"1201","","bandit","341","1021243","0.0-303.0-0.0","29655236","wem/bandit_single","AYVARBZ9EH6J1","pain","5","","74","J","1","","0","0","1","","0.4116424673","false","266","","0.01259799349","main_expt","","0.4116424673","","0.1693140566","","0.3134404232","","","","","",""
"1141","","bandit","342","1024145","0.0-304.0-0.0","29655236","wem/bandit_single","AYVARBZ9EH6J1","pain","5","","75","K","2","","0","0","1","","0.1753800763","false","267","","0.00740451457","main_expt","","0.3863145418","","0.1753800763","","0.3066387991","","","","","",""
"363","","bandit","343","1026271","0.0-305.0-0.0","29655236","wem/bandit_single","AYVARBZ9EH6J1","pain","5","","75","K","2","","0","0","1","","0.1918786918","false","268","","0.004693585052","main_expt","","0.4265221664","","0.1918786918","","0.3058482798","","","","","",""
"922","","bandit","344","1028954","0.0-306.0-0.0","29655236","wem/bandit_single","AYVARBZ9EH6J1","pain","5","","74","J","1","","0","0","1","","0.4515898034","false","269","","0.004824061053","main_expt","","0.4515898034","","0.1999989265","","0.2523051309","","","","","",""
"80","","bandit","345","1030795","0.0-307.0-0.0","29655236","wem/bandit_single","AYVARBZ9EH6J1","pain","5","","75","K","2","","0","1","0","","0.2211747839","false","270","","0.006174480496","main_expt","","0.4467147125","","0.2211747839","","0.2663701485","","","","","",""
"284","","bandit","346","1032840","0.0-308.0-0.0","29655236","wem/bandit_single","AYVARBZ9EH6J1","pain","5","","74","J","1","","0","1","0","","0.4582909467","false","271","","0.00832103917","main_expt","","0.4582909467","","0.2404792593","","0.2485798686","","","","","",""
"950","","bandit","347","1035552","0.0-309.0-0.0","29655236","wem/bandit_single","AYVARBZ9EH6J1","pain","5","","74","J","1","","0","1","0","","0.4709209778","false","272","","0.00728594366","main_expt","","0.4709209778","","0.2558589782","","0.2345495347","","","","","",""
"167","","bandit","348","1037479","0.0-310.0-0.0","29655236","wem/bandit_single","AYVARBZ9EH6J1","pain","5","","76","L","3","","0","1","0","","0.2137032991","false","273","","0.01114453755","main_expt","","0.4660917397","","0.1700432942","","0.2137032991","","","","","",""
"1010","","bandit","349","1040251","0.0-311.0-0.0","29655236","wem/bandit_single","AYVARBZ9EH6J1","pain","5","","76","L","3","","0","0","1","","0.2108512091","false","274","","0.01390500062","main_expt","","0.4639522763","","0.2452429789","","0.2108512091","","","","","",""
"147","","bandit","350","1042160","0.0-312.0-0.0","29655236","wem/bandit_single","AYVARBZ9EH6J1","pain","5","","74","J","1","","0","1","0","","0.4559735555","false","275","","0.01307999715","main_expt","","0.4559735555","","0.2540496776","","0.1817434844","","","","","",""
"422","","bandit","351","1044345","0.0-313.0-0.0","29655236","wem/bandit_single","AYVARBZ9EH6J1","pain","5","","76","L","3","","0","1","0","","0.2037179719","false","276","","0.01650166306","main_expt","","0.4246507461","","0.2816965905","","0.2037179719","","","","","",""
"119","","bandit","352","1046225","0.0-314.0-0.0","29655236","wem/bandit_single","AYVARBZ9EH6J1","pain","5","","72","H","0","img/none_selected.jpg","0","0","1","","0.02228120093","false","277","","0.02228120093","main_expt","","0.4061878557","","0.2757967379","","0.211691867","","","","","",""
"638","","bandit","353","1048624","0.0-315.0-0.0","29655236","wem/bandit_single","AYVARBZ9EH6J1","pain","5","","74","J","1","","0","0","1","","0.4185559707","false","278","","0.01609054627","main_expt","","0.4185559707","","0.3233086266","","0.1725584367","","","","","",""
"240","","bandit","354","1050625","0.0-316.0-0.0","29655236","wem/bandit_single","AYVARBZ9EH6J1","pain","5","","74","J","1","","0","0","1","","0.4048416859","false","279","","0.03276024715","main_expt","","0.4048416859","","0.3447853064","","0.1976152383","","","","","",""
"49","","bandit","355","1052439","0.0-317.0-0.0","29655236","wem/bandit_single","AYVARBZ9EH6J1","pain","5","","74","J","1","","0","0","1","","0.3930733378","false","280","","0.045813934","main_expt","","0.3930733378","","0.2944080033","","0.2245419331","","","","","",""
"272","","bandit","356","1054472","0.0-318.0-0.0","29655236","wem/bandit_single","AYVARBZ9EH6J1","pain","5","","74","J","1","","0","0","1","","0.3722539572","false","281","","0.07680660156","main_expt","","0.3722539572","","0.3455536282","","0.2649095144","","","","","",""
"510","","bandit","357","1056743","0.0-319.0-0.0","29655236","wem/bandit_single","AYVARBZ9EH6J1","pain","5","","74","J","1","","0","1","0","","0.392640689","false","282","","0.08989395926","main_expt","","0.392640689","","0.3002636441","","0.2440542309","","","","","",""
"390","","bandit","358","1058896","0.0-320.0-0.0","29655236","wem/bandit_single","AYVARBZ9EH6J1","pain","5","","76","L","3","","0","0","1","","0.3074658718","false","283","","0.1096048843","main_expt","","0.3657249804","","0.2433385189","","0.3074658718","","","","","",""
"552","","bandit","359","1061210","0.0-321.0-0.0","29655236","wem/bandit_single","AYVARBZ9EH6J1","pain","5","","76","L","3","","0","1","0","","0.3224089974","false","284","","0.1082817284","main_expt","","0.3625644972","","0.2108667552","","0.3224089974","","","","","",""
"2812","","bandit","360","1065783","0.0-322.0-0.0","29655236","wem/bandit_single","AYVARBZ9EH6J1","pain","5","","72","H","0","img/none_selected.jpg","0","0","1","","0.1629804938","false","285","","0.1629804938","main_expt","","0.3054288932","","0.2340218901","","0.3022873968","","","","","",""
"726","","bandit","361","1068270","0.0-323.0-0.0","29655236","wem/bandit_single","AYVARBZ9EH6J1","pain","5","","76","L","3","","0","0","1","","0.2889410052","false","286","","0.1852598429","main_expt","","0.3391155559","","0.2499238339","","0.2889410052","","","","","",""
"384","","bandit","362","1070415","0.0-324.0-0.0","29655236","wem/bandit_single","AYVARBZ9EH6J1","pain","5","","72","H","0","img/none_selected.jpg","0","0","1","","0.2065414002","false","287","","0.2065414002","main_expt","","0.3328791194","","0.2334780882","","0.3151816804","","","","","",""
"1654","","bandit","363","1073830","0.0-325.0-0.0","29655236","wem/bandit_single","AYVARBZ9EH6J1","pain","5","","76","L","3","","0","1","0","","0.3489654206","false","288","","0.1811366591","main_expt","","0.3011075564","","0.2784320663","","0.3489654206","","","","","",""
"2070","","bandit","364","1077663","0.0-326.0-0.0","29655236","wem/bandit_single","AYVARBZ9EH6J1","pain","5","","74","J","1","","0","1","0","","0.3326814497","false","289","","0.1202209304","main_expt","","0.3326814497","","0.2751214951","","0.3673528387","","","","","",""
"35","","bandit","365","1079462","0.0-327.0-0.0","29655236","wem/bandit_single","AYVARBZ9EH6J1","pain","5","","74","J","1","","0","0","1","","0.3289320066","false","290","","0.1453470377","main_expt","","0.3289320066","","0.304381699","","0.3156989172","","","","","",""
"1955","","bandit","366","1083182","0.0-328.0-0.0","29655236","wem/bandit_single","AYVARBZ9EH6J1","pain","5","","76","L","3","","0","1","0","","0.3731423443","false","291","","0.1477070836","main_expt","","0.3074380044","","0.2447169523","","0.3731423443","","","","","",""
"54","","bandit","367","1084996","0.0-329.0-0.0","29655236","wem/bandit_single","AYVARBZ9EH6J1","pain","5","","74","J","1","","0","0","1","","0.247625386","false","292","","0.1442574827","main_expt","","0.247625386","","0.2422140582","","0.3819638953","","","","","",""
"209","","bandit","368","1086966","0.0-330.0-0.0","29655236","wem/bandit_single","AYVARBZ9EH6J1","pain","5","","74","J","1","","0","0","1","","0.2438381571","false","293","","0.1219757373","main_expt","","0.2438381571","","0.1480972705","","0.3709780048","","","","","",""
"1085","","bandit","369","1089813","0.0-331.0-0.0","29655236","wem/bandit_single","AYVARBZ9EH6J1","pain","5","","75","K","2","","0","0","1","","0.1338078997","false","294","","0.149249144","main_expt","","0.2772308066","","0.1338078997","","0.4013541824","","","","","",""
"2486","","bandit","370","1094060","0.0-332.0-0.0","29655236","wem/bandit_single","AYVARBZ9EH6J1","pain","5","","74","J","1","","0","0","1","","0.2386370059","false","295","","0.1066825056","main_expt","","0.2386370059","","0.1452417655","","0.4203470877","","","","","",""
"503","","bandit","371","1096323","0.0-333.0-0.0","29655236","wem/bandit_single","AYVARBZ9EH6J1","pain","5","","72","H","0","img/none_selected.jpg","0","0","1","","0.06692503618","false","296","","0.06692503618","main_expt","","0.2322267342","","0.12995508","","0.4006598815","","","","","",""
"480","","bandit","372","1098566","0.0-334.0-0.0","29655236","wem/bandit_single","AYVARBZ9EH6J1","pain","5","","72","H","0","img/none_selected.jpg","0","0","1","","0.08806334149","false","297","","0.08806334149","main_expt","","0.2930795043","","0.1079814357","","0.4189250697","","","","","",""
"359","","bandit","373","1100685","0.0-335.0-0.0","29655236","wem/bandit_single","AYVARBZ9EH6J1","pain","5","","72","H","0","img/none_selected.jpg","0","0","1","","0.0708541643","false","298","","0.0708541643","main_expt","","0.3168190842","","0.08396844466","","0.4204303011","","","","","",""
"614","","bandit","374","1103061","0.0-336.0-0.0","29655236","wem/bandit_single","AYVARBZ9EH6J1","pain","5","","76","L","3","","0","0","1","","0.3955170021","false","299","","0.07807128628","main_expt","","0.3251331367","","0.08942466987","","0.3955170021","","","","","",""
"1846","","bandit","375","1106670","0.0-337.0-0.0","29655236","wem/bandit_single","AYVARBZ9EH6J1","pain","5","","76","L","3","","0","0","1","","0.3580479124","false","300","","0.09051803512","main_expt","","0.3253714703","","0.09399158568","","0.3580479124","","","","","",""
