"rt","responses","trial_type","trial_index","time_elapsed","internal_node_id","subjID","study","MID","cond","drift","key_press","respCharCode","respKey","respChoiceNum","respChoice","gems","bombs","no_reward","GemPrChosen","BombPrChosen","practice","trial_counter","WinPr_0","LosePr_0","trial_label","WinPr_1","LosePr_1","WinPr_2","LosePr_2","WinPr_3","LosePr_3","Q0","Q1","Q2","gender","age","ethnicity"
"10730","{""Q0"":""A3OV174HQJIJK8""}","survey-text","0","10737","0.0-0.0","30903306","wem/bandit_single","A3OV174HQJIJK8","pain","4","","","","","","","","","","","","","","","","","","","","","","","","","","",""
"1707","","text","1","13452","0.0-1.0","30903306","wem/bandit_single","A3OV174HQJIJK8","pain","4","32","","","","","","","","","","","","","","","","","","","","","","","","","",""
"20108","","text","2","33562","0.0-2.0","30903306","wem/bandit_single","A3OV174HQJIJK8","pain","4","32","","","","","","","","","","","","","","","","","","","","","","","","","",""
"37266","","text","3","70830","0.0-3.0","30903306","wem/bandit_single","A3OV174HQJIJK8","pain","4","32","","","","","","","","","","","","","","","","","","","","","","","","","",""
"10208","","text","4","81040","0.0-4.0","30903306","wem/bandit_single","A3OV174HQJIJK8","pain","4","32","","","","","","","","","","","","","","","","","","","","","","","","","",""
"11630","","text","5","92671","0.0-5.0","30903306","wem/bandit_single","A3OV174HQJIJK8","pain","4","32","","","","","","","","","","","","","","","","","","","","","","","","","",""
"7711","","text","6","100385","0.0-6.0","30903306","wem/bandit_single","A3OV174HQJIJK8","pain","4","32","","","","","","","","","","","","","","","","","","","","","","","","","",""
"15604","","text","7","115992","0.0-7.0","30903306","wem/bandit_single","A3OV174HQJIJK8","pain","4","32","","","","","","","","","","","","","","","","","","","","","","","","","",""
"8693","","text","8","124686","0.0-8.0","30903306","wem/bandit_single","A3OV174HQJIJK8","pain","4","32","","","","","","","","","","","","","","","","","","","","","","","","","",""
"2183","","text","9","126870","0.0-9.0","30903306","wem/bandit_single","A3OV174HQJIJK8","pain","4","32","","","","","","","","","","","","","","","","","","","","","","","","","",""
"7135","","text","10","134008","0.0-10.0","30903306","wem/bandit_single","A3OV174HQJIJK8","pain","4","32","","","","","","","","","","","","","","","","","","","","","","","","","",""
"15083","","text","11","149093","0.0-11.0","30903306","wem/bandit_single","A3OV174HQJIJK8","pain","4","32","","","","","","","","","","","","","","","","","","","","","","","","","",""
"1843","","bandit","12","152444","0.0-12.0-0.0","30903306","wem/bandit_single","A3OV174HQJIJK8","pain","4","","74","J","0","img/none_selected_demo.jpg","0","0","1","0","0","true","0","0","0","","","","","","","","","","","","",""
"1250","","bandit","13","155450","0.0-13.0-0.0","30903306","wem/bandit_single","A3OV174HQJIJK8","pain","4","","75","K","0","img/none_selected_demo.jpg","0","0","1","0","0","true","0","0","0","","","","","","","","","","","","",""
"8046","","text","14","163747","0.0-14.0","30903306","wem/bandit_single","A3OV174HQJIJK8","pain","4","32","","","","","","","","","","","","","","","","","","","","","","","","","",""
"1110","","text","15","164860","0.0-15.0","30903306","wem/bandit_single","A3OV174HQJIJK8","pain","4","32","","","","","","","","","","","","","","","","","","","","","","","","","",""
"4766","","text","16","169627","0.0-16.0","30903306","wem/bandit_single","A3OV174HQJIJK8","pain","4","32","","","","","","","","","","","","","","","","","","","","","","","","","",""
"6534","","text","17","176163","0.0-17.0","30903306","wem/bandit_single","A3OV174HQJIJK8","pain","4","32","","","","","","","","","","","","","","","","","","","","","","","","","",""
"1692","","bandit","18","179361","0.0-18.0-0.0","30903306","wem/bandit_single","A3OV174HQJIJK8","pain","4","","75","K","1","","0","0","1","0","0.2","true","0","0","0.8","80_20_practice","0","0.2","","","","","","","","","",""
"354","","bandit","19","181472","0.0-18.0-1.0","30903306","wem/bandit_single","A3OV174HQJIJK8","pain","4","","74","J","0","img/none_selected_demo.jpg","0","0","1","0","0.8","true","0","0","0.8","80_20_practice","0","0.2","","","","","","","","","",""
"302","","bandit","20","183529","0.0-18.0-2.0","30903306","wem/bandit_single","A3OV174HQJIJK8","pain","4","","74","J","0","img/none_selected_demo.jpg","0","1","0","0","0.8","true","0","0","0.8","80_20_practice","0","0.2","","","","","","","","","",""
"213","","bandit","21","185497","0.0-18.0-3.0","30903306","wem/bandit_single","A3OV174HQJIJK8","pain","4","","74","J","0","img/none_selected_demo.jpg","0","0","1","0","0.8","true","0","0","0.8","80_20_practice","0","0.2","","","","","","","","","",""
"276","","bandit","22","187527","0.0-18.0-4.0","30903306","wem/bandit_single","A3OV174HQJIJK8","pain","4","","75","K","1","","0","0","1","0","0.2","true","0","0","0.8","80_20_practice","0","0.2","","","","","","","","","",""
"285","","bandit","23","189568","0.0-18.0-5.0","30903306","wem/bandit_single","A3OV174HQJIJK8","pain","4","","74","J","0","img/none_selected_demo.jpg","0","1","0","0","0.8","true","0","0","0.8","80_20_practice","0","0.2","","","","","","","","","",""
"453","","bandit","24","191776","0.0-18.0-6.0","30903306","wem/bandit_single","A3OV174HQJIJK8","pain","4","","74","J","0","img/none_selected_demo.jpg","0","1","0","0","0.8","true","0","0","0.8","80_20_practice","0","0.2","","","","","","","","","",""
"718","","bandit","25","194248","0.0-18.0-7.0","30903306","wem/bandit_single","A3OV174HQJIJK8","pain","4","","74","J","0","img/none_selected_demo.jpg","0","1","0","0","0.8","true","0","0","0.8","80_20_practice","0","0.2","","","","","","","","","",""
"92","","bandit","26","196096","0.0-18.0-8.0","30903306","wem/bandit_single","A3OV174HQJIJK8","pain","4","","74","J","0","img/none_selected_demo.jpg","0","1","0","0","0.8","true","0","0","0.8","80_20_practice","0","0.2","","","","","","","","","",""
"611","","bandit","27","198463","0.0-18.0-9.0","30903306","wem/bandit_single","A3OV174HQJIJK8","pain","4","","74","J","0","img/none_selected_demo.jpg","0","1","0","0","0.8","true","0","0","0.8","80_20_practice","0","0.2","","","","","","","","","",""
"54","","bandit","28","200272","0.0-18.0-10.0","30903306","wem/bandit_single","A3OV174HQJIJK8","pain","4","","74","J","0","img/none_selected_demo.jpg","0","1","0","0","0.8","true","0","0","0.8","80_20_practice","0","0.2","","","","","","","","","",""
"498","","bandit","29","202530","0.0-18.0-11.0","30903306","wem/bandit_single","A3OV174HQJIJK8","pain","4","","74","J","0","img/none_selected_demo.jpg","0","1","0","0","0.8","true","0","0","0.8","80_20_practice","0","0.2","","","","","","","","","",""
"91","","bandit","30","204376","0.0-18.0-12.0","30903306","wem/bandit_single","A3OV174HQJIJK8","pain","4","","74","J","0","img/none_selected_demo.jpg","0","1","0","0","0.8","true","0","0","0.8","80_20_practice","0","0.2","","","","","","","","","",""
"92","","bandit","31","206222","0.0-18.0-13.0","30903306","wem/bandit_single","A3OV174HQJIJK8","pain","4","","74","J","0","img/none_selected_demo.jpg","0","1","0","0","0.8","true","0","0","0.8","80_20_practice","0","0.2","","","","","","","","","",""
"29","","bandit","32","208007","0.0-18.0-14.0","30903306","wem/bandit_single","A3OV174HQJIJK8","pain","4","","74","J","0","img/none_selected_demo.jpg","0","1","0","0","0.8","true","0","0","0.8","80_20_practice","0","0.2","","","","","","","","","",""
"442","","bandit","33","210209","0.0-18.0-15.0","30903306","wem/bandit_single","A3OV174HQJIJK8","pain","4","","74","J","0","img/none_selected_demo.jpg","0","1","0","0","0.8","true","0","0","0.8","80_20_practice","0","0.2","","","","","","","","","",""
"556","","bandit","34","212519","0.0-18.0-16.0","30903306","wem/bandit_single","A3OV174HQJIJK8","pain","4","","74","J","0","img/none_selected_demo.jpg","0","1","0","0","0.8","true","0","0","0.8","80_20_practice","0","0.2","","","","","","","","","",""
"1117","","bandit","35","215392","0.0-18.0-17.0","30903306","wem/bandit_single","A3OV174HQJIJK8","pain","4","","74","J","0","img/none_selected_demo.jpg","0","1","0","0","0.8","true","0","0","0.8","80_20_practice","0","0.2","","","","","","","","","",""
"419","","bandit","36","217567","0.0-18.0-18.0","30903306","wem/bandit_single","A3OV174HQJIJK8","pain","4","","74","J","0","img/none_selected_demo.jpg","0","1","0","0","0.8","true","0","0","0.8","80_20_practice","0","0.2","","","","","","","","","",""
"428","","bandit","37","219750","0.0-18.0-19.0","30903306","wem/bandit_single","A3OV174HQJIJK8","pain","4","","74","J","0","img/none_selected_demo.jpg","0","0","1","0","0.8","true","0","0","0.8","80_20_practice","0","0.2","","","","","","","","","",""
"3693","","text","38","223697","0.0-19.0","30903306","wem/bandit_single","A3OV174HQJIJK8","pain","4","32","","","","","","","","","","","","","","","","","","","","","","","","","",""
"1959","","bandit","39","227160","0.0-20.0-0.0","30903306","wem/bandit_single","A3OV174HQJIJK8","pain","4","","74","J","0","img/none_selected_demo.jpg","0","0","1","0","0","true","0","0","0","","0","0","","","","","","","","","",""
"4900","","text","40","232313","0.0-21.0","30903306","wem/bandit_single","A3OV174HQJIJK8","pain","4","32","","","","","","","","","","","","","","","","","","","","","","","","","",""
"7765","","text","41","240080","0.0-22.0","30903306","wem/bandit_single","A3OV174HQJIJK8","pain","4","32","","","","","","","","","","","","","","","","","","","","","","","","","",""
"2559","","text","42","242640","0.0-23.0","30903306","wem/bandit_single","A3OV174HQJIJK8","pain","4","32","","","","","","","","","","","","","","","","","","","","","","","","","",""
"7021","","text","43","249664","0.0-24.0","30903306","wem/bandit_single","A3OV174HQJIJK8","pain","4","32","","","","","","","","","","","","","","","","","","","","","","","","","",""
"5470","","text","44","255136","0.0-25.0","30903306","wem/bandit_single","A3OV174HQJIJK8","pain","4","32","","","","","","","","","","","","","","","","","","","","","","","","","",""
"6621","","text","45","261760","0.0-26.0","30903306","wem/bandit_single","A3OV174HQJIJK8","pain","4","32","","","","","","","","","","","","","","","","","","","","","","","","","",""
"6045","","text","46","267808","0.0-27.0","30903306","wem/bandit_single","A3OV174HQJIJK8","pain","4","32","","","","","","","","","","","","","","","","","","","","","","","","","",""
"1758","","text","47","269568","0.0-28.0","30903306","wem/bandit_single","A3OV174HQJIJK8","pain","4","32","","","","","","","","","","","","","","","","","","","","","","","","","",""
"1012","","text","48","270583","0.0-29.0","30903306","wem/bandit_single","A3OV174HQJIJK8","pain","4","32","","","","","","","","","","","","","","","","","","","","","","","","","",""
"1069","","text","49","271655","0.0-30.0","30903306","wem/bandit_single","A3OV174HQJIJK8","pain","4","32","","","","","","","","","","","","","","","","","","","","","","","","","",""
"4157","","text","50","275815","0.0-31.0","30903306","wem/bandit_single","A3OV174HQJIJK8","pain","4","32","","","","","","","","","","","","","","","","","","","","","","","","","",""
"1236","","bandit","51","278556","0.0-32.0-0.0","30903306","wem/bandit_single","A3OV174HQJIJK8","pain","4","","74","J","1","","0","0","1","0","0.2","true","0","0","0.8","full_practice","0","0.2","0","0.6","0","0.2","","","","","",""
"391","","bandit","52","280701","0.0-32.0-1.0","30903306","wem/bandit_single","A3OV174HQJIJK8","pain","4","","75","K","2","","0","0","1","0","0.6","true","0","0","0.8","full_practice","0","0.2","0","0.6","0","0.2","","","","","",""
"228","","bandit","53","282684","0.0-32.0-2.0","30903306","wem/bandit_single","A3OV174HQJIJK8","pain","4","","76","L","3","","0","0","1","0","0.2","true","0","0","0.8","full_practice","0","0.2","0","0.6","0","0.2","","","","","",""
"141","","bandit","54","284583","0.0-32.0-3.0","30903306","wem/bandit_single","A3OV174HQJIJK8","pain","4","","72","H","0","img/none_selected.jpg","0","1","0","0","0.8","true","0","0","0.8","full_practice","0","0.2","0","0.6","0","0.2","","","","","",""
"128","","bandit","55","286470","0.0-32.0-4.0","30903306","wem/bandit_single","A3OV174HQJIJK8","pain","4","","72","H","0","img/none_selected.jpg","0","1","0","0","0.8","true","0","0","0.8","full_practice","0","0.2","0","0.6","0","0.2","","","","","",""
"641","","bandit","56","288868","0.0-32.0-5.0","30903306","wem/bandit_single","A3OV174HQJIJK8","pain","4","","72","H","0","img/none_selected.jpg","0","1","0","0","0.8","true","0","0","0.8","full_practice","0","0.2","0","0.6","0","0.2","","","","","",""
"117","","bandit","57","290742","0.0-32.0-6.0","30903306","wem/bandit_single","A3OV174HQJIJK8","pain","4","","72","H","0","img/none_selected.jpg","0","1","0","0","0.8","true","0","0","0.8","full_practice","0","0.2","0","0.6","0","0.2","","","","","",""
"995","","bandit","58","293491","0.0-32.0-7.0","30903306","wem/bandit_single","A3OV174HQJIJK8","pain","4","","72","H","0","img/none_selected.jpg","0","1","0","0","0.8","true","0","0","0.8","full_practice","0","0.2","0","0.6","0","0.2","","","","","",""
"567","","bandit","59","295812","0.0-32.0-8.0","30903306","wem/bandit_single","A3OV174HQJIJK8","pain","4","","72","H","0","img/none_selected.jpg","0","1","0","0","0.8","true","0","0","0.8","full_practice","0","0.2","0","0.6","0","0.2","","","","","",""
"493","","bandit","60","298059","0.0-32.0-9.0","30903306","wem/bandit_single","A3OV174HQJIJK8","pain","4","","72","H","0","img/none_selected.jpg","0","0","1","0","0.8","true","0","0","0.8","full_practice","0","0.2","0","0.6","0","0.2","","","","","",""
"901","","bandit","61","300717","0.0-32.0-10.0","30903306","wem/bandit_single","A3OV174HQJIJK8","pain","4","","72","H","0","img/none_selected.jpg","0","1","0","0","0.8","true","0","0","0.8","full_practice","0","0.2","0","0.6","0","0.2","","","","","",""
"411","","bandit","62","302884","0.0-32.0-11.0","30903306","wem/bandit_single","A3OV174HQJIJK8","pain","4","","72","H","0","img/none_selected.jpg","0","1","0","0","0.8","true","0","0","0.8","full_practice","0","0.2","0","0.6","0","0.2","","","","","",""
"613","","bandit","63","305252","0.0-32.0-12.0","30903306","wem/bandit_single","A3OV174HQJIJK8","pain","4","","72","H","0","img/none_selected.jpg","0","1","0","0","0.8","true","0","0","0.8","full_practice","0","0.2","0","0.6","0","0.2","","","","","",""
"1698","","bandit","64","308707","0.0-32.0-13.0","30903306","wem/bandit_single","A3OV174HQJIJK8","pain","4","","72","H","0","img/none_selected.jpg","0","1","0","0","0.8","true","0","0","0.8","full_practice","0","0.2","0","0.6","0","0.2","","","","","",""
"516","","bandit","65","310979","0.0-32.0-14.0","30903306","wem/bandit_single","A3OV174HQJIJK8","pain","4","","72","H","0","img/none_selected.jpg","0","1","0","0","0.8","true","0","0","0.8","full_practice","0","0.2","0","0.6","0","0.2","","","","","",""
"351","","bandit","66","313084","0.0-32.0-15.0","30903306","wem/bandit_single","A3OV174HQJIJK8","pain","4","","72","H","0","img/none_selected.jpg","0","0","1","0","0.8","true","0","0","0.8","full_practice","0","0.2","0","0.6","0","0.2","","","","","",""
"512","","bandit","67","315355","0.0-32.0-16.0","30903306","wem/bandit_single","A3OV174HQJIJK8","pain","4","","72","H","0","img/none_selected.jpg","0","1","0","0","0.8","true","0","0","0.8","full_practice","0","0.2","0","0.6","0","0.2","","","","","",""
"868","","bandit","68","317979","0.0-32.0-17.0","30903306","wem/bandit_single","A3OV174HQJIJK8","pain","4","","72","H","0","img/none_selected.jpg","0","1","0","0","0.8","true","0","0","0.8","full_practice","0","0.2","0","0.6","0","0.2","","","","","",""
"340","","bandit","69","320074","0.0-32.0-18.0","30903306","wem/bandit_single","A3OV174HQJIJK8","pain","4","","72","H","0","img/none_selected.jpg","0","1","0","0","0.8","true","0","0","0.8","full_practice","0","0.2","0","0.6","0","0.2","","","","","",""
"340","","bandit","70","322171","0.0-32.0-19.0","30903306","wem/bandit_single","A3OV174HQJIJK8","pain","4","","72","H","0","img/none_selected.jpg","0","0","1","0","0.8","true","0","0","0.8","full_practice","0","0.2","0","0.6","0","0.2","","","","","",""
"3185","","text","71","325613","0.0-33.0","30903306","wem/bandit_single","A3OV174HQJIJK8","pain","4","32","","","","","","","","","","","","","","","","","","","","","","","","","",""
"5973","","text","72","332590","0.0-34.0","30903306","wem/bandit_single","A3OV174HQJIJK8","pain","4","32","","","","","","","","","","","","","","","","","","","","","","","","","",""
"16572","","text","73","349165","0.0-35.0","30903306","wem/bandit_single","A3OV174HQJIJK8","pain","4","32","","","","","","","","","","","","","","","","","","","","","","","","","",""
"6241","","text","74","355412","0.0-36.0","30903306","wem/bandit_single","A3OV174HQJIJK8","pain","4","32","","","","","","","","","","","","","","","","","","","","","","","","","",""
"2012","","text","75","357428","0.0-37.0","30903306","wem/bandit_single","A3OV174HQJIJK8","pain","4","32","","","","","","","","","","","","","","","","","","","","","","","","","",""
"2229","","bandit","76","361164","0.0-38.0-0.0","30903306","wem/bandit_single","A3OV174HQJIJK8","pain","4","","72","H","0","img/none_selected.jpg","0","1","0","","0.2633340886","false","1","","0.2633340886","main_expt","","0.04789219489","","0.1530555908","","0.1534711312","","","","","",""
"168","","bandit","77","363090","0.0-39.0-0.0","30903306","wem/bandit_single","A3OV174HQJIJK8","pain","4","","72","H","0","img/none_selected.jpg","0","0","1","","0.288049036","false","2","","0.288049036","main_expt","","0.06526788736","","0.103598712","","0.1140054314","","","","","",""
"155","","bandit","78","365005","0.0-40.0-0.0","30903306","wem/bandit_single","A3OV174HQJIJK8","pain","4","","72","H","0","img/none_selected.jpg","0","1","0","","0.2979487298","false","3","","0.2979487298","main_expt","","0.04764418461","","0.08136741005","","0.1012650834","","","","","",""
"53","","bandit","79","366817","0.0-41.0-0.0","30903306","wem/bandit_single","A3OV174HQJIJK8","pain","4","","72","H","0","img/none_selected.jpg","0","0","1","","0.3306303211","false","4","","0.3306303211","main_expt","","0.05056035824","","0.08723083084","","0.09541256236","","","","","",""
"37","","bandit","80","368610","0.0-42.0-0.0","30903306","wem/bandit_single","A3OV174HQJIJK8","pain","4","","72","H","0","img/none_selected.jpg","0","0","1","","0.2438199519","false","5","","0.2438199519","main_expt","","0.05944929255","","0.1255982651","","0.07842998328","","","","","",""
"123","","bandit","81","370488","0.0-43.0-0.0","30903306","wem/bandit_single","A3OV174HQJIJK8","pain","4","","74","J","1","","0","0","1","","0.09562353852","false","6","","0.2362074668","main_expt","","0.09562353852","","0.09044777998","","0.09158282766","","","","","",""
"479","","bandit","82","372722","0.0-44.0-0.0","30903306","wem/bandit_single","A3OV174HQJIJK8","pain","4","","75","K","2","","0","0","1","","0.1067491613","false","7","","0.2591683673","main_expt","","0.08069121891","","0.1067491613","","0.09712353232","","","","","",""
"459","","bandit","83","374937","0.0-45.0-0.0","30903306","wem/bandit_single","A3OV174HQJIJK8","pain","4","","76","L","3","","0","0","1","","0.08440361392","false","8","","0.2299415188","main_expt","","0.07203927837","","0.15597148","","0.08440361392","","","","","",""
"324","","bandit","84","377015","0.0-46.0-0.0","30903306","wem/bandit_single","A3OV174HQJIJK8","pain","4","","72","H","0","img/none_selected.jpg","0","1","0","","0.2057198223","false","9","","0.2057198223","main_expt","","0.08219025907","","0.2250404859","","0.102519384","","","","","",""
"190","","bandit","85","378961","0.0-47.0-0.0","30903306","wem/bandit_single","A3OV174HQJIJK8","pain","4","","72","H","0","img/none_selected.jpg","0","0","1","","0.2002554128","false","10","","0.2002554128","main_expt","","0.06517742799","","0.2205918947","","0.06157476224","","","","","",""
"37","","bandit","86","380757","0.0-48.0-0.0","30903306","wem/bandit_single","A3OV174HQJIJK8","pain","4","","72","H","0","img/none_selected.jpg","0","0","1","","0.2390702858","false","11","","0.2390702858","main_expt","","0.0549201251","","0.1999173076","","0.05516119966","","","","","",""
"32","","bandit","87","382544","0.0-49.0-0.0","30903306","wem/bandit_single","A3OV174HQJIJK8","pain","4","","72","H","0","img/none_selected.jpg","0","0","1","","0.2309669968","false","12","","0.2309669968","main_expt","","0.0630283727","","0.2006159367","","0.04311537102","","","","","",""
"515","","bandit","88","384817","0.0-50.0-0.0","30903306","wem/bandit_single","A3OV174HQJIJK8","pain","4","","72","H","0","img/none_selected.jpg","0","1","0","","0.2667386483","false","13","","0.2667386483","main_expt","","0.07136250487","","0.202674457","","0.03895599675","","","","","",""
"19","","bandit","89","386592","0.0-51.0-0.0","30903306","wem/bandit_single","A3OV174HQJIJK8","pain","4","","72","H","0","img/none_selected.jpg","0","1","0","","0.2057326914","false","14","","0.2057326914","main_expt","","0.07333211558","","0.152812741","","0.03256744162","","","","","",""
"28","","bandit","90","388376","0.0-52.0-0.0","30903306","wem/bandit_single","A3OV174HQJIJK8","pain","4","","72","H","0","img/none_selected.jpg","0","0","1","","0.2081585857","false","15","","0.2081585857","main_expt","","0.1154740655","","0.1648564856","","0.01982065674","","","","","",""
"482","","bandit","91","390617","0.0-53.0-0.0","30903306","wem/bandit_single","A3OV174HQJIJK8","pain","4","","72","H","0","img/none_selected.jpg","0","1","0","","0.1909184248","false","16","","0.1909184248","main_expt","","0.1011313391","","0.1619055423","","0.04082574049","","","","","",""
"354","","bandit","92","392727","0.0-54.0-0.0","30903306","wem/bandit_single","A3OV174HQJIJK8","pain","4","","72","H","0","img/none_selected.jpg","0","1","0","","0.2198432556","false","17","","0.2198432556","main_expt","","0.1447019112","","0.1651197045","","0.0363298649","","","","","",""
"909","","bandit","93","395391","0.0-55.0-0.0","30903306","wem/bandit_single","A3OV174HQJIJK8","pain","4","","72","H","0","img/none_selected.jpg","0","0","1","","0.2347766335","false","18","","0.2347766335","main_expt","","0.1039364862","","0.1079041081","","0.07917382237","","","","","",""
"453","","bandit","94","397604","0.0-56.0-0.0","30903306","wem/bandit_single","A3OV174HQJIJK8","pain","4","","72","H","0","img/none_selected.jpg","0","0","1","","0.24668571","false","19","","0.24668571","main_expt","","0.08759831402","","0.1059999363","","0.08476555987","","","","","",""
"40","","bandit","95","399403","0.0-57.0-0.0","30903306","wem/bandit_single","A3OV174HQJIJK8","pain","4","","74","J","1","","0","1","0","","0.08010338479","false","20","","0.2355281317","main_expt","","0.08010338479","","0.1197169881","","0.04047152317","","","","","",""
"64","","bandit","96","401223","0.0-58.0-0.0","30903306","wem/bandit_single","A3OV174HQJIJK8","pain","4","","74","J","1","","0","0","1","","0.07820488182","false","21","","0.2290721377","main_expt","","0.07820488182","","0.1338215077","","0.07021106672","","","","","",""
"101","","bandit","97","403081","0.0-59.0-0.0","30903306","wem/bandit_single","A3OV174HQJIJK8","pain","4","","75","K","2","","0","0","1","","0.1691749215","false","22","","0.1982968879","main_expt","","0.06301774499","","0.1691749215","","0.08794503477","","","","","",""
"88","","bandit","98","404941","0.0-60.0-0.0","30903306","wem/bandit_single","A3OV174HQJIJK8","pain","4","","74","J","1","","0","0","1","","0.04380944514","false","23","","0.1991555028","main_expt","","0.04380944514","","0.2100599157","","0.07274518233","","","","","",""
"406","","bandit","99","407104","0.0-61.0-0.0","30903306","wem/bandit_single","A3OV174HQJIJK8","pain","4","","76","L","3","","0","0","1","","0.09602528561","false","24","","0.1700743611","main_expt","","0.04485861341","","0.1763606332","","0.09602528561","","","","","",""
"164","","bandit","100","409024","0.0-62.0-0.0","30903306","wem/bandit_single","A3OV174HQJIJK8","pain","4","","72","H","0","img/none_selected.jpg","0","0","1","","0.2303117276","false","25","","0.2303117276","main_expt","","0.08350983839","","0.1155065599","","0.07148754983","","","","","",""
"172","","bandit","101","410955","0.0-63.0-0.0","30903306","wem/bandit_single","A3OV174HQJIJK8","pain","4","","74","J","1","","0","0","1","","0.04946014148","false","26","","0.2615068669","main_expt","","0.04946014148","","0.08411514459","","0.05591681381","","","","","",""
"96","","bandit","102","412807","0.0-64.0-0.0","30903306","wem/bandit_single","A3OV174HQJIJK8","pain","4","","75","K","2","","0","0","1","","0.1192049255","false","27","","0.2108316327","main_expt","","0.07008172503","","0.1192049255","","0.06488914964","","","","","",""
"172","","bandit","103","414737","0.0-65.0-0.0","30903306","wem/bandit_single","A3OV174HQJIJK8","pain","4","","76","L","3","","0","0","1","","0.07067710387","false","28","","0.2616222854","main_expt","","0.09766989806","","0.1530516972","","0.07067710387","","","","","",""
"62","","bandit","104","416554","0.0-66.0-0.0","30903306","wem/bandit_single","A3OV174HQJIJK8","pain","4","","74","J","1","","0","0","1","","0.1020433103","false","29","","0.2754145478","main_expt","","0.1020433103","","0.1243035263","","0.06184318105","","","","","",""
"618","","bandit","105","418927","0.0-67.0-0.0","30903306","wem/bandit_single","A3OV174HQJIJK8","pain","4","","72","H","0","img/none_selected.jpg","0","0","1","","0.3091083038","false","30","","0.3091083038","main_expt","","0.1128186897","","0.2106934108","","0.06562203124","","","","","",""
"152","","bandit","106","420839","0.0-68.0-0.0","30903306","wem/bandit_single","A3OV174HQJIJK8","pain","4","","74","J","1","","0","0","1","","0.1021038766","false","31","","0.3032558385","main_expt","","0.1021038766","","0.269819176","","0.06340423818","","","","","",""
"133","","bandit","107","422727","0.0-69.0-0.0","30903306","wem/bandit_single","A3OV174HQJIJK8","pain","4","","74","J","1","","0","0","1","","0.1010238501","false","32","","0.3160124579","main_expt","","0.1010238501","","0.2415851803","","0.08582013972","","","","","",""
"548","","bandit","108","425030","0.0-70.0-0.0","30903306","wem/bandit_single","A3OV174HQJIJK8","pain","4","","75","K","2","","0","1","0","","0.2754451294","false","33","","0.355825184","main_expt","","0.0674926465","","0.2754451294","","0.1020351259","","","","","",""
"5","","bandit","109","426794","0.0-71.0-0.0","30903306","wem/bandit_single","A3OV174HQJIJK8","pain","4","","75","K","2","","0","0","1","","0.3566428969","false","34","","0.3380280112","main_expt","","0.1007783216","","0.3566428969","","0.07925884201","","","","","",""
"74","","bandit","110","428623","0.0-72.0-0.0","30903306","wem/bandit_single","A3OV174HQJIJK8","pain","4","","75","K","2","","0","0","1","","0.2652811253","false","35","","0.3772093912","main_expt","","0.09542819821","","0.2652811253","","0.06071167626","","","","","",""
"245","","bandit","111","430623","0.0-73.0-0.0","30903306","wem/bandit_single","A3OV174HQJIJK8","pain","4","","75","K","2","","0","0","1","","0.2472166127","false","36","","0.3916459715","main_expt","","0.07425724813","","0.2472166127","","0.05331310492","","","","","",""
"389","","bandit","112","432768","0.0-74.0-0.0","30903306","wem/bandit_single","A3OV174HQJIJK8","pain","4","","76","L","3","","0","0","1","","0.08395737389","false","37","","0.3724196513","main_expt","","0.07325651263","","0.2941536534","","0.08395737389","","","","","",""
"1437","","bandit","113","435959","0.0-75.0-0.0","30903306","wem/bandit_single","A3OV174HQJIJK8","pain","4","","76","L","3","","0","0","1","","0.07562804978","false","38","","0.3885064771","main_expt","","0.06058557764","","0.2850199379","","0.07562804978","","","","","",""
"394","","bandit","114","438113","0.0-76.0-0.0","30903306","wem/bandit_single","A3OV174HQJIJK8","pain","4","","74","J","1","","0","0","1","","0.05480529152","false","39","","0.4332305888","main_expt","","0.05480529152","","0.2308750992","","0.06339693541","","","","","",""
"537","","bandit","115","440407","0.0-77.0-0.0","30903306","wem/bandit_single","A3OV174HQJIJK8","pain","4","","72","H","0","img/none_selected.jpg","0","0","1","","0.4320021358","false","40","","0.4320021358","main_expt","","0.08480448704","","0.2166928419","","0.07741261751","","","","","",""
"60","","bandit","116","442223","0.0-78.0-0.0","30903306","wem/bandit_single","A3OV174HQJIJK8","pain","4","","74","J","1","","0","0","1","","0.07863220129","false","41","","0.4378374231","main_expt","","0.07863220129","","0.222341992","","0.08199889575","","","","","",""
"475","","bandit","117","444455","0.0-79.0-0.0","30903306","wem/bandit_single","A3OV174HQJIJK8","pain","4","","75","K","2","","0","1","0","","0.2420609394","false","42","","0.4138470733","main_expt","","0.07947159818","","0.2420609394","","0.1252939417","","","","","",""
"390","","bandit","118","446605","0.0-80.0-0.0","30903306","wem/bandit_single","A3OV174HQJIJK8","pain","4","","75","K","2","","0","0","1","","0.2683234569","false","43","","0.3618848001","main_expt","","0.0747194724","","0.2683234569","","0.1464491551","","","","","",""
"95","","bandit","119","448463","0.0-81.0-0.0","30903306","wem/bandit_single","A3OV174HQJIJK8","pain","4","","75","K","2","","0","0","1","","0.2592073096","false","44","","0.3902132048","main_expt","","0.06873866496","","0.2592073096","","0.1846315016","","","","","",""
"331","","bandit","120","450554","0.0-82.0-0.0","30903306","wem/bandit_single","A3OV174HQJIJK8","pain","4","","75","K","2","","0","0","1","","0.258850709","false","45","","0.370584769","main_expt","","0.05624711086","","0.258850709","","0.1454302639","","","","","",""
"44","","bandit","121","452359","0.0-83.0-0.0","30903306","wem/bandit_single","A3OV174HQJIJK8","pain","4","","75","K","2","","0","0","1","","0.2162528617","false","46","","0.3416192418","main_expt","","0.06710767933","","0.2162528617","","0.1420401956","","","","","",""
"379","","bandit","122","454495","0.0-84.0-0.0","30903306","wem/bandit_single","A3OV174HQJIJK8","pain","4","","76","L","3","","0","0","1","","0.2049545467","false","47","","0.3254497978","main_expt","","0.05828218186","","0.1380472806","","0.2049545467","","","","","",""
"363","","bandit","123","456615","0.0-85.0-0.0","30903306","wem/bandit_single","A3OV174HQJIJK8","pain","4","","74","J","1","","0","0","1","","0.1161016377","false","48","","0.3438960799","main_expt","","0.1161016377","","0.1673270425","","0.1608881285","","","","","",""
"684","","bandit","124","459055","0.0-86.0-0.0","30903306","wem/bandit_single","A3OV174HQJIJK8","pain","4","","72","H","0","img/none_selected.jpg","0","0","1","","0.3405395495","false","49","","0.3405395495","main_expt","","0.1135844416","","0.1637821127","","0.2001806823","","","","","",""
"130","","bandit","125","460943","0.0-87.0-0.0","30903306","wem/bandit_single","A3OV174HQJIJK8","pain","4","","74","J","1","","0","0","1","","0.1646239324","false","50","","0.3305224856","main_expt","","0.1646239324","","0.1826101584","","0.2061381611","","","","","",""
"307","","bandit","126","463005","0.0-88.0-0.0","30903306","wem/bandit_single","A3OV174HQJIJK8","pain","4","","72","H","0","img/none_selected.jpg","0","0","1","","0.2304924019","false","51","","0.2304924019","main_expt","","0.1699716213","","0.2270371056","","0.2369791141","","","","","",""
"1411","","bandit","127","466175","0.0-89.0-0.0","30903306","wem/bandit_single","A3OV174HQJIJK8","pain","4","","75","K","2","","0","0","1","","0.2203225001","false","52","","0.2832256505","main_expt","","0.1762937123","","0.2203225001","","0.2378663067","","","","","",""
"305","","bandit","128","468238","0.0-90.0-0.0","30903306","wem/bandit_single","A3OV174HQJIJK8","pain","4","","75","K","2","","0","0","1","","0.2776849753","false","53","","0.2391441838","main_expt","","0.2287193473","","0.2776849753","","0.2063519028","","","","","",""
"20","","bandit","129","470019","0.0-91.0-0.0","30903306","wem/bandit_single","A3OV174HQJIJK8","pain","4","","76","L","3","","0","0","1","","0.2439582882","false","54","","0.2697071588","main_expt","","0.2356834932","","0.2454572706","","0.2439582882","","","","","",""
"437","","bandit","130","472214","0.0-92.0-0.0","30903306","wem/bandit_single","A3OV174HQJIJK8","pain","4","","76","L","3","","0","0","1","","0.2381950618","false","55","","0.2875326611","main_expt","","0.306547883","","0.2382153161","","0.2381950618","","","","","",""
"362","","bandit","131","474334","0.0-93.0-0.0","30903306","wem/bandit_single","A3OV174HQJIJK8","pain","4","","76","L","3","","0","0","1","","0.1800346575","false","56","","0.2854258916","main_expt","","0.2853582168","","0.1960908288","","0.1800346575","","","","","",""
"122","","bandit","132","476214","0.0-94.0-0.0","30903306","wem/bandit_single","A3OV174HQJIJK8","pain","4","","76","L","3","","0","0","1","","0.2336203315","false","57","","0.3445045135","main_expt","","0.2834250679","","0.2042340564","","0.2336203315","","","","","",""
"26","","bandit","133","478000","0.0-95.0-0.0","30903306","wem/bandit_single","A3OV174HQJIJK8","pain","4","","74","J","1","","0","0","1","","0.2690284398","false","58","","0.3390226593","main_expt","","0.2690284398","","0.1490893454","","0.189887459","","","","","",""
"120","","bandit","134","479877","0.0-96.0-0.0","30903306","wem/bandit_single","A3OV174HQJIJK8","pain","4","","75","K","2","","0","1","0","","0.1581154669","false","59","","0.2666291788","main_expt","","0.2616697142","","0.1581154669","","0.1548607402","","","","","",""
"21","","bandit","135","481654","0.0-97.0-0.0","30903306","wem/bandit_single","A3OV174HQJIJK8","pain","4","","75","K","2","","0","0","1","","0.1715954381","false","60","","0.246985882","main_expt","","0.2704186185","","0.1715954381","","0.1233285174","","","","","",""
"354","","bandit","136","483765","0.0-98.0-0.0","30903306","wem/bandit_single","A3OV174HQJIJK8","pain","4","","75","K","2","","0","0","1","","0.1999420892","false","61","","0.2171589204","main_expt","","0.3376037184","","0.1999420892","","0.186549837","","","","","",""
"172","","bandit","137","485691","0.0-99.0-0.0","30903306","wem/bandit_single","A3OV174HQJIJK8","pain","4","","75","K","2","","0","0","1","","0.1539309088","false","62","","0.2677831299","main_expt","","0.3098521258","","0.1539309088","","0.1420872584","","","","","",""
"178","","bandit","138","487628","0.0-100.0-0.0","30903306","wem/bandit_single","A3OV174HQJIJK8","pain","4","","75","K","2","","0","0","1","","0.1085632924","false","63","","0.2303454974","main_expt","","0.3137631198","","0.1085632924","","0.151707711","","","","","",""
"410","","bandit","139","489801","0.0-101.0-0.0","30903306","wem/bandit_single","A3OV174HQJIJK8","pain","4","","75","K","2","","0","0","1","","0.1370187426","false","64","","0.196947777","main_expt","","0.3179430645","","0.1370187426","","0.1474827626","","","","","",""
"104","","bandit","140","491663","0.0-102.0-0.0","30903306","wem/bandit_single","A3OV174HQJIJK8","pain","4","","75","K","2","","0","0","1","","0.1322062037","false","65","","0.1645630622","main_expt","","0.2980330155","","0.1322062037","","0.1746529425","","","","","",""
"553","","bandit","141","493972","0.0-103.0-0.0","30903306","wem/bandit_single","A3OV174HQJIJK8","pain","4","","72","H","0","img/none_selected.jpg","0","0","1","","0.1533283495","false","66","","0.1533283495","main_expt","","0.2537140377","","0.1496501041","","0.1310865155","","","","","",""
"110","","bandit","142","495844","0.0-104.0-0.0","30903306","wem/bandit_single","A3OV174HQJIJK8","pain","4","","72","H","0","img/none_selected.jpg","0","0","1","","0.1708403009","false","67","","0.1708403009","main_expt","","0.2153704701","","0.1626820295","","0.1370872981","","","","","",""
"514","","bandit","143","498115","0.0-105.0-0.0","30903306","wem/bandit_single","A3OV174HQJIJK8","pain","4","","74","J","1","","0","1","0","","0.2417705853","false","68","","0.1887917493","main_expt","","0.2417705853","","0.1989514297","","0.09914494933","","","","","",""
"140","","bandit","144","500015","0.0-106.0-0.0","30903306","wem/bandit_single","A3OV174HQJIJK8","pain","4","","74","J","1","","0","0","1","","0.3235463827","false","69","","0.2160515082","main_expt","","0.3235463827","","0.1888867792","","0.1092411584","","","","","",""
"105","","bandit","145","501877","0.0-107.0-0.0","30903306","wem/bandit_single","A3OV174HQJIJK8","pain","4","","74","J","1","","0","0","1","","0.3647615206","false","70","","0.2778565133","main_expt","","0.3647615206","","0.1767550628","","0.1213917008","","","","","",""
"240","","bandit","146","503879","0.0-108.0-0.0","30903306","wem/bandit_single","A3OV174HQJIJK8","pain","4","","74","J","1","","0","1","0","","0.3472934012","false","71","","0.2623699359","main_expt","","0.3472934012","","0.1253641033","","0.1479005197","","","","","",""
"580","","bandit","147","506220","0.0-109.0-0.0","30903306","wem/bandit_single","A3OV174HQJIJK8","pain","4","","74","J","1","","0","0","1","","0.2965124106","false","72","","0.2574081817","main_expt","","0.2965124106","","0.1319365506","","0.1931369739","","","","","",""
"444","","bandit","148","508419","0.0-110.0-0.0","30903306","wem/bandit_single","A3OV174HQJIJK8","pain","4","","74","J","1","","0","0","1","","0.2823595977","false","73","","0.2503470883","main_expt","","0.2823595977","","0.1061905376","","0.1900103681","","","","","",""
"261","","bandit","149","510435","0.0-111.0-0.0","30903306","wem/bandit_single","A3OV174HQJIJK8","pain","4","","74","J","1","","0","0","1","","0.2835749375","false","74","","0.2710758316","main_expt","","0.2835749375","","0.1303083533","","0.1344428369","","","","","",""
"995","","bandit","150","513190","0.0-112.0-0.0","30903306","wem/bandit_single","A3OV174HQJIJK8","pain","4","","74","J","1","","0","0","1","","0.3526847528","false","75","","0.260759121","main_expt","","0.3526847528","","0.1359111238","","0.1528357022","","","","","",""
"341","","bandit","151","515290","0.0-113.0-0.0","30903306","wem/bandit_single","A3OV174HQJIJK8","pain","4","","74","J","1","","0","1","0","","0.3434196486","false","76","","0.2610050464","main_expt","","0.3434196486","","0.1128391495","","0.1898592508","","","","","",""
"1604","","bandit","152","518652","0.0-114.0-0.0","30903306","wem/bandit_single","A3OV174HQJIJK8","pain","4","","74","J","1","","0","0","1","","0.3073782559","false","77","","0.1920601856","main_expt","","0.3073782559","","0.1118044987","","0.191464519","","","","","",""
"491","","bandit","153","520900","0.0-115.0-0.0","30903306","wem/bandit_single","A3OV174HQJIJK8","pain","4","","74","J","1","","0","0","1","","0.3200097729","false","78","","0.1726035312","main_expt","","0.3200097729","","0.1315400358","","0.2665821314","","","","","",""
"505","","bandit","154","523164","0.0-116.0-0.0","30903306","wem/bandit_single","A3OV174HQJIJK8","pain","4","","75","K","2","","0","1","0","","0.1421279646","false","79","","0.1974193715","main_expt","","0.3406321397","","0.1421279646","","0.2510402579","","","","","",""
"205","","bandit","155","525124","0.0-117.0-0.0","30903306","wem/bandit_single","A3OV174HQJIJK8","pain","4","","75","K","2","","0","0","1","","0.1666910293","false","80","","0.1771423485","main_expt","","0.2934749235","","0.1666910293","","0.2803090616","","","","","",""
"321","","bandit","156","527202","0.0-118.0-0.0","30903306","wem/bandit_single","A3OV174HQJIJK8","pain","4","","74","J","1","","0","0","1","","0.3080678564","false","81","","0.1689426189","main_expt","","0.3080678564","","0.1514130178","","0.3053401272","","","","","",""
"435","","bandit","157","529398","0.0-119.0-0.0","30903306","wem/bandit_single","A3OV174HQJIJK8","pain","4","","76","L","3","","0","0","1","","0.3079009489","false","82","","0.2008945118","main_expt","","0.3118316764","","0.1667518413","","0.3079009489","","","","","",""
"431","","bandit","158","531587","0.0-120.0-0.0","30903306","wem/bandit_single","A3OV174HQJIJK8","pain","4","","75","K","2","","0","0","1","","0.1620161121","false","83","","0.2679993971","main_expt","","0.2539803618","","0.1620161121","","0.3294465445","","","","","",""
"35","","bandit","159","533379","0.0-121.0-0.0","30903306","wem/bandit_single","A3OV174HQJIJK8","pain","4","","74","J","1","","0","0","1","","0.2665148507","false","84","","0.2187304288","main_expt","","0.2665148507","","0.1920696542","","0.3567704092","","","","","",""
"379","","bandit","160","535516","0.0-122.0-0.0","30903306","wem/bandit_single","A3OV174HQJIJK8","pain","4","","72","H","0","img/none_selected.jpg","0","0","1","","0.2668074714","false","85","","0.2668074714","main_expt","","0.2638978108","","0.1790321084","","0.3637986046","","","","","",""
"513","","bandit","161","537786","0.0-123.0-0.0","30903306","wem/bandit_single","A3OV174HQJIJK8","pain","4","","74","J","1","","0","1","0","","0.2430370424","false","86","","0.3011617684","main_expt","","0.2430370424","","0.1644507099","","0.3661817966","","","","","",""
"643","","bandit","162","540186","0.0-124.0-0.0","30903306","wem/bandit_single","A3OV174HQJIJK8","pain","4","","74","J","1","","0","0","1","","0.2369050713","false","87","","0.2866912597","main_expt","","0.2369050713","","0.1731377232","","0.349996741","","","","","",""
"388","","bandit","163","542331","0.0-125.0-0.0","30903306","wem/bandit_single","A3OV174HQJIJK8","pain","4","","75","K","2","","0","0","1","","0.1562940882","false","88","","0.2921806028","main_expt","","0.2322244834","","0.1562940882","","0.3021468993","","","","","",""
"1330","","bandit","164","545420","0.0-126.0-0.0","30903306","wem/bandit_single","A3OV174HQJIJK8","pain","4","","75","K","2","","0","0","1","","0.1344734597","false","89","","0.2877077994","main_expt","","0.214722025","","0.1344734597","","0.2752269066","","","","","",""
"1292","","bandit","165","548476","0.0-127.0-0.0","30903306","wem/bandit_single","A3OV174HQJIJK8","pain","4","","75","K","2","","0","0","1","","0.1192135027","false","90","","0.2390413286","main_expt","","0.1767670318","","0.1192135027","","0.3172240337","","","","","",""
"6","","bandit","166","550246","0.0-128.0-0.0","30903306","wem/bandit_single","A3OV174HQJIJK8","pain","4","","75","K","2","","0","0","1","","0.1639104845","false","91","","0.2582098676","main_expt","","0.1391375388","","0.1639104845","","0.3049723864","","","","","",""
"1079","","bandit","167","553082","0.0-129.0-0.0","30903306","wem/bandit_single","A3OV174HQJIJK8","pain","4","","75","K","2","","0","0","1","","0.1960431165","false","92","","0.3066747335","main_expt","","0.1283323985","","0.1960431165","","0.3261529518","","","","","",""
"226","","bandit","168","555065","0.0-130.0-0.0","30903306","wem/bandit_single","A3OV174HQJIJK8","pain","4","","75","K","2","","0","0","1","","0.2137056669","false","93","","0.3051362106","main_expt","","0.07538544447","","0.2137056669","","0.3550538726","","","","","",""
"140","","bandit","169","556962","0.0-131.0-0.0","30903306","wem/bandit_single","A3OV174HQJIJK8","pain","4","","75","K","2","","0","0","1","","0.2188004936","false","94","","0.3433649514","main_expt","","0.07407963518","","0.2188004936","","0.3335231974","","","","","",""
"1730","","bandit","170","560449","0.0-132.0-0.0","30903306","wem/bandit_single","A3OV174HQJIJK8","pain","4","","74","J","1","","0","0","1","","0.06265185683","false","95","","0.3638642947","main_expt","","0.06265185683","","0.2442185641","","0.3060397856","","","","","",""
"435","","bandit","171","562644","0.0-133.0-0.0","30903306","wem/bandit_single","A3OV174HQJIJK8","pain","4","","74","J","1","","0","0","1","","0.0626930361","false","96","","0.3433071503","main_expt","","0.0626930361","","0.2062156096","","0.3420618169","","","","","",""
"1440","","bandit","172","565842","0.0-134.0-0.0","30903306","wem/bandit_single","A3OV174HQJIJK8","pain","4","","75","K","2","","0","0","1","","0.1824441478","false","97","","0.3287523936","main_expt","","0.03702031205","","0.1824441478","","0.3451805041","","","","","",""
"203","","bandit","173","567803","0.0-135.0-0.0","30903306","wem/bandit_single","A3OV174HQJIJK8","pain","4","","75","K","2","","0","0","1","","0.1741419228","false","98","","0.3384657171","main_expt","","0.02896114516","","0.1741419228","","0.3067376926","","","","","",""
"238","","bandit","174","569803","0.0-136.0-0.0","30903306","wem/bandit_single","A3OV174HQJIJK8","pain","4","","74","J","1","","0","0","1","","0.04301278827","false","99","","0.3929596429","main_expt","","0.04301278827","","0.1402348549","","0.2980645096","","","","","",""
"34","","bandit","175","571593","0.0-137.0-0.0","30903306","wem/bandit_single","A3OV174HQJIJK8","pain","4","","76","L","3","","0","1","0","","0.2862788702","false","100","","0.3972918561","main_expt","","0.03198738169","","0.1856728267","","0.2862788702","","","","","",""
"52","","bandit","176","573401","0.0-138.0-0.0","30903306","wem/bandit_single","A3OV174HQJIJK8","pain","4","","76","L","3","","0","0","1","","0.2622165861","false","101","","0.4064604032","main_expt","","0.03387094668","","0.1731032509","","0.2622165861","","","","","",""
"1319","","bandit","177","576480","0.0-139.0-0.0","30903306","wem/bandit_single","A3OV174HQJIJK8","pain","4","","76","L","3","","0","0","1","","0.3261799811","false","102","","0.4273413635","main_expt","","0.0235124197","","0.1387116465","","0.3261799811","","","","","",""
"723","","bandit","178","578963","0.0-140.0-0.0","30903306","wem/bandit_single","A3OV174HQJIJK8","pain","4","","76","L","3","","0","0","1","","0.334814711","false","103","","0.4566487837","main_expt","","0.02482610326","","0.1880660303","","0.334814711","","","","","",""
"722","","bandit","179","581442","0.0-141.0-0.0","30903306","wem/bandit_single","A3OV174HQJIJK8","pain","4","","76","L","3","","0","1","0","","0.3486298313","false","104","","0.459539636","main_expt","","0.03330094042","","0.142060421","","0.3486298313","","","","","",""
"7401","","bandit","180","590600","0.0-142.0-0.0","30903306","wem/bandit_single","A3OV174HQJIJK8","pain","4","","76","L","3","","0","1","0","","0.3538911629","false","105","","0.4462881264","main_expt","","0.06543537915","","0.1839839798","","0.3538911629","","","","","",""
"1180","","bandit","181","593538","0.0-143.0-0.0","30903306","wem/bandit_single","A3OV174HQJIJK8","pain","4","","76","L","3","","0","0","1","","0.3886974852","false","106","","0.4417011126","main_expt","","0.07051160025","","0.1691947451","","0.3886974852","","","","","",""
"88","","bandit","182","595384","0.0-144.0-0.0","30903306","wem/bandit_single","A3OV174HQJIJK8","pain","4","","76","L","3","","0","1","0","","0.3489433712","false","107","","0.4419194373","main_expt","","0.08830456602","","0.180010917","","0.3489433712","","","","","",""
"170","","bandit","183","597312","0.0-145.0-0.0","30903306","wem/bandit_single","A3OV174HQJIJK8","pain","4","","76","L","3","","0","0","1","","0.3901728218","false","108","","0.4061848383","main_expt","","0.05921849724","","0.1338722415","","0.3901728218","","","","","",""
"237","","bandit","184","599309","0.0-146.0-0.0","30903306","wem/bandit_single","A3OV174HQJIJK8","pain","4","","76","L","3","","0","0","1","","0.4006799949","false","109","","0.3906669636","main_expt","","0.04581125366","","0.1350853679","","0.4006799949","","","","","",""
"606","","bandit","185","601672","0.0-147.0-0.0","30903306","wem/bandit_single","A3OV174HQJIJK8","pain","4","","76","L","3","","0","0","1","","0.3867714499","false","110","","0.3969614195","main_expt","","0.08345510588","","0.184551263","","0.3867714499","","","","","",""
"577","","bandit","186","604013","0.0-148.0-0.0","30903306","wem/bandit_single","A3OV174HQJIJK8","pain","4","","76","L","3","","0","0","1","","0.4252141842","false","111","","0.370186674","main_expt","","0.07355878572","","0.2635344293","","0.4252141842","","","","","",""
"429","","bandit","187","606200","0.0-149.0-0.0","30903306","wem/bandit_single","A3OV174HQJIJK8","pain","4","","76","L","3","","0","1","0","","0.4197282726","false","112","","0.3488043283","main_expt","","0.09226575929","","0.2972025743","","0.4197282726","","","","","",""
"180","","bandit","188","608138","0.0-150.0-0.0","30903306","wem/bandit_single","A3OV174HQJIJK8","pain","4","","76","L","3","","0","0","1","","0.4371411526","false","113","","0.2886117592","main_expt","","0.07711661396","","0.2853398636","","0.4371411526","","","","","",""
"664","","bandit","189","610560","0.0-151.0-0.0","30903306","wem/bandit_single","A3OV174HQJIJK8","pain","4","","76","L","3","","0","0","1","","0.4523407119","false","114","","0.3507025671","main_expt","","0.09366406151","","0.2354235092","","0.4523407119","","","","","",""
"803","","bandit","190","613127","0.0-152.0-0.0","30903306","wem/bandit_single","A3OV174HQJIJK8","pain","4","","76","L","3","","0","0","1","","0.4544977282","false","115","","0.3308051733","main_expt","","0.09297781317","","0.2228923984","","0.4544977282","","","","","",""
"451","","bandit","191","615337","0.0-153.0-0.0","30903306","wem/bandit_single","A3OV174HQJIJK8","pain","4","","76","L","3","","0","1","0","","0.4458191396","false","116","","0.2696902145","main_expt","","0.09292735615","","0.182615248","","0.4458191396","","","","","",""
"1016","","bandit","192","618113","0.0-154.0-0.0","30903306","wem/bandit_single","A3OV174HQJIJK8","pain","4","","76","L","3","","0","1","0","","0.4384124693","false","117","","0.3048340551","main_expt","","0.1277349031","","0.1702457594","","0.4384124693","","","","","",""
"121","","bandit","193","619993","0.0-155.0-0.0","30903306","wem/bandit_single","A3OV174HQJIJK8","pain","4","","76","L","3","","0","0","1","","0.4590850855","false","118","","0.2682044258","main_expt","","0.1057820856","","0.2075823826","","0.4590850855","","","","","",""
"1155","","bandit","194","622904","0.0-156.0-0.0","30903306","wem/bandit_single","A3OV174HQJIJK8","pain","4","","76","L","3","","0","0","1","","0.4718937063","false","119","","0.2314514612","main_expt","","0.08453932314","","0.2281388084","","0.4718937063","","","","","",""
"546","","bandit","195","625211","0.0-157.0-0.0","30903306","wem/bandit_single","A3OV174HQJIJK8","pain","4","","76","L","3","","0","0","1","","0.4645470247","false","120","","0.197474053","main_expt","","0.1106897037","","0.2620651535","","0.4645470247","","","","","",""
"543","","bandit","196","627511","0.0-158.0-0.0","30903306","wem/bandit_single","A3OV174HQJIJK8","pain","4","","76","L","3","","0","0","1","","0.4422277234","false","121","","0.1819521248","main_expt","","0.1200625234","","0.2953433235","","0.4422277234","","","","","",""
"43","","bandit","197","629313","0.0-159.0-0.0","30903306","wem/bandit_single","A3OV174HQJIJK8","pain","4","","76","L","3","","0","0","1","","0.4150525319","false","122","","0.171732915","main_expt","","0.1570760405","","0.2702367277","","0.4150525319","","","","","",""
"1257","","bandit","198","632329","0.0-160.0-0.0","30903306","wem/bandit_single","A3OV174HQJIJK8","pain","4","","76","L","3","","0","0","1","","0.4356762379","false","123","","0.1577660673","main_expt","","0.1616024906","","0.3190818872","","0.4356762379","","","","","",""
"342","","bandit","199","634432","0.0-161.0-0.0","30903306","wem/bandit_single","A3OV174HQJIJK8","pain","4","","75","K","2","","0","0","1","","0.3415455108","false","124","","0.1384195938","main_expt","","0.1371750093","","0.3415455108","","0.4475351861","","","","","",""
"358","","bandit","200","636551","0.0-162.0-0.0","30903306","wem/bandit_single","A3OV174HQJIJK8","pain","4","","74","J","1","","0","0","1","","0.1293707667","false","125","","0.1367208018","main_expt","","0.1293707667","","0.3955313072","","0.4310995666","","","","","",""
"745","","bandit","201","639057","0.0-163.0-0.0","30903306","wem/bandit_single","A3OV174HQJIJK8","pain","4","","72","H","0","img/none_selected.jpg","0","0","1","","0.14570125","false","126","","0.14570125","main_expt","","0.1231453761","","0.4150522509","","0.4246911586","","","","","",""
"151","","bandit","202","640967","0.0-164.0-0.0","30903306","wem/bandit_single","A3OV174HQJIJK8","pain","4","","72","H","0","img/none_selected.jpg","0","0","1","","0.116128816","false","127","","0.116128816","main_expt","","0.1044431599","","0.3803228979","","0.3855858577","","","","","",""
"440","","bandit","203","643168","0.0-165.0-0.0","30903306","wem/bandit_single","A3OV174HQJIJK8","pain","4","","74","J","1","","0","0","1","","0.07509994275","false","128","","0.1118736017","main_expt","","0.07509994275","","0.4028097642","","0.3886900275","","","","","",""
"814","","bandit","204","645745","0.0-166.0-0.0","30903306","wem/bandit_single","A3OV174HQJIJK8","pain","4","","75","K","2","","0","1","0","","0.3759087187","false","129","","0.1153634536","main_expt","","0.07499531951","","0.3759087187","","0.3712880315","","","","","",""
"257","","bandit","205","647760","0.0-167.0-0.0","30903306","wem/bandit_single","A3OV174HQJIJK8","pain","4","","75","K","2","","0","1","0","","0.3578404683","false","130","","0.09323577747","main_expt","","0.06898381409","","0.3578404683","","0.3163545042","","","","","",""
"616","","bandit","206","650138","0.0-168.0-0.0","30903306","wem/bandit_single","A3OV174HQJIJK8","pain","4","","75","K","2","","0","1","0","","0.3874222675","false","131","","0.1064947735","main_expt","","0.08255272978","","0.3874222675","","0.3203759455","","","","","",""
"254","","bandit","207","652151","0.0-169.0-0.0","30903306","wem/bandit_single","A3OV174HQJIJK8","pain","4","","75","K","2","","0","0","1","","0.3773694481","false","132","","0.1574274544","main_expt","","0.06266196304","","0.3773694481","","0.3128419263","","","","","",""
"1349","","bandit","208","655263","0.0-170.0-0.0","30903306","wem/bandit_single","A3OV174HQJIJK8","pain","4","","75","K","2","","0","1","0","","0.3961249281","false","133","","0.1613106331","main_expt","","0.06584579886","","0.3961249281","","0.3057041938","","","","","",""
"1360","","bandit","209","658392","0.0-171.0-0.0","30903306","wem/bandit_single","A3OV174HQJIJK8","pain","4","","75","K","2","","0","1","0","","0.4152923946","false","134","","0.1660744508","main_expt","","0.05935363428","","0.4152923946","","0.2816585421","","","","","",""
"576","","bandit","210","660726","0.0-172.0-0.0","30903306","wem/bandit_single","A3OV174HQJIJK8","pain","4","","75","K","2","","0","0","1","","0.4424865849","false","135","","0.1973964499","main_expt","","0.05732645975","","0.4424865849","","0.2955422992","","","","","",""
"1528","","bandit","211","664014","0.0-173.0-0.0","30903306","wem/bandit_single","A3OV174HQJIJK8","pain","4","","75","K","2","","0","0","1","","0.4465543098","false","136","","0.1813196928","main_expt","","0.07342087183","","0.4465543098","","0.3509846551","","","","","",""
"487","","bandit","212","666260","0.0-174.0-0.0","30903306","wem/bandit_single","A3OV174HQJIJK8","pain","4","","75","K","2","","0","1","0","","0.4520996047","false","137","","0.1859539446","main_expt","","0.07676045657","","0.4520996047","","0.3344410146","","","","","",""
"453","","bandit","213","668471","0.0-175.0-0.0","30903306","wem/bandit_single","A3OV174HQJIJK8","pain","4","","75","K","2","","0","0","1","","0.428300575","false","138","","0.1014888705","main_expt","","0.09127868582","","0.428300575","","0.2657268636","","","","","",""
"46","","bandit","214","670277","0.0-176.0-0.0","30903306","wem/bandit_single","A3OV174HQJIJK8","pain","4","","75","K","2","","0","0","1","","0.419833238","false","139","","0.09034098631","main_expt","","0.1057771966","","0.419833238","","0.2267955479","","","","","",""
"1651","","bandit","215","673685","0.0-177.0-0.0","30903306","wem/bandit_single","A3OV174HQJIJK8","pain","4","","75","K","2","","0","1","0","","0.423721229","false","140","","0.09102227313","main_expt","","0.1134354218","","0.423721229","","0.2278141127","","","","","",""
"369","","bandit","216","675812","0.0-178.0-0.0","30903306","wem/bandit_single","A3OV174HQJIJK8","pain","4","","75","K","2","","0","0","1","","0.4382479885","false","141","","0.1095349378","main_expt","","0.1205694848","","0.4382479885","","0.23653477","","","","","",""
"842","","bandit","217","678413","0.0-179.0-0.0","30903306","wem/bandit_single","A3OV174HQJIJK8","pain","4","","75","K","2","","0","1","0","","0.4247465964","false","142","","0.1184068784","main_expt","","0.1423721259","","0.4247465964","","0.2155890047","","","","","",""
"423","","bandit","218","680598","0.0-180.0-0.0","30903306","wem/bandit_single","A3OV174HQJIJK8","pain","4","","75","K","2","","0","0","1","","0.3978340057","false","143","","0.1056920569","main_expt","","0.1199770031","","0.3978340057","","0.2203428631","","","","","",""
"1695","","bandit","219","684057","0.0-181.0-0.0","30903306","wem/bandit_single","A3OV174HQJIJK8","pain","4","","75","K","2","","0","1","0","","0.4094639435","false","144","","0.1563123998","main_expt","","0.1431068991","","0.4094639435","","0.1834171178","","","","","",""
"470","","bandit","220","686285","0.0-182.0-0.0","30903306","wem/bandit_single","A3OV174HQJIJK8","pain","4","","75","K","2","","0","1","0","","0.4198905501","false","145","","0.09088636348","main_expt","","0.1630017245","","0.4198905501","","0.2064693802","","","","","",""
"1034","","bandit","221","689077","0.0-183.0-0.0","30903306","wem/bandit_single","A3OV174HQJIJK8","pain","4","","75","K","2","","0","1","0","","0.4050886303","false","146","","0.0827806059","main_expt","","0.145034553","","0.4050886303","","0.1342941172","","","","","",""
"124","","bandit","222","690959","0.0-184.0-0.0","30903306","wem/bandit_single","A3OV174HQJIJK8","pain","4","","75","K","2","","0","0","1","","0.3785891444","false","147","","0.1149215639","main_expt","","0.1488017726","","0.3785891444","","0.1515740161","","","","","",""
"1880","","bandit","223","694596","0.0-185.0-0.0","30903306","wem/bandit_single","A3OV174HQJIJK8","pain","4","","75","K","2","","0","0","1","","0.3854511928","false","148","","0.1099148444","main_expt","","0.1582677895","","0.3854511928","","0.1212747878","","","","","",""
"231","","bandit","224","696589","0.0-186.0-0.0","30903306","wem/bandit_single","A3OV174HQJIJK8","pain","4","","75","K","2","","0","0","1","","0.3928641012","false","149","","0.1127327795","main_expt","","0.1647072654","","0.3928641012","","0.08453377975","","","","","",""
"193","","bandit","225","698540","0.0-187.0-0.0","30903306","wem/bandit_single","A3OV174HQJIJK8","pain","4","","75","K","2","","0","0","1","","0.3981420368","false","150","","0.1477728786","main_expt","","0.1333243968","","0.3981420368","","0.1060211344","","","","","",""
"113","","bandit","226","700414","0.0-188.0-0.0","30903306","wem/bandit_single","A3OV174HQJIJK8","pain","4","","75","K","2","","0","0","1","","0.3954234158","false","151","","0.1634569086","main_expt","","0.1232516149","","0.3954234158","","0.06473992137","","","","","",""
"625","","bandit","227","702797","0.0-189.0-0.0","30903306","wem/bandit_single","A3OV174HQJIJK8","pain","4","","75","K","2","","0","0","1","","0.3684376671","false","152","","0.2119786212","main_expt","","0.1218764731","","0.3684376671","","0.07847139908","","","","","",""
"215","","bandit","228","704774","0.0-190.0-0.0","30903306","wem/bandit_single","A3OV174HQJIJK8","pain","4","","76","L","3","","0","0","1","","0.06170083269","false","153","","0.190815194","main_expt","","0.1181944444","","0.3586265296","","0.06170083269","","","","","",""
"167","","bandit","229","706700","0.0-191.0-0.0","30903306","wem/bandit_single","A3OV174HQJIJK8","pain","4","","76","L","3","","0","0","1","","0.07752027139","false","154","","0.2539230859","main_expt","","0.1524072167","","0.3711835277","","0.07752027139","","","","","",""
"706","","bandit","230","709165","0.0-192.0-0.0","30903306","wem/bandit_single","A3OV174HQJIJK8","pain","4","","74","J","1","","0","0","1","","0.2181316645","false","155","","0.2214647723","main_expt","","0.2181316645","","0.3296220366","","0.07430376846","","","","","",""
"159","","bandit","231","711084","0.0-193.0-0.0","30903306","wem/bandit_single","A3OV174HQJIJK8","pain","4","","74","J","1","","0","0","1","","0.213475765","false","156","","0.1812397975","main_expt","","0.213475765","","0.287903252","","0.05925504694","","","","","",""
"20","","bandit","232","712861","0.0-194.0-0.0","30903306","wem/bandit_single","A3OV174HQJIJK8","pain","4","","72","H","0","img/none_selected.jpg","0","0","1","","0.1447548225","false","157","","0.1447548225","main_expt","","0.2264995707","","0.296290929","","0.0737155059","","","","","",""
"244","","bandit","233","714875","0.0-195.0-0.0","30903306","wem/bandit_single","A3OV174HQJIJK8","pain","4","","75","K","2","","0","0","1","","0.2721348168","false","158","","0.1458137519","main_expt","","0.2991482761","","0.2721348168","","0.05755321342","","","","","",""
"26","","bandit","234","716660","0.0-196.0-0.0","30903306","wem/bandit_single","A3OV174HQJIJK8","pain","4","","75","K","2","","0","0","1","","0.2765185667","false","159","","0.1035755389","main_expt","","0.3365391658","","0.2765185667","","0.1007830752","","","","","",""
"5210","","bandit","235","723632","0.0-197.0-0.0","30903306","wem/bandit_single","A3OV174HQJIJK8","pain","4","","76","L","3","","0","0","1","","0.06149362121","false","160","","0.1142027444","main_expt","","0.313402929","","0.3162688162","","0.06149362121","","","","","",""
"607","","bandit","236","726005","0.0-198.0-0.0","30903306","wem/bandit_single","A3OV174HQJIJK8","pain","4","","76","L","3","","0","0","1","","0.09516109007","false","161","","0.1510988582","main_expt","","0.3529908654","","0.3302336848","","0.09516109007","","","","","",""
"601","","bandit","237","728365","0.0-199.0-0.0","30903306","wem/bandit_single","A3OV174HQJIJK8","pain","4","","76","L","3","","0","0","1","","0.08429007215","false","162","","0.1720124831","main_expt","","0.3608295961","","0.3622896815","","0.08429007215","","","","","",""
"2285","","bandit","238","732411","0.0-200.0-0.0","30903306","wem/bandit_single","A3OV174HQJIJK8","pain","4","","76","L","3","","0","0","1","","0.1199893575","false","163","","0.2119433459","main_expt","","0.4197284319","","0.3696580379","","0.1199893575","","","","","",""
"691","","bandit","239","734860","0.0-201.0-0.0","30903306","wem/bandit_single","A3OV174HQJIJK8","pain","4","","76","L","3","","0","0","1","","0.1353867718","false","164","","0.2413639604","main_expt","","0.4162507976","","0.3217553384","","0.1353867718","","","","","",""
"1046","","bandit","240","737670","0.0-202.0-0.0","30903306","wem/bandit_single","A3OV174HQJIJK8","pain","4","","76","L","3","","0","0","1","","0.08700720397","false","165","","0.3231443763","main_expt","","0.424344073","","0.2370356752","","0.08700720397","","","","","",""
"646","","bandit","241","740075","0.0-203.0-0.0","30903306","wem/bandit_single","A3OV174HQJIJK8","pain","4","","76","L","3","","0","0","1","","0.09613155095","false","166","","0.2907209657","main_expt","","0.4385436022","","0.1952619304","","0.09613155095","","","","","",""
"168","","bandit","242","742003","0.0-204.0-0.0","30903306","wem/bandit_single","A3OV174HQJIJK8","pain","4","","75","K","2","","0","0","1","","0.2008635704","false","167","","0.2386263765","main_expt","","0.4428370211","","0.2008635704","","0.08740230362","","","","","",""
"62","","bandit","243","743827","0.0-205.0-0.0","30903306","wem/bandit_single","A3OV174HQJIJK8","pain","4","","75","K","2","","0","0","1","","0.2872582577","false","168","","0.2802872421","main_expt","","0.4475632301","","0.2872582577","","0.1033010443","","","","","",""
"328","","bandit","244","745917","0.0-206.0-0.0","30903306","wem/bandit_single","A3OV174HQJIJK8","pain","4","","74","J","1","","0","0","1","","0.4358894507","false","169","","0.2858578204","main_expt","","0.4358894507","","0.2478638945","","0.1288835215","","","","","",""
"277","","bandit","245","747957","0.0-207.0-0.0","30903306","wem/bandit_single","A3OV174HQJIJK8","pain","4","","72","H","0","img/none_selected.jpg","0","0","1","","0.3542119366","false","170","","0.3542119366","main_expt","","0.4401344765","","0.2335785199","","0.0821831217","","","","","",""
"333","","bandit","246","750051","0.0-208.0-0.0","30903306","wem/bandit_single","A3OV174HQJIJK8","pain","4","","72","H","0","img/none_selected.jpg","0","0","1","","0.363516632","false","171","","0.363516632","main_expt","","0.4182824287","","0.263029084","","0.08448133796","","","","","",""
"5","","bandit","247","751815","0.0-209.0-0.0","30903306","wem/bandit_single","A3OV174HQJIJK8","pain","4","","74","J","1","","0","1","0","","0.4206293302","false","172","","0.3285232471","main_expt","","0.4206293302","","0.282237019","","0.1142172702","","","","","",""
"505","","bandit","248","754088","0.0-210.0-0.0","30903306","wem/bandit_single","A3OV174HQJIJK8","pain","4","","74","J","1","","0","0","1","","0.4424673434","false","173","","0.3379934215","main_expt","","0.4424673434","","0.2798091978","","0.1585219493","","","","","",""
"270","","bandit","249","756118","0.0-211.0-0.0","30903306","wem/bandit_single","A3OV174HQJIJK8","pain","4","","74","J","1","","0","1","0","","0.4470793942","false","174","","0.2937018888","main_expt","","0.4470793942","","0.2782342077","","0.2167008269","","","","","",""
"365","","bandit","250","758244","0.0-212.0-0.0","30903306","wem/bandit_single","A3OV174HQJIJK8","pain","4","","74","J","1","","0","1","0","","0.4466152725","false","175","","0.2691073907","main_expt","","0.4466152725","","0.3095951925","","0.2564405216","","","","","",""
"301","","bandit","251","760306","0.0-213.0-0.0","30903306","wem/bandit_single","A3OV174HQJIJK8","pain","4","","74","J","1","","0","0","1","","0.4622816701","false","176","","0.2797966768","main_expt","","0.4622816701","","0.3149167583","","0.2740916264","","","","","",""
"847","","bandit","252","762915","0.0-214.0-0.0","30903306","wem/bandit_single","A3OV174HQJIJK8","pain","4","","74","J","1","","0","1","0","","0.4791174255","false","177","","0.2956207272","main_expt","","0.4791174255","","0.3057016371","","0.2701885048","","","","","",""
"375","","bandit","253","765057","0.0-215.0-0.0","30903306","wem/bandit_single","A3OV174HQJIJK8","pain","4","","74","J","1","","0","1","0","","0.4878404122","false","178","","0.2903749226","main_expt","","0.4878404122","","0.2973749651","","0.2525299603","","","","","",""
"484","","bandit","254","767300","0.0-216.0-0.0","30903306","wem/bandit_single","A3OV174HQJIJK8","pain","4","","74","J","1","","0","1","0","","0.4871204803","false","179","","0.2324022499","main_expt","","0.4871204803","","0.3205080684","","0.2923151224","","","","","",""
"462","","bandit","255","769524","0.0-217.0-0.0","30903306","wem/bandit_single","A3OV174HQJIJK8","pain","4","","74","J","1","","0","0","1","","0.4783768728","false","180","","0.157369965","main_expt","","0.4783768728","","0.3668921479","","0.2712435876","","","","","",""
"121","","bandit","256","771410","0.0-218.0-0.0","30903306","wem/bandit_single","A3OV174HQJIJK8","pain","4","","74","J","1","","0","1","0","","0.4791844977","false","181","","0.1928111427","main_expt","","0.4791844977","","0.36743573","","0.2911825171","","","","","",""
"367","","bandit","257","773538","0.0-219.0-0.0","30903306","wem/bandit_single","A3OV174HQJIJK8","pain","4","","74","J","1","","0","0","1","","0.4796326775","false","182","","0.1831473083","main_expt","","0.4796326775","","0.3444330154","","0.2812290194","","","","","",""
"160","","bandit","258","775458","0.0-220.0-0.0","30903306","wem/bandit_single","A3OV174HQJIJK8","pain","4","","74","J","1","","0","0","1","","0.4610412729","false","183","","0.1367876881","main_expt","","0.4610412729","","0.376594699","","0.2998653002","","","","","",""
"122","","bandit","259","777339","0.0-221.0-0.0","30903306","wem/bandit_single","A3OV174HQJIJK8","pain","4","","74","J","1","","0","0","1","","0.4654872089","false","184","","0.1225312115","main_expt","","0.4654872089","","0.3576767422","","0.3019566185","","","","","",""
"1856","","bandit","260","780963","0.0-222.0-0.0","30903306","wem/bandit_single","A3OV174HQJIJK8","pain","4","","74","J","1","","0","1","0","","0.4579605539","false","185","","0.1342014861","main_expt","","0.4579605539","","0.3420219295","","0.3297019868","","","","","",""
"791","","bandit","261","783514","0.0-223.0-0.0","30903306","wem/bandit_single","A3OV174HQJIJK8","pain","4","","74","J","1","","0","1","0","","0.4285966985","false","186","","0.1302900424","main_expt","","0.4285966985","","0.3398722127","","0.3522504082","","","","","",""
"229","","bandit","262","785507","0.0-224.0-0.0","30903306","wem/bandit_single","A3OV174HQJIJK8","pain","4","","74","J","1","","0","0","1","","0.4348535533","false","187","","0.1721475048","main_expt","","0.4348535533","","0.3329123812","","0.3716798598","","","","","",""
"1833","","bandit","263","789103","0.0-225.0-0.0","30903306","wem/bandit_single","A3OV174HQJIJK8","pain","4","","74","J","1","","0","0","1","","0.4485299143","false","188","","0.194848396","main_expt","","0.4485299143","","0.3185375489","","0.3516931858","","","","","",""
"2042","","bandit","264","792905","0.0-226.0-0.0","30903306","wem/bandit_single","A3OV174HQJIJK8","pain","4","","74","J","1","","0","0","1","","0.4108460603","false","189","","0.2010474049","main_expt","","0.4108460603","","0.2819885058","","0.311825216","","","","","",""
"1561","","bandit","265","796235","0.0-227.0-0.0","30903306","wem/bandit_single","A3OV174HQJIJK8","pain","4","","74","J","1","","0","0","1","","0.4276881046","false","190","","0.2388592571","main_expt","","0.4276881046","","0.2938453289","","0.3228194114","","","","","",""
"1440","","bandit","266","799435","0.0-228.0-0.0","30903306","wem/bandit_single","A3OV174HQJIJK8","pain","4","","74","J","1","","0","1","0","","0.4252680513","false","191","","0.2125939305","main_expt","","0.4252680513","","0.3252392313","","0.3070679034","","","","","",""
"447","","bandit","267","801641","0.0-229.0-0.0","30903306","wem/bandit_single","A3OV174HQJIJK8","pain","4","","74","J","1","","0","1","0","","0.4128843357","false","192","","0.2494953747","main_expt","","0.4128843357","","0.2886148476","","0.3224985291","","","","","",""
"247","","bandit","268","803649","0.0-230.0-0.0","30903306","wem/bandit_single","A3OV174HQJIJK8","pain","4","","74","J","1","","0","0","1","","0.3935422506","false","193","","0.2831479201","main_expt","","0.3935422506","","0.2985788169","","0.3869795439","","","","","",""
"1017","","bandit","269","806425","0.0-231.0-0.0","30903306","wem/bandit_single","A3OV174HQJIJK8","pain","4","","74","J","1","","0","1","0","","0.3844836544","false","194","","0.3119862296","main_expt","","0.3844836544","","0.2480640489","","0.4012627402","","","","","",""
"279","","bandit","270","808465","0.0-232.0-0.0","30903306","wem/bandit_single","A3OV174HQJIJK8","pain","4","","74","J","1","","0","0","1","","0.3676726872","false","195","","0.3216729489","main_expt","","0.3676726872","","0.2512767584","","0.3984750166","","","","","",""
"473","","bandit","271","810698","0.0-233.0-0.0","30903306","wem/bandit_single","A3OV174HQJIJK8","pain","4","","75","K","2","","0","0","1","","0.2465093633","false","196","","0.3321806914","main_expt","","0.3789354293","","0.2465093633","","0.354698241","","","","","",""
"531","","bandit","272","812993","0.0-234.0-0.0","30903306","wem/bandit_single","A3OV174HQJIJK8","pain","4","","74","J","1","","0","0","1","","0.3163718389","false","197","","0.3046277309","main_expt","","0.3163718389","","0.2064088789","","0.388220233","","","","","",""
"247","","bandit","273","815001","0.0-235.0-0.0","30903306","wem/bandit_single","A3OV174HQJIJK8","pain","4","","76","L","3","","0","1","0","","0.3702696144","false","198","","0.2780350238","main_expt","","0.3791854339","","0.1991167995","","0.3702696144","","","","","",""
"78","","bandit","274","816846","0.0-236.0-0.0","30903306","wem/bandit_single","A3OV174HQJIJK8","pain","4","","76","L","3","","0","0","1","","0.3901406761","false","199","","0.2933352516","main_expt","","0.3677616307","","0.217931059","","0.3901406761","","","","","",""
"172","","bandit","275","818776","0.0-237.0-0.0","30903306","wem/bandit_single","A3OV174HQJIJK8","pain","4","","76","L","3","","0","0","1","","0.3606677237","false","200","","0.2826656477","main_expt","","0.3696360463","","0.1684289921","","0.3606677237","","","","","",""
"124","","bandit","276","820666","0.0-238.0-0.0","30903306","wem/bandit_single","A3OV174HQJIJK8","pain","4","","76","L","3","","0","0","1","","0.3608273241","false","201","","0.2337361703","main_expt","","0.3685313937","","0.1526494416","","0.3608273241","","","","","",""
"391","","bandit","277","822821","0.0-239.0-0.0","30903306","wem/bandit_single","A3OV174HQJIJK8","pain","4","","72","H","0","img/none_selected.jpg","0","0","1","","0.1697000529","false","202","","0.1697000529","main_expt","","0.354480527","","0.1474087426","","0.3495453025","","","","","",""
"250","","bandit","278","824832","0.0-240.0-0.0","30903306","wem/bandit_single","A3OV174HQJIJK8","pain","4","","74","J","1","","0","1","0","","0.3420940801","false","203","","0.1941246875","main_expt","","0.3420940801","","0.1499100939","","0.3660628182","","","","","",""
"254","","bandit","279","826848","0.0-241.0-0.0","30903306","wem/bandit_single","A3OV174HQJIJK8","pain","4","","74","J","1","","0","0","1","","0.3365711719","false","204","","0.2006574904","main_expt","","0.3365711719","","0.173155318","","0.337040125","","","","","",""
"246","","bandit","280","828855","0.0-242.0-0.0","30903306","wem/bandit_single","A3OV174HQJIJK8","pain","4","","74","J","1","","0","0","1","","0.3517226909","false","205","","0.1905393187","main_expt","","0.3517226909","","0.1813441082","","0.303371863","","","","","",""
"207","","bandit","281","830824","0.0-243.0-0.0","30903306","wem/bandit_single","A3OV174HQJIJK8","pain","4","","74","J","1","","0","0","1","","0.3476038752","false","206","","0.1715448013","main_expt","","0.3476038752","","0.1491413167","","0.256221391","","","","","",""
"65","","bandit","282","832656","0.0-244.0-0.0","30903306","wem/bandit_single","A3OV174HQJIJK8","pain","4","","75","K","2","","0","0","1","","0.08847738283","false","207","","0.1857981004","main_expt","","0.3349551135","","0.08847738283","","0.2368802791","","","","","",""
"224","","bandit","283","834641","0.0-245.0-0.0","30903306","wem/bandit_single","A3OV174HQJIJK8","pain","4","","76","L","3","","0","0","1","","0.1949321076","false","208","","0.2102455122","main_expt","","0.342580335","","0.1283817583","","0.1949321076","","","","","",""
"166","","bandit","284","836573","0.0-246.0-0.0","30903306","wem/bandit_single","A3OV174HQJIJK8","pain","4","","76","L","3","","0","0","1","","0.1838736563","false","209","","0.2400108979","main_expt","","0.3043768385","","0.116273769","","0.1838736563","","","","","",""
"75","","bandit","285","838418","0.0-247.0-0.0","30903306","wem/bandit_single","A3OV174HQJIJK8","pain","4","","76","L","3","","0","0","1","","0.2021797606","false","210","","0.2756077388","main_expt","","0.2578785415","","0.1255054793","","0.2021797606","","","","","",""
"21","","bandit","286","840202","0.0-248.0-0.0","30903306","wem/bandit_single","A3OV174HQJIJK8","pain","4","","74","J","1","","0","1","0","","0.2684152162","false","211","","0.2509099491","main_expt","","0.2684152162","","0.1183517879","","0.1724183734","","","","","",""
"222","","bandit","287","842187","0.0-249.0-0.0","30903306","wem/bandit_single","A3OV174HQJIJK8","pain","4","","74","J","1","","0","0","1","","0.2734791169","false","212","","0.1980821896","main_expt","","0.2734791169","","0.05794836862","","0.1730984207","","","","","",""
"74","","bandit","288","844025","0.0-250.0-0.0","30903306","wem/bandit_single","A3OV174HQJIJK8","pain","4","","74","J","1","","0","0","1","","0.2278558496","false","213","","0.1925164192","main_expt","","0.2278558496","","0.05975327623","","0.1324166562","","","","","",""
"83","","bandit","289","845873","0.0-251.0-0.0","30903306","wem/bandit_single","A3OV174HQJIJK8","pain","4","","74","J","1","","0","1","0","","0.3028606466","false","214","","0.2265747235","main_expt","","0.3028606466","","0.08438277685","","0.1503769339","","","","","",""
"184","","bandit","290","847824","0.0-252.0-0.0","30903306","wem/bandit_single","A3OV174HQJIJK8","pain","4","","74","J","1","","0","0","1","","0.2931323275","false","215","","0.2019374621","main_expt","","0.2931323275","","0.06249742642","","0.1957560139","","","","","",""
"219","","bandit","291","849810","0.0-253.0-0.0","30903306","wem/bandit_single","A3OV174HQJIJK8","pain","4","","74","J","1","","0","1","0","","0.3496422565","false","216","","0.1789305456","main_expt","","0.3496422565","","0.03962767808","","0.2405167914","","","","","",""
"333","","bandit","292","851905","0.0-254.0-0.0","30903306","wem/bandit_single","A3OV174HQJIJK8","pain","4","","75","K","2","","0","0","1","","0.04234009702","false","217","","0.1749198907","main_expt","","0.3773047798","","0.04234009702","","0.1730494568","","","","","",""
"6026","","bandit","293","859695","0.0-255.0-0.0","30903306","wem/bandit_single","A3OV174HQJIJK8","pain","4","","74","J","1","","0","0","1","","0.3416605923","false","218","","0.1735363699","main_expt","","0.3416605923","","0.03503126556","","0.194438436","","","","","",""
"72","","bandit","294","861527","0.0-256.0-0.0","30903306","wem/bandit_single","A3OV174HQJIJK8","pain","4","","75","K","2","","0","0","1","","0.04555228435","false","219","","0.2007391453","main_expt","","0.3559276739","","0.04555228435","","0.1883779435","","","","","",""
"262","","bandit","295","863555","0.0-257.0-0.0","30903306","wem/bandit_single","A3OV174HQJIJK8","pain","4","","76","L","3","","0","0","1","","0.146052069","false","220","","0.2082644318","main_expt","","0.3535435837","","0.03183460319","","0.146052069","","","","","",""
"24","","bandit","296","865342","0.0-258.0-0.0","30903306","wem/bandit_single","A3OV174HQJIJK8","pain","4","","74","J","1","","0","1","0","","0.3418709783","false","221","","0.1821586712","main_expt","","0.3418709783","","0.05071015327","","0.1494285134","","","","","",""
"53","","bandit","297","867159","0.0-259.0-0.0","30903306","wem/bandit_single","A3OV174HQJIJK8","pain","4","","74","J","1","","0","1","0","","0.3004905908","false","222","","0.2158533928","main_expt","","0.3004905908","","0.04027023507","","0.182387278","","","","","",""
"126","","bandit","298","869048","0.0-260.0-0.0","30903306","wem/bandit_single","A3OV174HQJIJK8","pain","4","","74","J","1","","0","1","0","","0.3691689592","false","223","","0.1832968935","main_expt","","0.3691689592","","0.05247893246","","0.198140534","","","","","",""
"265","","bandit","299","871072","0.0-261.0-0.0","30903306","wem/bandit_single","A3OV174HQJIJK8","pain","4","","74","J","1","","0","0","1","","0.2915556832","false","224","","0.1701073256","main_expt","","0.2915556832","","0.06352932029","","0.1957066115","","","","","",""
"222","","bandit","300","873054","0.0-262.0-0.0","30903306","wem/bandit_single","A3OV174HQJIJK8","pain","4","","74","J","1","","0","0","1","","0.3175642321","false","225","","0.1599508429","main_expt","","0.3175642321","","0.04388745626","","0.2132826896","","","","","",""
"1231","","bandit","301","876048","0.0-263.0-0.0","30903306","wem/bandit_single","A3OV174HQJIJK8","pain","4","","75","K","2","","0","0","1","","0.0536624769","false","226","","0.1801289829","main_expt","","0.2803716623","","0.0536624769","","0.2679811769","","","","","",""
"627","","bandit","302","878440","0.0-264.0-0.0","30903306","wem/bandit_single","A3OV174HQJIJK8","pain","4","","74","J","1","","0","0","1","","0.2506224893","false","227","","0.1920788888","main_expt","","0.2506224893","","0.07211167966","","0.2101601544","","","","","",""
"394","","bandit","303","880598","0.0-265.0-0.0","30903306","wem/bandit_single","A3OV174HQJIJK8","pain","4","","74","J","1","","0","1","0","","0.2890404278","false","228","","0.1540575712","main_expt","","0.2890404278","","0.04486621846","","0.1808571688","","","","","",""
"113","","bandit","304","882472","0.0-266.0-0.0","30903306","wem/bandit_single","A3OV174HQJIJK8","pain","4","","74","J","1","","0","1","0","","0.2746035793","false","229","","0.161449161","main_expt","","0.2746035793","","0.05387953984","","0.1132309001","","","","","",""
"21","","bandit","305","884255","0.0-267.0-0.0","30903306","wem/bandit_single","A3OV174HQJIJK8","pain","4","","74","J","1","","0","1","0","","0.282726532","false","230","","0.1413021421","main_expt","","0.282726532","","0.03848872117","","0.1450818377","","","","","",""
"11","","bandit","306","886029","0.0-268.0-0.0","30903306","wem/bandit_single","A3OV174HQJIJK8","pain","4","","74","J","1","","0","1","0","","0.3472256411","false","231","","0.1745796094","main_expt","","0.3472256411","","0.04669383004","","0.1077137685","","","","","",""
"38","","bandit","307","887831","0.0-269.0-0.0","30903306","wem/bandit_single","A3OV174HQJIJK8","pain","4","","74","J","1","","0","0","1","","0.3994934702","false","232","","0.1680880834","main_expt","","0.3994934702","","0.03395804074","","0.06427161289","","","","","",""
"788","","bandit","308","890382","0.0-270.0-0.0","30903306","wem/bandit_single","A3OV174HQJIJK8","pain","4","","74","J","1","","0","0","1","","0.4029083043","false","233","","0.213250795","main_expt","","0.4029083043","","0.05150109453","","0.1060089469","","","","","",""
"224","","bandit","309","892368","0.0-271.0-0.0","30903306","wem/bandit_single","A3OV174HQJIJK8","pain","4","","74","J","1","","0","0","1","","0.4486287737","false","234","","0.221091899","main_expt","","0.4486287737","","0.06099663442","","0.1117154146","","","","","",""
"44","","bandit","310","894175","0.0-272.0-0.0","30903306","wem/bandit_single","A3OV174HQJIJK8","pain","4","","74","J","1","","0","0","1","","0.4561120354","false","235","","0.2688923835","main_expt","","0.4561120354","","0.05202127711","","0.1276115887","","","","","",""
"629","","bandit","311","896566","0.0-273.0-0.0","30903306","wem/bandit_single","A3OV174HQJIJK8","pain","4","","74","J","1","","0","1","0","","0.4375102443","false","236","","0.2323123402","main_expt","","0.4375102443","","0.07001303924","","0.1786916187","","","","","",""
"150","","bandit","312","898479","0.0-274.0-0.0","30903306","wem/bandit_single","A3OV174HQJIJK8","pain","4","","74","J","1","","0","1","0","","0.4582573195","false","237","","0.174764536","main_expt","","0.4582573195","","0.07602679398","","0.1896980961","","","","","",""
"798","","bandit","313","901038","0.0-275.0-0.0","30903306","wem/bandit_single","A3OV174HQJIJK8","pain","4","","74","J","1","","0","0","1","","0.4463811869","false","238","","0.1654919337","main_expt","","0.4463811869","","0.08775462142","","0.2205101014","","","","","",""
"56","","bandit","314","902855","0.0-276.0-0.0","30903306","wem/bandit_single","A3OV174HQJIJK8","pain","4","","74","J","1","","0","0","1","","0.4507479662","false","239","","0.2402574844","main_expt","","0.4507479662","","0.06721086637","","0.2661717939","","","","","",""
"78","","bandit","315","904695","0.0-277.0-0.0","30903306","wem/bandit_single","A3OV174HQJIJK8","pain","4","","74","J","1","","0","1","0","","0.4504038859","false","240","","0.2445968751","main_expt","","0.4504038859","","0.07433064979","","0.1972661282","","","","","",""
"61","","bandit","316","906517","0.0-278.0-0.0","30903306","wem/bandit_single","A3OV174HQJIJK8","pain","4","","74","J","1","","0","0","1","","0.4346931185","false","241","","0.2708632627","main_expt","","0.4346931185","","0.08919714094","","0.1868253343","","","","","",""
"131","","bandit","317","908409","0.0-279.0-0.0","30903306","wem/bandit_single","A3OV174HQJIJK8","pain","4","","74","J","1","","0","0","1","","0.3898892773","false","242","","0.2047807489","main_expt","","0.3898892773","","0.06159770715","","0.1649449253","","","","","",""
"1027","","bandit","318","911200","0.0-280.0-0.0","30903306","wem/bandit_single","A3OV174HQJIJK8","pain","4","","74","J","1","","0","0","1","","0.4033463229","false","243","","0.222122474","main_expt","","0.4033463229","","0.05299296545","","0.184368772","","","","","",""
"596","","bandit","319","913556","0.0-281.0-0.0","30903306","wem/bandit_single","A3OV174HQJIJK8","pain","4","","75","K","2","","0","0","1","","0.06275569833","false","244","","0.2425992204","main_expt","","0.4096532456","","0.06275569833","","0.2121467569","","","","","",""
"104","","bandit","320","915423","0.0-282.0-0.0","30903306","wem/bandit_single","A3OV174HQJIJK8","pain","4","","76","L","3","","0","0","1","","0.1894702338","false","245","","0.2173978931","main_expt","","0.3779527256","","0.06673215917","","0.1894702338","","","","","",""
"26","","bandit","321","917213","0.0-283.0-0.0","30903306","wem/bandit_single","A3OV174HQJIJK8","pain","4","","72","H","0","img/none_selected.jpg","0","0","1","","0.2218069129","false","246","","0.2218069129","main_expt","","0.3953318503","","0.06500670021","","0.2018459735","","","","","",""
"984","","bandit","322","919959","0.0-284.0-0.0","30903306","wem/bandit_single","A3OV174HQJIJK8","pain","4","","72","H","0","img/none_selected.jpg","0","0","1","","0.1888628326","false","247","","0.1888628326","main_expt","","0.4287890539","","0.07271559664","","0.1986179994","","","","","",""
"213","","bandit","323","921933","0.0-285.0-0.0","30903306","wem/bandit_single","A3OV174HQJIJK8","pain","4","","74","J","1","","0","0","1","","0.4104310255","false","248","","0.1722509531","main_expt","","0.4104310255","","0.09654775784","","0.1299779064","","","","","",""
"480","","bandit","324","924174","0.0-286.0-0.0","30903306","wem/bandit_single","A3OV174HQJIJK8","pain","4","","74","J","1","","0","0","1","","0.4116337798","false","249","","0.2541205998","main_expt","","0.4116337798","","0.1179039307","","0.1590650881","","","","","",""
"22","","bandit","325","925958","0.0-287.0-0.0","30903306","wem/bandit_single","A3OV174HQJIJK8","pain","4","","75","K","2","","0","0","1","","0.1265890049","false","250","","0.2664885101","main_expt","","0.426505214","","0.1265890049","","0.1213614167","","","","","",""
"85","","bandit","326","927804","0.0-288.0-0.0","30903306","wem/bandit_single","A3OV174HQJIJK8","pain","4","","75","K","2","","0","0","1","","0.1039398773","false","251","","0.2519669898","main_expt","","0.3949293487","","0.1039398773","","0.1099334476","","","","","",""
"89","","bandit","327","929653","0.0-289.0-0.0","30903306","wem/bandit_single","A3OV174HQJIJK8","pain","4","","76","L","3","","0","0","1","","0.1087011898","false","252","","0.2932098873","main_expt","","0.3913077142","","0.107940897","","0.1087011898","","","","","",""
"1357","","bandit","328","932773","0.0-290.0-0.0","30903306","wem/bandit_single","A3OV174HQJIJK8","pain","4","","76","L","3","","0","0","1","","0.09397011719","false","253","","0.3179249839","main_expt","","0.3648650894","","0.1136461566","","0.09397011719","","","","","",""
"230","","bandit","329","934764","0.0-291.0-0.0","30903306","wem/bandit_single","A3OV174HQJIJK8","pain","4","","74","J","1","","0","1","0","","0.3452883024","false","254","","0.2908620441","main_expt","","0.3452883024","","0.1374631792","","0.08474648857","","","","","",""
"217","","bandit","330","936742","0.0-292.0-0.0","30903306","wem/bandit_single","A3OV174HQJIJK8","pain","4","","74","J","1","","0","1","0","","0.2943306686","false","255","","0.3067265453","main_expt","","0.2943306686","","0.1453945637","","0.1025854271","","","","","",""
"909","","bandit","331","939412","0.0-293.0-0.0","30903306","wem/bandit_single","A3OV174HQJIJK8","pain","4","","74","J","1","","0","1","0","","0.3225000795","false","256","","0.3133222149","main_expt","","0.3225000795","","0.1543600678","","0.08686152536","","","","","",""
"23","","bandit","332","941196","0.0-294.0-0.0","30903306","wem/bandit_single","A3OV174HQJIJK8","pain","4","","74","J","1","","0","0","1","","0.3199750271","false","257","","0.3194106209","main_expt","","0.3199750271","","0.107160473","","0.08667022303","","","","","",""
"256","","bandit","333","943213","0.0-295.0-0.0","30903306","wem/bandit_single","A3OV174HQJIJK8","pain","4","","74","J","1","","0","0","1","","0.355105101","false","258","","0.35032938","main_expt","","0.355105101","","0.0567043194","","0.1158580788","","","","","",""
"413","","bandit","334","945387","0.0-296.0-0.0","30903306","wem/bandit_single","A3OV174HQJIJK8","pain","4","","74","J","1","","0","0","1","","0.3566572827","false","259","","0.3856615787","main_expt","","0.3566572827","","0.05418204449","","0.08241329339","","","","","",""
"279","","bandit","335","947428","0.0-297.0-0.0","30903306","wem/bandit_single","A3OV174HQJIJK8","pain","4","","74","J","1","","0","0","1","","0.3492833521","false","260","","0.3977147975","main_expt","","0.3492833521","","0.0423658587","","0.09346186364","","","","","",""
"96","","bandit","336","949283","0.0-298.0-0.0","30903306","wem/bandit_single","A3OV174HQJIJK8","pain","4","","74","J","1","","0","0","1","","0.3406934897","false","261","","0.4011116255","main_expt","","0.3406934897","","0.08097208102","","0.07434745577","","","","","",""
"414","","bandit","337","951461","0.0-299.0-0.0","30903306","wem/bandit_single","A3OV174HQJIJK8","pain","4","","75","K","2","","0","0","1","","0.05731993864","false","262","","0.4149706566","main_expt","","0.3604065233","","0.05731993864","","0.1177047137","","","","","",""
"268","","bandit","338","953492","0.0-300.0-0.0","30903306","wem/bandit_single","A3OV174HQJIJK8","pain","4","","75","K","2","","0","0","1","","0.07314079116","false","263","","0.4476629791","main_expt","","0.3584147688","","0.07314079116","","0.09530987449","","","","","",""
"1278","","bandit","339","956532","0.0-301.0-0.0","30903306","wem/bandit_single","A3OV174HQJIJK8","pain","4","","76","L","3","","0","0","1","","0.07595610255","false","264","","0.4640453953","main_expt","","0.3723043834","","0.08382102311","","0.07595610255","","","","","",""
"221","","bandit","340","958517","0.0-302.0-0.0","30903306","wem/bandit_single","A3OV174HQJIJK8","pain","4","","76","L","3","","0","0","1","","0.08850347459","false","265","","0.4465377191","main_expt","","0.316280577","","0.1065624759","","0.08850347459","","","","","",""
"131","","bandit","341","960413","0.0-303.0-0.0","30903306","wem/bandit_single","A3OV174HQJIJK8","pain","4","","72","H","0","img/none_selected.jpg","0","1","0","","0.4183068553","false","266","","0.4183068553","main_expt","","0.269287162","","0.1253885588","","0.1215706641","","","","","",""
"1230","","bandit","342","963403","0.0-304.0-0.0","30903306","wem/bandit_single","A3OV174HQJIJK8","pain","4","","72","H","0","img/none_selected.jpg","0","0","1","","0.4268145795","false","267","","0.4268145795","main_expt","","0.2280314931","","0.09016252172","","0.1841144129","","","","","",""
"328","","bandit","343","965491","0.0-305.0-0.0","30903306","wem/bandit_single","A3OV174HQJIJK8","pain","4","","72","H","0","img/none_selected.jpg","0","0","1","","0.4319202891","false","268","","0.4319202891","main_expt","","0.2243604643","","0.08700052181","","0.1409141681","","","","","",""
"317","","bandit","344","967571","0.0-306.0-0.0","30903306","wem/bandit_single","A3OV174HQJIJK8","pain","4","","72","H","0","img/none_selected.jpg","0","0","1","","0.4493038861","false","269","","0.4493038861","main_expt","","0.2334807581","","0.09500676271","","0.1011197226","","","","","",""
"1830","","bandit","345","971163","0.0-307.0-0.0","30903306","wem/bandit_single","A3OV174HQJIJK8","pain","4","","72","H","0","img/none_selected.jpg","0","0","1","","0.443059266","false","270","","0.443059266","main_expt","","0.2376518603","","0.07607499825","","0.118556502","","","","","",""
"240","","bandit","346","973166","0.0-308.0-0.0","30903306","wem/bandit_single","A3OV174HQJIJK8","pain","4","","72","H","0","img/none_selected.jpg","0","1","0","","0.4362671961","false","271","","0.4362671961","main_expt","","0.2139372972","","0.08946946819","","0.131750931","","","","","",""
"42","","bandit","347","974971","0.0-309.0-0.0","30903306","wem/bandit_single","A3OV174HQJIJK8","pain","4","","72","H","0","img/none_selected.jpg","0","1","0","","0.4452199348","false","272","","0.4452199348","main_expt","","0.157688628","","0.108288805","","0.174678733","","","","","",""
"1101","","bandit","348","977836","0.0-310.0-0.0","30903306","wem/bandit_single","A3OV174HQJIJK8","pain","4","","72","H","0","img/none_selected.jpg","0","0","1","","0.454652927","false","273","","0.454652927","main_expt","","0.271098703","","0.105491008","","0.1730415972","","","","","",""
"325","","bandit","349","979925","0.0-311.0-0.0","30903306","wem/bandit_single","A3OV174HQJIJK8","pain","4","","72","H","0","img/none_selected.jpg","0","0","1","","0.4646374989","false","274","","0.4646374989","main_expt","","0.2778056479","","0.1059149547","","0.1520576313","","","","","",""
"1003","","bandit","350","982692","0.0-312.0-0.0","30903306","wem/bandit_single","A3OV174HQJIJK8","pain","4","","72","H","0","img/none_selected.jpg","0","1","0","","0.4535579815","false","275","","0.4535579815","main_expt","","0.2698457611","","0.09894283875","","0.1007060326","","","","","",""
"85","","bandit","351","984540","0.0-313.0-0.0","30903306","wem/bandit_single","A3OV174HQJIJK8","pain","4","","72","H","0","img/none_selected.jpg","0","1","0","","0.4319407295","false","276","","0.4319407295","main_expt","","0.2774836338","","0.07695295732","","0.08844777519","","","","","",""
"60","","bandit","352","986363","0.0-314.0-0.0","30903306","wem/bandit_single","A3OV174HQJIJK8","pain","4","","72","H","0","img/none_selected.jpg","0","0","1","","0.4475260374","false","277","","0.4475260374","main_expt","","0.3222794015","","0.0896712608","","0.1315613084","","","","","",""
"85","","bandit","353","988211","0.0-315.0-0.0","30903306","wem/bandit_single","A3OV174HQJIJK8","pain","4","","72","H","0","img/none_selected.jpg","0","1","0","","0.4553849104","false","278","","0.4553849104","main_expt","","0.3122447371","","0.1343695578","","0.1508492864","","","","","",""
"7","","bandit","354","989982","0.0-316.0-0.0","30903306","wem/bandit_single","A3OV174HQJIJK8","pain","4","","72","H","0","img/none_selected.jpg","0","1","0","","0.4621871954","false","279","","0.4621871954","main_expt","","0.2934764685","","0.1106050404","","0.1181182825","","","","","",""
"1162","","bandit","355","992906","0.0-317.0-0.0","30903306","wem/bandit_single","A3OV174HQJIJK8","pain","4","","72","H","0","img/none_selected.jpg","0","1","0","","0.4482597109","false","280","","0.4482597109","main_expt","","0.290984208","","0.114105974","","0.1244803533","","","","","",""
"7","","bandit","356","994674","0.0-318.0-0.0","30903306","wem/bandit_single","A3OV174HQJIJK8","pain","4","","72","H","0","img/none_selected.jpg","0","0","1","","0.4347423019","false","281","","0.4347423019","main_expt","","0.2974260948","","0.1246337516","","0.105821284","","","","","",""
"62","","bandit","357","996498","0.0-319.0-0.0","30903306","wem/bandit_single","A3OV174HQJIJK8","pain","4","","72","H","0","img/none_selected.jpg","0","0","1","","0.4583393623","false","282","","0.4583393623","main_expt","","0.2972171025","","0.079988156","","0.1562468179","","","","","",""
"3903","","bandit","358","1002165","0.0-320.0-0.0","30903306","wem/bandit_single","A3OV174HQJIJK8","pain","4","","72","H","0","img/none_selected.jpg","0","1","0","","0.4497532375","false","283","","0.4497532375","main_expt","","0.2821487798","","0.06901380195","","0.1478322318","","","","","",""
"531","","bandit","359","1004458","0.0-321.0-0.0","30903306","wem/bandit_single","A3OV174HQJIJK8","pain","4","","72","H","0","img/none_selected.jpg","0","0","1","","0.4312811421","false","284","","0.4312811421","main_expt","","0.2739939459","","0.05901051183","","0.1371678423","","","","","",""
"652","","bandit","360","1006873","0.0-322.0-0.0","30903306","wem/bandit_single","A3OV174HQJIJK8","pain","4","","72","H","0","img/none_selected.jpg","0","0","1","","0.4599346403","false","285","","0.4599346403","main_expt","","0.2251097973","","0.1126944794","","0.12762277","","","","","",""
"1693","","bandit","361","1010331","0.0-323.0-0.0","30903306","wem/bandit_single","A3OV174HQJIJK8","pain","4","","72","H","0","img/none_selected.jpg","0","0","1","","0.4588450488","false","286","","0.4588450488","main_expt","","0.2124690726","","0.09646131279","","0.1587978561","","","","","",""
"150","","bandit","362","1012244","0.0-324.0-0.0","30903306","wem/bandit_single","A3OV174HQJIJK8","pain","4","","72","H","0","img/none_selected.jpg","0","0","1","","0.4684539465","false","287","","0.4684539465","main_expt","","0.2311163105","","0.0795853072","","0.1262084743","","","","","",""
"251","","bandit","363","1014258","0.0-325.0-0.0","30903306","wem/bandit_single","A3OV174HQJIJK8","pain","4","","74","J","1","","0","1","0","","0.2178761709","false","288","","0.4555823871","main_expt","","0.2178761709","","0.07210460151","","0.08849331384","","","","","",""
"46","","bandit","364","1016065","0.0-326.0-0.0","30903306","wem/bandit_single","A3OV174HQJIJK8","pain","4","","74","J","1","","0","0","1","","0.2656120211","false","289","","0.4779982095","main_expt","","0.2656120211","","0.08807043944","","0.1082793638","","","","","",""
"183","","bandit","365","1018009","0.0-327.0-0.0","30903306","wem/bandit_single","A3OV174HQJIJK8","pain","4","","74","J","1","","0","0","1","","0.2756957417","false","290","","0.4806691972","main_expt","","0.2756957417","","0.09097769709","","0.1591187351","","","","","",""
"1590","","bandit","366","1021361","0.0-328.0-0.0","30903306","wem/bandit_single","A3OV174HQJIJK8","pain","4","","74","J","1","","0","1","0","","0.3111580235","false","291","","0.4856322508","main_expt","","0.3111580235","","0.1486720085","","0.1766493085","","","","","",""
"159","","bandit","367","1023283","0.0-329.0-0.0","30903306","wem/bandit_single","A3OV174HQJIJK8","pain","4","","74","J","1","","0","0","1","","0.3019137931","false","292","","0.4905538215","main_expt","","0.3019137931","","0.166368556","","0.1303677554","","","","","",""
"602","","bandit","368","1025649","0.0-330.0-0.0","30903306","wem/bandit_single","A3OV174HQJIJK8","pain","4","","74","J","1","","0","0","1","","0.2930542664","false","293","","0.4915741327","main_expt","","0.2930542664","","0.1516979355","","0.1553518032","","","","","",""
"1119","","bandit","369","1028529","0.0-331.0-0.0","30903306","wem/bandit_single","A3OV174HQJIJK8","pain","4","","75","K","2","","0","0","1","","0.142642289","false","294","","0.4854109815","main_expt","","0.294566814","","0.142642289","","0.1586445557","","","","","",""
"1012","","bandit","370","1031305","0.0-332.0-0.0","30903306","wem/bandit_single","A3OV174HQJIJK8","pain","4","","76","L","3","","0","0","1","","0.1474370852","false","295","","0.4737464351","main_expt","","0.2590601899","","0.1038045902","","0.1474370852","","","","","",""
"766","","bandit","371","1033834","0.0-333.0-0.0","30903306","wem/bandit_single","A3OV174HQJIJK8","pain","4","","72","H","0","img/none_selected.jpg","0","1","0","","0.4752126994","false","296","","0.4752126994","main_expt","","0.260130188","","0.1055366566","","0.1281429101","","","","","",""
"45","","bandit","372","1035642","0.0-334.0-0.0","30903306","wem/bandit_single","A3OV174HQJIJK8","pain","4","","72","H","0","img/none_selected.jpg","0","1","0","","0.47087989","false","297","","0.47087989","main_expt","","0.243487995","","0.07292146603","","0.1486346553","","","","","",""
"827","","bandit","373","1038232","0.0-335.0-0.0","30903306","wem/bandit_single","A3OV174HQJIJK8","pain","4","","72","H","0","img/none_selected.jpg","0","1","0","","0.454436629","false","298","","0.454436629","main_expt","","0.2746908113","","0.07361350609","","0.154412059","","","","","",""
