"rt","responses","trial_type","trial_index","time_elapsed","internal_node_id","subjID","study","MID","cond","drift","key_press","respCharCode","respKey","respChoiceNum","respChoice","gems","bombs","no_reward","GemPrChosen","BombPrChosen","practice","trial_counter","WinPr_0","LosePr_0","trial_label","WinPr_1","LosePr_1","WinPr_2","LosePr_2","WinPr_3","LosePr_3","Q0","Q1","Q2","gender","age","ethnicity"
"28653","{""Q0"":""A32UE0WDFAUWBE""}","survey-text","0","28659","0.0-0.0","31104900","wem/bandit_single","A32UE0WDFAUWBE","pain","5","","","","","","","","","","","","","","","","","","","","","","","","","","",""
"2032","","text","1","31693","0.0-1.0","31104900","wem/bandit_single","A32UE0WDFAUWBE","pain","5","32","","","","","","","","","","","","","","","","","","","","","","","","","",""
"334","","text","2","32028","0.0-2.0","31104900","wem/bandit_single","A32UE0WDFAUWBE","pain","5","32","","","","","","","","","","","","","","","","","","","","","","","","","",""
"390","","text","3","32420","0.0-3.0","31104900","wem/bandit_single","A32UE0WDFAUWBE","pain","5","32","","","","","","","","","","","","","","","","","","","","","","","","","",""
"255","","text","4","32676","0.0-4.0","31104900","wem/bandit_single","A32UE0WDFAUWBE","pain","5","32","","","","","","","","","","","","","","","","","","","","","","","","","",""
"151","","text","5","32828","0.0-5.0","31104900","wem/bandit_single","A32UE0WDFAUWBE","pain","5","32","","","","","","","","","","","","","","","","","","","","","","","","","",""
"191","","text","6","33020","0.0-6.0","31104900","wem/bandit_single","A32UE0WDFAUWBE","pain","5","32","","","","","","","","","","","","","","","","","","","","","","","","","",""
"143","","text","7","33164","0.0-7.0","31104900","wem/bandit_single","A32UE0WDFAUWBE","pain","5","32","","","","","","","","","","","","","","","","","","","","","","","","","",""
"159","","text","8","33324","0.0-8.0","31104900","wem/bandit_single","A32UE0WDFAUWBE","pain","5","32","","","","","","","","","","","","","","","","","","","","","","","","","",""
"136","","text","9","33460","0.0-9.0","31104900","wem/bandit_single","A32UE0WDFAUWBE","pain","5","32","","","","","","","","","","","","","","","","","","","","","","","","","",""
"167","","text","10","33628","0.0-10.0","31104900","wem/bandit_single","A32UE0WDFAUWBE","pain","5","32","","","","","","","","","","","","","","","","","","","","","","","","","",""
"936","","text","11","34564","0.0-11.0","31104900","wem/bandit_single","A32UE0WDFAUWBE","pain","5","32","","","","","","","","","","","","","","","","","","","","","","","","","",""
"2358","","bandit","12","38427","0.0-12.0-0.0","31104900","wem/bandit_single","A32UE0WDFAUWBE","pain","5","","74","J","0","img/none_selected_demo.jpg","0","0","1","0","0","true","0","0","0","","","","","","","","","","","","",""
"342","","bandit","13","40521","0.0-13.0-0.0","31104900","wem/bandit_single","A32UE0WDFAUWBE","pain","5","","75","K","0","img/none_selected_demo.jpg","0","0","1","0","0","true","0","0","0","","","","","","","","","","","","",""
"1000","","text","14","41773","0.0-14.0","31104900","wem/bandit_single","A32UE0WDFAUWBE","pain","5","32","","","","","","","","","","","","","","","","","","","","","","","","","",""
"319","","text","15","42093","0.0-15.0","31104900","wem/bandit_single","A32UE0WDFAUWBE","pain","5","32","","","","","","","","","","","","","","","","","","","","","","","","","",""
"207","","text","16","42300","0.0-16.0","31104900","wem/bandit_single","A32UE0WDFAUWBE","pain","5","32","","","","","","","","","","","","","","","","","","","","","","","","","",""
"183","","text","17","42484","0.0-17.0","31104900","wem/bandit_single","A32UE0WDFAUWBE","pain","5","32","","","","","","","","","","","","","","","","","","","","","","","","","",""
"776","","bandit","18","44762","0.0-18.0-0.0","31104900","wem/bandit_single","A32UE0WDFAUWBE","pain","5","","74","J","0","img/none_selected_demo.jpg","0","1","0","0","0.8","true","0","0","0.8","80_20_practice","0","0.2","","","","","","","","","",""
"46","","bandit","19","46563","0.0-18.0-1.0","31104900","wem/bandit_single","A32UE0WDFAUWBE","pain","5","","74","J","0","img/none_selected_demo.jpg","0","0","1","0","0.8","true","0","0","0.8","80_20_practice","0","0.2","","","","","","","","","",""
"180","","bandit","20","48498","0.0-18.0-2.0","31104900","wem/bandit_single","A32UE0WDFAUWBE","pain","5","","74","J","0","img/none_selected_demo.jpg","0","1","0","0","0.8","true","0","0","0.8","80_20_practice","0","0.2","","","","","","","","","",""
"37","","bandit","21","50289","0.0-18.0-3.0","31104900","wem/bandit_single","A32UE0WDFAUWBE","pain","5","","74","J","0","img/none_selected_demo.jpg","0","1","0","0","0.8","true","0","0","0.8","80_20_practice","0","0.2","","","","","","","","","",""
"246","","bandit","22","52289","0.0-18.0-4.0","31104900","wem/bandit_single","A32UE0WDFAUWBE","pain","5","","75","K","1","","0","0","1","0","0.2","true","0","0","0.8","80_20_practice","0","0.2","","","","","","","","","",""
"198","","bandit","23","54252","0.0-18.0-5.0","31104900","wem/bandit_single","A32UE0WDFAUWBE","pain","5","","75","K","1","","0","1","0","0","0.2","true","0","0","0.8","80_20_practice","0","0.2","","","","","","","","","",""
"21","","bandit","24","56026","0.0-18.0-6.0","31104900","wem/bandit_single","A32UE0WDFAUWBE","pain","5","","74","J","0","img/none_selected_demo.jpg","0","1","0","0","0.8","true","0","0","0.8","80_20_practice","0","0.2","","","","","","","","","",""
"151","","bandit","25","57930","0.0-18.0-7.0","31104900","wem/bandit_single","A32UE0WDFAUWBE","pain","5","","75","K","1","","0","0","1","0","0.2","true","0","0","0.8","80_20_practice","0","0.2","","","","","","","","","",""
"255","","bandit","26","59937","0.0-18.0-8.0","31104900","wem/bandit_single","A32UE0WDFAUWBE","pain","5","","74","J","0","img/none_selected_demo.jpg","0","1","0","0","0.8","true","0","0","0.8","80_20_practice","0","0.2","","","","","","","","","",""
"150","","bandit","27","61841","0.0-18.0-9.0","31104900","wem/bandit_single","A32UE0WDFAUWBE","pain","5","","74","J","0","img/none_selected_demo.jpg","0","1","0","0","0.8","true","0","0","0.8","80_20_practice","0","0.2","","","","","","","","","",""
"8","","bandit","28","63603","0.0-18.0-10.0","31104900","wem/bandit_single","A32UE0WDFAUWBE","pain","5","","75","K","1","","0","1","0","0","0.2","true","0","0","0.8","80_20_practice","0","0.2","","","","","","","","","",""
"6","","bandit","29","65362","0.0-18.0-11.0","31104900","wem/bandit_single","A32UE0WDFAUWBE","pain","5","","75","K","1","","0","0","1","0","0.2","true","0","0","0.8","80_20_practice","0","0.2","","","","","","","","","",""
"175","","bandit","30","67291","0.0-18.0-12.0","31104900","wem/bandit_single","A32UE0WDFAUWBE","pain","5","","75","K","1","","0","1","0","0","0.2","true","0","0","0.8","80_20_practice","0","0.2","","","","","","","","","",""
"39","","bandit","31","69084","0.0-18.0-13.0","31104900","wem/bandit_single","A32UE0WDFAUWBE","pain","5","","75","K","1","","0","0","1","0","0.2","true","0","0","0.8","80_20_practice","0","0.2","","","","","","","","","",""
"197","","bandit","32","71035","0.0-18.0-14.0","31104900","wem/bandit_single","A32UE0WDFAUWBE","pain","5","","75","K","1","","0","0","1","0","0.2","true","0","0","0.8","80_20_practice","0","0.2","","","","","","","","","",""
"61","","bandit","33","72851","0.0-18.0-15.0","31104900","wem/bandit_single","A32UE0WDFAUWBE","pain","5","","75","K","1","","0","0","1","0","0.2","true","0","0","0.8","80_20_practice","0","0.2","","","","","","","","","",""
"45","","bandit","34","74652","0.0-18.0-16.0","31104900","wem/bandit_single","A32UE0WDFAUWBE","pain","5","","75","K","1","","0","0","1","0","0.2","true","0","0","0.8","80_20_practice","0","0.2","","","","","","","","","",""
"148","","bandit","35","76556","0.0-18.0-17.0","31104900","wem/bandit_single","A32UE0WDFAUWBE","pain","5","","75","K","1","","0","0","1","0","0.2","true","0","0","0.8","80_20_practice","0","0.2","","","","","","","","","",""
"119","","bandit","36","78426","0.0-18.0-18.0","31104900","wem/bandit_single","A32UE0WDFAUWBE","pain","5","","74","J","0","img/none_selected_demo.jpg","0","0","1","0","0.8","true","0","0","0.8","80_20_practice","0","0.2","","","","","","","","","",""
"144","","bandit","37","80331","0.0-18.0-19.0","31104900","wem/bandit_single","A32UE0WDFAUWBE","pain","5","","74","J","0","img/none_selected_demo.jpg","0","1","0","0","0.8","true","0","0","0.8","80_20_practice","0","0.2","","","","","","","","","",""
"992","","text","38","81575","0.0-19.0","31104900","wem/bandit_single","A32UE0WDFAUWBE","pain","5","32","","","","","","","","","","","","","","","","","","","","","","","","","",""
"806","","bandit","39","83884","0.0-20.0-0.0","31104900","wem/bandit_single","A32UE0WDFAUWBE","pain","5","","74","J","0","img/none_selected_demo.jpg","0","0","1","0","0","true","0","0","0","","0","0","","","","","","","","","",""
"175","","text","40","84310","0.0-21.0","31104900","wem/bandit_single","A32UE0WDFAUWBE","pain","5","75","","","","","","","","","","","","","","","","","","","","","","","","","",""
"1127","","text","41","85439","0.0-22.0","31104900","wem/bandit_single","A32UE0WDFAUWBE","pain","5","32","","","","","","","","","","","","","","","","","","","","","","","","","",""
"318","","text","42","85759","0.0-23.0","31104900","wem/bandit_single","A32UE0WDFAUWBE","pain","5","32","","","","","","","","","","","","","","","","","","","","","","","","","",""
"223","","text","43","85983","0.0-24.0","31104900","wem/bandit_single","A32UE0WDFAUWBE","pain","5","32","","","","","","","","","","","","","","","","","","","","","","","","","",""
"183","","text","44","86166","0.0-25.0","31104900","wem/bandit_single","A32UE0WDFAUWBE","pain","5","32","","","","","","","","","","","","","","","","","","","","","","","","","",""
"183","","text","45","86351","0.0-26.0","31104900","wem/bandit_single","A32UE0WDFAUWBE","pain","5","32","","","","","","","","","","","","","","","","","","","","","","","","","",""
"198","","text","46","86550","0.0-27.0","31104900","wem/bandit_single","A32UE0WDFAUWBE","pain","5","32","","","","","","","","","","","","","","","","","","","","","","","","","",""
"207","","text","47","86759","0.0-28.0","31104900","wem/bandit_single","A32UE0WDFAUWBE","pain","5","32","","","","","","","","","","","","","","","","","","","","","","","","","",""
"207","","text","48","86967","0.0-29.0","31104900","wem/bandit_single","A32UE0WDFAUWBE","pain","5","32","","","","","","","","","","","","","","","","","","","","","","","","","",""
"471","","text","49","87440","0.0-30.0","31104900","wem/bandit_single","A32UE0WDFAUWBE","pain","5","32","","","","","","","","","","","","","","","","","","","","","","","","","",""
"221","","text","50","87662","0.0-31.0","31104900","wem/bandit_single","A32UE0WDFAUWBE","pain","5","32","","","","","","","","","","","","","","","","","","","","","","","","","",""
"974","","bandit","51","90140","0.0-32.0-0.0","31104900","wem/bandit_single","A32UE0WDFAUWBE","pain","5","","74","J","1","","0","0","1","0","0.2","true","0","0","0.8","full_practice","0","0.2","0","0.6","0","0.2","","","","","",""
"47","","bandit","52","91939","0.0-32.0-1.0","31104900","wem/bandit_single","A32UE0WDFAUWBE","pain","5","","75","K","2","","0","1","0","0","0.6","true","0","0","0.8","full_practice","0","0.2","0","0.6","0","0.2","","","","","",""
"1199","","bandit","53","94891","0.0-32.0-2.0","31104900","wem/bandit_single","A32UE0WDFAUWBE","pain","5","","76","L","3","","0","0","1","0","0.2","true","0","0","0.8","full_practice","0","0.2","0","0.6","0","0.2","","","","","",""
"159","","bandit","54","96806","0.0-32.0-3.0","31104900","wem/bandit_single","A32UE0WDFAUWBE","pain","5","","72","H","0","img/none_selected.jpg","0","1","0","0","0.8","true","0","0","0.8","full_practice","0","0.2","0","0.6","0","0.2","","","","","",""
"45","","bandit","55","98603","0.0-32.0-4.0","31104900","wem/bandit_single","A32UE0WDFAUWBE","pain","5","","74","J","1","","0","0","1","0","0.2","true","0","0","0.8","full_practice","0","0.2","0","0.6","0","0.2","","","","","",""
"167","","bandit","56","100525","0.0-32.0-5.0","31104900","wem/bandit_single","A32UE0WDFAUWBE","pain","5","","75","K","2","","0","1","0","0","0.6","true","0","0","0.8","full_practice","0","0.2","0","0.6","0","0.2","","","","","",""
"103","","bandit","57","102381","0.0-32.0-6.0","31104900","wem/bandit_single","A32UE0WDFAUWBE","pain","5","","76","L","3","","0","0","1","0","0.2","true","0","0","0.8","full_practice","0","0.2","0","0.6","0","0.2","","","","","",""
"55","","bandit","58","104188","0.0-32.0-7.0","31104900","wem/bandit_single","A32UE0WDFAUWBE","pain","5","","75","K","2","","0","0","1","0","0.6","true","0","0","0.8","full_practice","0","0.2","0","0.6","0","0.2","","","","","",""
"56","","bandit","59","105999","0.0-32.0-8.0","31104900","wem/bandit_single","A32UE0WDFAUWBE","pain","5","","72","H","0","img/none_selected.jpg","0","1","0","0","0.8","true","0","0","0.8","full_practice","0","0.2","0","0.6","0","0.2","","","","","",""
"291","","bandit","60","108045","0.0-32.0-9.0","31104900","wem/bandit_single","A32UE0WDFAUWBE","pain","5","","72","H","0","img/none_selected.jpg","0","0","1","0","0.8","true","0","0","0.8","full_practice","0","0.2","0","0.6","0","0.2","","","","","",""
"21","","bandit","61","109820","0.0-32.0-10.0","31104900","wem/bandit_single","A32UE0WDFAUWBE","pain","5","","72","H","0","img/none_selected.jpg","0","1","0","0","0.8","true","0","0","0.8","full_practice","0","0.2","0","0.6","0","0.2","","","","","",""
"53","","bandit","62","111629","0.0-32.0-11.0","31104900","wem/bandit_single","A32UE0WDFAUWBE","pain","5","","72","H","0","img/none_selected.jpg","0","1","0","0","0.8","true","0","0","0.8","full_practice","0","0.2","0","0.6","0","0.2","","","","","",""
"70","","bandit","63","113453","0.0-32.0-12.0","31104900","wem/bandit_single","A32UE0WDFAUWBE","pain","5","","72","H","0","img/none_selected.jpg","0","1","0","0","0.8","true","0","0","0.8","full_practice","0","0.2","0","0.6","0","0.2","","","","","",""
"446","","bandit","64","115655","0.0-32.0-13.0","31104900","wem/bandit_single","A32UE0WDFAUWBE","pain","5","","72","H","0","img/none_selected.jpg","0","1","0","0","0.8","true","0","0","0.8","full_practice","0","0.2","0","0.6","0","0.2","","","","","",""
"36","","bandit","65","117457","0.0-32.0-14.0","31104900","wem/bandit_single","A32UE0WDFAUWBE","pain","5","","72","H","0","img/none_selected.jpg","0","1","0","0","0.8","true","0","0","0.8","full_practice","0","0.2","0","0.6","0","0.2","","","","","",""
"12","","bandit","66","119221","0.0-32.0-15.0","31104900","wem/bandit_single","A32UE0WDFAUWBE","pain","5","","72","H","0","img/none_selected.jpg","0","1","0","0","0.8","true","0","0","0.8","full_practice","0","0.2","0","0.6","0","0.2","","","","","",""
"16","","bandit","67","120990","0.0-32.0-16.0","31104900","wem/bandit_single","A32UE0WDFAUWBE","pain","5","","72","H","0","img/none_selected.jpg","0","0","1","0","0.8","true","0","0","0.8","full_practice","0","0.2","0","0.6","0","0.2","","","","","",""
"302","","bandit","68","123048","0.0-32.0-17.0","31104900","wem/bandit_single","A32UE0WDFAUWBE","pain","5","","72","H","0","img/none_selected.jpg","0","1","0","0","0.8","true","0","0","0.8","full_practice","0","0.2","0","0.6","0","0.2","","","","","",""
"237","","bandit","69","125039","0.0-32.0-18.0","31104900","wem/bandit_single","A32UE0WDFAUWBE","pain","5","","72","H","0","img/none_selected.jpg","0","0","1","0","0.8","true","0","0","0.8","full_practice","0","0.2","0","0.6","0","0.2","","","","","",""
"140","","bandit","70","126936","0.0-32.0-19.0","31104900","wem/bandit_single","A32UE0WDFAUWBE","pain","5","","72","H","0","img/none_selected.jpg","0","1","0","0","0.8","true","0","0","0.8","full_practice","0","0.2","0","0.6","0","0.2","","","","","",""
"2571","","text","71","129762","0.0-33.0","31104900","wem/bandit_single","A32UE0WDFAUWBE","pain","5","32","","","","","","","","","","","","","","","","","","","","","","","","","",""
"1125","","text","72","131890","0.0-34.0","31104900","wem/bandit_single","A32UE0WDFAUWBE","pain","5","32","","","","","","","","","","","","","","","","","","","","","","","","","",""
"390","","text","73","132282","0.0-35.0","31104900","wem/bandit_single","A32UE0WDFAUWBE","pain","5","32","","","","","","","","","","","","","","","","","","","","","","","","","",""
"206","","text","74","132490","0.0-36.0","31104900","wem/bandit_single","A32UE0WDFAUWBE","pain","5","32","","","","","","","","","","","","","","","","","","","","","","","","","",""
"190","","text","75","132682","0.0-37.0","31104900","wem/bandit_single","A32UE0WDFAUWBE","pain","5","32","","","","","","","","","","","","","","","","","","","","","","","","","",""
"965","","bandit","76","135151","0.0-38.0-0.0","31104900","wem/bandit_single","A32UE0WDFAUWBE","pain","5","","72","H","0","img/none_selected.jpg","0","0","1","","0.04962883862","false","1","","0.04962883862","main_expt","","0.3811303016","","0.1478184891","","0.4657241486","","","","","",""
"30","","bandit","77","136936","0.0-39.0-0.0","31104900","wem/bandit_single","A32UE0WDFAUWBE","pain","5","","74","J","1","","0","0","1","","0.350111504","false","2","","0.03569255153","main_expt","","0.350111504","","0.2081060842","","0.4660849779","","","","","",""
"436","","bandit","78","139127","0.0-40.0-0.0","31104900","wem/bandit_single","A32UE0WDFAUWBE","pain","5","","75","K","2","","0","0","1","","0.1722167697","false","3","","0.02901958263","main_expt","","0.3436486883","","0.1722167697","","0.4687539887","","","","","",""
"79","","bandit","79","140960","0.0-41.0-0.0","31104900","wem/bandit_single","A32UE0WDFAUWBE","pain","5","","76","L","3","","0","1","0","","0.48401473","false","4","","0.04894390993","main_expt","","0.3419997506","","0.1424145416","","0.48401473","","","","","",""
"30","","bandit","80","142743","0.0-42.0-0.0","31104900","wem/bandit_single","A32UE0WDFAUWBE","pain","5","","76","L","3","","0","0","1","","0.4755123677","false","5","","0.04206610475","main_expt","","0.3692180445","","0.1446667298","","0.4755123677","","","","","",""
"46","","bandit","81","144544","0.0-43.0-0.0","31104900","wem/bandit_single","A32UE0WDFAUWBE","pain","5","","76","L","3","","0","1","0","","0.4802482158","false","6","","0.04292771587","main_expt","","0.3602257359","","0.1447199692","","0.4802482158","","","","","",""
"70","","bandit","82","146367","0.0-44.0-0.0","31104900","wem/bandit_single","A32UE0WDFAUWBE","pain","5","","76","L","3","","0","1","0","","0.4780438684","false","7","","0.06035830385","main_expt","","0.3568498895","","0.1001258446","","0.4780438684","","","","","",""
"639","","bandit","83","148759","0.0-45.0-0.0","31104900","wem/bandit_single","A32UE0WDFAUWBE","pain","5","","76","L","3","","0","0","1","","0.4575173044","false","8","","0.09727842944","main_expt","","0.294604339","","0.1244671667","","0.4575173044","","","","","",""
"158","","bandit","84","150671","0.0-46.0-0.0","31104900","wem/bandit_single","A32UE0WDFAUWBE","pain","5","","76","L","3","","0","0","1","","0.4525933246","false","9","","0.07952196982","main_expt","","0.3802768622","","0.1293804987","","0.4525933246","","","","","",""
"329","","bandit","85","152754","0.0-47.0-0.0","31104900","wem/bandit_single","A32UE0WDFAUWBE","pain","5","","76","L","3","","0","1","0","","0.4476408152","false","10","","0.1049852556","main_expt","","0.3530595227","","0.1606810952","","0.4476408152","","","","","",""
"443","","bandit","86","154951","0.0-48.0-0.0","31104900","wem/bandit_single","A32UE0WDFAUWBE","pain","5","","76","L","3","","0","0","1","","0.4484644352","false","11","","0.1118692116","main_expt","","0.358648576","","0.1585385462","","0.4484644352","","","","","",""
"183","","bandit","87","156888","0.0-49.0-0.0","31104900","wem/bandit_single","A32UE0WDFAUWBE","pain","5","","76","L","3","","0","1","0","","0.4466341879","false","12","","0.1270372311","main_expt","","0.3382469396","","0.1492634201","","0.4466341879","","","","","",""
"13365","","bandit","88","172011","0.0-50.0-0.0","31104900","wem/bandit_single","A32UE0WDFAUWBE","pain","5","","72","H","0","img/none_selected.jpg","0","0","1","","0.1278892577","false","13","","0.1278892577","main_expt","","0.3092021245","","0.1106465011","","0.4642511008","","","","","",""
"297","","bandit","89","174065","0.0-51.0-0.0","31104900","wem/bandit_single","A32UE0WDFAUWBE","pain","5","","76","L","3","","0","0","1","","0.4615970843","false","14","","0.1024725346","main_expt","","0.3532484784","","0.1232346967","","0.4615970843","","","","","",""
"1068","","bandit","90","176887","0.0-52.0-0.0","31104900","wem/bandit_single","A32UE0WDFAUWBE","pain","5","","72","H","0","img/none_selected.jpg","0","0","1","","0.1234109619","false","15","","0.1234109619","main_expt","","0.3371384495","","0.1323340596","","0.4692442536","","","","","",""
"133","","bandit","91","178776","0.0-53.0-0.0","31104900","wem/bandit_single","A32UE0WDFAUWBE","pain","5","","74","J","1","","0","0","1","","0.3282622062","false","16","","0.1360550169","main_expt","","0.3282622062","","0.1410223318","","0.4755425263","","","","","",""
"342","","bandit","92","180871","0.0-54.0-0.0","31104900","wem/bandit_single","A32UE0WDFAUWBE","pain","5","","75","K","2","","0","0","1","","0.1498636582","false","17","","0.1070219664","main_expt","","0.3032164303","","0.1498636582","","0.4828633911","","","","","",""
"102","","bandit","93","182727","0.0-55.0-0.0","31104900","wem/bandit_single","A32UE0WDFAUWBE","pain","5","","76","L","3","","0","0","1","","0.4784959143","false","18","","0.09318331203","main_expt","","0.2834034058","","0.1132842199","","0.4784959143","","","","","",""
"76","","bandit","94","184560","0.0-56.0-0.0","31104900","wem/bandit_single","A32UE0WDFAUWBE","pain","5","","72","H","0","img/none_selected.jpg","0","0","1","","0.08644374764","false","19","","0.08644374764","main_expt","","0.376157017","","0.08554013857","","0.4645747316","","","","","",""
"30","","bandit","95","186344","0.0-57.0-0.0","31104900","wem/bandit_single","A32UE0WDFAUWBE","pain","5","","72","H","0","img/none_selected.jpg","0","0","1","","0.1066513301","false","20","","0.1066513301","main_expt","","0.3718288413","","0.1176407844","","0.4441513352","","","","","",""
"71","","bandit","96","188168","0.0-58.0-0.0","31104900","wem/bandit_single","A32UE0WDFAUWBE","pain","5","","74","J","1","","0","1","0","","0.3755251961","false","21","","0.1143532382","main_expt","","0.3755251961","","0.09701455477","","0.4281495132","","","","","",""
"197","","bandit","97","190120","0.0-59.0-0.0","31104900","wem/bandit_single","A32UE0WDFAUWBE","pain","5","","74","J","1","","0","1","0","","0.3536603278","false","22","","0.111858438","main_expt","","0.3536603278","","0.08683592795","","0.4374563715","","","","","",""
"102","","bandit","98","191976","0.0-60.0-0.0","31104900","wem/bandit_single","A32UE0WDFAUWBE","pain","5","","74","J","1","","0","0","1","","0.3908816919","false","23","","0.09088087914","main_expt","","0.3908816919","","0.1062952262","","0.4408316507","","","","","",""
"14","","bandit","99","193747","0.0-61.0-0.0","31104900","wem/bandit_single","A32UE0WDFAUWBE","pain","5","","74","J","1","","0","1","0","","0.3639752867","false","24","","0.1045917755","main_expt","","0.3639752867","","0.1320295984","","0.4249736282","","","","","",""
"188","","bandit","100","195690","0.0-62.0-0.0","31104900","wem/bandit_single","A32UE0WDFAUWBE","pain","5","","74","J","1","","0","0","1","","0.3569796848","false","25","","0.107118439","main_expt","","0.3569796848","","0.18562956","","0.4542404639","","","","","",""
"27","","bandit","101","197473","0.0-63.0-0.0","31104900","wem/bandit_single","A32UE0WDFAUWBE","pain","5","","74","J","1","","0","1","0","","0.3466804264","false","26","","0.08847958778","main_expt","","0.3466804264","","0.1589772959","","0.4707756245","","","","","",""
"53","","bandit","102","199282","0.0-64.0-0.0","31104900","wem/bandit_single","A32UE0WDFAUWBE","pain","5","","74","J","1","","0","1","0","","0.3487144915","false","27","","0.105958259","main_expt","","0.3487144915","","0.1361305173","","0.4492807888","","","","","",""
"45","","bandit","103","201081","0.0-65.0-0.0","31104900","wem/bandit_single","A32UE0WDFAUWBE","pain","5","","74","J","1","","0","1","0","","0.31872733","false","28","","0.09976229861","main_expt","","0.31872733","","0.1517112547","","0.4630254912","","","","","",""
"24","","bandit","104","202858","0.0-66.0-0.0","31104900","wem/bandit_single","A32UE0WDFAUWBE","pain","5","","74","J","1","","0","0","1","","0.3351256986","false","29","","0.1117783291","main_expt","","0.3351256986","","0.1207272987","","0.4582460064","","","","","",""
"333","","bandit","105","204946","0.0-67.0-0.0","31104900","wem/bandit_single","A32UE0WDFAUWBE","pain","5","","74","J","1","","0","0","1","","0.3165147827","false","30","","0.104708879","main_expt","","0.3165147827","","0.06619286558","","0.44398484","","","","","",""
"156","","bandit","106","206857","0.0-68.0-0.0","31104900","wem/bandit_single","A32UE0WDFAUWBE","pain","5","","74","J","1","","0","0","1","","0.3587164307","false","31","","0.1168740313","main_expt","","0.3587164307","","0.08172424971","","0.4662875842","","","","","",""
"30","","bandit","107","208642","0.0-69.0-0.0","31104900","wem/bandit_single","A32UE0WDFAUWBE","pain","5","","74","J","1","","0","1","0","","0.384091524","false","32","","0.1193100679","main_expt","","0.384091524","","0.1118972321","","0.4823207571","","","","","",""
"310","","bandit","108","210707","0.0-70.0-0.0","31104900","wem/bandit_single","A32UE0WDFAUWBE","pain","5","","74","J","1","","0","1","0","","0.3410562849","false","33","","0.1160378653","main_expt","","0.3410562849","","0.07764728595","","0.4887640326","","","","","",""
"132","","bandit","109","212594","0.0-71.0-0.0","31104900","wem/bandit_single","A32UE0WDFAUWBE","pain","5","","74","J","1","","0","0","1","","0.3772037995","false","34","","0.1240203414","main_expt","","0.3772037995","","0.1021677232","","0.4871413525","","","","","",""
"13","","bandit","110","214362","0.0-72.0-0.0","31104900","wem/bandit_single","A32UE0WDFAUWBE","pain","5","","74","J","1","","0","1","0","","0.3601610849","false","35","","0.1568527985","main_expt","","0.3601610849","","0.09263198197","","0.472467875","","","","","",""
"206","","bandit","111","216322","0.0-73.0-0.0","31104900","wem/bandit_single","A32UE0WDFAUWBE","pain","5","","74","J","1","","0","0","1","","0.3199141994","false","36","","0.1887398002","main_expt","","0.3199141994","","0.1395706987","","0.4801988656","","","","","",""
"28","","bandit","112","218106","0.0-74.0-0.0","31104900","wem/bandit_single","A32UE0WDFAUWBE","pain","5","","74","J","1","","0","0","1","","0.3022128767","false","37","","0.1567271146","main_expt","","0.3022128767","","0.1166343238","","0.4658101737","","","","","",""
"77","","bandit","113","219940","0.0-75.0-0.0","31104900","wem/bandit_single","A32UE0WDFAUWBE","pain","5","","74","J","1","","0","0","1","","0.220841548","false","38","","0.1213003185","main_expt","","0.220841548","","0.1344783462","","0.4725237643","","","","","",""
"181","","bandit","114","221874","0.0-76.0-0.0","31104900","wem/bandit_single","A32UE0WDFAUWBE","pain","5","","76","L","3","","0","1","0","","0.4863678522","false","39","","0.1129188575","main_expt","","0.2273815274","","0.1132701409","","0.4863678522","","","","","",""
"238","","bandit","115","223867","0.0-77.0-0.0","31104900","wem/bandit_single","A32UE0WDFAUWBE","pain","5","","76","L","3","","0","1","0","","0.4756100127","false","40","","0.1490040727","main_expt","","0.2216047912","","0.1269330716","","0.4756100127","","","","","",""
"227","","bandit","116","225849","0.0-78.0-0.0","31104900","wem/bandit_single","A32UE0WDFAUWBE","pain","5","","76","L","3","","0","1","0","","0.4644843691","false","41","","0.20555416","main_expt","","0.1790357129","","0.1043764639","","0.4644843691","","","","","",""
"168","","bandit","117","227771","0.0-79.0-0.0","31104900","wem/bandit_single","A32UE0WDFAUWBE","pain","5","","76","L","3","","0","0","1","","0.4595487669","false","42","","0.2458082757","main_expt","","0.1124402831","","0.123259557","","0.4595487669","","","","","",""
"92","","bandit","118","229619","0.0-80.0-0.0","31104900","wem/bandit_single","A32UE0WDFAUWBE","pain","5","","76","L","3","","0","1","0","","0.4598563523","false","43","","0.1980967925","main_expt","","0.1309909921","","0.1523094635","","0.4598563523","","","","","",""
"140","","bandit","119","231514","0.0-81.0-0.0","31104900","wem/bandit_single","A32UE0WDFAUWBE","pain","5","","76","L","3","","0","0","1","","0.4444935065","false","44","","0.2011817551","main_expt","","0.1620245532","","0.1438901127","","0.4444935065","","","","","",""
"61","","bandit","120","233330","0.0-82.0-0.0","31104900","wem/bandit_single","A32UE0WDFAUWBE","pain","5","","76","L","3","","0","0","1","","0.4201454787","false","45","","0.1908172103","main_expt","","0.1962154431","","0.1381896233","","0.4201454787","","","","","",""
"54","","bandit","121","235138","0.0-83.0-0.0","31104900","wem/bandit_single","A32UE0WDFAUWBE","pain","5","","76","L","3","","0","0","1","","0.4420567968","false","46","","0.1682898959","main_expt","","0.1548021256","","0.08118013389","","0.4420567968","","","","","",""
"38","","bandit","122","236932","0.0-84.0-0.0","31104900","wem/bandit_single","A32UE0WDFAUWBE","pain","5","","76","L","3","","0","0","1","","0.4454115659","false","47","","0.114950809","main_expt","","0.155425446","","0.08279503272","","0.4454115659","","","","","",""
"29","","bandit","123","238716","0.0-85.0-0.0","31104900","wem/bandit_single","A32UE0WDFAUWBE","pain","5","","76","L","3","","0","0","1","","0.4409121906","false","48","","0.1231508501","main_expt","","0.2368850053","","0.09757227309","","0.4409121906","","","","","",""
"12","","bandit","124","240483","0.0-86.0-0.0","31104900","wem/bandit_single","A32UE0WDFAUWBE","pain","5","","72","H","0","img/none_selected.jpg","0","0","1","","0.1264715503","false","49","","0.1264715503","main_expt","","0.1712995484","","0.1407466139","","0.4640555105","","","","","",""
"342","","bandit","125","242581","0.0-87.0-0.0","31104900","wem/bandit_single","A32UE0WDFAUWBE","pain","5","","72","H","0","img/none_selected.jpg","0","0","1","","0.1119267987","false","50","","0.1119267987","main_expt","","0.2371897999","","0.1128896644","","0.4619625264","","","","","",""
"515","","bandit","126","244851","0.0-88.0-0.0","31104900","wem/bandit_single","A32UE0WDFAUWBE","pain","5","","75","K","2","","0","0","1","","0.1292206793","false","51","","0.1192285775","main_expt","","0.2520952739","","0.1292206793","","0.4686499241","","","","","",""
"5","","bandit","127","246612","0.0-89.0-0.0","31104900","wem/bandit_single","A32UE0WDFAUWBE","pain","5","","75","K","2","","0","0","1","","0.117204758","false","52","","0.1536714506","main_expt","","0.2201249325","","0.117204758","","0.4721244997","","","","","",""
"44","","bandit","128","248412","0.0-90.0-0.0","31104900","wem/bandit_single","A32UE0WDFAUWBE","pain","5","","74","J","1","","0","0","1","","0.2019083534","false","53","","0.1817289366","main_expt","","0.2019083534","","0.1180232867","","0.4776765754","","","","","",""
"38","","bandit","129","250205","0.0-91.0-0.0","31104900","wem/bandit_single","A32UE0WDFAUWBE","pain","5","","74","J","1","","0","0","1","","0.2133100918","false","54","","0.1664376657","main_expt","","0.2133100918","","0.09503139185","","0.4788042678","","","","","",""
"52","","bandit","130","252012","0.0-92.0-0.0","31104900","wem/bandit_single","A32UE0WDFAUWBE","pain","5","","72","H","0","img/none_selected.jpg","0","0","1","","0.1219288973","false","55","","0.1219288973","main_expt","","0.2210295122","","0.1238025275","","0.4852168201","","","","","",""
"63","","bandit","131","253835","0.0-93.0-0.0","31104900","wem/bandit_single","A32UE0WDFAUWBE","pain","5","","72","H","0","img/none_selected.jpg","0","1","0","","0.1392062569","false","56","","0.1392062569","main_expt","","0.1728424853","","0.1544257673","","0.4860946669","","","","","",""
"85","","bandit","132","255677","0.0-94.0-0.0","31104900","wem/bandit_single","A32UE0WDFAUWBE","pain","5","","72","H","0","img/none_selected.jpg","0","0","1","","0.2060247316","false","57","","0.2060247316","main_expt","","0.2301797189","","0.1492478473","","0.4859962979","","","","","",""
"108","","bandit","133","257539","0.0-95.0-0.0","31104900","wem/bandit_single","A32UE0WDFAUWBE","pain","5","","72","H","0","img/none_selected.jpg","0","0","1","","0.1723567799","false","58","","0.1723567799","main_expt","","0.2820892606","","0.1392181034","","0.4751013025","","","","","",""
"5","","bandit","134","259300","0.0-96.0-0.0","31104900","wem/bandit_single","A32UE0WDFAUWBE","pain","5","","72","H","0","img/none_selected.jpg","0","1","0","","0.16345501","false","59","","0.16345501","main_expt","","0.308641684","","0.1854998728","","0.4816883425","","","","","",""
"23","","bandit","135","261076","0.0-97.0-0.0","31104900","wem/bandit_single","A32UE0WDFAUWBE","pain","5","","72","H","0","img/none_selected.jpg","0","0","1","","0.1552759559","false","60","","0.1552759559","main_expt","","0.3012287428","","0.1306651225","","0.4846541976","","","","","",""
"1237","","bandit","136","264070","0.0-98.0-0.0","31104900","wem/bandit_single","A32UE0WDFAUWBE","pain","5","","72","H","0","img/none_selected.jpg","0","0","1","","0.1652193455","false","61","","0.1652193455","main_expt","","0.263166603","","0.1567024934","","0.4848840061","","","","","",""
"132","","bandit","137","265956","0.0-99.0-0.0","31104900","wem/bandit_single","A32UE0WDFAUWBE","pain","5","","72","H","0","img/none_selected.jpg","0","0","1","","0.1813222976","false","62","","0.1813222976","main_expt","","0.2428038775","","0.1622246099","","0.4856292504","","","","","",""
"70","","bandit","138","267780","0.0-100.0-0.0","31104900","wem/bandit_single","A32UE0WDFAUWBE","pain","5","","72","H","0","img/none_selected.jpg","0","0","1","","0.1727004114","false","63","","0.1727004114","main_expt","","0.2843805899","","0.2196770705","","0.4865153319","","","","","",""
"461","","bandit","139","269996","0.0-101.0-0.0","31104900","wem/bandit_single","A32UE0WDFAUWBE","pain","5","","72","H","0","img/none_selected.jpg","0","1","0","","0.2105999223","false","64","","0.2105999223","main_expt","","0.2895992306","","0.218319606","","0.4874146034","","","","","",""
"919","","bandit","140","272669","0.0-102.0-0.0","31104900","wem/bandit_single","A32UE0WDFAUWBE","pain","5","","72","H","0","img/none_selected.jpg","0","0","1","","0.240225816","false","65","","0.240225816","main_expt","","0.3847688","","0.2278721313","","0.4781609215","","","","","",""
"44","","bandit","141","274469","0.0-103.0-0.0","31104900","wem/bandit_single","A32UE0WDFAUWBE","pain","5","","72","H","0","img/none_selected.jpg","0","0","1","","0.2924754864","false","66","","0.2924754864","main_expt","","0.4083751038","","0.1599393353","","0.4848714892","","","","","",""
"59","","bandit","142","276309","0.0-104.0-0.0","31104900","wem/bandit_single","A32UE0WDFAUWBE","pain","5","","72","H","0","img/none_selected.jpg","0","1","0","","0.2363072125","false","67","","0.2363072125","main_expt","","0.4036944211","","0.1647045883","","0.4872204599","","","","","",""
"1013","","bandit","143","279078","0.0-105.0-0.0","31104900","wem/bandit_single","A32UE0WDFAUWBE","pain","5","","72","H","0","img/none_selected.jpg","0","0","1","","0.264359064","false","68","","0.264359064","main_expt","","0.3910329043","","0.1442333851","","0.4749956953","","","","","",""
"867","","bandit","144","281701","0.0-106.0-0.0","31104900","wem/bandit_single","A32UE0WDFAUWBE","pain","5","","72","H","0","img/none_selected.jpg","0","0","1","","0.2755227552","false","69","","0.2755227552","main_expt","","0.3438989047","","0.1757685765","","0.4776093432","","","","","",""
"109","","bandit","145","283564","0.0-107.0-0.0","31104900","wem/bandit_single","A32UE0WDFAUWBE","pain","5","","72","H","0","img/none_selected.jpg","0","0","1","","0.2978365432","false","70","","0.2978365432","main_expt","","0.3282106587","","0.1995177274","","0.4550183311","","","","","",""
"133","","bandit","146","285453","0.0-108.0-0.0","31104900","wem/bandit_single","A32UE0WDFAUWBE","pain","5","","72","H","0","img/none_selected.jpg","0","1","0","","0.2788476436","false","71","","0.2788476436","main_expt","","0.3085852942","","0.2429348876","","0.4466984445","","","","","",""
"150","","bandit","147","287356","0.0-109.0-0.0","31104900","wem/bandit_single","A32UE0WDFAUWBE","pain","5","","72","H","0","img/none_selected.jpg","0","0","1","","0.2983184618","false","72","","0.2983184618","main_expt","","0.317066931","","0.2134703404","","0.453817204","","","","","",""
"69","","bandit","148","289182","0.0-110.0-0.0","31104900","wem/bandit_single","A32UE0WDFAUWBE","pain","5","","72","H","0","img/none_selected.jpg","0","0","1","","0.3235064893","false","73","","0.3235064893","main_expt","","0.3118309255","","0.2779115064","","0.4421557619","","","","","",""
"211","","bandit","149","291150","0.0-111.0-0.0","31104900","wem/bandit_single","A32UE0WDFAUWBE","pain","5","","72","H","0","img/none_selected.jpg","0","0","1","","0.2605282151","false","74","","0.2605282151","main_expt","","0.3442292265","","0.2696493969","","0.4340536998","","","","","",""
"84","","bandit","150","292989","0.0-112.0-0.0","31104900","wem/bandit_single","A32UE0WDFAUWBE","pain","5","","76","L","3","","0","0","1","","0.4148912722","false","75","","0.3081503464","main_expt","","0.3392290825","","0.2929582525","","0.4148912722","","","","","",""
"37","","bandit","151","294782","0.0-113.0-0.0","31104900","wem/bandit_single","A32UE0WDFAUWBE","pain","5","","76","L","3","","0","1","0","","0.4049452856","false","76","","0.3793773342","main_expt","","0.3019050266","","0.2925997362","","0.4049452856","","","","","",""
"210","","bandit","152","296750","0.0-114.0-0.0","31104900","wem/bandit_single","A32UE0WDFAUWBE","pain","5","","76","L","3","","0","1","0","","0.3804311168","false","77","","0.4108459626","main_expt","","0.3346778491","","0.2402419665","","0.3804311168","","","","","",""
"276","","bandit","153","298783","0.0-115.0-0.0","31104900","wem/bandit_single","A32UE0WDFAUWBE","pain","5","","76","L","3","","0","0","1","","0.4076768351","false","78","","0.432197644","main_expt","","0.2858281516","","0.2662288132","","0.4076768351","","","","","",""
"82","","bandit","154","300623","0.0-116.0-0.0","31104900","wem/bandit_single","A32UE0WDFAUWBE","pain","5","","76","L","3","","0","1","0","","0.4322729224","false","79","","0.4681634707","main_expt","","0.2601805687","","0.2946750364","","0.4322729224","","","","","",""
"285","","bandit","155","302663","0.0-117.0-0.0","31104900","wem/bandit_single","A32UE0WDFAUWBE","pain","5","","76","L","3","","0","1","0","","0.4344903628","false","80","","0.4487514359","main_expt","","0.2494540003","","0.3142603933","","0.4344903628","","","","","",""
"148","","bandit","156","304567","0.0-118.0-0.0","31104900","wem/bandit_single","A32UE0WDFAUWBE","pain","5","","76","L","3","","0","1","0","","0.4128510282","false","81","","0.4278748425","main_expt","","0.2029748002","","0.3045476359","","0.4128510282","","","","","",""
"484","","bandit","157","306808","0.0-119.0-0.0","31104900","wem/bandit_single","A32UE0WDFAUWBE","pain","5","","76","L","3","","0","0","1","","0.3473788204","false","82","","0.3873338363","main_expt","","0.1459008349","","0.2481672469","","0.3473788204","","","","","",""
"332","","bandit","158","308895","0.0-120.0-0.0","31104900","wem/bandit_single","A32UE0WDFAUWBE","pain","5","","76","L","3","","0","0","1","","0.3964685929","false","83","","0.3676955993","main_expt","","0.1792892234","","0.2366474468","","0.3964685929","","","","","",""
"453","","bandit","159","311102","0.0-121.0-0.0","31104900","wem/bandit_single","A32UE0WDFAUWBE","pain","5","","76","L","3","","0","0","1","","0.4058457219","false","84","","0.3494013457","main_expt","","0.1384159538","","0.2327145127","","0.4058457219","","","","","",""
"173","","bandit","160","313030","0.0-122.0-0.0","31104900","wem/bandit_single","A32UE0WDFAUWBE","pain","5","","74","J","1","","0","0","1","","0.1569521301","false","85","","0.3484693071","main_expt","","0.1569521301","","0.2276425053","","0.419702676","","","","","",""
"46","","bandit","161","314833","0.0-123.0-0.0","31104900","wem/bandit_single","A32UE0WDFAUWBE","pain","5","","74","J","1","","0","0","1","","0.2111509195","false","86","","0.3738623358","main_expt","","0.2111509195","","0.1932648708","","0.3584641731","","","","","",""
"115","","bandit","162","316703","0.0-124.0-0.0","31104900","wem/bandit_single","A32UE0WDFAUWBE","pain","5","","75","K","2","","0","0","1","","0.1554886006","false","87","","0.3635865115","main_expt","","0.1855749087","","0.1554886006","","0.3362954576","","","","","",""
"22","","bandit","163","318480","0.0-125.0-0.0","31104900","wem/bandit_single","A32UE0WDFAUWBE","pain","5","","75","K","2","","0","0","1","","0.1288388744","false","88","","0.28993028","main_expt","","0.1260067519","","0.1288388744","","0.3495778317","","","","","",""
"212","","bandit","164","320447","0.0-126.0-0.0","31104900","wem/bandit_single","A32UE0WDFAUWBE","pain","5","","72","H","0","img/none_selected.jpg","0","0","1","","0.2529053562","false","89","","0.2529053562","main_expt","","0.1930097593","","0.1672252434","","0.3337998134","","","","","",""
"573","","bandit","165","322774","0.0-127.0-0.0","31104900","wem/bandit_single","A32UE0WDFAUWBE","pain","5","","72","H","0","img/none_selected.jpg","0","0","1","","0.2239223254","false","90","","0.2239223254","main_expt","","0.2016869017","","0.1379373657","","0.3254710898","","","","","",""
"53","","bandit","166","324584","0.0-128.0-0.0","31104900","wem/bandit_single","A32UE0WDFAUWBE","pain","5","","76","L","3","","0","0","1","","0.3248617863","false","91","","0.1874521573","main_expt","","0.2283296651","","0.1296834551","","0.3248617863","","","","","",""
"69","","bandit","167","326408","0.0-129.0-0.0","31104900","wem/bandit_single","A32UE0WDFAUWBE","pain","5","","76","L","3","","0","0","1","","0.3290731597","false","92","","0.1464907128","main_expt","","0.2253008126","","0.1601432093","","0.3290731597","","","","","",""
"109","","bandit","168","328272","0.0-130.0-0.0","31104900","wem/bandit_single","A32UE0WDFAUWBE","pain","5","","74","J","1","","0","1","0","","0.1826671142","false","93","","0.1817498408","main_expt","","0.1826671142","","0.1976873148","","0.2947126164","","","","","",""
"28","","bandit","169","330056","0.0-131.0-0.0","31104900","wem/bandit_single","A32UE0WDFAUWBE","pain","5","","74","J","1","","0","1","0","","0.1650727581","false","94","","0.1967130988","main_expt","","0.1650727581","","0.2296862911","","0.2762739163","","","","","",""
"412","","bandit","170","332224","0.0-132.0-0.0","31104900","wem/bandit_single","A32UE0WDFAUWBE","pain","5","","74","J","1","","0","0","1","","0.1971582392","false","95","","0.2294656294","main_expt","","0.1971582392","","0.1990842867","","0.3184689772","","","","","",""
"83","","bandit","171","334063","0.0-133.0-0.0","31104900","wem/bandit_single","A32UE0WDFAUWBE","pain","5","","74","J","1","","0","0","1","","0.1791402521","false","96","","0.2966343553","main_expt","","0.1791402521","","0.258496532","","0.281027734","","","","","",""
"93","","bandit","172","335912","0.0-134.0-0.0","31104900","wem/bandit_single","A32UE0WDFAUWBE","pain","5","","74","J","1","","0","1","0","","0.1516442175","false","97","","0.3346257274","main_expt","","0.1516442175","","0.2766566169","","0.2474299406","","","","","",""
"211","","bandit","173","337880","0.0-135.0-0.0","31104900","wem/bandit_single","A32UE0WDFAUWBE","pain","5","","74","J","1","","0","0","1","","0.2200018313","false","98","","0.3139493976","main_expt","","0.2200018313","","0.2377114848","","0.2217126022","","","","","",""
"189","","bandit","174","339823","0.0-136.0-0.0","31104900","wem/bandit_single","A32UE0WDFAUWBE","pain","5","","74","J","1","","0","0","1","","0.2752547205","false","99","","0.2478490566","main_expt","","0.2752547205","","0.3124158187","","0.2677278576","","","","","",""
"381","","bandit","175","341962","0.0-137.0-0.0","31104900","wem/bandit_single","A32UE0WDFAUWBE","pain","5","","74","J","1","","0","0","1","","0.252850905","false","100","","0.2602221343","main_expt","","0.252850905","","0.2059987679","","0.3271916833","","","","","",""
"112","","bandit","176","343828","0.0-138.0-0.0","31104900","wem/bandit_single","A32UE0WDFAUWBE","pain","5","","72","H","0","img/none_selected.jpg","0","0","1","","0.2584762291","false","101","","0.2584762291","main_expt","","0.1867047362","","0.1758265216","","0.3066156257","","","","","",""
"96","","bandit","177","345681","0.0-139.0-0.0","31104900","wem/bandit_single","A32UE0WDFAUWBE","pain","5","","72","H","0","img/none_selected.jpg","0","0","1","","0.282093771","false","102","","0.282093771","main_expt","","0.1175578895","","0.2262322791","","0.3260250896","","","","","",""
"116","","bandit","178","347551","0.0-140.0-0.0","31104900","wem/bandit_single","A32UE0WDFAUWBE","pain","5","","76","L","3","","0","0","1","","0.3731136732","false","103","","0.2725256196","main_expt","","0.09132094505","","0.2018281434","","0.3731136732","","","","","",""
"62","","bandit","179","349369","0.0-141.0-0.0","31104900","wem/bandit_single","A32UE0WDFAUWBE","pain","5","","75","K","2","","0","0","1","","0.1447482012","false","104","","0.2243623384","main_expt","","0.1422553795","","0.1447482012","","0.3941656488","","","","","",""
"141","","bandit","180","351265","0.0-142.0-0.0","31104900","wem/bandit_single","A32UE0WDFAUWBE","pain","5","","75","K","2","","0","0","1","","0.2104813725","false","105","","0.2403200944","main_expt","","0.1390697773","","0.2104813725","","0.4030151573","","","","","",""
"22","","bandit","181","353040","0.0-143.0-0.0","31104900","wem/bandit_single","A32UE0WDFAUWBE","pain","5","","75","K","2","","0","0","1","","0.2492378957","false","106","","0.2332798071","main_expt","","0.1155807694","","0.2492378957","","0.3715193073","","","","","",""
"157","","bandit","182","354952","0.0-144.0-0.0","31104900","wem/bandit_single","A32UE0WDFAUWBE","pain","5","","76","L","3","","0","1","0","","0.3837270358","false","107","","0.181620067","main_expt","","0.105728532","","0.217404121","","0.3837270358","","","","","",""
"52","","bandit","183","356763","0.0-145.0-0.0","31104900","wem/bandit_single","A32UE0WDFAUWBE","pain","5","","76","L","3","","0","1","0","","0.3908875135","false","108","","0.2173069915","main_expt","","0.08831090648","","0.2142202377","","0.3908875135","","","","","",""
"402","","bandit","184","358921","0.0-146.0-0.0","31104900","wem/bandit_single","A32UE0WDFAUWBE","pain","5","","76","L","3","","0","0","1","","0.3774052568","false","109","","0.226697077","main_expt","","0.1043724426","","0.2683226389","","0.3774052568","","","","","",""
"325","","bandit","185","361000","0.0-147.0-0.0","31104900","wem/bandit_single","A32UE0WDFAUWBE","pain","5","","76","L","3","","0","1","0","","0.3601275089","false","110","","0.2695419639","main_expt","","0.07530108238","","0.2619142817","","0.3601275089","","","","","",""
"319","","bandit","186","363074","0.0-148.0-0.0","31104900","wem/bandit_single","A32UE0WDFAUWBE","pain","5","","76","L","3","","0","1","0","","0.3880855357","false","111","","0.2635727161","main_expt","","0.05159845725","","0.2754039507","","0.3880855357","","","","","",""
"395","","bandit","187","365225","0.0-149.0-0.0","31104900","wem/bandit_single","A32UE0WDFAUWBE","pain","5","","76","L","3","","0","1","0","","0.3864248384","false","112","","0.3202716687","main_expt","","0.08116028731","","0.2721436228","","0.3864248384","","","","","",""
"644","","bandit","188","367625","0.0-150.0-0.0","31104900","wem/bandit_single","A32UE0WDFAUWBE","pain","5","","76","L","3","","0","1","0","","0.339569604","false","113","","0.3546461764","main_expt","","0.08538759299","","0.2598768298","","0.339569604","","","","","",""
"564","","bandit","189","369947","0.0-151.0-0.0","31104900","wem/bandit_single","A32UE0WDFAUWBE","pain","5","","76","L","3","","0","1","0","","0.3612744832","false","114","","0.3339806629","main_expt","","0.106551095","","0.2271708717","","0.3612744832","","","","","",""
"819","","bandit","190","372523","0.0-152.0-0.0","31104900","wem/bandit_single","A32UE0WDFAUWBE","pain","5","","76","L","3","","0","0","1","","0.3616298021","false","115","","0.3175163572","main_expt","","0.1120532439","","0.2382373761","","0.3616298021","","","","","",""
"12548","","bandit","191","386828","0.0-153.0-0.0","31104900","wem/bandit_single","A32UE0WDFAUWBE","pain","5","","72","H","0","img/none_selected.jpg","0","0","1","","0.3626291523","false","116","","0.3626291523","main_expt","","0.07206247825","","0.2092397162","","0.3886586702","","","","","",""
"410","","bandit","192","388993","0.0-154.0-0.0","31104900","wem/bandit_single","A32UE0WDFAUWBE","pain","5","","74","J","1","","0","0","1","","0.05990892348","false","117","","0.4005972513","main_expt","","0.05990892348","","0.1790603663","","0.3837198657","","","","","",""
"77","","bandit","193","390826","0.0-155.0-0.0","31104900","wem/bandit_single","A32UE0WDFAUWBE","pain","5","","75","K","2","","0","0","1","","0.2515048449","false","118","","0.3994725347","main_expt","","0.07349038746","","0.2515048449","","0.3831944796","","","","","",""
"62","","bandit","194","392641","0.0-156.0-0.0","31104900","wem/bandit_single","A32UE0WDFAUWBE","pain","5","","76","L","3","","0","1","0","","0.3200080389","false","119","","0.3690387214","main_expt","","0.0880416307","","0.2591845625","","0.3200080389","","","","","",""
"181","","bandit","195","394580","0.0-157.0-0.0","31104900","wem/bandit_single","A32UE0WDFAUWBE","pain","5","","76","L","3","","0","0","1","","0.3498825307","false","120","","0.3553033444","main_expt","","0.08832912692","","0.2719994365","","0.3498825307","","","","","",""
"356","","bandit","196","396693","0.0-158.0-0.0","31104900","wem/bandit_single","A32UE0WDFAUWBE","pain","5","","76","L","3","","0","0","1","","0.3150568547","false","121","","0.3558993888","main_expt","","0.08322673311","","0.2511552987","","0.3150568547","","","","","",""
"64851","","bandit","197","463303","0.0-159.0-0.0","31104900","wem/bandit_single","A32UE0WDFAUWBE","pain","5","","72","H","0","img/none_selected.jpg","0","0","1","","0.3539125929","false","122","","0.3539125929","main_expt","","0.1027924146","","0.246059836","","0.332296042","","","","","",""
"114","","bandit","198","465174","0.0-160.0-0.0","31104900","wem/bandit_single","A32UE0WDFAUWBE","pain","5","","74","J","1","","0","0","1","","0.1112730508","false","123","","0.2756210624","main_expt","","0.1112730508","","0.201637063","","0.3023892254","","","","","",""
"155","","bandit","199","467086","0.0-161.0-0.0","31104900","wem/bandit_single","A32UE0WDFAUWBE","pain","5","","75","K","2","","0","0","1","","0.2424225803","false","124","","0.2924451827","main_expt","","0.1401536705","","0.2424225803","","0.2971441903","","","","","",""
"77","","bandit","200","468918","0.0-162.0-0.0","31104900","wem/bandit_single","A32UE0WDFAUWBE","pain","5","","76","L","3","","0","0","1","","0.2989687221","false","125","","0.3283550958","main_expt","","0.170676821","","0.2663511033","","0.2989687221","","","","","",""
"221","","bandit","201","470894","0.0-163.0-0.0","31104900","wem/bandit_single","A32UE0WDFAUWBE","pain","5","","76","L","3","","0","1","0","","0.3470717071","false","126","","0.3561713316","main_expt","","0.2239131839","","0.2214557307","","0.3470717071","","","","","",""
"45","","bandit","202","472694","0.0-164.0-0.0","31104900","wem/bandit_single","A32UE0WDFAUWBE","pain","5","","76","L","3","","0","1","0","","0.3399927284","false","127","","0.3093512765","main_expt","","0.1828765327","","0.2274120533","","0.3399927284","","","","","",""
"196","","bandit","203","474648","0.0-165.0-0.0","31104900","wem/bandit_single","A32UE0WDFAUWBE","pain","5","","76","L","3","","0","1","0","","0.3039142281","false","128","","0.3682433617","main_expt","","0.2182936746","","0.2035603578","","0.3039142281","","","","","",""
"226","","bandit","204","476630","0.0-166.0-0.0","31104900","wem/bandit_single","A32UE0WDFAUWBE","pain","5","","76","L","3","","0","0","1","","0.331948561","false","129","","0.3485983391","main_expt","","0.2206976306","","0.1571118888","","0.331948561","","","","","",""
"36","","bandit","205","478423","0.0-167.0-0.0","31104900","wem/bandit_single","A32UE0WDFAUWBE","pain","5","","76","L","3","","0","0","1","","0.3512730473","false","130","","0.3907345736","main_expt","","0.1657145536","","0.08617346002","","0.3512730473","","","","","",""
"100","","bandit","206","480280","0.0-168.0-0.0","31104900","wem/bandit_single","A32UE0WDFAUWBE","pain","5","","72","H","0","img/none_selected.jpg","0","0","1","","0.3697977754","false","131","","0.3697977754","main_expt","","0.2555784817","","0.1196539686","","0.3617370935","","","","","",""
"3","","bandit","207","482041","0.0-169.0-0.0","31104900","wem/bandit_single","A32UE0WDFAUWBE","pain","5","","72","H","0","img/none_selected.jpg","0","0","1","","0.3916621277","false","132","","0.3916621277","main_expt","","0.287060772","","0.1111227042","","0.3520165756","","","","","",""
"34","","bandit","208","483832","0.0-170.0-0.0","31104900","wem/bandit_single","A32UE0WDFAUWBE","pain","5","","74","J","1","","0","1","0","","0.238965149","false","133","","0.3437671512","main_expt","","0.238965149","","0.1223368092","","0.3863989014","","","","","",""
"67","","bandit","209","485656","0.0-171.0-0.0","31104900","wem/bandit_single","A32UE0WDFAUWBE","pain","5","","74","J","1","","0","0","1","","0.2457001749","false","134","","0.3636108046","main_expt","","0.2457001749","","0.1001486166","","0.3391859262","","","","","",""
"10","","bandit","210","487425","0.0-172.0-0.0","31104900","wem/bandit_single","A32UE0WDFAUWBE","pain","5","","74","J","1","","0","0","1","","0.2499382958","false","135","","0.3251377881","main_expt","","0.2499382958","","0.1179747861","","0.3700101905","","","","","",""
"34","","bandit","211","489215","0.0-173.0-0.0","31104900","wem/bandit_single","A32UE0WDFAUWBE","pain","5","","74","J","1","","0","0","1","","0.2553087313","false","136","","0.3838305716","main_expt","","0.2553087313","","0.1167775935","","0.3002558999","","","","","",""
"123","","bandit","212","491096","0.0-174.0-0.0","31104900","wem/bandit_single","A32UE0WDFAUWBE","pain","5","","72","H","0","img/none_selected.jpg","0","0","1","","0.374624825","false","137","","0.374624825","main_expt","","0.2517181947","","0.1459170178","","0.3242357935","","","","","",""
"2","","bandit","213","492854","0.0-175.0-0.0","31104900","wem/bandit_single","A32UE0WDFAUWBE","pain","5","","72","H","0","img/none_selected.jpg","0","1","0","","0.36903936","false","138","","0.36903936","main_expt","","0.2531469116","","0.1403776257","","0.3413485239","","","","","",""
"50","","bandit","214","494664","0.0-176.0-0.0","31104900","wem/bandit_single","A32UE0WDFAUWBE","pain","5","","72","H","0","img/none_selected.jpg","0","0","1","","0.3757762965","false","139","","0.3757762965","main_expt","","0.2810662396","","0.1647502834","","0.3172825342","","","","","",""
"1010","","bandit","215","497432","0.0-177.0-0.0","31104900","wem/bandit_single","A32UE0WDFAUWBE","pain","5","","72","H","0","img/none_selected.jpg","0","0","1","","0.3240643918","false","140","","0.3240643918","main_expt","","0.2226737135","","0.2135508935","","0.3683668128","","","","","",""
"204","","bandit","216","499392","0.0-178.0-0.0","31104900","wem/bandit_single","A32UE0WDFAUWBE","pain","5","","72","H","0","img/none_selected.jpg","0","1","0","","0.342151626","false","141","","0.342151626","main_expt","","0.2330331678","","0.2286669107","","0.2976824498","","","","","",""
"307","","bandit","217","501458","0.0-179.0-0.0","31104900","wem/bandit_single","A32UE0WDFAUWBE","pain","5","","72","H","0","img/none_selected.jpg","0","0","1","","0.3576151309","false","142","","0.3576151309","main_expt","","0.1833347363","","0.1870561284","","0.3424177608","","","","","",""
"57","","bandit","218","503275","0.0-180.0-0.0","31104900","wem/bandit_single","A32UE0WDFAUWBE","pain","5","","72","H","0","img/none_selected.jpg","0","1","0","","0.3075624404","false","143","","0.3075624404","main_expt","","0.2063127673","","0.220851353","","0.3367953268","","","","","",""
"832","","bandit","219","505864","0.0-181.0-0.0","31104900","wem/bandit_single","A32UE0WDFAUWBE","pain","5","","72","H","0","img/none_selected.jpg","0","0","1","","0.3666812205","false","144","","0.3666812205","main_expt","","0.24054226","","0.1581776843","","0.3446852995","","","","","",""
"228","","bandit","220","507849","0.0-182.0-0.0","31104900","wem/bandit_single","A32UE0WDFAUWBE","pain","5","","72","H","0","img/none_selected.jpg","0","1","0","","0.373264243","false","145","","0.373264243","main_expt","","0.3397881996","","0.1562309797","","0.3569090532","","","","","",""
"186","","bandit","221","509794","0.0-183.0-0.0","31104900","wem/bandit_single","A32UE0WDFAUWBE","pain","5","","72","H","0","img/none_selected.jpg","0","0","1","","0.3588440804","false","146","","0.3588440804","main_expt","","0.334771558","","0.201277092","","0.3546691234","","","","","",""
"459","","bandit","222","512010","0.0-184.0-0.0","31104900","wem/bandit_single","A32UE0WDFAUWBE","pain","5","","72","H","0","img/none_selected.jpg","0","0","1","","0.3848898601","false","147","","0.3848898601","main_expt","","0.3135854179","","0.2014254916","","0.3346193534","","","","","",""
"58","","bandit","223","513826","0.0-185.0-0.0","31104900","wem/bandit_single","A32UE0WDFAUWBE","pain","5","","72","H","0","img/none_selected.jpg","0","0","1","","0.4049875018","false","148","","0.4049875018","main_expt","","0.2601716543","","0.1783642851","","0.3481099765","","","","","",""
"137","","bandit","224","515720","0.0-186.0-0.0","31104900","wem/bandit_single","A32UE0WDFAUWBE","pain","5","","72","H","0","img/none_selected.jpg","0","1","0","","0.3644303146","false","149","","0.3644303146","main_expt","","0.2449203511","","0.2394621943","","0.3473239498","","","","","",""
"132","","bandit","225","517609","0.0-187.0-0.0","31104900","wem/bandit_single","A32UE0WDFAUWBE","pain","5","","72","H","0","img/none_selected.jpg","0","0","1","","0.3820895465","false","150","","0.3820895465","main_expt","","0.2679682766","","0.2009439561","","0.3457177179","","","","","",""
"59","","bandit","226","519426","0.0-188.0-0.0","31104900","wem/bandit_single","A32UE0WDFAUWBE","pain","5","","72","H","0","img/none_selected.jpg","0","0","1","","0.3715335383","false","151","","0.3715335383","main_expt","","0.2811524043","","0.1783838281","","0.3131990842","","","","","",""
"66","","bandit","227","521254","0.0-189.0-0.0","31104900","wem/bandit_single","A32UE0WDFAUWBE","pain","5","","76","L","3","","0","0","1","","0.2632978047","false","152","","0.3270427106","main_expt","","0.2320671432","","0.2357029213","","0.2632978047","","","","","",""
"37","","bandit","228","523049","0.0-190.0-0.0","31104900","wem/bandit_single","A32UE0WDFAUWBE","pain","5","","76","L","3","","0","0","1","","0.2782579121","false","153","","0.3117301263","main_expt","","0.2655606304","","0.1701289497","","0.2782579121","","","","","",""
"43","","bandit","229","524849","0.0-191.0-0.0","31104900","wem/bandit_single","A32UE0WDFAUWBE","pain","5","","74","J","1","","0","0","1","","0.3485425359","false","154","","0.2860829053","main_expt","","0.3485425359","","0.1613436629","","0.2212449789","","","","","",""
"12","","bandit","230","526617","0.0-192.0-0.0","31104900","wem/bandit_single","A32UE0WDFAUWBE","pain","5","","75","K","2","","0","0","1","","0.1419994917","false","155","","0.2412247214","main_expt","","0.3302543019","","0.1419994917","","0.1944586175","","","","","",""
"321","","bandit","231","528699","0.0-193.0-0.0","31104900","wem/bandit_single","A32UE0WDFAUWBE","pain","5","","75","K","2","","0","0","1","","0.2076402971","false","156","","0.2505935016","main_expt","","0.2696600886","","0.2076402971","","0.2035424954","","","","","",""
"27","","bandit","232","530482","0.0-194.0-0.0","31104900","wem/bandit_single","A32UE0WDFAUWBE","pain","5","","75","K","2","","0","0","1","","0.2253974945","false","157","","0.2677381881","main_expt","","0.3095791192","","0.2253974945","","0.2039725598","","","","","",""
"106","","bandit","233","532347","0.0-195.0-0.0","31104900","wem/bandit_single","A32UE0WDFAUWBE","pain","5","","74","J","1","","0","1","0","","0.3427908005","false","158","","0.228073272","main_expt","","0.3427908005","","0.3173726248","","0.1610126092","","","","","",""
"67","","bandit","234","534170","0.0-196.0-0.0","31104900","wem/bandit_single","A32UE0WDFAUWBE","pain","5","","74","J","1","","0","1","0","","0.3459652535","false","159","","0.2181731157","main_expt","","0.3459652535","","0.2929560982","","0.2244023171","","","","","",""
"219","","bandit","235","536147","0.0-197.0-0.0","31104900","wem/bandit_single","A32UE0WDFAUWBE","pain","5","","74","J","1","","0","0","1","","0.3277363444","false","160","","0.2483475363","main_expt","","0.3277363444","","0.2599130114","","0.2550463449","","","","","",""
"33","","bandit","236","537938","0.0-198.0-0.0","31104900","wem/bandit_single","A32UE0WDFAUWBE","pain","5","","74","J","1","","0","1","0","","0.3043896987","false","161","","0.2287268475","main_expt","","0.3043896987","","0.3006759107","","0.1988840894","","","","","",""
"187","","bandit","237","539884","0.0-199.0-0.0","31104900","wem/bandit_single","A32UE0WDFAUWBE","pain","5","","74","J","1","","0","1","0","","0.3013302692","false","162","","0.2118340618","main_expt","","0.3013302692","","0.3359074288","","0.3208820199","","","","","",""
"210","","bandit","238","541849","0.0-200.0-0.0","31104900","wem/bandit_single","A32UE0WDFAUWBE","pain","5","","74","J","1","","0","1","0","","0.3359404133","false","163","","0.2467500447","main_expt","","0.3359404133","","0.3248254093","","0.3416291965","","","","","",""
"403","","bandit","239","544012","0.0-201.0-0.0","31104900","wem/bandit_single","A32UE0WDFAUWBE","pain","5","","74","J","1","","0","0","1","","0.3449747326","false","164","","0.2745506496","main_expt","","0.3449747326","","0.2480447101","","0.3531125991","","","","","",""
"145","","bandit","240","545913","0.0-202.0-0.0","31104900","wem/bandit_single","A32UE0WDFAUWBE","pain","5","","74","J","1","","0","0","1","","0.3388680014","false","165","","0.2893970703","main_expt","","0.3388680014","","0.2291527929","","0.3329293945","","","","","",""
"188","","bandit","241","547858","0.0-203.0-0.0","31104900","wem/bandit_single","A32UE0WDFAUWBE","pain","5","","74","J","1","","0","0","1","","0.3565097084","false","166","","0.326956194","main_expt","","0.3565097084","","0.2408823094","","0.368824295","","","","","",""
"300","","bandit","242","549915","0.0-204.0-0.0","31104900","wem/bandit_single","A32UE0WDFAUWBE","pain","5","","72","H","0","img/none_selected.jpg","0","1","0","","0.2562538154","false","167","","0.2562538154","main_expt","","0.3807311224","","0.1852653973","","0.3528049135","","","","","",""
"243","","bandit","243","551914","0.0-205.0-0.0","31104900","wem/bandit_single","A32UE0WDFAUWBE","pain","5","","72","H","0","img/none_selected.jpg","0","0","1","","0.259707785","false","168","","0.259707785","main_expt","","0.4157533759","","0.1123614246","","0.3530437727","","","","","",""
"132","","bandit","244","553803","0.0-206.0-0.0","31104900","wem/bandit_single","A32UE0WDFAUWBE","pain","5","","72","H","0","img/none_selected.jpg","0","0","1","","0.305903145","false","169","","0.305903145","main_expt","","0.3990846218","","0.1289140747","","0.3619584092","","","","","",""
"98","","bandit","245","555659","0.0-207.0-0.0","31104900","wem/bandit_single","A32UE0WDFAUWBE","pain","5","","76","L","3","","0","0","1","","0.3851568221","false","170","","0.2780458482","main_expt","","0.3840903594","","0.1082073398","","0.3851568221","","","","","",""
"1489","","bandit","246","558906","0.0-208.0-0.0","31104900","wem/bandit_single","A32UE0WDFAUWBE","pain","5","","76","L","3","","0","0","1","","0.369821393","false","171","","0.2754425626","main_expt","","0.4279034191","","0.09560917383","","0.369821393","","","","","",""
"92","","bandit","247","560755","0.0-209.0-0.0","31104900","wem/bandit_single","A32UE0WDFAUWBE","pain","5","","76","L","3","","0","0","1","","0.3238500873","false","172","","0.2801866594","main_expt","","0.4277210969","","0.09002122866","","0.3238500873","","","","","",""
"2228","","bandit","248","564739","0.0-210.0-0.0","31104900","wem/bandit_single","A32UE0WDFAUWBE","pain","5","","76","L","3","","0","1","0","","0.371178543","false","173","","0.2903169923","main_expt","","0.4177409887","","0.06359212806","","0.371178543","","","","","",""
"1739","","bandit","249","568256","0.0-211.0-0.0","31104900","wem/bandit_single","A32UE0WDFAUWBE","pain","5","","76","L","3","","0","0","1","","0.364968973","false","174","","0.3135769273","main_expt","","0.4149019111","","0.07897407323","","0.364968973","","","","","",""
"678","","bandit","250","570690","0.0-212.0-0.0","31104900","wem/bandit_single","A32UE0WDFAUWBE","pain","5","","72","H","0","img/none_selected.jpg","0","1","0","","0.3205535054","false","175","","0.3205535054","main_expt","","0.3890834012","","0.05374651045","","0.4172857806","","","","","",""
"707","","bandit","251","573155","0.0-213.0-0.0","31104900","wem/bandit_single","A32UE0WDFAUWBE","pain","5","","72","H","0","img/none_selected.jpg","0","0","1","","0.3548310205","false","176","","0.3548310205","main_expt","","0.3775492635","","0.05298342689","","0.3931137538","","","","","",""
"76","","bandit","252","574989","0.0-214.0-0.0","31104900","wem/bandit_single","A32UE0WDFAUWBE","pain","5","","72","H","0","img/none_selected.jpg","0","0","1","","0.3374760958","false","177","","0.3374760958","main_expt","","0.2763311933","","0.04117570961","","0.4118750583","","","","","",""
"66","","bandit","253","576811","0.0-215.0-0.0","31104900","wem/bandit_single","A32UE0WDFAUWBE","pain","5","","76","L","3","","0","1","0","","0.4019835374","false","178","","0.3045899674","main_expt","","0.2117274321","","0.0682688674","","0.4019835374","","","","","",""
"482","","bandit","254","579051","0.0-216.0-0.0","31104900","wem/bandit_single","A32UE0WDFAUWBE","pain","5","","76","L","3","","0","0","1","","0.3943962464","false","179","","0.2701203387","main_expt","","0.2071796451","","0.0699035784","","0.3943962464","","","","","",""
"67","","bandit","255","580877","0.0-217.0-0.0","31104900","wem/bandit_single","A32UE0WDFAUWBE","pain","5","","76","L","3","","0","0","1","","0.3879360396","false","180","","0.3010541938","main_expt","","0.2237333922","","0.08066818268","","0.3879360396","","","","","",""
"90","","bandit","256","582723","0.0-218.0-0.0","31104900","wem/bandit_single","A32UE0WDFAUWBE","pain","5","","72","H","0","img/none_selected.jpg","0","1","0","","0.2685782119","false","181","","0.2685782119","main_expt","","0.1462221579","","0.06418194011","","0.3516035239","","","","","",""
"349","","bandit","257","584830","0.0-219.0-0.0","31104900","wem/bandit_single","A32UE0WDFAUWBE","pain","5","","72","H","0","img/none_selected.jpg","0","0","1","","0.2333395507","false","182","","0.2333395507","main_expt","","0.1745001591","","0.05948248489","","0.3544849886","","","","","",""
"417","","bandit","258","587005","0.0-220.0-0.0","31104900","wem/bandit_single","A32UE0WDFAUWBE","pain","5","","72","H","0","img/none_selected.jpg","0","1","0","","0.1817222791","false","183","","0.1817222791","main_expt","","0.1840457003","","0.04249263759","","0.3239224462","","","","","",""
"538","","bandit","259","589299","0.0-221.0-0.0","31104900","wem/bandit_single","A32UE0WDFAUWBE","pain","5","","72","H","0","img/none_selected.jpg","0","0","1","","0.1946528514","false","184","","0.1946528514","main_expt","","0.1684271963","","0.05174265856","","0.3437575642","","","","","",""
"228","","bandit","260","591285","0.0-222.0-0.0","31104900","wem/bandit_single","A32UE0WDFAUWBE","pain","5","","72","H","0","img/none_selected.jpg","0","0","1","","0.1998780622","false","185","","0.1998780622","main_expt","","0.1820742113","","0.04700335152","","0.3584643827","","","","","",""
"5299","","bandit","261","598342","0.0-223.0-0.0","31104900","wem/bandit_single","A32UE0WDFAUWBE","pain","5","","72","H","0","img/none_selected.jpg","0","0","1","","0.2674223733","false","186","","0.2674223733","main_expt","","0.2156320388","","0.0651928762","","0.3968797112","","","","","",""
"72","","bandit","262","600174","0.0-224.0-0.0","31104900","wem/bandit_single","A32UE0WDFAUWBE","pain","5","","76","L","3","","0","1","0","","0.3851297664","false","187","","0.2625155344","main_expt","","0.2805416817","","0.1006801651","","0.3851297664","","","","","",""
"168","","bandit","263","602101","0.0-225.0-0.0","31104900","wem/bandit_single","A32UE0WDFAUWBE","pain","5","","76","L","3","","0","1","0","","0.3861445831","false","188","","0.2428845682","main_expt","","0.255869765","","0.1650650448","","0.3861445831","","","","","",""
"410","","bandit","264","604270","0.0-226.0-0.0","31104900","wem/bandit_single","A32UE0WDFAUWBE","pain","5","","76","L","3","","0","0","1","","0.3904601473","false","189","","0.2017656849","main_expt","","0.1757761595","","0.1545550266","","0.3904601473","","","","","",""
"50","","bandit","265","606076","0.0-227.0-0.0","31104900","wem/bandit_single","A32UE0WDFAUWBE","pain","5","","76","L","3","","0","1","0","","0.430863334","false","190","","0.2163316772","main_expt","","0.1346649685","","0.187471884","","0.430863334","","","","","",""
"92","","bandit","266","607926","0.0-228.0-0.0","31104900","wem/bandit_single","A32UE0WDFAUWBE","pain","5","","76","L","3","","0","0","1","","0.4113524325","false","191","","0.2055350187","main_expt","","0.1132332922","","0.1611513775","","0.4113524325","","","","","",""
"18","","bandit","267","609702","0.0-229.0-0.0","31104900","wem/bandit_single","A32UE0WDFAUWBE","pain","5","","76","L","3","","0","1","0","","0.4039805352","false","192","","0.1895719249","main_expt","","0.1208943264","","0.1777959463","","0.4039805352","","","","","",""
"522","","bandit","268","611981","0.0-230.0-0.0","31104900","wem/bandit_single","A32UE0WDFAUWBE","pain","5","","76","L","3","","0","0","1","","0.4245567291","false","193","","0.1748526562","main_expt","","0.1939792015","","0.1871499601","","0.4245567291","","","","","",""
"98","","bandit","269","613839","0.0-231.0-0.0","31104900","wem/bandit_single","A32UE0WDFAUWBE","pain","5","","76","L","3","","0","0","1","","0.3947968319","false","194","","0.1474168317","main_expt","","0.16637132","","0.1876497678","","0.3947968319","","","","","",""
"49","","bandit","270","615646","0.0-232.0-0.0","31104900","wem/bandit_single","A32UE0WDFAUWBE","pain","5","","76","L","3","","0","1","0","","0.4142863389","false","195","","0.192031623","main_expt","","0.1730885183","","0.1091892437","","0.4142863389","","","","","",""
"395","","bandit","271","617799","0.0-233.0-0.0","31104900","wem/bandit_single","A32UE0WDFAUWBE","pain","5","","76","L","3","","0","0","1","","0.4233691667","false","196","","0.2058404012","main_expt","","0.215114198","","0.1617114059","","0.4233691667","","","","","",""
"498","","bandit","272","620055","0.0-234.0-0.0","31104900","wem/bandit_single","A32UE0WDFAUWBE","pain","5","","76","L","3","","0","0","1","","0.3910113043","false","197","","0.2424759238","main_expt","","0.2080771369","","0.1704243662","","0.3910113043","","","","","",""
"89","","bandit","273","621902","0.0-235.0-0.0","31104900","wem/bandit_single","A32UE0WDFAUWBE","pain","5","","76","L","3","","0","0","1","","0.4036427912","false","198","","0.2209877853","main_expt","","0.2349601263","","0.1547158464","","0.4036427912","","","","","",""
"71","","bandit","274","623732","0.0-236.0-0.0","31104900","wem/bandit_single","A32UE0WDFAUWBE","pain","5","","76","L","3","","0","0","1","","0.4211573591","false","199","","0.2167038869","main_expt","","0.2603506135","","0.1871633293","","0.4211573591","","","","","",""
"22","","bandit","275","625510","0.0-237.0-0.0","31104900","wem/bandit_single","A32UE0WDFAUWBE","pain","5","","76","L","3","","0","0","1","","0.4279321675","false","200","","0.1923465651","main_expt","","0.3238520586","","0.2044595191","","0.4279321675","","","","","",""
"27","","bandit","276","627294","0.0-238.0-0.0","31104900","wem/bandit_single","A32UE0WDFAUWBE","pain","5","","76","L","3","","0","0","1","","0.4164542871","false","201","","0.2292217674","main_expt","","0.3006478669","","0.2260370877","","0.4164542871","","","","","",""
"225","","bandit","277","629279","0.0-239.0-0.0","31104900","wem/bandit_single","A32UE0WDFAUWBE","pain","5","","76","L","3","","0","1","0","","0.4304584766","false","202","","0.2458551357","main_expt","","0.2728804465","","0.2543806879","","0.4304584766","","","","","",""
"273","","bandit","278","631312","0.0-240.0-0.0","31104900","wem/bandit_single","A32UE0WDFAUWBE","pain","5","","76","L","3","","0","0","1","","0.4301844238","false","203","","0.2388066436","main_expt","","0.3070028205","","0.248330882","","0.4301844238","","","","","",""
"192","","bandit","279","633263","0.0-241.0-0.0","31104900","wem/bandit_single","A32UE0WDFAUWBE","pain","5","","76","L","3","","0","0","1","","0.3900297032","false","204","","0.2087278664","main_expt","","0.2937269753","","0.272777159","","0.3900297032","","","","","",""
"74","","bandit","280","635097","0.0-242.0-0.0","31104900","wem/bandit_single","A32UE0WDFAUWBE","pain","5","","76","L","3","","0","1","0","","0.3928583167","false","205","","0.1498191458","main_expt","","0.2378968556","","0.3434557908","","0.3928583167","","","","","",""
"153","","bandit","281","637006","0.0-243.0-0.0","31104900","wem/bandit_single","A32UE0WDFAUWBE","pain","5","","76","L","3","","0","0","1","","0.4066069638","false","206","","0.1173401749","main_expt","","0.2621799838","","0.3670462125","","0.4066069638","","","","","",""
"67","","bandit","282","638830","0.0-244.0-0.0","31104900","wem/bandit_single","A32UE0WDFAUWBE","pain","5","","76","L","3","","0","0","1","","0.3973448409","false","207","","0.131911627","main_expt","","0.2751860601","","0.3762900352","","0.3973448409","","","","","",""
"130","","bandit","283","640717","0.0-245.0-0.0","31104900","wem/bandit_single","A32UE0WDFAUWBE","pain","5","","76","L","3","","0","1","0","","0.4149937731","false","208","","0.121614138","main_expt","","0.2449975294","","0.3619644859","","0.4149937731","","","","","",""
"155","","bandit","284","642632","0.0-246.0-0.0","31104900","wem/bandit_single","A32UE0WDFAUWBE","pain","5","","76","L","3","","0","1","0","","0.4174336027","false","209","","0.1301565943","main_expt","","0.2260792918","","0.3487947413","","0.4174336027","","","","","",""
"274","","bandit","285","644664","0.0-247.0-0.0","31104900","wem/bandit_single","A32UE0WDFAUWBE","pain","5","","76","L","3","","0","1","0","","0.3969791934","false","210","","0.09603783024","main_expt","","0.2506868781","","0.3019817091","","0.3969791934","","","","","",""
"281","","bandit","286","646704","0.0-248.0-0.0","31104900","wem/bandit_single","A32UE0WDFAUWBE","pain","5","","76","L","3","","0","0","1","","0.4109689779","false","211","","0.09853312819","main_expt","","0.2364470615","","0.3322841588","","0.4109689779","","","","","",""
"258","","bandit","287","648720","0.0-249.0-0.0","31104900","wem/bandit_single","A32UE0WDFAUWBE","pain","5","","76","L","3","","0","1","0","","0.3870841375","false","212","","0.08497623984","main_expt","","0.2097336517","","0.3257981887","","0.3870841375","","","","","",""
"443","","bandit","288","650918","0.0-250.0-0.0","31104900","wem/bandit_single","A32UE0WDFAUWBE","pain","5","","76","L","3","","0","0","1","","0.3702451026","false","213","","0.0690536233","main_expt","","0.223293056","","0.299150427","","0.3702451026","","","","","",""
"4725","","bandit","289","657400","0.0-251.0-0.0","31104900","wem/bandit_single","A32UE0WDFAUWBE","pain","5","","76","L","3","","0","1","0","","0.4052473305","false","214","","0.05607702273","main_expt","","0.2797804449","","0.2841516905","","0.4052473305","","","","","",""
"394","","bandit","290","659552","0.0-252.0-0.0","31104900","wem/bandit_single","A32UE0WDFAUWBE","pain","5","","76","L","3","","0","0","1","","0.4003088938","false","215","","0.0612243178","main_expt","","0.3307304153","","0.2421432752","","0.4003088938","","","","","",""
"4676","","bandit","291","665987","0.0-253.0-0.0","31104900","wem/bandit_single","A32UE0WDFAUWBE","pain","5","","76","L","3","","0","0","1","","0.4087675299","false","216","","0.03010565971","main_expt","","0.3341057131","","0.1705338946","","0.4087675299","","","","","",""
"502","","bandit","292","668249","0.0-254.0-0.0","31104900","wem/bandit_single","A32UE0WDFAUWBE","pain","5","","76","L","3","","0","1","0","","0.3947963157","false","217","","0.05034411961","main_expt","","0.3086359365","","0.219014384","","0.3947963157","","","","","",""
"179","","bandit","293","670185","0.0-255.0-0.0","31104900","wem/bandit_single","A32UE0WDFAUWBE","pain","5","","76","L","3","","0","1","0","","0.4200256015","false","218","","0.03278593655","main_expt","","0.370061562","","0.2135739311","","0.4200256015","","","","","",""
"267","","bandit","294","672209","0.0-256.0-0.0","31104900","wem/bandit_single","A32UE0WDFAUWBE","pain","5","","76","L","3","","0","0","1","","0.3845181055","false","219","","0.02968551415","main_expt","","0.3425962001","","0.1719688778","","0.3845181055","","","","","",""
"128","","bandit","295","674098","0.0-257.0-0.0","31104900","wem/bandit_single","A32UE0WDFAUWBE","pain","5","","76","L","3","","0","0","1","","0.3200105211","false","220","","0.03392365282","main_expt","","0.3200162658","","0.1017501311","","0.3200105211","","","","","",""
"195","","bandit","296","676051","0.0-258.0-0.0","31104900","wem/bandit_single","A32UE0WDFAUWBE","pain","5","","76","L","3","","0","0","1","","0.297673658","false","221","","0.03139192041","main_expt","","0.3209906652","","0.1121412156","","0.297673658","","","","","",""
"545","","bandit","297","678353","0.0-259.0-0.0","31104900","wem/bandit_single","A32UE0WDFAUWBE","pain","5","","76","L","3","","0","0","1","","0.2963768597","false","222","","0.02842311261","main_expt","","0.3013890172","","0.1091313961","","0.2963768597","","","","","",""
"2","","bandit","298","680115","0.0-260.0-0.0","31104900","wem/bandit_single","A32UE0WDFAUWBE","pain","5","","76","L","3","","0","0","1","","0.2927297303","false","223","","0.0287580325","main_expt","","0.2614115174","","0.09983876589","","0.2927297303","","","","","",""
"1","","bandit","299","681875","0.0-261.0-0.0","31104900","wem/bandit_single","A32UE0WDFAUWBE","pain","5","","72","H","0","img/none_selected.jpg","0","0","1","","0.02300930076","false","224","","0.02300930076","main_expt","","0.2490141009","","0.1018501693","","0.2751498343","","","","","",""
"32","","bandit","300","683667","0.0-262.0-0.0","31104900","wem/bandit_single","A32UE0WDFAUWBE","pain","5","","72","H","0","img/none_selected.jpg","0","0","1","","0.02989568437","false","225","","0.02989568437","main_expt","","0.263459589","","0.1222407881","","0.2377617529","","","","","",""
"241","","bandit","301","685666","0.0-263.0-0.0","31104900","wem/bandit_single","A32UE0WDFAUWBE","pain","5","","72","H","0","img/none_selected.jpg","0","0","1","","0.04233903912","false","226","","0.04233903912","main_expt","","0.2828917593","","0.1332846515","","0.2137681397","","","","","",""
"57","","bandit","302","687482","0.0-264.0-0.0","31104900","wem/bandit_single","A32UE0WDFAUWBE","pain","5","","74","J","1","","0","0","1","","0.2635957152","false","227","","0.0317259717","main_expt","","0.2635957152","","0.1606351014","","0.1830623781","","","","","",""
"51","","bandit","303","689292","0.0-265.0-0.0","31104900","wem/bandit_single","A32UE0WDFAUWBE","pain","5","","74","J","1","","0","0","1","","0.259674247","false","228","","0.04253553249","main_expt","","0.259674247","","0.1292420082","","0.1665925442","","","","","",""
"56","","bandit","304","691108","0.0-266.0-0.0","31104900","wem/bandit_single","A32UE0WDFAUWBE","pain","5","","74","J","1","","0","0","1","","0.2737318667","false","229","","0.06761640147","main_expt","","0.2737318667","","0.1281284096","","0.2136718414","","","","","",""
"217","","bandit","305","693083","0.0-267.0-0.0","31104900","wem/bandit_single","A32UE0WDFAUWBE","pain","5","","76","L","3","","0","0","1","","0.2435987791","false","230","","0.08572380951","main_expt","","0.3195589589","","0.0791291566","","0.2435987791","","","","","",""
"97","","bandit","306","694937","0.0-268.0-0.0","31104900","wem/bandit_single","A32UE0WDFAUWBE","pain","5","","72","H","0","img/none_selected.jpg","0","0","1","","0.07272236896","false","231","","0.07272236896","main_expt","","0.3304270948","","0.10920453","","0.2566168121","","","","","",""
"42","","bandit","307","696739","0.0-269.0-0.0","31104900","wem/bandit_single","A32UE0WDFAUWBE","pain","5","","74","J","1","","0","1","0","","0.2806951239","false","232","","0.0735724775","main_expt","","0.2806951239","","0.167261158","","0.2152843379","","","","","",""
"25","","bandit","308","698522","0.0-270.0-0.0","31104900","wem/bandit_single","A32UE0WDFAUWBE","pain","5","","74","J","1","","0","0","1","","0.3115261247","false","233","","0.06465645962","main_expt","","0.3115261247","","0.1078973024","","0.2361400262","","","","","",""
"49","","bandit","309","700338","0.0-271.0-0.0","31104900","wem/bandit_single","A32UE0WDFAUWBE","pain","5","","74","J","1","","0","0","1","","0.3001083946","false","234","","0.04279198238","main_expt","","0.3001083946","","0.2366146445","","0.2575526348","","","","","",""
"322","","bandit","310","702419","0.0-272.0-0.0","31104900","wem/bandit_single","A32UE0WDFAUWBE","pain","5","","74","J","1","","0","1","0","","0.2768541542","false","235","","0.06672803397","main_expt","","0.2768541542","","0.2393051992","","0.2828430508","","","","","",""
"154","","bandit","311","704331","0.0-273.0-0.0","31104900","wem/bandit_single","A32UE0WDFAUWBE","pain","5","","74","J","1","","0","1","0","","0.332362789","false","236","","0.07100342573","main_expt","","0.332362789","","0.2976693115","","0.2860482958","","","","","",""
"241","","bandit","312","706332","0.0-274.0-0.0","31104900","wem/bandit_single","A32UE0WDFAUWBE","pain","5","","74","J","1","","0","1","0","","0.3408832027","false","237","","0.03680589181","main_expt","","0.3408832027","","0.2674299269","","0.2783023894","","","","","",""
"65","","bandit","313","708156","0.0-275.0-0.0","31104900","wem/bandit_single","A32UE0WDFAUWBE","pain","5","","74","J","1","","0","0","1","","0.362117859","false","238","","0.02733344458","main_expt","","0.362117859","","0.2647207175","","0.2644861187","","","","","",""
"58","","bandit","314","709972","0.0-276.0-0.0","31104900","wem/bandit_single","A32UE0WDFAUWBE","pain","5","","74","J","1","","0","1","0","","0.3574250999","false","239","","0.01831396817","main_expt","","0.3574250999","","0.1936342125","","0.3186717024","","","","","",""
"73","","bandit","315","711804","0.0-277.0-0.0","31104900","wem/bandit_single","A32UE0WDFAUWBE","pain","5","","74","J","1","","0","0","1","","0.290436356","false","240","","0.01383764992","main_expt","","0.290436356","","0.2382432393","","0.3360375491","","","","","",""
"482","","bandit","316","714042","0.0-278.0-0.0","31104900","wem/bandit_single","A32UE0WDFAUWBE","pain","5","","74","J","1","","0","1","0","","0.3414967811","false","241","","0.0277662638","main_expt","","0.3414967811","","0.2984572788","","0.3386213473","","","","","",""
"467","","bandit","317","716266","0.0-279.0-0.0","31104900","wem/bandit_single","A32UE0WDFAUWBE","pain","5","","74","J","1","","0","1","0","","0.3778608287","false","242","","0.04064120638","main_expt","","0.3778608287","","0.2927867707","","0.3523037021","","","","","",""
"475","","bandit","318","718500","0.0-280.0-0.0","31104900","wem/bandit_single","A32UE0WDFAUWBE","pain","5","","74","J","1","","0","0","1","","0.3552630766","false","243","","0.04640587852","main_expt","","0.3552630766","","0.2870713985","","0.360543067","","","","","",""
"458","","bandit","319","720715","0.0-281.0-0.0","31104900","wem/bandit_single","A32UE0WDFAUWBE","pain","5","","74","J","1","","0","0","1","","0.3538674815","false","244","","0.06567084485","main_expt","","0.3538674815","","0.2882437102","","0.3728786331","","","","","",""
"177","","bandit","320","722653","0.0-282.0-0.0","31104900","wem/bandit_single","A32UE0WDFAUWBE","pain","5","","74","J","1","","0","0","1","","0.3592745223","false","245","","0.1069305933","main_expt","","0.3592745223","","0.3125457984","","0.3736501537","","","","","",""
"112","","bandit","321","724523","0.0-283.0-0.0","31104900","wem/bandit_single","A32UE0WDFAUWBE","pain","5","","74","J","1","","0","1","0","","0.3784559109","false","246","","0.07318543846","main_expt","","0.3784559109","","0.2949331023","","0.3880614915","","","","","",""
"216","","bandit","322","726526","0.0-284.0-0.0","31104900","wem/bandit_single","A32UE0WDFAUWBE","pain","5","","74","J","1","","0","1","0","","0.3871101473","false","247","","0.06866628372","main_expt","","0.3871101473","","0.3557375168","","0.3906355486","","","","","",""
"143","","bandit","323","728427","0.0-285.0-0.0","31104900","wem/bandit_single","A32UE0WDFAUWBE","pain","5","","74","J","1","","0","1","0","","0.366594806","false","248","","0.06101724449","main_expt","","0.366594806","","0.3190142928","","0.3713177951","","","","","",""
"161","","bandit","324","730347","0.0-286.0-0.0","31104900","wem/bandit_single","A32UE0WDFAUWBE","pain","5","","74","J","1","","0","0","1","","0.35265903","false","249","","0.07132197128","main_expt","","0.35265903","","0.2946857214","","0.2887643678","","","","","",""
"51","","bandit","325","732157","0.0-287.0-0.0","31104900","wem/bandit_single","A32UE0WDFAUWBE","pain","5","","74","J","1","","0","1","0","","0.3725690128","false","250","","0.04991986053","main_expt","","0.3725690128","","0.285145352","","0.3503459773","","","","","",""
"41","","bandit","326","733955","0.0-288.0-0.0","31104900","wem/bandit_single","A32UE0WDFAUWBE","pain","5","","74","J","1","","0","0","1","","0.3516217444","false","251","","0.087584861","main_expt","","0.3516217444","","0.2572530626","","0.3900307368","","","","","",""
"66","","bandit","327","735780","0.0-289.0-0.0","31104900","wem/bandit_single","A32UE0WDFAUWBE","pain","5","","74","J","1","","0","1","0","","0.3478664427","false","252","","0.1089760904","main_expt","","0.3478664427","","0.206609756","","0.3998204568","","","","","",""
"73","","bandit","328","737613","0.0-290.0-0.0","31104900","wem/bandit_single","A32UE0WDFAUWBE","pain","5","","74","J","1","","0","0","1","","0.2845216812","false","253","","0.1389783028","main_expt","","0.2845216812","","0.2526850855","","0.4062214202","","","","","",""
"10","","bandit","329","739379","0.0-291.0-0.0","31104900","wem/bandit_single","A32UE0WDFAUWBE","pain","5","","74","J","1","","0","0","1","","0.3395138109","false","254","","0.1438582992","main_expt","","0.3395138109","","0.2143143283","","0.434330363","","","","","",""
"11","","bandit","330","741148","0.0-292.0-0.0","31104900","wem/bandit_single","A32UE0WDFAUWBE","pain","5","","74","J","1","","0","1","0","","0.284072963","false","255","","0.1341592381","main_expt","","0.284072963","","0.2330346229","","0.463361135","","","","","",""
"25","","bandit","331","742932","0.0-293.0-0.0","31104900","wem/bandit_single","A32UE0WDFAUWBE","pain","5","","74","J","1","","0","0","1","","0.2791977035","false","256","","0.1539827047","main_expt","","0.2791977035","","0.1707848091","","0.4513325925","","","","","",""
"17","","bandit","332","744708","0.0-294.0-0.0","31104900","wem/bandit_single","A32UE0WDFAUWBE","pain","5","","74","J","1","","0","1","0","","0.2827618753","false","257","","0.1067893116","main_expt","","0.2827618753","","0.204762461","","0.4493477618","","","","","",""
"96","","bandit","333","746565","0.0-295.0-0.0","31104900","wem/bandit_single","A32UE0WDFAUWBE","pain","5","","74","J","1","","0","0","1","","0.2367173663","false","258","","0.05021154971","main_expt","","0.2367173663","","0.1678630312","","0.4586876348","","","","","",""
"202","","bandit","334","748525","0.0-296.0-0.0","31104900","wem/bandit_single","A32UE0WDFAUWBE","pain","5","","74","J","1","","0","1","0","","0.2715647874","false","259","","0.04357518244","main_expt","","0.2715647874","","0.1739170557","","0.45931789","","","","","",""
"90","","bandit","335","750373","0.0-297.0-0.0","31104900","wem/bandit_single","A32UE0WDFAUWBE","pain","5","","74","J","1","","0","0","1","","0.2310951927","false","260","","0.05606835832","main_expt","","0.2310951927","","0.1848885371","","0.4583289396","","","","","",""
"274","","bandit","336","752404","0.0-298.0-0.0","31104900","wem/bandit_single","A32UE0WDFAUWBE","pain","5","","74","J","1","","0","0","1","","0.2297288133","false","261","","0.05035703518","main_expt","","0.2297288133","","0.2258440324","","0.4470277171","","","","","",""
"250","","bandit","337","754412","0.0-299.0-0.0","31104900","wem/bandit_single","A32UE0WDFAUWBE","pain","5","","74","J","1","","0","0","1","","0.2072969611","false","262","","0.04352905051","main_expt","","0.2072969611","","0.2167220908","","0.457772586","","","","","",""
"159","","bandit","338","756333","0.0-300.0-0.0","31104900","wem/bandit_single","A32UE0WDFAUWBE","pain","5","","74","J","1","","0","0","1","","0.2427077321","false","263","","0.0373968872","main_expt","","0.2427077321","","0.2118780444","","0.417694616","","","","","",""
"9","","bandit","339","758100","0.0-301.0-0.0","31104900","wem/bandit_single","A32UE0WDFAUWBE","pain","5","","72","H","0","img/none_selected.jpg","0","0","1","","0.04440415955","false","264","","0.04440415955","main_expt","","0.3052561595","","0.1870566281","","0.4214939516","","","","","",""
"354","","bandit","340","760212","0.0-302.0-0.0","31104900","wem/bandit_single","A32UE0WDFAUWBE","pain","5","","72","H","0","img/none_selected.jpg","0","0","1","","0.0139225964","false","265","","0.0139225964","main_expt","","0.3000319327","","0.1706127143","","0.413465883","","","","","",""
"266","","bandit","341","762238","0.0-303.0-0.0","31104900","wem/bandit_single","A32UE0WDFAUWBE","pain","5","","72","H","0","img/none_selected.jpg","0","0","1","","0.01259799349","false","266","","0.01259799349","main_expt","","0.3134404232","","0.1693140566","","0.4116424673","","","","","",""
"25","","bandit","342","764021","0.0-304.0-0.0","31104900","wem/bandit_single","A32UE0WDFAUWBE","pain","5","","76","L","3","","0","1","0","","0.3863145418","false","267","","0.00740451457","main_expt","","0.3066387991","","0.1753800763","","0.3863145418","","","","","",""
"281","","bandit","343","766061","0.0-305.0-0.0","31104900","wem/bandit_single","A32UE0WDFAUWBE","pain","5","","76","L","3","","0","0","1","","0.4265221664","false","268","","0.004693585052","main_expt","","0.3058482798","","0.1918786918","","0.4265221664","","","","","",""
"338","","bandit","344","768157","0.0-306.0-0.0","31104900","wem/bandit_single","A32UE0WDFAUWBE","pain","5","","76","L","3","","0","1","0","","0.4515898034","false","269","","0.004824061053","main_expt","","0.2523051309","","0.1999989265","","0.4515898034","","","","","",""
"296","","bandit","345","770212","0.0-307.0-0.0","31104900","wem/bandit_single","A32UE0WDFAUWBE","pain","5","","76","L","3","","0","1","0","","0.4467147125","false","270","","0.006174480496","main_expt","","0.2663701485","","0.2211747839","","0.4467147125","","","","","",""
"354","","bandit","346","772325","0.0-308.0-0.0","31104900","wem/bandit_single","A32UE0WDFAUWBE","pain","5","","76","L","3","","0","1","0","","0.4582909467","false","271","","0.00832103917","main_expt","","0.2485798686","","0.2404792593","","0.4582909467","","","","","",""
"200","","bandit","347","774284","0.0-309.0-0.0","31104900","wem/bandit_single","A32UE0WDFAUWBE","pain","5","","76","L","3","","0","0","1","","0.4709209778","false","272","","0.00728594366","main_expt","","0.2345495347","","0.2558589782","","0.4709209778","","","","","",""
"147","","bandit","348","776190","0.0-310.0-0.0","31104900","wem/bandit_single","A32UE0WDFAUWBE","pain","5","","76","L","3","","0","0","1","","0.4660917397","false","273","","0.01114453755","main_expt","","0.2137032991","","0.1700432942","","0.4660917397","","","","","",""
"17","","bandit","349","777968","0.0-311.0-0.0","31104900","wem/bandit_single","A32UE0WDFAUWBE","pain","5","","76","L","3","","0","1","0","","0.4639522763","false","274","","0.01390500062","main_expt","","0.2108512091","","0.2452429789","","0.4639522763","","","","","",""
"176","","bandit","350","779901","0.0-312.0-0.0","31104900","wem/bandit_single","A32UE0WDFAUWBE","pain","5","","76","L","3","","0","0","1","","0.4559735555","false","275","","0.01307999715","main_expt","","0.1817434844","","0.2540496776","","0.4559735555","","","","","",""
"226","","bandit","351","781887","0.0-313.0-0.0","31104900","wem/bandit_single","A32UE0WDFAUWBE","pain","5","","76","L","3","","0","0","1","","0.4246507461","false","276","","0.01650166306","main_expt","","0.2037179719","","0.2816965905","","0.4246507461","","","","","",""
"122","","bandit","352","783767","0.0-314.0-0.0","31104900","wem/bandit_single","A32UE0WDFAUWBE","pain","5","","76","L","3","","0","0","1","","0.4061878557","false","277","","0.02228120093","main_expt","","0.211691867","","0.2757967379","","0.4061878557","","","","","",""
"144","","bandit","353","785672","0.0-315.0-0.0","31104900","wem/bandit_single","A32UE0WDFAUWBE","pain","5","","74","J","1","","0","1","0","","0.1725584367","false","278","","0.01609054627","main_expt","","0.1725584367","","0.3233086266","","0.4185559707","","","","","",""
"152","","bandit","354","787584","0.0-316.0-0.0","31104900","wem/bandit_single","A32UE0WDFAUWBE","pain","5","","74","J","1","","0","0","1","","0.1976152383","false","279","","0.03276024715","main_expt","","0.1976152383","","0.3447853064","","0.4048416859","","","","","",""
"38","","bandit","355","789383","0.0-317.0-0.0","31104900","wem/bandit_single","A32UE0WDFAUWBE","pain","5","","74","J","1","","0","0","1","","0.2245419331","false","280","","0.045813934","main_expt","","0.2245419331","","0.2944080033","","0.3930733378","","","","","",""
"242","","bandit","356","791383","0.0-318.0-0.0","31104900","wem/bandit_single","A32UE0WDFAUWBE","pain","5","","74","J","1","","0","0","1","","0.2649095144","false","281","","0.07680660156","main_expt","","0.2649095144","","0.3455536282","","0.3722539572","","","","","",""
"75","","bandit","357","793216","0.0-319.0-0.0","31104900","wem/bandit_single","A32UE0WDFAUWBE","pain","5","","76","L","3","","0","1","0","","0.392640689","false","282","","0.08989395926","main_expt","","0.2440542309","","0.3002636441","","0.392640689","","","","","",""
"154","","bandit","358","795129","0.0-320.0-0.0","31104900","wem/bandit_single","A32UE0WDFAUWBE","pain","5","","76","L","3","","0","0","1","","0.3657249804","false","283","","0.1096048843","main_expt","","0.3074658718","","0.2433385189","","0.3657249804","","","","","",""
"64","","bandit","359","796953","0.0-321.0-0.0","31104900","wem/bandit_single","A32UE0WDFAUWBE","pain","5","","76","L","3","","0","0","1","","0.3625644972","false","284","","0.1082817284","main_expt","","0.3224089974","","0.2108667552","","0.3625644972","","","","","",""
"23","","bandit","360","798735","0.0-322.0-0.0","31104900","wem/bandit_single","A32UE0WDFAUWBE","pain","5","","76","L","3","","0","0","1","","0.3054288932","false","285","","0.1629804938","main_expt","","0.3022873968","","0.2340218901","","0.3054288932","","","","","",""
"362","","bandit","361","800856","0.0-323.0-0.0","31104900","wem/bandit_single","A32UE0WDFAUWBE","pain","5","","76","L","3","","0","1","0","","0.3391155559","false","286","","0.1852598429","main_expt","","0.2889410052","","0.2499238339","","0.3391155559","","","","","",""
"201","","bandit","362","802816","0.0-324.0-0.0","31104900","wem/bandit_single","A32UE0WDFAUWBE","pain","5","","76","L","3","","0","0","1","","0.3328791194","false","287","","0.2065414002","main_expt","","0.3151816804","","0.2334780882","","0.3328791194","","","","","",""
"64","","bandit","363","804639","0.0-325.0-0.0","31104900","wem/bandit_single","A32UE0WDFAUWBE","pain","5","","74","J","1","","0","1","0","","0.3489654206","false","288","","0.1811366591","main_expt","","0.3489654206","","0.2784320663","","0.3011075564","","","","","",""
"137","","bandit","364","806536","0.0-326.0-0.0","31104900","wem/bandit_single","A32UE0WDFAUWBE","pain","5","","74","J","1","","0","1","0","","0.3673528387","false","289","","0.1202209304","main_expt","","0.3673528387","","0.2751214951","","0.3326814497","","","","","",""
"226","","bandit","365","808521","0.0-327.0-0.0","31104900","wem/bandit_single","A32UE0WDFAUWBE","pain","5","","74","J","1","","0","1","0","","0.3156989172","false","290","","0.1453470377","main_expt","","0.3156989172","","0.304381699","","0.3289320066","","","","","",""
"528","","bandit","366","810809","0.0-328.0-0.0","31104900","wem/bandit_single","A32UE0WDFAUWBE","pain","5","","74","J","1","","0","0","1","","0.3731423443","false","291","","0.1477070836","main_expt","","0.3731423443","","0.2447169523","","0.3074380044","","","","","",""
"80","","bandit","367","812649","0.0-329.0-0.0","31104900","wem/bandit_single","A32UE0WDFAUWBE","pain","5","","76","L","3","","0","1","0","","0.247625386","false","292","","0.1442574827","main_expt","","0.3819638953","","0.2422140582","","0.247625386","","","","","",""
"81","","bandit","368","814489","0.0-330.0-0.0","31104900","wem/bandit_single","A32UE0WDFAUWBE","pain","5","","76","L","3","","0","1","0","","0.2438381571","false","293","","0.1219757373","main_expt","","0.3709780048","","0.1480972705","","0.2438381571","","","","","",""
"73","","bandit","369","816319","0.0-331.0-0.0","31104900","wem/bandit_single","A32UE0WDFAUWBE","pain","5","","76","L","3","","0","1","0","","0.2772308066","false","294","","0.149249144","main_expt","","0.4013541824","","0.1338078997","","0.2772308066","","","","","",""
"74","","bandit","370","818152","0.0-332.0-0.0","31104900","wem/bandit_single","A32UE0WDFAUWBE","pain","5","","76","L","3","","0","0","1","","0.2386370059","false","295","","0.1066825056","main_expt","","0.4203470877","","0.1452417655","","0.2386370059","","","","","",""
"90","","bandit","371","820002","0.0-333.0-0.0","31104900","wem/bandit_single","A32UE0WDFAUWBE","pain","5","","74","J","1","","0","1","0","","0.4006598815","false","296","","0.06692503618","main_expt","","0.4006598815","","0.12995508","","0.2322267342","","","","","",""
"92","","bandit","372","821858","0.0-334.0-0.0","31104900","wem/bandit_single","A32UE0WDFAUWBE","pain","5","","74","J","1","","0","1","0","","0.4189250697","false","297","","0.08806334149","main_expt","","0.4189250697","","0.1079814357","","0.2930795043","","","","","",""
"128","","bandit","373","823747","0.0-335.0-0.0","31104900","wem/bandit_single","A32UE0WDFAUWBE","pain","5","","74","J","1","","0","1","0","","0.4204303011","false","298","","0.0708541643","main_expt","","0.4204303011","","0.08396844466","","0.3168190842","","","","","",""
"237","","bandit","374","825744","0.0-336.0-0.0","31104900","wem/bandit_single","A32UE0WDFAUWBE","pain","5","","74","J","1","","0","0","1","","0.3955170021","false","299","","0.07807128628","main_expt","","0.3955170021","","0.08942466987","","0.3251331367","","","","","",""
