"rt","responses","trial_type","trial_index","time_elapsed","internal_node_id","subjID","study","MID","cond","drift","key_press","respCharCode","respKey","respChoiceNum","respChoice","gems","bombs","no_reward","GemPrChosen","BombPrChosen","practice","trial_counter","WinPr_0","LosePr_0","trial_label","WinPr_1","LosePr_1","WinPr_2","LosePr_2","WinPr_3","LosePr_3","Q0","Q1","Q2","gender","age","ethnicity"
"16741","{""Q0"":""A19R04IXWA4ZLX""}","survey-text","0","16757","0.0-0.0","32166633","wem/bandit_single","A19R04IXWA4ZLX","gain","4","","","","","","","","","","","","","","","","","","","","","","","","","","",""
"1965","","text","1","19727","0.0-1.0","32166633","wem/bandit_single","A19R04IXWA4ZLX","gain","4","32","","","","","","","","","","","","","","","","","","","","","","","","","",""
"3508","","text","2","23239","0.0-2.0","32166633","wem/bandit_single","A19R04IXWA4ZLX","gain","4","32","","","","","","","","","","","","","","","","","","","","","","","","","",""
"17493","","text","3","40735","0.0-3.0","32166633","wem/bandit_single","A19R04IXWA4ZLX","gain","4","32","","","","","","","","","","","","","","","","","","","","","","","","","",""
"10549","","text","4","51287","0.0-4.0","32166633","wem/bandit_single","A19R04IXWA4ZLX","gain","4","32","","","","","","","","","","","","","","","","","","","","","","","","","",""
"4893","","text","5","56182","0.0-5.0","32166633","wem/bandit_single","A19R04IXWA4ZLX","gain","4","32","","","","","","","","","","","","","","","","","","","","","","","","","",""
"4408","","text","6","60594","0.0-6.0","32166633","wem/bandit_single","A19R04IXWA4ZLX","gain","4","32","","","","","","","","","","","","","","","","","","","","","","","","","",""
"4368","","text","7","64968","0.0-7.0","32166633","wem/bandit_single","A19R04IXWA4ZLX","gain","4","32","","","","","","","","","","","","","","","","","","","","","","","","","",""
"3315","","text","8","68286","0.0-8.0","32166633","wem/bandit_single","A19R04IXWA4ZLX","gain","4","32","","","","","","","","","","","","","","","","","","","","","","","","","",""
"1406","","text","9","69694","0.0-9.0","32166633","wem/bandit_single","A19R04IXWA4ZLX","gain","4","32","","","","","","","","","","","","","","","","","","","","","","","","","",""
"4677","","text","10","74374","0.0-10.0","32166633","wem/bandit_single","A19R04IXWA4ZLX","gain","4","32","","","","","","","","","","","","","","","","","","","","","","","","","",""
"1990","","text","11","76366","0.0-11.0","32166633","wem/bandit_single","A19R04IXWA4ZLX","gain","4","32","","","","","","","","","","","","","","","","","","","","","","","","","",""
"2115","","bandit","12","80003","0.0-12.0-0.0","32166633","wem/bandit_single","A19R04IXWA4ZLX","gain","4","","74","J","0","img/none_selected_demo.jpg","0","0","1","0","0","true","0","0","0","","","","","","","","","","","","",""
"848","","bandit","13","82619","0.0-13.0-0.0","32166633","wem/bandit_single","A19R04IXWA4ZLX","gain","4","","75","K","0","img/none_selected_demo.jpg","0","0","1","0","0","true","0","0","0","","","","","","","","","","","","",""
"1854","","text","14","84726","0.0-14.0","32166633","wem/bandit_single","A19R04IXWA4ZLX","gain","4","32","","","","","","","","","","","","","","","","","","","","","","","","","",""
"1470","","text","15","86198","0.0-15.0","32166633","wem/bandit_single","A19R04IXWA4ZLX","gain","4","32","","","","","","","","","","","","","","","","","","","","","","","","","",""
"2254","","text","16","88454","0.0-16.0","32166633","wem/bandit_single","A19R04IXWA4ZLX","gain","4","32","","","","","","","","","","","","","","","","","","","","","","","","","",""
"2356","","text","17","90814","0.0-17.0","32166633","wem/bandit_single","A19R04IXWA4ZLX","gain","4","32","","","","","","","","","","","","","","","","","","","","","","","","","",""
"1297","","bandit","18","93626","0.0-18.0-0.0","32166633","wem/bandit_single","A19R04IXWA4ZLX","gain","4","","74","J","0","img/none_selected_demo.jpg","0","0","1","0.8","0","true","0","0.8","0","80_20_practice","0.2","0","","","","","","","","","",""
"787","","bandit","19","96179","0.0-18.0-1.0","32166633","wem/bandit_single","A19R04IXWA4ZLX","gain","4","","74","J","0","img/none_selected_demo.jpg","1","0","0","0.8","0","true","0","0.8","0","80_20_practice","0.2","0","","","","","","","","","",""
"127","","bandit","20","98071","0.0-18.0-2.0","32166633","wem/bandit_single","A19R04IXWA4ZLX","gain","4","","75","K","1","","0","0","1","0.2","0","true","0","0.8","0","80_20_practice","0.2","0","","","","","","","","","",""
"461","","bandit","21","100298","0.0-18.0-3.0","32166633","wem/bandit_single","A19R04IXWA4ZLX","gain","4","","74","J","0","img/none_selected_demo.jpg","1","0","0","0.8","0","true","0","0.8","0","80_20_practice","0.2","0","","","","","","","","","",""
"362","","bandit","22","102426","0.0-18.0-4.0","32166633","wem/bandit_single","A19R04IXWA4ZLX","gain","4","","74","J","0","img/none_selected_demo.jpg","1","0","0","0.8","0","true","0","0.8","0","80_20_practice","0.2","0","","","","","","","","","",""
"75","","bandit","23","104265","0.0-18.0-5.0","32166633","wem/bandit_single","A19R04IXWA4ZLX","gain","4","","74","J","0","img/none_selected_demo.jpg","1","0","0","0.8","0","true","0","0.8","0","80_20_practice","0.2","0","","","","","","","","","",""
"138","","bandit","24","106173","0.0-18.0-6.0","32166633","wem/bandit_single","A19R04IXWA4ZLX","gain","4","","75","K","1","","0","0","1","0.2","0","true","0","0.8","0","80_20_practice","0.2","0","","","","","","","","","",""
"48","","bandit","25","107985","0.0-18.0-7.0","32166633","wem/bandit_single","A19R04IXWA4ZLX","gain","4","","75","K","1","","0","0","1","0.2","0","true","0","0.8","0","80_20_practice","0.2","0","","","","","","","","","",""
"1497","","bandit","26","111251","0.0-18.0-8.0","32166633","wem/bandit_single","A19R04IXWA4ZLX","gain","4","","74","J","0","img/none_selected_demo.jpg","0","0","1","0.8","0","true","0","0.8","0","80_20_practice","0.2","0","","","","","","","","","",""
"5","","bandit","27","113069","0.0-18.0-9.0","32166633","wem/bandit_single","A19R04IXWA4ZLX","gain","4","","74","J","0","img/none_selected_demo.jpg","1","0","0","0.8","0","true","0","0.8","0","80_20_practice","0.2","0","","","","","","","","","",""
"3005","","bandit","28","117842","0.0-18.0-10.0","32166633","wem/bandit_single","A19R04IXWA4ZLX","gain","4","","74","J","0","img/none_selected_demo.jpg","0","0","1","0.8","0","true","0","0.8","0","80_20_practice","0.2","0","","","","","","","","","",""
"225","","bandit","29","119833","0.0-18.0-11.0","32166633","wem/bandit_single","A19R04IXWA4ZLX","gain","4","","74","J","0","img/none_selected_demo.jpg","1","0","0","0.8","0","true","0","0.8","0","80_20_practice","0.2","0","","","","","","","","","",""
"67","","bandit","30","121667","0.0-18.0-12.0","32166633","wem/bandit_single","A19R04IXWA4ZLX","gain","4","","74","J","0","img/none_selected_demo.jpg","1","0","0","0.8","0","true","0","0.8","0","80_20_practice","0.2","0","","","","","","","","","",""
"23","","bandit","31","123458","0.0-18.0-13.0","32166633","wem/bandit_single","A19R04IXWA4ZLX","gain","4","","74","J","0","img/none_selected_demo.jpg","1","0","0","0.8","0","true","0","0.8","0","80_20_practice","0.2","0","","","","","","","","","",""
"6","","bandit","32","125280","0.0-18.0-14.0","32166633","wem/bandit_single","A19R04IXWA4ZLX","gain","4","","74","J","0","img/none_selected_demo.jpg","1","0","0","0.8","0","true","0","0.8","0","80_20_practice","0.2","0","","","","","","","","","",""
"548","","bandit","33","127593","0.0-18.0-15.0","32166633","wem/bandit_single","A19R04IXWA4ZLX","gain","4","","74","J","0","img/none_selected_demo.jpg","1","0","0","0.8","0","true","0","0.8","0","80_20_practice","0.2","0","","","","","","","","","",""
"43","","bandit","34","129418","0.0-18.0-16.0","32166633","wem/bandit_single","A19R04IXWA4ZLX","gain","4","","74","J","0","img/none_selected_demo.jpg","1","0","0","0.8","0","true","0","0.8","0","80_20_practice","0.2","0","","","","","","","","","",""
"1522","","bandit","35","132705","0.0-18.0-17.0","32166633","wem/bandit_single","A19R04IXWA4ZLX","gain","4","","75","K","1","","0","0","1","0.2","0","true","0","0.8","0","80_20_practice","0.2","0","","","","","","","","","",""
"137","","bandit","36","134608","0.0-18.0-18.0","32166633","wem/bandit_single","A19R04IXWA4ZLX","gain","4","","75","K","1","","1","0","0","0.2","0","true","0","0.8","0","80_20_practice","0.2","0","","","","","","","","","",""
"163","","bandit","37","136537","0.0-18.0-19.0","32166633","wem/bandit_single","A19R04IXWA4ZLX","gain","4","","75","K","1","","0","0","1","0.2","0","true","0","0.8","0","80_20_practice","0.2","0","","","","","","","","","",""
"3742","","text","38","140533","0.0-19.0","32166633","wem/bandit_single","A19R04IXWA4ZLX","gain","4","32","","","","","","","","","","","","","","","","","","","","","","","","","",""
"1511","","bandit","39","143561","0.0-20.0-0.0","32166633","wem/bandit_single","A19R04IXWA4ZLX","gain","4","","74","J","0","img/none_selected_demo.jpg","0","0","1","0","0","true","0","0","0","","0","0","","","","","","","","","",""
"7021","","text","40","150837","0.0-21.0","32166633","wem/bandit_single","A19R04IXWA4ZLX","gain","4","32","","","","","","","","","","","","","","","","","","","","","","","","","",""
"4716","","text","41","155557","0.0-22.0","32166633","wem/bandit_single","A19R04IXWA4ZLX","gain","4","32","","","","","","","","","","","","","","","","","","","","","","","","","",""
"2044","","text","42","157605","0.0-23.0","32166633","wem/bandit_single","A19R04IXWA4ZLX","gain","4","32","","","","","","","","","","","","","","","","","","","","","","","","","",""
"1925","","text","43","159533","0.0-24.0","32166633","wem/bandit_single","A19R04IXWA4ZLX","gain","4","32","","","","","","","","","","","","","","","","","","","","","","","","","",""
"2185","","text","44","161725","0.0-25.0","32166633","wem/bandit_single","A19R04IXWA4ZLX","gain","4","32","","","","","","","","","","","","","","","","","","","","","","","","","",""
"2908","","text","45","164637","0.0-26.0","32166633","wem/bandit_single","A19R04IXWA4ZLX","gain","4","32","","","","","","","","","","","","","","","","","","","","","","","","","",""
"3061","","text","46","167701","0.0-27.0","32166633","wem/bandit_single","A19R04IXWA4ZLX","gain","4","32","","","","","","","","","","","","","","","","","","","","","","","","","",""
"2397","","text","47","170101","0.0-28.0","32166633","wem/bandit_single","A19R04IXWA4ZLX","gain","4","32","","","","","","","","","","","","","","","","","","","","","","","","","",""
"3293","","text","48","173397","0.0-29.0","32166633","wem/bandit_single","A19R04IXWA4ZLX","gain","4","32","","","","","","","","","","","","","","","","","","","","","","","","","",""
"1781","","text","49","175181","0.0-30.0","32166633","wem/bandit_single","A19R04IXWA4ZLX","gain","4","32","","","","","","","","","","","","","","","","","","","","","","","","","",""
"4516","","text","50","179701","0.0-31.0","32166633","wem/bandit_single","A19R04IXWA4ZLX","gain","4","32","","","","","","","","","","","","","","","","","","","","","","","","","",""
"696","","bandit","51","181913","0.0-32.0-0.0","32166633","wem/bandit_single","A19R04IXWA4ZLX","gain","4","","72","H","0","img/none_selected.jpg","0","0","1","0.8","0","true","0","0.8","0","full_practice","0.2","0","0.6","0","0.2","0","","","","","",""
"305","","bandit","52","183984","0.0-32.0-1.0","32166633","wem/bandit_single","A19R04IXWA4ZLX","gain","4","","72","H","0","img/none_selected.jpg","1","0","0","0.8","0","true","0","0.8","0","full_practice","0.2","0","0.6","0","0.2","0","","","","","",""
"59","","bandit","53","185810","0.0-32.0-2.0","32166633","wem/bandit_single","A19R04IXWA4ZLX","gain","4","","72","H","0","img/none_selected.jpg","1","0","0","0.8","0","true","0","0.8","0","full_practice","0.2","0","0.6","0","0.2","0","","","","","",""
"73","","bandit","54","187648","0.0-32.0-3.0","32166633","wem/bandit_single","A19R04IXWA4ZLX","gain","4","","72","H","0","img/none_selected.jpg","0","0","1","0.8","0","true","0","0.8","0","full_practice","0.2","0","0.6","0","0.2","0","","","","","",""
"530","","bandit","55","189948","0.0-32.0-4.0","32166633","wem/bandit_single","A19R04IXWA4ZLX","gain","4","","74","J","1","","0","0","1","0.2","0","true","0","0.8","0","full_practice","0.2","0","0.6","0","0.2","0","","","","","",""
"711","","bandit","56","192425","0.0-32.0-5.0","32166633","wem/bandit_single","A19R04IXWA4ZLX","gain","4","","74","J","1","","1","0","0","0.2","0","true","0","0.8","0","full_practice","0.2","0","0.6","0","0.2","0","","","","","",""
"594","","bandit","57","194784","0.0-32.0-6.0","32166633","wem/bandit_single","A19R04IXWA4ZLX","gain","4","","74","J","1","","0","0","1","0.2","0","true","0","0.8","0","full_practice","0.2","0","0.6","0","0.2","0","","","","","",""
"101","","bandit","58","196652","0.0-32.0-7.0","32166633","wem/bandit_single","A19R04IXWA4ZLX","gain","4","","75","K","2","","1","0","0","0.6","0","true","0","0.8","0","full_practice","0.2","0","0.6","0","0.2","0","","","","","",""
"183","","bandit","59","198600","0.0-32.0-8.0","32166633","wem/bandit_single","A19R04IXWA4ZLX","gain","4","","75","K","2","","1","0","0","0.6","0","true","0","0.8","0","full_practice","0.2","0","0.6","0","0.2","0","","","","","",""
"154","","bandit","60","200520","0.0-32.0-9.0","32166633","wem/bandit_single","A19R04IXWA4ZLX","gain","4","","75","K","2","","1","0","0","0.6","0","true","0","0.8","0","full_practice","0.2","0","0.6","0","0.2","0","","","","","",""
"98","","bandit","61","202384","0.0-32.0-10.0","32166633","wem/bandit_single","A19R04IXWA4ZLX","gain","4","","75","K","2","","0","0","1","0.6","0","true","0","0.8","0","full_practice","0.2","0","0.6","0","0.2","0","","","","","",""
"42","","bandit","62","204193","0.0-32.0-11.0","32166633","wem/bandit_single","A19R04IXWA4ZLX","gain","4","","75","K","2","","0","0","1","0.6","0","true","0","0.8","0","full_practice","0.2","0","0.6","0","0.2","0","","","","","",""
"465","","bandit","63","206424","0.0-32.0-12.0","32166633","wem/bandit_single","A19R04IXWA4ZLX","gain","4","","75","K","2","","1","0","0","0.6","0","true","0","0.8","0","full_practice","0.2","0","0.6","0","0.2","0","","","","","",""
"2883","","bandit","64","211073","0.0-32.0-13.0","32166633","wem/bandit_single","A19R04IXWA4ZLX","gain","4","","76","L","3","","0","0","1","0.2","0","true","0","0.8","0","full_practice","0.2","0","0.6","0","0.2","0","","","","","",""
"121","","bandit","65","212960","0.0-32.0-14.0","32166633","wem/bandit_single","A19R04IXWA4ZLX","gain","4","","76","L","3","","0","0","1","0.2","0","true","0","0.8","0","full_practice","0.2","0","0.6","0","0.2","0","","","","","",""
"24","","bandit","66","214754","0.0-32.0-15.0","32166633","wem/bandit_single","A19R04IXWA4ZLX","gain","4","","75","K","2","","0","0","1","0.6","0","true","0","0.8","0","full_practice","0.2","0","0.6","0","0.2","0","","","","","",""
"23","","bandit","67","216545","0.0-32.0-16.0","32166633","wem/bandit_single","A19R04IXWA4ZLX","gain","4","","74","J","1","","1","0","0","0.2","0","true","0","0.8","0","full_practice","0.2","0","0.6","0","0.2","0","","","","","",""
"71","","bandit","68","218385","0.0-32.0-17.0","32166633","wem/bandit_single","A19R04IXWA4ZLX","gain","4","","74","J","1","","0","0","1","0.2","0","true","0","0.8","0","full_practice","0.2","0","0.6","0","0.2","0","","","","","",""
"505","","bandit","69","220658","0.0-32.0-18.0","32166633","wem/bandit_single","A19R04IXWA4ZLX","gain","4","","72","H","0","img/none_selected.jpg","1","0","0","0.8","0","true","0","0.8","0","full_practice","0.2","0","0.6","0","0.2","0","","","","","",""
"104","","bandit","70","222527","0.0-32.0-19.0","32166633","wem/bandit_single","A19R04IXWA4ZLX","gain","4","","72","H","0","img/none_selected.jpg","1","0","0","0.8","0","true","0","0.8","0","full_practice","0.2","0","0.6","0","0.2","0","","","","","",""
"2013","","text","71","224804","0.0-33.0","32166633","wem/bandit_single","A19R04IXWA4ZLX","gain","4","32","","","","","","","","","","","","","","","","","","","","","","","","","",""
"10077","","text","72","235887","0.0-34.0","32166633","wem/bandit_single","A19R04IXWA4ZLX","gain","4","32","","","","","","","","","","","","","","","","","","","","","","","","","",""
"4619","","text","73","240510","0.0-35.0","32166633","wem/bandit_single","A19R04IXWA4ZLX","gain","4","32","","","","","","","","","","","","","","","","","","","","","","","","","",""
"5403","","text","74","245918","0.0-36.0","32166633","wem/bandit_single","A19R04IXWA4ZLX","gain","4","32","","","","","","","","","","","","","","","","","","","","","","","","","",""
"3003","","text","75","248926","0.0-37.0","32166633","wem/bandit_single","A19R04IXWA4ZLX","gain","4","32","","","","","","","","","","","","","","","","","","","","","","","","","",""
"1679","","bandit","76","252122","0.0-38.0-0.0","32166633","wem/bandit_single","A19R04IXWA4ZLX","gain","4","","72","H","0","img/none_selected.jpg","1","0","0","0.1534711312","","false","1","0.1534711312","","main_expt","0.2633340886","","0.1530555908","","0.04789219489","","","","","","",""
"129","","bandit","77","254018","0.0-39.0-0.0","32166633","wem/bandit_single","A19R04IXWA4ZLX","gain","4","","72","H","0","img/none_selected.jpg","0","0","1","0.1140054314","","false","2","0.1140054314","","main_expt","0.288049036","","0.103598712","","0.06526788736","","","","","","",""
"89","","bandit","78","255873","0.0-40.0-0.0","32166633","wem/bandit_single","A19R04IXWA4ZLX","gain","4","","72","H","0","img/none_selected.jpg","0","0","1","0.1012650834","","false","3","0.1012650834","","main_expt","0.2979487298","","0.08136741005","","0.04764418461","","","","","","",""
"73","","bandit","79","257714","0.0-41.0-0.0","32166633","wem/bandit_single","A19R04IXWA4ZLX","gain","4","","74","J","1","","0","0","1","0.3306303211","","false","4","0.09541256236","","main_expt","0.3306303211","","0.08723083084","","0.05056035824","","","","","","",""
"74","","bandit","80","259554","0.0-42.0-0.0","32166633","wem/bandit_single","A19R04IXWA4ZLX","gain","4","","74","J","1","","1","0","0","0.2438199519","","false","5","0.07842998328","","main_expt","0.2438199519","","0.1255982651","","0.05944929255","","","","","","",""
"72","","bandit","81","261424","0.0-43.0-0.0","32166633","wem/bandit_single","A19R04IXWA4ZLX","gain","4","","74","J","1","","0","0","1","0.2362074668","","false","6","0.09158282766","","main_expt","0.2362074668","","0.09044777998","","0.09562353852","","","","","","",""
"1378","","bandit","82","264569","0.0-44.0-0.0","32166633","wem/bandit_single","A19R04IXWA4ZLX","gain","4","","76","L","3","","1","0","0","0.08069121891","","false","7","0.09712353232","","main_expt","0.2591683673","","0.1067491613","","0.08069121891","","","","","","",""
"41","","bandit","83","266377","0.0-45.0-0.0","32166633","wem/bandit_single","A19R04IXWA4ZLX","gain","4","","76","L","3","","0","0","1","0.07203927837","","false","8","0.08440361392","","main_expt","0.2299415188","","0.15597148","","0.07203927837","","","","","","",""
"86","","bandit","84","268230","0.0-46.0-0.0","32166633","wem/bandit_single","A19R04IXWA4ZLX","gain","4","","76","L","3","","0","0","1","0.08219025907","","false","9","0.102519384","","main_expt","0.2057198223","","0.2250404859","","0.08219025907","","","","","","",""
"68","","bandit","85","270066","0.0-47.0-0.0","32166633","wem/bandit_single","A19R04IXWA4ZLX","gain","4","","76","L","3","","1","0","0","0.06517742799","","false","10","0.06157476224","","main_expt","0.2002554128","","0.2205918947","","0.06517742799","","","","","","",""
"58","","bandit","86","271895","0.0-48.0-0.0","32166633","wem/bandit_single","A19R04IXWA4ZLX","gain","4","","75","K","2","","0","0","1","0.1999173076","","false","11","0.05516119966","","main_expt","0.2390702858","","0.1999173076","","0.0549201251","","","","","","",""
"323","","bandit","87","273985","0.0-49.0-0.0","32166633","wem/bandit_single","A19R04IXWA4ZLX","gain","4","","75","K","2","","0","0","1","0.2006159367","","false","12","0.04311537102","","main_expt","0.2309669968","","0.2006159367","","0.0630283727","","","","","","",""
"64","","bandit","88","275816","0.0-50.0-0.0","32166633","wem/bandit_single","A19R04IXWA4ZLX","gain","4","","72","H","0","img/none_selected.jpg","0","0","1","0.03895599675","","false","13","0.03895599675","","main_expt","0.2667386483","","0.202674457","","0.07136250487","","","","","","",""
"9","","bandit","89","277592","0.0-51.0-0.0","32166633","wem/bandit_single","A19R04IXWA4ZLX","gain","4","","74","J","1","","0","0","1","0.2057326914","","false","14","0.03256744162","","main_expt","0.2057326914","","0.152812741","","0.07333211558","","","","","","",""
"153","","bandit","90","279515","0.0-52.0-0.0","32166633","wem/bandit_single","A19R04IXWA4ZLX","gain","4","","76","L","3","","1","0","0","0.1154740655","","false","15","0.01982065674","","main_expt","0.2081585857","","0.1648564856","","0.1154740655","","","","","","",""
"182","","bandit","91","281464","0.0-53.0-0.0","32166633","wem/bandit_single","A19R04IXWA4ZLX","gain","4","","76","L","3","","0","0","1","0.1011313391","","false","16","0.04082574049","","main_expt","0.1909184248","","0.1619055423","","0.1011313391","","","","","","",""
"115","","bandit","92","283348","0.0-54.0-0.0","32166633","wem/bandit_single","A19R04IXWA4ZLX","gain","4","","76","L","3","","0","0","1","0.1447019112","","false","17","0.0363298649","","main_expt","0.2198432556","","0.1651197045","","0.1447019112","","","","","","",""
"575","","bandit","93","285690","0.0-55.0-0.0","32166633","wem/bandit_single","A19R04IXWA4ZLX","gain","4","","74","J","1","","1","0","0","0.2347766335","","false","18","0.07917382237","","main_expt","0.2347766335","","0.1079041081","","0.1039364862","","","","","","",""
"80","","bandit","94","287537","0.0-56.0-0.0","32166633","wem/bandit_single","A19R04IXWA4ZLX","gain","4","","74","J","1","","0","0","1","0.24668571","","false","19","0.08476555987","","main_expt","0.24668571","","0.1059999363","","0.08759831402","","","","","","",""
"481","","bandit","95","289786","0.0-57.0-0.0","32166633","wem/bandit_single","A19R04IXWA4ZLX","gain","4","","75","K","2","","0","0","1","0.1197169881","","false","20","0.04047152317","","main_expt","0.2355281317","","0.1197169881","","0.08010338479","","","","","","",""
"624","","bandit","96","292178","0.0-58.0-0.0","32166633","wem/bandit_single","A19R04IXWA4ZLX","gain","4","","74","J","1","","1","0","0","0.2290721377","","false","21","0.07021106672","","main_expt","0.2290721377","","0.1338215077","","0.07820488182","","","","","","",""
"151","","bandit","97","294097","0.0-59.0-0.0","32166633","wem/bandit_single","A19R04IXWA4ZLX","gain","4","","74","J","1","","0","0","1","0.1982968879","","false","22","0.08794503477","","main_expt","0.1982968879","","0.1691749215","","0.06301774499","","","","","","",""
"25","","bandit","98","295892","0.0-60.0-0.0","32166633","wem/bandit_single","A19R04IXWA4ZLX","gain","4","","72","H","0","img/none_selected.jpg","0","0","1","0.07274518233","","false","23","0.07274518233","","main_expt","0.1991555028","","0.2100599157","","0.04380944514","","","","","","",""
"140","","bandit","99","297802","0.0-61.0-0.0","32166633","wem/bandit_single","A19R04IXWA4ZLX","gain","4","","76","L","3","","0","0","1","0.04485861341","","false","24","0.09602528561","","main_expt","0.1700743611","","0.1763606332","","0.04485861341","","","","","","",""
"199","","bandit","100","299769","0.0-62.0-0.0","32166633","wem/bandit_single","A19R04IXWA4ZLX","gain","4","","76","L","3","","0","0","1","0.08350983839","","false","25","0.07148754983","","main_expt","0.2303117276","","0.1155065599","","0.08350983839","","","","","","",""
"16","","bandit","101","301554","0.0-63.0-0.0","32166633","wem/bandit_single","A19R04IXWA4ZLX","gain","4","","74","J","1","","1","0","0","0.2615068669","","false","26","0.05591681381","","main_expt","0.2615068669","","0.08411514459","","0.04946014148","","","","","","",""
"136","","bandit","102","303458","0.0-64.0-0.0","32166633","wem/bandit_single","A19R04IXWA4ZLX","gain","4","","74","J","1","","0","0","1","0.2108316327","","false","27","0.06488914964","","main_expt","0.2108316327","","0.1192049255","","0.07008172503","","","","","","",""
"367","","bandit","103","305594","0.0-65.0-0.0","32166633","wem/bandit_single","A19R04IXWA4ZLX","gain","4","","75","K","2","","0","0","1","0.1530516972","","false","28","0.07067710387","","main_expt","0.2616222854","","0.1530516972","","0.09766989806","","","","","","",""
"157","","bandit","104","307522","0.0-66.0-0.0","32166633","wem/bandit_single","A19R04IXWA4ZLX","gain","4","","75","K","2","","0","0","1","0.1243035263","","false","29","0.06184318105","","main_expt","0.2754145478","","0.1243035263","","0.1020433103","","","","","","",""
"1","","bandit","105","309297","0.0-67.0-0.0","32166633","wem/bandit_single","A19R04IXWA4ZLX","gain","4","","74","J","1","","0","0","1","0.3091083038","","false","30","0.06562203124","","main_expt","0.3091083038","","0.2106934108","","0.1128186897","","","","","","",""
"127","","bandit","106","311193","0.0-68.0-0.0","32166633","wem/bandit_single","A19R04IXWA4ZLX","gain","4","","72","H","0","img/none_selected.jpg","0","0","1","0.06340423818","","false","31","0.06340423818","","main_expt","0.3032558385","","0.269819176","","0.1021038766","","","","","","",""
"71","","bandit","107","313033","0.0-69.0-0.0","32166633","wem/bandit_single","A19R04IXWA4ZLX","gain","4","","72","H","0","img/none_selected.jpg","1","0","0","0.08582013972","","false","32","0.08582013972","","main_expt","0.3160124579","","0.2415851803","","0.1010238501","","","","","","",""
"551","","bandit","108","315352","0.0-70.0-0.0","32166633","wem/bandit_single","A19R04IXWA4ZLX","gain","4","","72","H","0","img/none_selected.jpg","1","0","0","0.1020351259","","false","33","0.1020351259","","main_expt","0.355825184","","0.2754451294","","0.0674926465","","","","","","",""
"72","","bandit","109","317193","0.0-71.0-0.0","32166633","wem/bandit_single","A19R04IXWA4ZLX","gain","4","","72","H","0","img/none_selected.jpg","0","0","1","0.07925884201","","false","34","0.07925884201","","main_expt","0.3380280112","","0.3566428969","","0.1007783216","","","","","","",""
"24","","bandit","110","318987","0.0-72.0-0.0","32166633","wem/bandit_single","A19R04IXWA4ZLX","gain","4","","74","J","1","","1","0","0","0.3772093912","","false","35","0.06071167626","","main_expt","0.3772093912","","0.2652811253","","0.09542819821","","","","","","",""
"110","","bandit","111","320906","0.0-73.0-0.0","32166633","wem/bandit_single","A19R04IXWA4ZLX","gain","4","","74","J","1","","1","0","0","0.3916459715","","false","36","0.05331310492","","main_expt","0.3916459715","","0.2472166127","","0.07425724813","","","","","","",""
"109","","bandit","112","322789","0.0-74.0-0.0","32166633","wem/bandit_single","A19R04IXWA4ZLX","gain","4","","74","J","1","","1","0","0","0.3724196513","","false","37","0.08395737389","","main_expt","0.3724196513","","0.2941536534","","0.07325651263","","","","","","",""
"586","","bandit","113","325146","0.0-75.0-0.0","32166633","wem/bandit_single","A19R04IXWA4ZLX","gain","4","","74","J","1","","0","0","1","0.3885064771","","false","38","0.07562804978","","main_expt","0.3885064771","","0.2850199379","","0.06058557764","","","","","","",""
"303","","bandit","114","327219","0.0-76.0-0.0","32166633","wem/bandit_single","A19R04IXWA4ZLX","gain","4","","76","L","3","","0","0","1","0.05480529152","","false","39","0.06339693541","","main_expt","0.4332305888","","0.2308750992","","0.05480529152","","","","","","",""
"115","","bandit","115","329103","0.0-77.0-0.0","32166633","wem/bandit_single","A19R04IXWA4ZLX","gain","4","","76","L","3","","0","0","1","0.08480448704","","false","40","0.07741261751","","main_expt","0.4320021358","","0.2166928419","","0.08480448704","","","","","","",""
"39","","bandit","116","330913","0.0-78.0-0.0","32166633","wem/bandit_single","A19R04IXWA4ZLX","gain","4","","74","J","1","","1","0","0","0.4378374231","","false","41","0.08199889575","","main_expt","0.4378374231","","0.222341992","","0.07863220129","","","","","","",""
"182","","bandit","117","332866","0.0-79.0-0.0","32166633","wem/bandit_single","A19R04IXWA4ZLX","gain","4","","74","J","1","","0","0","1","0.4138470733","","false","42","0.1252939417","","main_expt","0.4138470733","","0.2420609394","","0.07947159818","","","","","","",""
"438","","bandit","118","335074","0.0-80.0-0.0","32166633","wem/bandit_single","A19R04IXWA4ZLX","gain","4","","75","K","2","","1","0","0","0.2683234569","","false","43","0.1464491551","","main_expt","0.3618848001","","0.2683234569","","0.0747194724","","","","","","",""
"106","","bandit","119","336950","0.0-81.0-0.0","32166633","wem/bandit_single","A19R04IXWA4ZLX","gain","4","","75","K","2","","0","0","1","0.2592073096","","false","44","0.1846315016","","main_expt","0.3902132048","","0.2592073096","","0.06873866496","","","","","","",""
"116","","bandit","120","338835","0.0-82.0-0.0","32166633","wem/bandit_single","A19R04IXWA4ZLX","gain","4","","75","K","2","","0","0","1","0.258850709","","false","45","0.1454302639","","main_expt","0.370584769","","0.258850709","","0.05624711086","","","","","","",""
"101","","bandit","121","340706","0.0-83.0-0.0","32166633","wem/bandit_single","A19R04IXWA4ZLX","gain","4","","75","K","2","","0","0","1","0.2162528617","","false","46","0.1420401956","","main_expt","0.3416192418","","0.2162528617","","0.06710767933","","","","","","",""
"30","","bandit","122","342507","0.0-84.0-0.0","32166633","wem/bandit_single","A19R04IXWA4ZLX","gain","4","","74","J","1","","1","0","0","0.3254497978","","false","47","0.2049545467","","main_expt","0.3254497978","","0.1380472806","","0.05828218186","","","","","","",""
"108","","bandit","123","344385","0.0-85.0-0.0","32166633","wem/bandit_single","A19R04IXWA4ZLX","gain","4","","74","J","1","","0","0","1","0.3438960799","","false","48","0.1608881285","","main_expt","0.3438960799","","0.1673270425","","0.1161016377","","","","","","",""
"5","","bandit","124","346161","0.0-86.0-0.0","32166633","wem/bandit_single","A19R04IXWA4ZLX","gain","4","","72","H","0","img/none_selected.jpg","1","0","0","0.2001806823","","false","49","0.2001806823","","main_expt","0.3405395495","","0.1637821127","","0.1135844416","","","","","","",""
"68","","bandit","125","348001","0.0-87.0-0.0","32166633","wem/bandit_single","A19R04IXWA4ZLX","gain","4","","72","H","0","img/none_selected.jpg","0","0","1","0.2061381611","","false","50","0.2061381611","","main_expt","0.3305224856","","0.1826101584","","0.1646239324","","","","","","",""
"62","","bandit","126","349833","0.0-88.0-0.0","32166633","wem/bandit_single","A19R04IXWA4ZLX","gain","4","","72","H","0","img/none_selected.jpg","0","0","1","0.2369791141","","false","51","0.2369791141","","main_expt","0.2304924019","","0.2270371056","","0.1699716213","","","","","","",""
"479","","bandit","127","352079","0.0-89.0-0.0","32166633","wem/bandit_single","A19R04IXWA4ZLX","gain","4","","74","J","1","","0","0","1","0.2832256505","","false","52","0.2378663067","","main_expt","0.2832256505","","0.2203225001","","0.1762937123","","","","","","",""
"120","","bandit","128","353969","0.0-90.0-0.0","32166633","wem/bandit_single","A19R04IXWA4ZLX","gain","4","","74","J","1","","0","0","1","0.2391441838","","false","53","0.2063519028","","main_expt","0.2391441838","","0.2776849753","","0.2287193473","","","","","","",""
"183","","bandit","129","355921","0.0-91.0-0.0","32166633","wem/bandit_single","A19R04IXWA4ZLX","gain","4","","75","K","2","","1","0","0","0.2454572706","","false","54","0.2439582882","","main_expt","0.2697071588","","0.2454572706","","0.2356834932","","","","","","",""
"118","","bandit","130","357809","0.0-92.0-0.0","32166633","wem/bandit_single","A19R04IXWA4ZLX","gain","4","","75","K","2","","0","0","1","0.2382153161","","false","55","0.2381950618","","main_expt","0.2875326611","","0.2382153161","","0.306547883","","","","","","",""
"7","","bandit","131","359588","0.0-93.0-0.0","32166633","wem/bandit_single","A19R04IXWA4ZLX","gain","4","","76","L","3","","0","0","1","0.2853582168","","false","56","0.1800346575","","main_expt","0.2854258916","","0.1960908288","","0.2853582168","","","","","","",""
"34","","bandit","132","361393","0.0-94.0-0.0","32166633","wem/bandit_single","A19R04IXWA4ZLX","gain","4","","75","K","2","","0","0","1","0.2042340564","","false","57","0.2336203315","","main_expt","0.3445045135","","0.2042340564","","0.2834250679","","","","","","",""
"47","","bandit","133","363209","0.0-95.0-0.0","32166633","wem/bandit_single","A19R04IXWA4ZLX","gain","4","","74","J","1","","1","0","0","0.3390226593","","false","58","0.189887459","","main_expt","0.3390226593","","0.1490893454","","0.2690284398","","","","","","",""
"122","","bandit","134","365102","0.0-96.0-0.0","32166633","wem/bandit_single","A19R04IXWA4ZLX","gain","4","","72","H","0","img/none_selected.jpg","0","0","1","0.1548607402","","false","59","0.1548607402","","main_expt","0.2666291788","","0.1581154669","","0.2616697142","","","","","","",""
"76","","bandit","135","366948","0.0-97.0-0.0","32166633","wem/bandit_single","A19R04IXWA4ZLX","gain","4","","72","H","0","img/none_selected.jpg","0","0","1","0.1233285174","","false","60","0.1233285174","","main_expt","0.246985882","","0.1715954381","","0.2704186185","","","","","","",""
"73","","bandit","136","368792","0.0-98.0-0.0","32166633","wem/bandit_single","A19R04IXWA4ZLX","gain","4","","74","J","1","","1","0","0","0.2171589204","","false","61","0.186549837","","main_expt","0.2171589204","","0.1999420892","","0.3376037184","","","","","","",""
"112","","bandit","137","370673","0.0-99.0-0.0","32166633","wem/bandit_single","A19R04IXWA4ZLX","gain","4","","74","J","1","","1","0","0","0.2677831299","","false","62","0.1420872584","","main_expt","0.2677831299","","0.1539309088","","0.3098521258","","","","","","",""
"206","","bandit","138","372648","0.0-100.0-0.0","32166633","wem/bandit_single","A19R04IXWA4ZLX","gain","4","","74","J","1","","0","0","1","0.2303454974","","false","63","0.151707711","","main_expt","0.2303454974","","0.1085632924","","0.3137631198","","","","","","",""
"118","","bandit","139","374536","0.0-101.0-0.0","32166633","wem/bandit_single","A19R04IXWA4ZLX","gain","4","","74","J","1","","1","0","0","0.196947777","","false","64","0.1474827626","","main_expt","0.196947777","","0.1370187426","","0.3179430645","","","","","","",""
"143","","bandit","140","376449","0.0-102.0-0.0","32166633","wem/bandit_single","A19R04IXWA4ZLX","gain","4","","74","J","1","","1","0","0","0.1645630622","","false","65","0.1746529425","","main_expt","0.1645630622","","0.1322062037","","0.2980330155","","","","","","",""
"85","","bandit","141","378305","0.0-103.0-0.0","32166633","wem/bandit_single","A19R04IXWA4ZLX","gain","4","","74","J","1","","0","0","1","0.1533283495","","false","66","0.1310865155","","main_expt","0.1533283495","","0.1496501041","","0.2537140377","","","","","","",""
"100","","bandit","142","380175","0.0-104.0-0.0","32166633","wem/bandit_single","A19R04IXWA4ZLX","gain","4","","74","J","1","","0","0","1","0.1708403009","","false","67","0.1370872981","","main_expt","0.1708403009","","0.1626820295","","0.2153704701","","","","","","",""
"95","","bandit","143","382043","0.0-105.0-0.0","32166633","wem/bandit_single","A19R04IXWA4ZLX","gain","4","","74","J","1","","0","0","1","0.1887917493","","false","68","0.09914494933","","main_expt","0.1887917493","","0.1989514297","","0.2417705853","","","","","","",""
"435","","bandit","144","384285","0.0-106.0-0.0","32166633","wem/bandit_single","A19R04IXWA4ZLX","gain","4","","75","K","2","","0","0","1","0.1888867792","","false","69","0.1092411584","","main_expt","0.2160515082","","0.1888867792","","0.3235463827","","","","","","",""
"5","","bandit","145","386136","0.0-107.0-0.0","32166633","wem/bandit_single","A19R04IXWA4ZLX","gain","4","","76","L","3","","0","0","1","0.3647615206","","false","70","0.1213917008","","main_expt","0.2778565133","","0.1767550628","","0.3647615206","","","","","","",""
"126","","bandit","146","388034","0.0-108.0-0.0","32166633","wem/bandit_single","A19R04IXWA4ZLX","gain","4","","76","L","3","","1","0","0","0.3472934012","","false","71","0.1479005197","","main_expt","0.2623699359","","0.1253641033","","0.3472934012","","","","","","",""
"124","","bandit","147","389928","0.0-109.0-0.0","32166633","wem/bandit_single","A19R04IXWA4ZLX","gain","4","","76","L","3","","0","0","1","0.2965124106","","false","72","0.1931369739","","main_expt","0.2574081817","","0.1319365506","","0.2965124106","","","","","","",""
"430","","bandit","148","392129","0.0-110.0-0.0","32166633","wem/bandit_single","A19R04IXWA4ZLX","gain","4","","75","K","2","","0","0","1","0.1061905376","","false","73","0.1900103681","","main_expt","0.2503470883","","0.1061905376","","0.2823595977","","","","","","",""
"325","","bandit","149","394226","0.0-111.0-0.0","32166633","wem/bandit_single","A19R04IXWA4ZLX","gain","4","","72","H","0","img/none_selected.jpg","0","0","1","0.1344428369","","false","74","0.1344428369","","main_expt","0.2710758316","","0.1303083533","","0.2835749375","","","","","","",""
"115","","bandit","150","396114","0.0-112.0-0.0","32166633","wem/bandit_single","A19R04IXWA4ZLX","gain","4","","74","J","1","","0","0","1","0.260759121","","false","75","0.1528357022","","main_expt","0.260759121","","0.1359111238","","0.3526847528","","","","","","",""
"93","","bandit","151","397977","0.0-113.0-0.0","32166633","wem/bandit_single","A19R04IXWA4ZLX","gain","4","","72","H","0","img/none_selected.jpg","0","0","1","0.1898592508","","false","76","0.1898592508","","main_expt","0.2610050464","","0.1128391495","","0.3434196486","","","","","","",""
"117","","bandit","152","399864","0.0-114.0-0.0","32166633","wem/bandit_single","A19R04IXWA4ZLX","gain","4","","75","K","2","","0","0","1","0.1118044987","","false","77","0.191464519","","main_expt","0.1920601856","","0.1118044987","","0.3073782559","","","","","","",""
"30","","bandit","153","401664","0.0-115.0-0.0","32166633","wem/bandit_single","A19R04IXWA4ZLX","gain","4","","75","K","2","","0","0","1","0.1315400358","","false","78","0.2665821314","","main_expt","0.1726035312","","0.1315400358","","0.3200097729","","","","","","",""
"94","","bandit","154","403529","0.0-116.0-0.0","32166633","wem/bandit_single","A19R04IXWA4ZLX","gain","4","","76","L","3","","0","0","1","0.3406321397","","false","79","0.2510402579","","main_expt","0.1974193715","","0.1421279646","","0.3406321397","","","","","","",""
"331","","bandit","155","405631","0.0-117.0-0.0","32166633","wem/bandit_single","A19R04IXWA4ZLX","gain","4","","76","L","3","","0","0","1","0.2934749235","","false","80","0.2803090616","","main_expt","0.1771423485","","0.1666910293","","0.2934749235","","","","","","",""
"84","","bandit","156","407522","0.0-118.0-0.0","32166633","wem/bandit_single","A19R04IXWA4ZLX","gain","4","","74","J","1","","0","0","1","0.1689426189","","false","81","0.3053401272","","main_expt","0.1689426189","","0.1514130178","","0.3080678564","","","","","","",""
"259","","bandit","157","409553","0.0-119.0-0.0","32166633","wem/bandit_single","A19R04IXWA4ZLX","gain","4","","75","K","2","","0","0","1","0.1667518413","","false","82","0.3079009489","","main_expt","0.2008945118","","0.1667518413","","0.3118316764","","","","","","",""
"28","","bandit","158","411352","0.0-120.0-0.0","32166633","wem/bandit_single","A19R04IXWA4ZLX","gain","4","","75","K","2","","0","0","1","0.1620161121","","false","83","0.3294465445","","main_expt","0.2679993971","","0.1620161121","","0.2539803618","","","","","","",""
"110","","bandit","159","413233","0.0-121.0-0.0","32166633","wem/bandit_single","A19R04IXWA4ZLX","gain","4","","72","H","0","img/none_selected.jpg","0","0","1","0.3567704092","","false","84","0.3567704092","","main_expt","0.2187304288","","0.1920696542","","0.2665148507","","","","","","",""
"118","","bandit","160","415122","0.0-122.0-0.0","32166633","wem/bandit_single","A19R04IXWA4ZLX","gain","4","","72","H","0","img/none_selected.jpg","0","0","1","0.3637986046","","false","85","0.3637986046","","main_expt","0.2668074714","","0.1790321084","","0.2638978108","","","","","","",""
"155","","bandit","161","417047","0.0-123.0-0.0","32166633","wem/bandit_single","A19R04IXWA4ZLX","gain","4","","72","H","0","img/none_selected.jpg","0","0","1","0.3661817966","","false","86","0.3661817966","","main_expt","0.3011617684","","0.1644507099","","0.2430370424","","","","","","",""
"502","","bandit","162","419319","0.0-124.0-0.0","32166633","wem/bandit_single","A19R04IXWA4ZLX","gain","4","","74","J","1","","1","0","0","0.2866912597","","false","87","0.349996741","","main_expt","0.2866912597","","0.1731377232","","0.2369050713","","","","","","",""
"84","","bandit","163","421175","0.0-125.0-0.0","32166633","wem/bandit_single","A19R04IXWA4ZLX","gain","4","","74","J","1","","1","0","0","0.2921806028","","false","88","0.3021468993","","main_expt","0.2921806028","","0.1562940882","","0.2322244834","","","","","","",""
"69","","bandit","164","423016","0.0-126.0-0.0","32166633","wem/bandit_single","A19R04IXWA4ZLX","gain","4","","74","J","1","","0","0","1","0.2877077994","","false","89","0.2752269066","","main_expt","0.2877077994","","0.1344734597","","0.214722025","","","","","","",""
"113","","bandit","165","424900","0.0-127.0-0.0","32166633","wem/bandit_single","A19R04IXWA4ZLX","gain","4","","75","K","2","","0","0","1","0.1192135027","","false","90","0.3172240337","","main_expt","0.2390413286","","0.1192135027","","0.1767670318","","","","","","",""
"513","","bandit","166","427184","0.0-128.0-0.0","32166633","wem/bandit_single","A19R04IXWA4ZLX","gain","4","","75","K","2","","0","0","1","0.1639104845","","false","91","0.3049723864","","main_expt","0.2582098676","","0.1639104845","","0.1391375388","","","","","","",""
"29","","bandit","167","428983","0.0-129.0-0.0","32166633","wem/bandit_single","A19R04IXWA4ZLX","gain","4","","76","L","3","","0","0","1","0.1283323985","","false","92","0.3261529518","","main_expt","0.3066747335","","0.1960431165","","0.1283323985","","","","","","",""
"166","","bandit","168","430919","0.0-130.0-0.0","32166633","wem/bandit_single","A19R04IXWA4ZLX","gain","4","","74","J","1","","1","0","0","0.3051362106","","false","93","0.3550538726","","main_expt","0.3051362106","","0.2137056669","","0.07538544447","","","","","","",""
"45","","bandit","169","432735","0.0-131.0-0.0","32166633","wem/bandit_single","A19R04IXWA4ZLX","gain","4","","74","J","1","","0","0","1","0.3433649514","","false","94","0.3335231974","","main_expt","0.3433649514","","0.2188004936","","0.07407963518","","","","","","",""
"101","","bandit","170","434608","0.0-132.0-0.0","32166633","wem/bandit_single","A19R04IXWA4ZLX","gain","4","","74","J","1","","0","0","1","0.3638642947","","false","95","0.3060397856","","main_expt","0.3638642947","","0.2442185641","","0.06265185683","","","","","","",""
"97","","bandit","171","436476","0.0-133.0-0.0","32166633","wem/bandit_single","A19R04IXWA4ZLX","gain","4","","74","J","1","","0","0","1","0.3433071503","","false","96","0.3420618169","","main_expt","0.3433071503","","0.2062156096","","0.0626930361","","","","","","",""
"288","","bandit","172","438536","0.0-134.0-0.0","32166633","wem/bandit_single","A19R04IXWA4ZLX","gain","4","","75","K","2","","0","0","1","0.1824441478","","false","97","0.3451805041","","main_expt","0.3287523936","","0.1824441478","","0.03702031205","","","","","","",""
"99","","bandit","173","440407","0.0-135.0-0.0","32166633","wem/bandit_single","A19R04IXWA4ZLX","gain","4","","72","H","0","img/none_selected.jpg","0","0","1","0.3067376926","","false","98","0.3067376926","","main_expt","0.3384657171","","0.1741419228","","0.02896114516","","","","","","",""
"125","","bandit","174","442304","0.0-136.0-0.0","32166633","wem/bandit_single","A19R04IXWA4ZLX","gain","4","","72","H","0","img/none_selected.jpg","0","0","1","0.2980645096","","false","99","0.2980645096","","main_expt","0.3929596429","","0.1402348549","","0.04301278827","","","","","","",""
"108","","bandit","175","444185","0.0-137.0-0.0","32166633","wem/bandit_single","A19R04IXWA4ZLX","gain","4","","74","J","1","","0","0","1","0.3972918561","","false","100","0.2862788702","","main_expt","0.3972918561","","0.1856728267","","0.03198738169","","","","","","",""
"147","","bandit","176","446104","0.0-138.0-0.0","32166633","wem/bandit_single","A19R04IXWA4ZLX","gain","4","","76","L","3","","0","0","1","0.03387094668","","false","101","0.2622165861","","main_expt","0.4064604032","","0.1731032509","","0.03387094668","","","","","","",""
"82","","bandit","177","447958","0.0-139.0-0.0","32166633","wem/bandit_single","A19R04IXWA4ZLX","gain","4","","76","L","3","","0","0","1","0.0235124197","","false","102","0.3261799811","","main_expt","0.4273413635","","0.1387116465","","0.0235124197","","","","","","",""
"115","","bandit","178","449845","0.0-140.0-0.0","32166633","wem/bandit_single","A19R04IXWA4ZLX","gain","4","","75","K","2","","0","0","1","0.1880660303","","false","103","0.334814711","","main_expt","0.4566487837","","0.1880660303","","0.02482610326","","","","","","",""
"117","","bandit","179","451734","0.0-141.0-0.0","32166633","wem/bandit_single","A19R04IXWA4ZLX","gain","4","","74","J","1","","1","0","0","0.459539636","","false","104","0.3486298313","","main_expt","0.459539636","","0.142060421","","0.03330094042","","","","","","",""
"116","","bandit","180","453622","0.0-142.0-0.0","32166633","wem/bandit_single","A19R04IXWA4ZLX","gain","4","","74","J","1","","0","0","1","0.4462881264","","false","105","0.3538911629","","main_expt","0.4462881264","","0.1839839798","","0.06543537915","","","","","","",""
"117","","bandit","181","455511","0.0-143.0-0.0","32166633","wem/bandit_single","A19R04IXWA4ZLX","gain","4","","75","K","2","","0","0","1","0.1691947451","","false","106","0.3886974852","","main_expt","0.4417011126","","0.1691947451","","0.07051160025","","","","","","",""
"156","","bandit","182","457439","0.0-144.0-0.0","32166633","wem/bandit_single","A19R04IXWA4ZLX","gain","4","","75","K","2","","0","0","1","0.180010917","","false","107","0.3489433712","","main_expt","0.4419194373","","0.180010917","","0.08830456602","","","","","","",""
"100","","bandit","183","459312","0.0-145.0-0.0","32166633","wem/bandit_single","A19R04IXWA4ZLX","gain","4","","74","J","1","","1","0","0","0.4061848383","","false","108","0.3901728218","","main_expt","0.4061848383","","0.1338722415","","0.05921849724","","","","","","",""
"87","","bandit","184","461172","0.0-146.0-0.0","32166633","wem/bandit_single","A19R04IXWA4ZLX","gain","4","","74","J","1","","0","0","1","0.3906669636","","false","109","0.4006799949","","main_expt","0.3906669636","","0.1350853679","","0.04581125366","","","","","","",""
"424","","bandit","185","463371","0.0-147.0-0.0","32166633","wem/bandit_single","A19R04IXWA4ZLX","gain","4","","72","H","0","img/none_selected.jpg","0","0","1","0.3867714499","","false","110","0.3867714499","","main_expt","0.3969614195","","0.184551263","","0.08345510588","","","","","","",""
"505","","bandit","186","465647","0.0-148.0-0.0","32166633","wem/bandit_single","A19R04IXWA4ZLX","gain","4","","72","H","0","img/none_selected.jpg","0","0","1","0.4252141842","","false","111","0.4252141842","","main_expt","0.370186674","","0.2635344293","","0.07355878572","","","","","","",""
"108","","bandit","187","467528","0.0-149.0-0.0","32166633","wem/bandit_single","A19R04IXWA4ZLX","gain","4","","76","L","3","","0","0","1","0.09226575929","","false","112","0.4197282726","","main_expt","0.3488043283","","0.2972025743","","0.09226575929","","","","","","",""
"67","","bandit","188","469367","0.0-150.0-0.0","32166633","wem/bandit_single","A19R04IXWA4ZLX","gain","4","","74","J","1","","0","0","1","0.2886117592","","false","113","0.4371411526","","main_expt","0.2886117592","","0.2853398636","","0.07711661396","","","","","","",""
"53","","bandit","189","471192","0.0-151.0-0.0","32166633","wem/bandit_single","A19R04IXWA4ZLX","gain","4","","75","K","2","","0","0","1","0.2354235092","","false","114","0.4523407119","","main_expt","0.3507025671","","0.2354235092","","0.09366406151","","","","","","",""
"108","","bandit","190","473074","0.0-152.0-0.0","32166633","wem/bandit_single","A19R04IXWA4ZLX","gain","4","","74","J","1","","1","0","0","0.3308051733","","false","115","0.4544977282","","main_expt","0.3308051733","","0.2228923984","","0.09297781317","","","","","","",""
"208","","bandit","191","475064","0.0-153.0-0.0","32166633","wem/bandit_single","A19R04IXWA4ZLX","gain","4","","74","J","1","","0","0","1","0.2696902145","","false","116","0.4458191396","","main_expt","0.2696902145","","0.182615248","","0.09292735615","","","","","","",""
"98","","bandit","192","476936","0.0-154.0-0.0","32166633","wem/bandit_single","A19R04IXWA4ZLX","gain","4","","72","H","0","img/none_selected.jpg","1","0","0","0.4384124693","","false","117","0.4384124693","","main_expt","0.3048340551","","0.1702457594","","0.1277349031","","","","","","",""
"66","","bandit","193","478775","0.0-155.0-0.0","32166633","wem/bandit_single","A19R04IXWA4ZLX","gain","4","","72","H","0","img/none_selected.jpg","0","0","1","0.4590850855","","false","118","0.4590850855","","main_expt","0.2682044258","","0.2075823826","","0.1057820856","","","","","","",""
"108","","bandit","194","480656","0.0-156.0-0.0","32166633","wem/bandit_single","A19R04IXWA4ZLX","gain","4","","72","H","0","img/none_selected.jpg","0","0","1","0.4718937063","","false","119","0.4718937063","","main_expt","0.2314514612","","0.2281388084","","0.08453932314","","","","","","",""
"57","","bandit","195","482487","0.0-157.0-0.0","32166633","wem/bandit_single","A19R04IXWA4ZLX","gain","4","","75","K","2","","0","0","1","0.2620651535","","false","120","0.4645470247","","main_expt","0.197474053","","0.2620651535","","0.1106897037","","","","","","",""
"250","","bandit","196","484512","0.0-158.0-0.0","32166633","wem/bandit_single","A19R04IXWA4ZLX","gain","4","","76","L","3","","0","0","1","0.1200625234","","false","121","0.4422277234","","main_expt","0.1819521248","","0.2953433235","","0.1200625234","","","","","","",""
"155","","bandit","197","486440","0.0-159.0-0.0","32166633","wem/bandit_single","A19R04IXWA4ZLX","gain","4","","75","K","2","","0","0","1","0.2702367277","","false","122","0.4150525319","","main_expt","0.171732915","","0.2702367277","","0.1570760405","","","","","","",""
"51","","bandit","198","488278","0.0-160.0-0.0","32166633","wem/bandit_single","A19R04IXWA4ZLX","gain","4","","74","J","1","","0","0","1","0.1577660673","","false","123","0.4356762379","","main_expt","0.1577660673","","0.3190818872","","0.1616024906","","","","","","",""
"107","","bandit","199","490162","0.0-161.0-0.0","32166633","wem/bandit_single","A19R04IXWA4ZLX","gain","4","","74","J","1","","0","0","1","0.1384195938","","false","124","0.4475351861","","main_expt","0.1384195938","","0.3415455108","","0.1371750093","","","","","","",""
"23","","bandit","200","491961","0.0-162.0-0.0","32166633","wem/bandit_single","A19R04IXWA4ZLX","gain","4","","72","H","0","img/none_selected.jpg","1","0","0","0.4310995666","","false","125","0.4310995666","","main_expt","0.1367208018","","0.3955313072","","0.1293707667","","","","","","",""
"153","","bandit","201","493889","0.0-163.0-0.0","32166633","wem/bandit_single","A19R04IXWA4ZLX","gain","4","","72","H","0","img/none_selected.jpg","0","0","1","0.4246911586","","false","126","0.4246911586","","main_expt","0.14570125","","0.4150522509","","0.1231453761","","","","","","",""
"17","","bandit","202","495682","0.0-164.0-0.0","32166633","wem/bandit_single","A19R04IXWA4ZLX","gain","4","","72","H","0","img/none_selected.jpg","1","0","0","0.3855858577","","false","127","0.3855858577","","main_expt","0.116128816","","0.3803228979","","0.1044431599","","","","","","",""
"54","","bandit","203","497512","0.0-165.0-0.0","32166633","wem/bandit_single","A19R04IXWA4ZLX","gain","4","","72","H","0","img/none_selected.jpg","1","0","0","0.3886900275","","false","128","0.3886900275","","main_expt","0.1118736017","","0.4028097642","","0.07509994275","","","","","","",""
"90","","bandit","204","499383","0.0-166.0-0.0","32166633","wem/bandit_single","A19R04IXWA4ZLX","gain","4","","72","H","0","img/none_selected.jpg","1","0","0","0.3712880315","","false","129","0.3712880315","","main_expt","0.1153634536","","0.3759087187","","0.07499531951","","","","","","",""
"105","","bandit","205","501264","0.0-167.0-0.0","32166633","wem/bandit_single","A19R04IXWA4ZLX","gain","4","","72","H","0","img/none_selected.jpg","0","0","1","0.3163545042","","false","130","0.3163545042","","main_expt","0.09323577747","","0.3578404683","","0.06898381409","","","","","","",""
"66","","bandit","206","503104","0.0-168.0-0.0","32166633","wem/bandit_single","A19R04IXWA4ZLX","gain","4","","72","H","0","img/none_selected.jpg","1","0","0","0.3203759455","","false","131","0.3203759455","","main_expt","0.1064947735","","0.3874222675","","0.08255272978","","","","","","",""
"58","","bandit","207","504936","0.0-169.0-0.0","32166633","wem/bandit_single","A19R04IXWA4ZLX","gain","4","","72","H","0","img/none_selected.jpg","0","0","1","0.3128419263","","false","132","0.3128419263","","main_expt","0.1574274544","","0.3773694481","","0.06266196304","","","","","","",""
"0","","bandit","208","506712","0.0-170.0-0.0","32166633","wem/bandit_single","A19R04IXWA4ZLX","gain","4","","72","H","0","img/none_selected.jpg","1","0","0","0.3057041938","","false","133","0.3057041938","","main_expt","0.1613106331","","0.3961249281","","0.06584579886","","","","","","",""
"464","","bandit","209","508953","0.0-171.0-0.0","32166633","wem/bandit_single","A19R04IXWA4ZLX","gain","4","","72","H","0","img/none_selected.jpg","0","0","1","0.2816585421","","false","134","0.2816585421","","main_expt","0.1660744508","","0.4152923946","","0.05935363428","","","","","","",""
"32","","bandit","210","510762","0.0-172.0-0.0","32166633","wem/bandit_single","A19R04IXWA4ZLX","gain","4","","72","H","0","img/none_selected.jpg","0","0","1","0.2955422992","","false","135","0.2955422992","","main_expt","0.1973964499","","0.4424865849","","0.05732645975","","","","","","",""
"68","","bandit","211","512606","0.0-173.0-0.0","32166633","wem/bandit_single","A19R04IXWA4ZLX","gain","4","","72","H","0","img/none_selected.jpg","0","0","1","0.3509846551","","false","136","0.3509846551","","main_expt","0.1813196928","","0.4465543098","","0.07342087183","","","","","","",""
"332","","bandit","212","514713","0.0-174.0-0.0","32166633","wem/bandit_single","A19R04IXWA4ZLX","gain","4","","75","K","2","","0","0","1","0.4520996047","","false","137","0.3344410146","","main_expt","0.1859539446","","0.4520996047","","0.07676045657","","","","","","",""
"64","","bandit","213","516552","0.0-175.0-0.0","32166633","wem/bandit_single","A19R04IXWA4ZLX","gain","4","","75","K","2","","0","0","1","0.428300575","","false","138","0.2657268636","","main_expt","0.1014888705","","0.428300575","","0.09127868582","","","","","","",""
"66","","bandit","214","518392","0.0-176.0-0.0","32166633","wem/bandit_single","A19R04IXWA4ZLX","gain","4","","76","L","3","","0","0","1","0.1057771966","","false","139","0.2267955479","","main_expt","0.09034098631","","0.419833238","","0.1057771966","","","","","","",""
"2","","bandit","215","520170","0.0-177.0-0.0","32166633","wem/bandit_single","A19R04IXWA4ZLX","gain","4","","74","J","1","","0","0","1","0.09102227313","","false","140","0.2278141127","","main_expt","0.09102227313","","0.423721229","","0.1134354218","","","","","","",""
"119","","bandit","216","522063","0.0-178.0-0.0","32166633","wem/bandit_single","A19R04IXWA4ZLX","gain","4","","76","L","3","","0","0","1","0.1205694848","","false","141","0.23653477","","main_expt","0.1095349378","","0.4382479885","","0.1205694848","","","","","","",""
"41","","bandit","217","523879","0.0-179.0-0.0","32166633","wem/bandit_single","A19R04IXWA4ZLX","gain","4","","72","H","0","img/none_selected.jpg","0","0","1","0.2155890047","","false","142","0.2155890047","","main_expt","0.1184068784","","0.4247465964","","0.1423721259","","","","","","",""
"49","","bandit","218","525703","0.0-180.0-0.0","32166633","wem/bandit_single","A19R04IXWA4ZLX","gain","4","","72","H","0","img/none_selected.jpg","0","0","1","0.2203428631","","false","143","0.2203428631","","main_expt","0.1056920569","","0.3978340057","","0.1199770031","","","","","","",""
"19","","bandit","219","527496","0.0-181.0-0.0","32166633","wem/bandit_single","A19R04IXWA4ZLX","gain","4","","75","K","2","","0","0","1","0.4094639435","","false","144","0.1834171178","","main_expt","0.1563123998","","0.4094639435","","0.1431068991","","","","","","",""
"57","","bandit","220","529328","0.0-182.0-0.0","32166633","wem/bandit_single","A19R04IXWA4ZLX","gain","4","","75","K","2","","1","0","0","0.4198905501","","false","145","0.2064693802","","main_expt","0.09088636348","","0.4198905501","","0.1630017245","","","","","","",""
"17","","bandit","221","531119","0.0-183.0-0.0","32166633","wem/bandit_single","A19R04IXWA4ZLX","gain","4","","75","K","2","","0","0","1","0.4050886303","","false","146","0.1342941172","","main_expt","0.0827806059","","0.4050886303","","0.145034553","","","","","","",""
"455","","bandit","222","533351","0.0-184.0-0.0","32166633","wem/bandit_single","A19R04IXWA4ZLX","gain","4","","75","K","2","","0","0","1","0.3785891444","","false","147","0.1515740161","","main_expt","0.1149215639","","0.3785891444","","0.1488017726","","","","","","",""
"313","","bandit","223","535441","0.0-185.0-0.0","32166633","wem/bandit_single","A19R04IXWA4ZLX","gain","4","","74","J","1","","0","0","1","0.1099148444","","false","148","0.1212747878","","main_expt","0.1099148444","","0.3854511928","","0.1582677895","","","","","","",""
"63","","bandit","224","537315","0.0-186.0-0.0","32166633","wem/bandit_single","A19R04IXWA4ZLX","gain","4","","74","J","1","","0","0","1","0.1127327795","","false","149","0.08453377975","","main_expt","0.1127327795","","0.3928641012","","0.1647072654","","","","","","",""
"67","","bandit","225","539157","0.0-187.0-0.0","32166633","wem/bandit_single","A19R04IXWA4ZLX","gain","4","","76","L","3","","0","0","1","0.1333243968","","false","150","0.1060211344","","main_expt","0.1477728786","","0.3981420368","","0.1333243968","","","","","","",""
"50","","bandit","226","540983","0.0-188.0-0.0","32166633","wem/bandit_single","A19R04IXWA4ZLX","gain","4","","76","L","3","","0","0","1","0.1232516149","","false","151","0.06473992137","","main_expt","0.1634569086","","0.3954234158","","0.1232516149","","","","","","",""
"100","","bandit","227","542857","0.0-189.0-0.0","32166633","wem/bandit_single","A19R04IXWA4ZLX","gain","4","","75","K","2","","0","0","1","0.3684376671","","false","152","0.07847139908","","main_expt","0.2119786212","","0.3684376671","","0.1218764731","","","","","","",""
"111","","bandit","228","544743","0.0-190.0-0.0","32166633","wem/bandit_single","A19R04IXWA4ZLX","gain","4","","75","K","2","","0","0","1","0.3586265296","","false","153","0.06170083269","","main_expt","0.190815194","","0.3586265296","","0.1181944444","","","","","","",""
"120","","bandit","229","546640","0.0-191.0-0.0","32166633","wem/bandit_single","A19R04IXWA4ZLX","gain","4","","72","H","0","img/none_selected.jpg","0","0","1","0.07752027139","","false","154","0.07752027139","","main_expt","0.2539230859","","0.3711835277","","0.1524072167","","","","","","",""
"103","","bandit","230","548518","0.0-192.0-0.0","32166633","wem/bandit_single","A19R04IXWA4ZLX","gain","4","","72","H","0","img/none_selected.jpg","0","0","1","0.07430376846","","false","155","0.07430376846","","main_expt","0.2214647723","","0.3296220366","","0.2181316645","","","","","","",""
"194","","bandit","231","550487","0.0-193.0-0.0","32166633","wem/bandit_single","A19R04IXWA4ZLX","gain","4","","72","H","0","img/none_selected.jpg","0","0","1","0.05925504694","","false","156","0.05925504694","","main_expt","0.1812397975","","0.287903252","","0.213475765","","","","","","",""
"65","","bandit","232","552327","0.0-194.0-0.0","32166633","wem/bandit_single","A19R04IXWA4ZLX","gain","4","","72","H","0","img/none_selected.jpg","0","0","1","0.0737155059","","false","157","0.0737155059","","main_expt","0.1447548225","","0.296290929","","0.2264995707","","","","","","",""
"73","","bandit","233","554209","0.0-195.0-0.0","32166633","wem/bandit_single","A19R04IXWA4ZLX","gain","4","","75","K","2","","1","0","0","0.2721348168","","false","158","0.05755321342","","main_expt","0.1458137519","","0.2721348168","","0.2991482761","","","","","","",""
"143","","bandit","234","556127","0.0-196.0-0.0","32166633","wem/bandit_single","A19R04IXWA4ZLX","gain","4","","75","K","2","","1","0","0","0.2765185667","","false","159","0.1007830752","","main_expt","0.1035755389","","0.2765185667","","0.3365391658","","","","","","",""
"85","","bandit","235","557988","0.0-197.0-0.0","32166633","wem/bandit_single","A19R04IXWA4ZLX","gain","4","","75","K","2","","0","0","1","0.3162688162","","false","160","0.06149362121","","main_expt","0.1142027444","","0.3162688162","","0.313402929","","","","","","",""
"97","","bandit","236","559859","0.0-198.0-0.0","32166633","wem/bandit_single","A19R04IXWA4ZLX","gain","4","","75","K","2","","0","0","1","0.3302336848","","false","161","0.09516109007","","main_expt","0.1510988582","","0.3302336848","","0.3529908654","","","","","","",""
"53","","bandit","237","561687","0.0-199.0-0.0","32166633","wem/bandit_single","A19R04IXWA4ZLX","gain","4","","75","K","2","","0","0","1","0.3622896815","","false","162","0.08429007215","","main_expt","0.1720124831","","0.3622896815","","0.3608295961","","","","","","",""
"488","","bandit","238","563952","0.0-200.0-0.0","32166633","wem/bandit_single","A19R04IXWA4ZLX","gain","4","","76","L","3","","0","0","1","0.4197284319","","false","163","0.1199893575","","main_expt","0.2119433459","","0.3696580379","","0.4197284319","","","","","","",""
"74","","bandit","239","565803","0.0-201.0-0.0","32166633","wem/bandit_single","A19R04IXWA4ZLX","gain","4","","74","J","1","","0","0","1","0.2413639604","","false","164","0.1353867718","","main_expt","0.2413639604","","0.3217553384","","0.4162507976","","","","","","",""
"60","","bandit","240","567639","0.0-202.0-0.0","32166633","wem/bandit_single","A19R04IXWA4ZLX","gain","4","","76","L","3","","1","0","0","0.424344073","","false","165","0.08700720397","","main_expt","0.3231443763","","0.2370356752","","0.424344073","","","","","","",""
"116","","bandit","241","569530","0.0-203.0-0.0","32166633","wem/bandit_single","A19R04IXWA4ZLX","gain","4","","76","L","3","","0","0","1","0.4385436022","","false","166","0.09613155095","","main_expt","0.2907209657","","0.1952619304","","0.4385436022","","","","","","",""
"66","","bandit","242","571372","0.0-204.0-0.0","32166633","wem/bandit_single","A19R04IXWA4ZLX","gain","4","","76","L","3","","0","0","1","0.4428370211","","false","167","0.08740230362","","main_expt","0.2386263765","","0.2008635704","","0.4428370211","","","","","","",""
"419","","bandit","243","573567","0.0-205.0-0.0","32166633","wem/bandit_single","A19R04IXWA4ZLX","gain","4","","75","K","2","","0","0","1","0.2872582577","","false","168","0.1033010443","","main_expt","0.2802872421","","0.2872582577","","0.4475632301","","","","","","",""
"101","","bandit","244","575442","0.0-206.0-0.0","32166633","wem/bandit_single","A19R04IXWA4ZLX","gain","4","","75","K","2","","1","0","0","0.2478638945","","false","169","0.1288835215","","main_expt","0.2858578204","","0.2478638945","","0.4358894507","","","","","","",""
"125","","bandit","245","577343","0.0-207.0-0.0","32166633","wem/bandit_single","A19R04IXWA4ZLX","gain","4","","75","K","2","","0","0","1","0.2335785199","","false","170","0.0821831217","","main_expt","0.3542119366","","0.2335785199","","0.4401344765","","","","","","",""
"70","","bandit","246","579188","0.0-208.0-0.0","32166633","wem/bandit_single","A19R04IXWA4ZLX","gain","4","","75","K","2","","0","0","1","0.263029084","","false","171","0.08448133796","","main_expt","0.363516632","","0.263029084","","0.4182824287","","","","","","",""
"58","","bandit","247","581022","0.0-209.0-0.0","32166633","wem/bandit_single","A19R04IXWA4ZLX","gain","4","","72","H","0","img/none_selected.jpg","1","0","0","0.1142172702","","false","172","0.1142172702","","main_expt","0.3285232471","","0.282237019","","0.4206293302","","","","","","",""
"86","","bandit","248","582885","0.0-210.0-0.0","32166633","wem/bandit_single","A19R04IXWA4ZLX","gain","4","","72","H","0","img/none_selected.jpg","0","0","1","0.1585219493","","false","173","0.1585219493","","main_expt","0.3379934215","","0.2798091978","","0.4424673434","","","","","","",""
"113","","bandit","249","584773","0.0-211.0-0.0","32166633","wem/bandit_single","A19R04IXWA4ZLX","gain","4","","72","H","0","img/none_selected.jpg","1","0","0","0.2167008269","","false","174","0.2167008269","","main_expt","0.2937018888","","0.2782342077","","0.4470793942","","","","","","",""
"114","","bandit","250","586662","0.0-212.0-0.0","32166633","wem/bandit_single","A19R04IXWA4ZLX","gain","4","","72","H","0","img/none_selected.jpg","0","0","1","0.2564405216","","false","175","0.2564405216","","main_expt","0.2691073907","","0.3095951925","","0.4466152725","","","","","","",""
"73","","bandit","251","588546","0.0-213.0-0.0","32166633","wem/bandit_single","A19R04IXWA4ZLX","gain","4","","72","H","0","img/none_selected.jpg","1","0","0","0.2740916264","","false","176","0.2740916264","","main_expt","0.2797966768","","0.3149167583","","0.4622816701","","","","","","",""
"60","","bandit","252","590383","0.0-214.0-0.0","32166633","wem/bandit_single","A19R04IXWA4ZLX","gain","4","","75","K","2","","0","0","1","0.3057016371","","false","177","0.2701885048","","main_expt","0.2956207272","","0.3057016371","","0.4791174255","","","","","","",""
"56","","bandit","253","592214","0.0-215.0-0.0","32166633","wem/bandit_single","A19R04IXWA4ZLX","gain","4","","72","H","0","img/none_selected.jpg","0","0","1","0.2525299603","","false","178","0.2525299603","","main_expt","0.2903749226","","0.2973749651","","0.4878404122","","","","","","",""
"66","","bandit","254","594055","0.0-216.0-0.0","32166633","wem/bandit_single","A19R04IXWA4ZLX","gain","4","","74","J","1","","0","0","1","0.2324022499","","false","179","0.2923151224","","main_expt","0.2324022499","","0.3205080684","","0.4871204803","","","","","","",""
"118","","bandit","255","595950","0.0-217.0-0.0","32166633","wem/bandit_single","A19R04IXWA4ZLX","gain","4","","74","J","1","","0","0","1","0.157369965","","false","180","0.2712435876","","main_expt","0.157369965","","0.3668921479","","0.4783768728","","","","","","",""
"24","","bandit","256","597753","0.0-218.0-0.0","32166633","wem/bandit_single","A19R04IXWA4ZLX","gain","4","","76","L","3","","0","0","1","0.4791844977","","false","181","0.2911825171","","main_expt","0.1928111427","","0.36743573","","0.4791844977","","","","","","",""
"133","","bandit","257","599663","0.0-219.0-0.0","32166633","wem/bandit_single","A19R04IXWA4ZLX","gain","4","","76","L","3","","0","0","1","0.4796326775","","false","182","0.2812290194","","main_expt","0.1831473083","","0.3444330154","","0.4796326775","","","","","","",""
"431","","bandit","258","601870","0.0-220.0-0.0","32166633","wem/bandit_single","A19R04IXWA4ZLX","gain","4","","75","K","2","","1","0","0","0.376594699","","false","183","0.2998653002","","main_expt","0.1367876881","","0.376594699","","0.4610412729","","","","","","",""
"120","","bandit","259","603766","0.0-221.0-0.0","32166633","wem/bandit_single","A19R04IXWA4ZLX","gain","4","","75","K","2","","0","0","1","0.3576767422","","false","184","0.3019566185","","main_expt","0.1225312115","","0.3576767422","","0.4654872089","","","","","","",""
"73","","bandit","260","605615","0.0-222.0-0.0","32166633","wem/bandit_single","A19R04IXWA4ZLX","gain","4","","72","H","0","img/none_selected.jpg","1","0","0","0.3297019868","","false","185","0.3297019868","","main_expt","0.1342014861","","0.3420219295","","0.4579605539","","","","","","",""
"63","","bandit","261","607454","0.0-223.0-0.0","32166633","wem/bandit_single","A19R04IXWA4ZLX","gain","4","","72","H","0","img/none_selected.jpg","0","0","1","0.3522504082","","false","186","0.3522504082","","main_expt","0.1302900424","","0.3398722127","","0.4285966985","","","","","","",""
"120","","bandit","262","609350","0.0-224.0-0.0","32166633","wem/bandit_single","A19R04IXWA4ZLX","gain","4","","75","K","2","","0","0","1","0.3329123812","","false","187","0.3716798598","","main_expt","0.1721475048","","0.3329123812","","0.4348535533","","","","","","",""
"256","","bandit","263","611382","0.0-225.0-0.0","32166633","wem/bandit_single","A19R04IXWA4ZLX","gain","4","","74","J","1","","0","0","1","0.194848396","","false","188","0.3516931858","","main_expt","0.194848396","","0.3185375489","","0.4485299143","","","","","","",""
"456","","bandit","264","613614","0.0-226.0-0.0","32166633","wem/bandit_single","A19R04IXWA4ZLX","gain","4","","76","L","3","","0","0","1","0.4108460603","","false","189","0.311825216","","main_expt","0.2010474049","","0.2819885058","","0.4108460603","","","","","","",""
"207","","bandit","265","615599","0.0-227.0-0.0","32166633","wem/bandit_single","A19R04IXWA4ZLX","gain","4","","75","K","2","","0","0","1","0.2938453289","","false","190","0.3228194114","","main_expt","0.2388592571","","0.2938453289","","0.4276881046","","","","","","",""
"158","","bandit","266","617535","0.0-228.0-0.0","32166633","wem/bandit_single","A19R04IXWA4ZLX","gain","4","","75","K","2","","1","0","0","0.3252392313","","false","191","0.3070679034","","main_expt","0.2125939305","","0.3252392313","","0.4252680513","","","","","","",""
"109","","bandit","267","619421","0.0-229.0-0.0","32166633","wem/bandit_single","A19R04IXWA4ZLX","gain","4","","75","K","2","","0","0","1","0.2886148476","","false","192","0.3224985291","","main_expt","0.2494953747","","0.2886148476","","0.4128843357","","","","","","",""
"63","","bandit","268","621261","0.0-230.0-0.0","32166633","wem/bandit_single","A19R04IXWA4ZLX","gain","4","","72","H","0","img/none_selected.jpg","1","0","0","0.3869795439","","false","193","0.3869795439","","main_expt","0.2831479201","","0.2985788169","","0.3935422506","","","","","","",""
"184","","bandit","269","623222","0.0-231.0-0.0","32166633","wem/bandit_single","A19R04IXWA4ZLX","gain","4","","72","H","0","img/none_selected.jpg","1","0","0","0.4012627402","","false","194","0.4012627402","","main_expt","0.3119862296","","0.2480640489","","0.3844836544","","","","","","",""
"116","","bandit","270","625114","0.0-232.0-0.0","32166633","wem/bandit_single","A19R04IXWA4ZLX","gain","4","","72","H","0","img/none_selected.jpg","0","0","1","0.3984750166","","false","195","0.3984750166","","main_expt","0.3216729489","","0.2512767584","","0.3676726872","","","","","","",""
"356","","bandit","271","627256","0.0-233.0-0.0","32166633","wem/bandit_single","A19R04IXWA4ZLX","gain","4","","75","K","2","","1","0","0","0.2465093633","","false","196","0.354698241","","main_expt","0.3321806914","","0.2465093633","","0.3789354293","","","","","","",""
"100","","bandit","272","629134","0.0-234.0-0.0","32166633","wem/bandit_single","A19R04IXWA4ZLX","gain","4","","75","K","2","","0","0","1","0.2064088789","","false","197","0.388220233","","main_expt","0.3046277309","","0.2064088789","","0.3163718389","","","","","","",""
"103","","bandit","273","631013","0.0-235.0-0.0","32166633","wem/bandit_single","A19R04IXWA4ZLX","gain","4","","72","H","0","img/none_selected.jpg","0","0","1","0.3702696144","","false","198","0.3702696144","","main_expt","0.2780350238","","0.1991167995","","0.3791854339","","","","","","",""
"159","","bandit","274","632950","0.0-236.0-0.0","32166633","wem/bandit_single","A19R04IXWA4ZLX","gain","4","","72","H","0","img/none_selected.jpg","1","0","0","0.3901406761","","false","199","0.3901406761","","main_expt","0.2933352516","","0.217931059","","0.3677616307","","","","","","",""
"0","","bandit","275","634728","0.0-237.0-0.0","32166633","wem/bandit_single","A19R04IXWA4ZLX","gain","4","","72","H","0","img/none_selected.jpg","0","0","1","0.3606677237","","false","200","0.3606677237","","main_expt","0.2826656477","","0.1684289921","","0.3696360463","","","","","","",""
"37","","bandit","276","636542","0.0-238.0-0.0","32166633","wem/bandit_single","A19R04IXWA4ZLX","gain","4","","74","J","1","","0","0","1","0.2337361703","","false","201","0.3608273241","","main_expt","0.2337361703","","0.1526494416","","0.3685313937","","","","","","",""
"399","","bandit","277","638719","0.0-239.0-0.0","32166633","wem/bandit_single","A19R04IXWA4ZLX","gain","4","","76","L","3","","0","0","1","0.354480527","","false","202","0.3495453025","","main_expt","0.1697000529","","0.1474087426","","0.354480527","","","","","","",""
"101","","bandit","278","640599","0.0-240.0-0.0","32166633","wem/bandit_single","A19R04IXWA4ZLX","gain","4","","76","L","3","","0","0","1","0.3420940801","","false","203","0.3660628182","","main_expt","0.1941246875","","0.1499100939","","0.3420940801","","","","","","",""
"45","","bandit","279","642422","0.0-241.0-0.0","32166633","wem/bandit_single","A19R04IXWA4ZLX","gain","4","","75","K","2","","0","0","1","0.173155318","","false","204","0.337040125","","main_expt","0.2006574904","","0.173155318","","0.3365711719","","","","","","",""
"105","","bandit","280","644304","0.0-242.0-0.0","32166633","wem/bandit_single","A19R04IXWA4ZLX","gain","4","","75","K","2","","0","0","1","0.1813441082","","false","205","0.303371863","","main_expt","0.1905393187","","0.1813441082","","0.3517226909","","","","","","",""
"20","","bandit","281","646102","0.0-243.0-0.0","32166633","wem/bandit_single","A19R04IXWA4ZLX","gain","4","","75","K","2","","1","0","0","0.1491413167","","false","206","0.256221391","","main_expt","0.1715448013","","0.1491413167","","0.3476038752","","","","","","",""
"103","","bandit","282","647982","0.0-244.0-0.0","32166633","wem/bandit_single","A19R04IXWA4ZLX","gain","4","","75","K","2","","0","0","1","0.08847738283","","false","207","0.2368802791","","main_expt","0.1857981004","","0.08847738283","","0.3349551135","","","","","","",""
"64","","bandit","283","649823","0.0-245.0-0.0","32166633","wem/bandit_single","A19R04IXWA4ZLX","gain","4","","72","H","0","img/none_selected.jpg","1","0","0","0.1949321076","","false","208","0.1949321076","","main_expt","0.2102455122","","0.1283817583","","0.342580335","","","","","","",""
"110","","bandit","284","651712","0.0-246.0-0.0","32166633","wem/bandit_single","A19R04IXWA4ZLX","gain","4","","72","H","0","img/none_selected.jpg","1","0","0","0.1838736563","","false","209","0.1838736563","","main_expt","0.2400108979","","0.116273769","","0.3043768385","","","","","","",""
"100","","bandit","285","653591","0.0-247.0-0.0","32166633","wem/bandit_single","A19R04IXWA4ZLX","gain","4","","72","H","0","img/none_selected.jpg","1","0","0","0.2021797606","","false","210","0.2021797606","","main_expt","0.2756077388","","0.1255054793","","0.2578785415","","","","","","",""
"118","","bandit","286","655487","0.0-248.0-0.0","32166633","wem/bandit_single","A19R04IXWA4ZLX","gain","4","","72","H","0","img/none_selected.jpg","0","0","1","0.1724183734","","false","211","0.1724183734","","main_expt","0.2509099491","","0.1183517879","","0.2684152162","","","","","","",""
"36","","bandit","287","657302","0.0-249.0-0.0","32166633","wem/bandit_single","A19R04IXWA4ZLX","gain","4","","72","H","0","img/none_selected.jpg","1","0","0","0.1730984207","","false","212","0.1730984207","","main_expt","0.1980821896","","0.05794836862","","0.2734791169","","","","","","",""
"62","","bandit","288","659176","0.0-250.0-0.0","32166633","wem/bandit_single","A19R04IXWA4ZLX","gain","4","","72","H","0","img/none_selected.jpg","0","0","1","0.1324166562","","false","213","0.1324166562","","main_expt","0.1925164192","","0.05975327623","","0.2278558496","","","","","","",""
"15","","bandit","289","660969","0.0-251.0-0.0","32166633","wem/bandit_single","A19R04IXWA4ZLX","gain","4","","72","H","0","img/none_selected.jpg","1","0","0","0.1503769339","","false","214","0.1503769339","","main_expt","0.2265747235","","0.08438277685","","0.3028606466","","","","","","",""
"138","","bandit","290","662885","0.0-252.0-0.0","32166633","wem/bandit_single","A19R04IXWA4ZLX","gain","4","","72","H","0","img/none_selected.jpg","1","0","0","0.1957560139","","false","215","0.1957560139","","main_expt","0.2019374621","","0.06249742642","","0.2931323275","","","","","","",""
"5","","bandit","291","664669","0.0-253.0-0.0","32166633","wem/bandit_single","A19R04IXWA4ZLX","gain","4","","72","H","0","img/none_selected.jpg","0","0","1","0.2405167914","","false","216","0.2405167914","","main_expt","0.1789305456","","0.03962767808","","0.3496422565","","","","","","",""
"22","","bandit","292","666471","0.0-254.0-0.0","32166633","wem/bandit_single","A19R04IXWA4ZLX","gain","4","","72","H","0","img/none_selected.jpg","1","0","0","0.1730494568","","false","217","0.1730494568","","main_expt","0.1749198907","","0.04234009702","","0.3773047798","","","","","","",""
"110","","bandit","293","668360","0.0-255.0-0.0","32166633","wem/bandit_single","A19R04IXWA4ZLX","gain","4","","72","H","0","img/none_selected.jpg","1","0","0","0.194438436","","false","218","0.194438436","","main_expt","0.1735363699","","0.03503126556","","0.3416605923","","","","","","",""
"363","","bandit","294","670503","0.0-256.0-0.0","32166633","wem/bandit_single","A19R04IXWA4ZLX","gain","4","","72","H","0","img/none_selected.jpg","0","0","1","0.1883779435","","false","219","0.1883779435","","main_expt","0.2007391453","","0.04555228435","","0.3559276739","","","","","","",""
"20","","bandit","295","672303","0.0-257.0-0.0","32166633","wem/bandit_single","A19R04IXWA4ZLX","gain","4","","72","H","0","img/none_selected.jpg","0","0","1","0.146052069","","false","220","0.146052069","","main_expt","0.2082644318","","0.03183460319","","0.3535435837","","","","","","",""
"116","","bandit","296","674199","0.0-258.0-0.0","32166633","wem/bandit_single","A19R04IXWA4ZLX","gain","4","","75","K","2","","0","0","1","0.05071015327","","false","221","0.1494285134","","main_expt","0.1821586712","","0.05071015327","","0.3418709783","","","","","","",""
"404","","bandit","297","676383","0.0-259.0-0.0","32166633","wem/bandit_single","A19R04IXWA4ZLX","gain","4","","76","L","3","","0","0","1","0.3004905908","","false","222","0.182387278","","main_expt","0.2158533928","","0.04027023507","","0.3004905908","","","","","","",""
"420","","bandit","298","678583","0.0-260.0-0.0","32166633","wem/bandit_single","A19R04IXWA4ZLX","gain","4","","74","J","1","","1","0","0","0.1832968935","","false","223","0.198140534","","main_expt","0.1832968935","","0.05247893246","","0.3691689592","","","","","","",""
"101","","bandit","299","680463","0.0-261.0-0.0","32166633","wem/bandit_single","A19R04IXWA4ZLX","gain","4","","74","J","1","","0","0","1","0.1701073256","","false","224","0.1957066115","","main_expt","0.1701073256","","0.06352932029","","0.2915556832","","","","","","",""
"140","","bandit","300","682381","0.0-262.0-0.0","32166633","wem/bandit_single","A19R04IXWA4ZLX","gain","4","","74","J","1","","0","0","1","0.1599508429","","false","225","0.2132826896","","main_expt","0.1599508429","","0.04388745626","","0.3175642321","","","","","","",""
"173","","bandit","301","684334","0.0-263.0-0.0","32166633","wem/bandit_single","A19R04IXWA4ZLX","gain","4","","76","L","3","","0","0","1","0.2803716623","","false","226","0.2679811769","","main_expt","0.1801289829","","0.0536624769","","0.2803716623","","","","","","",""
"124","","bandit","302","686237","0.0-264.0-0.0","32166633","wem/bandit_single","A19R04IXWA4ZLX","gain","4","","75","K","2","","0","0","1","0.07211167966","","false","227","0.2101601544","","main_expt","0.1920788888","","0.07211167966","","0.2506224893","","","","","","",""
"90","","bandit","303","688108","0.0-265.0-0.0","32166633","wem/bandit_single","A19R04IXWA4ZLX","gain","4","","75","K","2","","0","0","1","0.04486621846","","false","228","0.1808571688","","main_expt","0.1540575712","","0.04486621846","","0.2890404278","","","","","","",""
"109","","bandit","304","689996","0.0-266.0-0.0","32166633","wem/bandit_single","A19R04IXWA4ZLX","gain","4","","72","H","0","img/none_selected.jpg","1","0","0","0.1132309001","","false","229","0.1132309001","","main_expt","0.161449161","","0.05387953984","","0.2746035793","","","","","","",""
"71","","bandit","305","691846","0.0-267.0-0.0","32166633","wem/bandit_single","A19R04IXWA4ZLX","gain","4","","72","H","0","img/none_selected.jpg","1","0","0","0.1450818377","","false","230","0.1450818377","","main_expt","0.1413021421","","0.03848872117","","0.282726532","","","","","","",""
"114","","bandit","306","693740","0.0-268.0-0.0","32166633","wem/bandit_single","A19R04IXWA4ZLX","gain","4","","72","H","0","img/none_selected.jpg","0","0","1","0.1077137685","","false","231","0.1077137685","","main_expt","0.1745796094","","0.04669383004","","0.3472256411","","","","","","",""
"46","","bandit","307","695566","0.0-269.0-0.0","32166633","wem/bandit_single","A19R04IXWA4ZLX","gain","4","","72","H","0","img/none_selected.jpg","0","0","1","0.06427161289","","false","232","0.06427161289","","main_expt","0.1680880834","","0.03395804074","","0.3994934702","","","","","","",""
"536","","bandit","308","697885","0.0-270.0-0.0","32166633","wem/bandit_single","A19R04IXWA4ZLX","gain","4","","72","H","0","img/none_selected.jpg","0","0","1","0.1060089469","","false","233","0.1060089469","","main_expt","0.213250795","","0.05150109453","","0.4029083043","","","","","","",""
"80","","bandit","309","699745","0.0-271.0-0.0","32166633","wem/bandit_single","A19R04IXWA4ZLX","gain","4","","74","J","1","","0","0","1","0.221091899","","false","234","0.1117154146","","main_expt","0.221091899","","0.06099663442","","0.4486287737","","","","","","",""
"128","","bandit","310","701654","0.0-272.0-0.0","32166633","wem/bandit_single","A19R04IXWA4ZLX","gain","4","","74","J","1","","0","0","1","0.2688923835","","false","235","0.1276115887","","main_expt","0.2688923835","","0.05202127711","","0.4561120354","","","","","","",""
"203","","bandit","311","703638","0.0-273.0-0.0","32166633","wem/bandit_single","A19R04IXWA4ZLX","gain","4","","75","K","2","","0","0","1","0.07001303924","","false","236","0.1786916187","","main_expt","0.2323123402","","0.07001303924","","0.4375102443","","","","","","",""
"69","","bandit","312","705487","0.0-274.0-0.0","32166633","wem/bandit_single","A19R04IXWA4ZLX","gain","4","","76","L","3","","1","0","0","0.4582573195","","false","237","0.1896980961","","main_expt","0.174764536","","0.07602679398","","0.4582573195","","","","","","",""
"491","","bandit","313","707757","0.0-275.0-0.0","32166633","wem/bandit_single","A19R04IXWA4ZLX","gain","4","","76","L","3","","1","0","0","0.4463811869","","false","238","0.2205101014","","main_expt","0.1654919337","","0.08775462142","","0.4463811869","","","","","","",""
"205","","bandit","314","709741","0.0-276.0-0.0","32166633","wem/bandit_single","A19R04IXWA4ZLX","gain","4","","76","L","3","","1","0","0","0.4507479662","","false","239","0.2661717939","","main_expt","0.2402574844","","0.06721086637","","0.4507479662","","","","","","",""
"157","","bandit","315","711678","0.0-277.0-0.0","32166633","wem/bandit_single","A19R04IXWA4ZLX","gain","4","","76","L","3","","1","0","0","0.4504038859","","false","240","0.1972661282","","main_expt","0.2445968751","","0.07433064979","","0.4504038859","","","","","","",""
"121","","bandit","316","713578","0.0-278.0-0.0","32166633","wem/bandit_single","A19R04IXWA4ZLX","gain","4","","76","L","3","","1","0","0","0.4346931185","","false","241","0.1868253343","","main_expt","0.2708632627","","0.08919714094","","0.4346931185","","","","","","",""
"72","","bandit","317","715429","0.0-279.0-0.0","32166633","wem/bandit_single","A19R04IXWA4ZLX","gain","4","","76","L","3","","0","0","1","0.3898892773","","false","242","0.1649449253","","main_expt","0.2047807489","","0.06159770715","","0.3898892773","","","","","","",""
"101","","bandit","318","717309","0.0-280.0-0.0","32166633","wem/bandit_single","A19R04IXWA4ZLX","gain","4","","76","L","3","","1","0","0","0.4033463229","","false","243","0.184368772","","main_expt","0.222122474","","0.05299296545","","0.4033463229","","","","","","",""
"124","","bandit","319","719214","0.0-281.0-0.0","32166633","wem/bandit_single","A19R04IXWA4ZLX","gain","4","","76","L","3","","0","0","1","0.4096532456","","false","244","0.2121467569","","main_expt","0.2425992204","","0.06275569833","","0.4096532456","","","","","","",""
"19","","bandit","320","721014","0.0-282.0-0.0","32166633","wem/bandit_single","A19R04IXWA4ZLX","gain","4","","76","L","3","","0","0","1","0.3779527256","","false","245","0.1894702338","","main_expt","0.2173978931","","0.06673215917","","0.3779527256","","","","","","",""
"3","","bandit","321","722797","0.0-283.0-0.0","32166633","wem/bandit_single","A19R04IXWA4ZLX","gain","4","","75","K","2","","0","0","1","0.06500670021","","false","246","0.2018459735","","main_expt","0.2218069129","","0.06500670021","","0.3953318503","","","","","","",""
"81","","bandit","322","724658","0.0-284.0-0.0","32166633","wem/bandit_single","A19R04IXWA4ZLX","gain","4","","74","J","1","","0","0","1","0.1888628326","","false","247","0.1986179994","","main_expt","0.1888628326","","0.07271559664","","0.4287890539","","","","","","",""
"109","","bandit","323","726548","0.0-285.0-0.0","32166633","wem/bandit_single","A19R04IXWA4ZLX","gain","4","","74","J","1","","1","0","0","0.1722509531","","false","248","0.1299779064","","main_expt","0.1722509531","","0.09654775784","","0.4104310255","","","","","","",""
"162","","bandit","324","728493","0.0-286.0-0.0","32166633","wem/bandit_single","A19R04IXWA4ZLX","gain","4","","74","J","1","","0","0","1","0.2541205998","","false","249","0.1590650881","","main_expt","0.2541205998","","0.1179039307","","0.4116337798","","","","","","",""
"12","","bandit","325","730286","0.0-287.0-0.0","32166633","wem/bandit_single","A19R04IXWA4ZLX","gain","4","","72","H","0","img/none_selected.jpg","0","0","1","0.1213614167","","false","250","0.1213614167","","main_expt","0.2664885101","","0.1265890049","","0.426505214","","","","","","",""
"94","","bandit","326","732160","0.0-288.0-0.0","32166633","wem/bandit_single","A19R04IXWA4ZLX","gain","4","","72","H","0","img/none_selected.jpg","0","0","1","0.1099334476","","false","251","0.1099334476","","main_expt","0.2519669898","","0.1039398773","","0.3949293487","","","","","","",""
"109","","bandit","327","734049","0.0-289.0-0.0","32166633","wem/bandit_single","A19R04IXWA4ZLX","gain","4","","75","K","2","","0","0","1","0.107940897","","false","252","0.1087011898","","main_expt","0.2932098873","","0.107940897","","0.3913077142","","","","","","",""
"31","","bandit","328","735861","0.0-290.0-0.0","32166633","wem/bandit_single","A19R04IXWA4ZLX","gain","4","","76","L","3","","1","0","0","0.3648650894","","false","253","0.09397011719","","main_expt","0.3179249839","","0.1136461566","","0.3648650894","","","","","","",""
"115","","bandit","329","737757","0.0-291.0-0.0","32166633","wem/bandit_single","A19R04IXWA4ZLX","gain","4","","76","L","3","","1","0","0","0.3452883024","","false","254","0.08474648857","","main_expt","0.2908620441","","0.1374631792","","0.3452883024","","","","","","",""
"147","","bandit","330","739685","0.0-292.0-0.0","32166633","wem/bandit_single","A19R04IXWA4ZLX","gain","4","","76","L","3","","0","0","1","0.2943306686","","false","255","0.1025854271","","main_expt","0.3067265453","","0.1453945637","","0.2943306686","","","","","","",""
"58","","bandit","331","741524","0.0-293.0-0.0","32166633","wem/bandit_single","A19R04IXWA4ZLX","gain","4","","76","L","3","","1","0","0","0.3225000795","","false","256","0.08686152536","","main_expt","0.3133222149","","0.1543600678","","0.3225000795","","","","","","",""
"109","","bandit","332","743414","0.0-294.0-0.0","32166633","wem/bandit_single","A19R04IXWA4ZLX","gain","4","","76","L","3","","1","0","0","0.3199750271","","false","257","0.08667022303","","main_expt","0.3194106209","","0.107160473","","0.3199750271","","","","","","",""
"115","","bandit","333","745309","0.0-295.0-0.0","32166633","wem/bandit_single","A19R04IXWA4ZLX","gain","4","","76","L","3","","1","0","0","0.355105101","","false","258","0.1158580788","","main_expt","0.35032938","","0.0567043194","","0.355105101","","","","","","",""
"95","","bandit","334","747185","0.0-296.0-0.0","32166633","wem/bandit_single","A19R04IXWA4ZLX","gain","4","","76","L","3","","0","0","1","0.3566572827","","false","259","0.08241329339","","main_expt","0.3856615787","","0.05418204449","","0.3566572827","","","","","","",""
"106","","bandit","335","749072","0.0-297.0-0.0","32166633","wem/bandit_single","A19R04IXWA4ZLX","gain","4","","76","L","3","","0","0","1","0.3492833521","","false","260","0.09346186364","","main_expt","0.3977147975","","0.0423658587","","0.3492833521","","","","","","",""
"41","","bandit","336","750894","0.0-298.0-0.0","32166633","wem/bandit_single","A19R04IXWA4ZLX","gain","4","","76","L","3","","0","0","1","0.3406934897","","false","261","0.07434745577","","main_expt","0.4011116255","","0.08097208102","","0.3406934897","","","","","","",""
"163","","bandit","337","752837","0.0-299.0-0.0","32166633","wem/bandit_single","A19R04IXWA4ZLX","gain","4","","75","K","2","","0","0","1","0.05731993864","","false","262","0.1177047137","","main_expt","0.4149706566","","0.05731993864","","0.3604065233","","","","","","",""
"19","","bandit","338","754637","0.0-300.0-0.0","32166633","wem/bandit_single","A19R04IXWA4ZLX","gain","4","","75","K","2","","0","0","1","0.07314079116","","false","263","0.09530987449","","main_expt","0.4476629791","","0.07314079116","","0.3584147688","","","","","","",""
"465","","bandit","339","756887","0.0-301.0-0.0","32166633","wem/bandit_single","A19R04IXWA4ZLX","gain","4","","74","J","1","","0","0","1","0.4640453953","","false","264","0.07595610255","","main_expt","0.4640453953","","0.08382102311","","0.3723043834","","","","","","",""
"96","","bandit","340","758734","0.0-302.0-0.0","32166633","wem/bandit_single","A19R04IXWA4ZLX","gain","4","","74","J","1","","0","0","1","0.4465377191","","false","265","0.08850347459","","main_expt","0.4465377191","","0.1065624759","","0.316280577","","","","","","",""
"163","","bandit","341","760678","0.0-303.0-0.0","32166633","wem/bandit_single","A19R04IXWA4ZLX","gain","4","","72","H","0","img/none_selected.jpg","0","0","1","0.1215706641","","false","266","0.1215706641","","main_expt","0.4183068553","","0.1253885588","","0.269287162","","","","","","",""
"362","","bandit","342","762822","0.0-304.0-0.0","32166633","wem/bandit_single","A19R04IXWA4ZLX","gain","4","","76","L","3","","0","0","1","0.2280314931","","false","267","0.1841144129","","main_expt","0.4268145795","","0.09016252172","","0.2280314931","","","","","","",""
"146","","bandit","343","764751","0.0-305.0-0.0","32166633","wem/bandit_single","A19R04IXWA4ZLX","gain","4","","76","L","3","","0","0","1","0.2243604643","","false","268","0.1409141681","","main_expt","0.4319202891","","0.08700052181","","0.2243604643","","","","","","",""
"123","","bandit","344","766656","0.0-306.0-0.0","32166633","wem/bandit_single","A19R04IXWA4ZLX","gain","4","","75","K","2","","0","0","1","0.09500676271","","false","269","0.1011197226","","main_expt","0.4493038861","","0.09500676271","","0.2334807581","","","","","","",""
"97","","bandit","345","768534","0.0-307.0-0.0","32166633","wem/bandit_single","A19R04IXWA4ZLX","gain","4","","75","K","2","","0","0","1","0.07607499825","","false","270","0.118556502","","main_expt","0.443059266","","0.07607499825","","0.2376518603","","","","","","",""
"44","","bandit","346","770359","0.0-308.0-0.0","32166633","wem/bandit_single","A19R04IXWA4ZLX","gain","4","","75","K","2","","0","0","1","0.08946946819","","false","271","0.131750931","","main_expt","0.4362671961","","0.08946946819","","0.2139372972","","","","","","",""
"100","","bandit","347","772240","0.0-309.0-0.0","32166633","wem/bandit_single","A19R04IXWA4ZLX","gain","4","","74","J","1","","0","0","1","0.4452199348","","false","272","0.174678733","","main_expt","0.4452199348","","0.108288805","","0.157688628","","","","","","",""
"2","","bandit","348","774023","0.0-310.0-0.0","32166633","wem/bandit_single","A19R04IXWA4ZLX","gain","4","","74","J","1","","1","0","0","0.454652927","","false","273","0.1730415972","","main_expt","0.454652927","","0.105491008","","0.271098703","","","","","","",""
"2","","bandit","349","775806","0.0-311.0-0.0","32166633","wem/bandit_single","A19R04IXWA4ZLX","gain","4","","74","J","1","","1","0","0","0.4646374989","","false","274","0.1520576313","","main_expt","0.4646374989","","0.1059149547","","0.2778056479","","","","","","",""
"96","","bandit","350","777683","0.0-312.0-0.0","32166633","wem/bandit_single","A19R04IXWA4ZLX","gain","4","","74","J","1","","1","0","0","0.4535579815","","false","275","0.1007060326","","main_expt","0.4535579815","","0.09894283875","","0.2698457611","","","","","","",""
"148","","bandit","351","779617","0.0-313.0-0.0","32166633","wem/bandit_single","A19R04IXWA4ZLX","gain","4","","74","J","1","","1","0","0","0.4319407295","","false","276","0.08844777519","","main_expt","0.4319407295","","0.07695295732","","0.2774836338","","","","","","",""
"51","","bandit","352","781461","0.0-314.0-0.0","32166633","wem/bandit_single","A19R04IXWA4ZLX","gain","4","","74","J","1","","1","0","0","0.4475260374","","false","277","0.1315613084","","main_expt","0.4475260374","","0.0896712608","","0.3222794015","","","","","","",""
"119","","bandit","353","783362","0.0-315.0-0.0","32166633","wem/bandit_single","A19R04IXWA4ZLX","gain","4","","74","J","1","","1","0","0","0.4553849104","","false","278","0.1508492864","","main_expt","0.4553849104","","0.1343695578","","0.3122447371","","","","","","",""
"61","","bandit","354","785206","0.0-316.0-0.0","32166633","wem/bandit_single","A19R04IXWA4ZLX","gain","4","","74","J","1","","1","0","0","0.4621871954","","false","279","0.1181182825","","main_expt","0.4621871954","","0.1106050404","","0.2934764685","","","","","","",""
"102","","bandit","355","787091","0.0-317.0-0.0","32166633","wem/bandit_single","A19R04IXWA4ZLX","gain","4","","74","J","1","","1","0","0","0.4482597109","","false","280","0.1244803533","","main_expt","0.4482597109","","0.114105974","","0.290984208","","","","","","",""
"69","","bandit","356","788978","0.0-318.0-0.0","32166633","wem/bandit_single","A19R04IXWA4ZLX","gain","4","","74","J","1","","0","0","1","0.4347423019","","false","281","0.105821284","","main_expt","0.4347423019","","0.1246337516","","0.2974260948","","","","","","",""
"30","","bandit","357","790791","0.0-319.0-0.0","32166633","wem/bandit_single","A19R04IXWA4ZLX","gain","4","","74","J","1","","0","0","1","0.4583393623","","false","282","0.1562468179","","main_expt","0.4583393623","","0.079988156","","0.2972171025","","","","","","",""
"2","","bandit","358","792576","0.0-320.0-0.0","32166633","wem/bandit_single","A19R04IXWA4ZLX","gain","4","","74","J","1","","1","0","0","0.4497532375","","false","283","0.1478322318","","main_expt","0.4497532375","","0.06901380195","","0.2821487798","","","","","","",""
"96","","bandit","359","794455","0.0-321.0-0.0","32166633","wem/bandit_single","A19R04IXWA4ZLX","gain","4","","74","J","1","","1","0","0","0.4312811421","","false","284","0.1371678423","","main_expt","0.4312811421","","0.05901051183","","0.2739939459","","","","","","",""
"121","","bandit","360","796358","0.0-322.0-0.0","32166633","wem/bandit_single","A19R04IXWA4ZLX","gain","4","","74","J","1","","0","0","1","0.4599346403","","false","285","0.12762277","","main_expt","0.4599346403","","0.1126944794","","0.2251097973","","","","","","",""
"433","","bandit","361","798575","0.0-323.0-0.0","32166633","wem/bandit_single","A19R04IXWA4ZLX","gain","4","","72","H","0","img/none_selected.jpg","0","0","1","0.1587978561","","false","286","0.1587978561","","main_expt","0.4588450488","","0.09646131279","","0.2124690726","","","","","","",""
"86","","bandit","362","800443","0.0-324.0-0.0","32166633","wem/bandit_single","A19R04IXWA4ZLX","gain","4","","72","H","0","img/none_selected.jpg","1","0","0","0.1262084743","","false","287","0.1262084743","","main_expt","0.4684539465","","0.0795853072","","0.2311163105","","","","","","",""
"109","","bandit","363","802334","0.0-325.0-0.0","32166633","wem/bandit_single","A19R04IXWA4ZLX","gain","4","","72","H","0","img/none_selected.jpg","1","0","0","0.08849331384","","false","288","0.08849331384","","main_expt","0.4555823871","","0.07210460151","","0.2178761709","","","","","","",""
"106","","bandit","364","804222","0.0-326.0-0.0","32166633","wem/bandit_single","A19R04IXWA4ZLX","gain","4","","72","H","0","img/none_selected.jpg","0","0","1","0.1082793638","","false","289","0.1082793638","","main_expt","0.4779982095","","0.08807043944","","0.2656120211","","","","","","",""
"42","","bandit","365","806046","0.0-327.0-0.0","32166633","wem/bandit_single","A19R04IXWA4ZLX","gain","4","","72","H","0","img/none_selected.jpg","0","0","1","0.1591187351","","false","290","0.1591187351","","main_expt","0.4806691972","","0.09097769709","","0.2756957417","","","","","","",""
"58","","bandit","366","807886","0.0-328.0-0.0","32166633","wem/bandit_single","A19R04IXWA4ZLX","gain","4","","72","H","0","img/none_selected.jpg","0","0","1","0.1766493085","","false","291","0.1766493085","","main_expt","0.4856322508","","0.1486720085","","0.3111580235","","","","","","",""
"50","","bandit","367","809718","0.0-329.0-0.0","32166633","wem/bandit_single","A19R04IXWA4ZLX","gain","4","","74","J","1","","0","0","1","0.4905538215","","false","292","0.1303677554","","main_expt","0.4905538215","","0.166368556","","0.3019137931","","","","","","",""
"257","","bandit","368","811758","0.0-330.0-0.0","32166633","wem/bandit_single","A19R04IXWA4ZLX","gain","4","","76","L","3","","1","0","0","0.2930542664","","false","293","0.1553518032","","main_expt","0.4915741327","","0.1516979355","","0.2930542664","","","","","","",""
"102","","bandit","369","813645","0.0-331.0-0.0","32166633","wem/bandit_single","A19R04IXWA4ZLX","gain","4","","76","L","3","","0","0","1","0.294566814","","false","294","0.1586445557","","main_expt","0.4854109815","","0.142642289","","0.294566814","","","","","","",""
"87","","bandit","370","815515","0.0-332.0-0.0","32166633","wem/bandit_single","A19R04IXWA4ZLX","gain","4","","76","L","3","","0","0","1","0.2590601899","","false","295","0.1474370852","","main_expt","0.4737464351","","0.1038045902","","0.2590601899","","","","","","",""
"120","","bandit","371","817418","0.0-333.0-0.0","32166633","wem/bandit_single","A19R04IXWA4ZLX","gain","4","","76","L","3","","1","0","0","0.260130188","","false","296","0.1281429101","","main_expt","0.4752126994","","0.1055366566","","0.260130188","","","","","","",""
"62","","bandit","372","819262","0.0-334.0-0.0","32166633","wem/bandit_single","A19R04IXWA4ZLX","gain","4","","76","L","3","","0","0","1","0.243487995","","false","297","0.1486346553","","main_expt","0.47087989","","0.07292146603","","0.243487995","","","","","","",""
