"rt","responses","trial_type","trial_index","time_elapsed","internal_node_id","subjID","study","MID","cond","drift","key_press","respCharCode","respKey","respChoiceNum","respChoice","gems","bombs","no_reward","GemPrChosen","BombPrChosen","practice","trial_counter","WinPr_0","LosePr_0","trial_label","WinPr_1","LosePr_1","WinPr_2","LosePr_2","WinPr_3","LosePr_3","Q0","Q1","Q2","gender","age","ethnicity"
"75737","{""Q0"":""AKU3Z7174B91F""}","survey-text","0","75753","0.0-0.0","32381339","wem/bandit_single","AKU3Z7174B91F","pain","2","","","","","","","","","","","","","","","","","","","","","","","","","","",""
"5868","","text","1","82627","0.0-1.0","32381339","wem/bandit_single","AKU3Z7174B91F","pain","2","32","","","","","","","","","","","","","","","","","","","","","","","","","",""
"9805","","text","2","92435","0.0-2.0","32381339","wem/bandit_single","AKU3Z7174B91F","pain","2","32","","","","","","","","","","","","","","","","","","","","","","","","","",""
"94478","","text","3","186915","0.0-3.0","32381339","wem/bandit_single","AKU3Z7174B91F","pain","2","32","","","","","","","","","","","","","","","","","","","","","","","","","",""
"22088","","text","4","209003","0.0-4.0","32381339","wem/bandit_single","AKU3Z7174B91F","pain","2","32","","","","","","","","","","","","","","","","","","","","","","","","","",""
"14095","","text","5","223100","0.0-5.0","32381339","wem/bandit_single","AKU3Z7174B91F","pain","2","32","","","","","","","","","","","","","","","","","","","","","","","","","",""
"14335","","text","6","237436","0.0-6.0","32381339","wem/bandit_single","AKU3Z7174B91F","pain","2","32","","","","","","","","","","","","","","","","","","","","","","","","","",""
"7077","","text","7","244515","0.0-7.0","32381339","wem/bandit_single","AKU3Z7174B91F","pain","2","32","","","","","","","","","","","","","","","","","","","","","","","","","",""
"12984","","text","8","257500","0.0-8.0","32381339","wem/bandit_single","AKU3Z7174B91F","pain","2","32","","","","","","","","","","","","","","","","","","","","","","","","","",""
"6252","","text","9","263754","0.0-9.0","32381339","wem/bandit_single","AKU3Z7174B91F","pain","2","32","","","","","","","","","","","","","","","","","","","","","","","","","",""
"5160","","text","10","268916","0.0-10.0","32381339","wem/bandit_single","AKU3Z7174B91F","pain","2","32","","","","","","","","","","","","","","","","","","","","","","","","","",""
"9852","","text","11","278770","0.0-11.0","32381339","wem/bandit_single","AKU3Z7174B91F","pain","2","32","","","","","","","","","","","","","","","","","","","","","","","","","",""
"1772","","bandit","12","282049","0.0-12.0-0.0","32381339","wem/bandit_single","AKU3Z7174B91F","pain","2","","74","J","0","img/none_selected_demo.jpg","0","0","1","0","0","true","0","0","0","","","","","","","","","","","","",""
"1234","","bandit","13","285039","0.0-13.0-0.0","32381339","wem/bandit_single","AKU3Z7174B91F","pain","2","","75","K","0","img/none_selected_demo.jpg","0","0","1","0","0","true","0","0","0","","","","","","","","","","","","",""
"10328","","text","14","295619","0.0-14.0","32381339","wem/bandit_single","AKU3Z7174B91F","pain","2","32","","","","","","","","","","","","","","","","","","","","","","","","","",""
"6733","","text","15","302354","0.0-15.0","32381339","wem/bandit_single","AKU3Z7174B91F","pain","2","32","","","","","","","","","","","","","","","","","","","","","","","","","",""
"8543","","text","16","310898","0.0-16.0","32381339","wem/bandit_single","AKU3Z7174B91F","pain","2","32","","","","","","","","","","","","","","","","","","","","","","","","","",""
"7958","","text","17","318858","0.0-17.0","32381339","wem/bandit_single","AKU3Z7174B91F","pain","2","32","","","","","","","","","","","","","","","","","","","","","","","","","",""
"3277","","bandit","18","323641","0.0-18.0-0.0","32381339","wem/bandit_single","AKU3Z7174B91F","pain","2","","74","J","0","img/none_selected_demo.jpg","0","0","1","0","0.8","true","0","0","0.8","80_20_practice","0","0.2","","","","","","","","","",""
"749","","bandit","19","326143","0.0-18.0-1.0","32381339","wem/bandit_single","AKU3Z7174B91F","pain","2","","74","J","0","img/none_selected_demo.jpg","0","1","0","0","0.8","true","0","0","0.8","80_20_practice","0","0.2","","","","","","","","","",""
"1015","","bandit","20","328911","0.0-18.0-2.0","32381339","wem/bandit_single","AKU3Z7174B91F","pain","2","","75","K","1","","0","1","0","0","0.2","true","0","0","0.8","80_20_practice","0","0.2","","","","","","","","","",""
"742","","bandit","21","331406","0.0-18.0-3.0","32381339","wem/bandit_single","AKU3Z7174B91F","pain","2","","75","K","1","","0","0","1","0","0.2","true","0","0","0.8","80_20_practice","0","0.2","","","","","","","","","",""
"512","","bandit","22","333687","0.0-18.0-4.0","32381339","wem/bandit_single","AKU3Z7174B91F","pain","2","","75","K","1","","0","1","0","0","0.2","true","0","0","0.8","80_20_practice","0","0.2","","","","","","","","","",""
"452","","bandit","23","335895","0.0-18.0-5.0","32381339","wem/bandit_single","AKU3Z7174B91F","pain","2","","74","J","0","img/none_selected_demo.jpg","0","1","0","0","0.8","true","0","0","0.8","80_20_practice","0","0.2","","","","","","","","","",""
"621","","bandit","24","338270","0.0-18.0-6.0","32381339","wem/bandit_single","AKU3Z7174B91F","pain","2","","74","J","0","img/none_selected_demo.jpg","0","1","0","0","0.8","true","0","0","0.8","80_20_practice","0","0.2","","","","","","","","","",""
"697","","bandit","25","340718","0.0-18.0-7.0","32381339","wem/bandit_single","AKU3Z7174B91F","pain","2","","74","J","0","img/none_selected_demo.jpg","0","0","1","0","0.8","true","0","0","0.8","80_20_practice","0","0.2","","","","","","","","","",""
"340","","bandit","26","342815","0.0-18.0-8.0","32381339","wem/bandit_single","AKU3Z7174B91F","pain","2","","74","J","0","img/none_selected_demo.jpg","0","1","0","0","0.8","true","0","0","0.8","80_20_practice","0","0.2","","","","","","","","","",""
"615","","bandit","27","345182","0.0-18.0-9.0","32381339","wem/bandit_single","AKU3Z7174B91F","pain","2","","75","K","1","","0","0","1","0","0.2","true","0","0","0.8","80_20_practice","0","0.2","","","","","","","","","",""
"247","","bandit","28","347183","0.0-18.0-10.0","32381339","wem/bandit_single","AKU3Z7174B91F","pain","2","","74","J","0","img/none_selected_demo.jpg","0","0","1","0","0.8","true","0","0","0.8","80_20_practice","0","0.2","","","","","","","","","",""
"532","","bandit","29","349472","0.0-18.0-11.0","32381339","wem/bandit_single","AKU3Z7174B91F","pain","2","","75","K","1","","0","0","1","0","0.2","true","0","0","0.8","80_20_practice","0","0.2","","","","","","","","","",""
"316","","bandit","30","351543","0.0-18.0-12.0","32381339","wem/bandit_single","AKU3Z7174B91F","pain","2","","75","K","1","","0","0","1","0","0.2","true","0","0","0.8","80_20_practice","0","0.2","","","","","","","","","",""
"221","","bandit","31","353518","0.0-18.0-13.0","32381339","wem/bandit_single","AKU3Z7174B91F","pain","2","","74","J","0","img/none_selected_demo.jpg","0","1","0","0","0.8","true","0","0","0.8","80_20_practice","0","0.2","","","","","","","","","",""
"381","","bandit","32","355656","0.0-18.0-14.0","32381339","wem/bandit_single","AKU3Z7174B91F","pain","2","","74","J","0","img/none_selected_demo.jpg","0","1","0","0","0.8","true","0","0","0.8","80_20_practice","0","0.2","","","","","","","","","",""
"316","","bandit","33","357725","0.0-18.0-15.0","32381339","wem/bandit_single","AKU3Z7174B91F","pain","2","","75","K","1","","0","0","1","0","0.2","true","0","0","0.8","80_20_practice","0","0.2","","","","","","","","","",""
"344","","bandit","34","359823","0.0-18.0-16.0","32381339","wem/bandit_single","AKU3Z7174B91F","pain","2","","75","K","1","","0","1","0","0","0.2","true","0","0","0.8","80_20_practice","0","0.2","","","","","","","","","",""
"565","","bandit","35","362144","0.0-18.0-17.0","32381339","wem/bandit_single","AKU3Z7174B91F","pain","2","","74","J","0","img/none_selected_demo.jpg","0","1","0","0","0.8","true","0","0","0.8","80_20_practice","0","0.2","","","","","","","","","",""
"292","","bandit","36","364191","0.0-18.0-18.0","32381339","wem/bandit_single","AKU3Z7174B91F","pain","2","","75","K","1","","0","0","1","0","0.2","true","0","0","0.8","80_20_practice","0","0.2","","","","","","","","","",""
"206","","bandit","37","366152","0.0-18.0-19.0","32381339","wem/bandit_single","AKU3Z7174B91F","pain","2","","74","J","0","img/none_selected_demo.jpg","0","1","0","0","0.8","true","0","0","0.8","80_20_practice","0","0.2","","","","","","","","","",""
"10926","","text","38","377331","0.0-19.0","32381339","wem/bandit_single","AKU3Z7174B91F","pain","2","32","","","","","","","","","","","","","","","","","","","","","","","","","",""
"2078","","bandit","39","380911","0.0-20.0-0.0","32381339","wem/bandit_single","AKU3Z7174B91F","pain","2","","74","J","0","img/none_selected_demo.jpg","0","0","1","0","0","true","0","0","0","","0","0","","","","","","","","","",""
"19207","","text","40","400371","0.0-21.0","32381339","wem/bandit_single","AKU3Z7174B91F","pain","2","32","","","","","","","","","","","","","","","","","","","","","","","","","",""
"49046","","text","41","449419","0.0-22.0","32381339","wem/bandit_single","AKU3Z7174B91F","pain","2","32","","","","","","","","","","","","","","","","","","","","","","","","","",""
"7517","","text","42","456938","0.0-23.0","32381339","wem/bandit_single","AKU3Z7174B91F","pain","2","32","","","","","","","","","","","","","","","","","","","","","","","","","",""
"8623","","text","43","465563","0.0-24.0","32381339","wem/bandit_single","AKU3Z7174B91F","pain","2","32","","","","","","","","","","","","","","","","","","","","","","","","","",""
"18845","","text","44","484411","0.0-25.0","32381339","wem/bandit_single","AKU3Z7174B91F","pain","2","32","","","","","","","","","","","","","","","","","","","","","","","","","",""
"8411","","text","45","492826","0.0-26.0","32381339","wem/bandit_single","AKU3Z7174B91F","pain","2","32","","","","","","","","","","","","","","","","","","","","","","","","","",""
"9118","","text","46","501947","0.0-27.0","32381339","wem/bandit_single","AKU3Z7174B91F","pain","2","32","","","","","","","","","","","","","","","","","","","","","","","","","",""
"8628","","text","47","510578","0.0-28.0","32381339","wem/bandit_single","AKU3Z7174B91F","pain","2","32","","","","","","","","","","","","","","","","","","","","","","","","","",""
"7575","","text","48","518155","0.0-29.0","32381339","wem/bandit_single","AKU3Z7174B91F","pain","2","32","","","","","","","","","","","","","","","","","","","","","","","","","",""
"4924","","text","49","523082","0.0-30.0","32381339","wem/bandit_single","AKU3Z7174B91F","pain","2","32","","","","","","","","","","","","","","","","","","","","","","","","","",""
"3389","","text","50","526474","0.0-31.0","32381339","wem/bandit_single","AKU3Z7174B91F","pain","2","32","","","","","","","","","","","","","","","","","","","","","","","","","",""
"1915","","bandit","51","529893","0.0-32.0-0.0","32381339","wem/bandit_single","AKU3Z7174B91F","pain","2","","72","H","0","img/none_selected.jpg","0","1","0","0","0.8","true","0","0","0.8","full_practice","0","0.2","0","0.6","0","0.2","","","","","",""
"1032","","bandit","52","532681","0.0-32.0-1.0","32381339","wem/bandit_single","AKU3Z7174B91F","pain","2","","76","L","3","","0","0","1","0","0.2","true","0","0","0.8","full_practice","0","0.2","0","0.6","0","0.2","","","","","",""
"1450","","bandit","53","535887","0.0-32.0-2.0","32381339","wem/bandit_single","AKU3Z7174B91F","pain","2","","74","J","1","","0","0","1","0","0.2","true","0","0","0.8","full_practice","0","0.2","0","0.6","0","0.2","","","","","",""
"587","","bandit","54","538232","0.0-32.0-3.0","32381339","wem/bandit_single","AKU3Z7174B91F","pain","2","","72","H","0","img/none_selected.jpg","0","1","0","0","0.8","true","0","0","0.8","full_practice","0","0.2","0","0.6","0","0.2","","","","","",""
"1580","","bandit","55","541569","0.0-32.0-4.0","32381339","wem/bandit_single","AKU3Z7174B91F","pain","2","","75","K","2","","0","0","1","0","0.6","true","0","0","0.8","full_practice","0","0.2","0","0.6","0","0.2","","","","","",""
"353","","bandit","56","543679","0.0-32.0-5.0","32381339","wem/bandit_single","AKU3Z7174B91F","pain","2","","72","H","0","img/none_selected.jpg","0","1","0","0","0.8","true","0","0","0.8","full_practice","0","0.2","0","0.6","0","0.2","","","","","",""
"644","","bandit","57","546078","0.0-32.0-6.0","32381339","wem/bandit_single","AKU3Z7174B91F","pain","2","","74","J","1","","0","0","1","0","0.2","true","0","0","0.8","full_practice","0","0.2","0","0.6","0","0.2","","","","","",""
"356","","bandit","58","548190","0.0-32.0-7.0","32381339","wem/bandit_single","AKU3Z7174B91F","pain","2","","72","H","0","img/none_selected.jpg","0","0","1","0","0.8","true","0","0","0.8","full_practice","0","0.2","0","0.6","0","0.2","","","","","",""
"551","","bandit","59","550494","0.0-32.0-8.0","32381339","wem/bandit_single","AKU3Z7174B91F","pain","2","","76","L","3","","0","0","1","0","0.2","true","0","0","0.8","full_practice","0","0.2","0","0.6","0","0.2","","","","","",""
"1864","","bandit","60","554111","0.0-32.0-9.0","32381339","wem/bandit_single","AKU3Z7174B91F","pain","2","","75","K","2","","0","1","0","0","0.6","true","0","0","0.8","full_practice","0","0.2","0","0.6","0","0.2","","","","","",""
"91","","bandit","61","555959","0.0-32.0-10.0","32381339","wem/bandit_single","AKU3Z7174B91F","pain","2","","74","J","1","","0","0","1","0","0.2","true","0","0","0.8","full_practice","0","0.2","0","0.6","0","0.2","","","","","",""
"110","","bandit","62","557823","0.0-32.0-11.0","32381339","wem/bandit_single","AKU3Z7174B91F","pain","2","","72","H","0","img/none_selected.jpg","0","1","0","0","0.8","true","0","0","0.8","full_practice","0","0.2","0","0.6","0","0.2","","","","","",""
"205","","bandit","63","559783","0.0-32.0-12.0","32381339","wem/bandit_single","AKU3Z7174B91F","pain","2","","75","K","2","","0","0","1","0","0.6","true","0","0","0.8","full_practice","0","0.2","0","0.6","0","0.2","","","","","",""
"52","","bandit","64","561593","0.0-32.0-13.0","32381339","wem/bandit_single","AKU3Z7174B91F","pain","2","","72","H","0","img/none_selected.jpg","0","0","1","0","0.8","true","0","0","0.8","full_practice","0","0.2","0","0.6","0","0.2","","","","","",""
"20","","bandit","65","563371","0.0-32.0-14.0","32381339","wem/bandit_single","AKU3Z7174B91F","pain","2","","74","J","1","","0","0","1","0","0.2","true","0","0","0.8","full_practice","0","0.2","0","0.6","0","0.2","","","","","",""
"104","","bandit","66","565231","0.0-32.0-15.0","32381339","wem/bandit_single","AKU3Z7174B91F","pain","2","","75","K","2","","0","1","0","0","0.6","true","0","0","0.8","full_practice","0","0.2","0","0.6","0","0.2","","","","","",""
"83","","bandit","67","567070","0.0-32.0-16.0","32381339","wem/bandit_single","AKU3Z7174B91F","pain","2","","72","H","0","img/none_selected.jpg","0","1","0","0","0.8","true","0","0","0.8","full_practice","0","0.2","0","0.6","0","0.2","","","","","",""
"734","","bandit","68","569559","0.0-32.0-17.0","32381339","wem/bandit_single","AKU3Z7174B91F","pain","2","","75","K","2","","0","1","0","0","0.6","true","0","0","0.8","full_practice","0","0.2","0","0.6","0","0.2","","","","","",""
"1124","","bandit","69","572453","0.0-32.0-18.0","32381339","wem/bandit_single","AKU3Z7174B91F","pain","2","","72","H","0","img/none_selected.jpg","0","1","0","0","0.8","true","0","0","0.8","full_practice","0","0.2","0","0.6","0","0.2","","","","","",""
"1255","","bandit","70","575462","0.0-32.0-19.0","32381339","wem/bandit_single","AKU3Z7174B91F","pain","2","","75","K","2","","0","1","0","0","0.6","true","0","0","0.8","full_practice","0","0.2","0","0.6","0","0.2","","","","","",""
"6908","","text","71","582626","0.0-33.0","32381339","wem/bandit_single","AKU3Z7174B91F","pain","2","32","","","","","","","","","","","","","","","","","","","","","","","","","",""
"17029","","text","72","600659","0.0-34.0","32381339","wem/bandit_single","AKU3Z7174B91F","pain","2","32","","","","","","","","","","","","","","","","","","","","","","","","","",""
"8714","","text","73","609378","0.0-35.0","32381339","wem/bandit_single","AKU3Z7174B91F","pain","2","32","","","","","","","","","","","","","","","","","","","","","","","","","",""
"9421","","text","74","618804","0.0-36.0","32381339","wem/bandit_single","AKU3Z7174B91F","pain","2","32","","","","","","","","","","","","","","","","","","","","","","","","","",""
"10211","","text","75","629019","0.0-37.0","32381339","wem/bandit_single","AKU3Z7174B91F","pain","2","32","","","","","","","","","","","","","","","","","","","","","","","","","",""
"1753","","bandit","76","632284","0.0-38.0-0.0","32381339","wem/bandit_single","AKU3Z7174B91F","pain","2","","72","H","0","img/none_selected.jpg","0","0","1","","0.1196507759","false","1","","0.1196507759","main_expt","","0.03692567881","","0.1473353724","","0.1047922924","","","","","",""
"182","","bandit","77","634223","0.0-39.0-0.0","32381339","wem/bandit_single","AKU3Z7174B91F","pain","2","","76","L","3","","0","1","0","","0.09232691068","false","2","","0.1434551849","main_expt","","0.0535834513","","0.1471364572","","0.09232691068","","","","","",""
"355","","bandit","78","636334","0.0-40.0-0.0","32381339","wem/bandit_single","AKU3Z7174B91F","pain","2","","74","J","1","","0","0","1","","0.06455495551","false","3","","0.1966750378","main_expt","","0.06455495551","","0.1792173289","","0.07878604621","","","","","",""
"96","","bandit","79","638185","0.0-41.0-0.0","32381339","wem/bandit_single","AKU3Z7174B91F","pain","2","","76","L","3","","0","0","1","","0.06180226224","false","4","","0.1731728381","main_expt","","0.1075220519","","0.2089457512","","0.06180226224","","","","","",""
"50","","bandit","80","639991","0.0-42.0-0.0","32381339","wem/bandit_single","AKU3Z7174B91F","pain","2","","75","K","2","","0","0","1","","0.2627176439","false","5","","0.151671232","main_expt","","0.1459974634","","0.2627176439","","0.05657605877","","","","","",""
"556","","bandit","81","642304","0.0-43.0-0.0","32381339","wem/bandit_single","AKU3Z7174B91F","pain","2","","76","L","3","","0","0","1","","0.03926223851","false","6","","0.2201434377","main_expt","","0.1119865757","","0.2052823447","","0.03926223851","","","","","",""
"1125","","bandit","82","645183","0.0-44.0-0.0","32381339","wem/bandit_single","AKU3Z7174B91F","pain","2","","72","H","0","img/none_selected.jpg","0","0","1","","0.1924323999","false","7","","0.1924323999","main_expt","","0.1135710889","","0.2424381104","","0.02952185798","","","","","",""
"260","","bandit","83","647199","0.0-45.0-0.0","32381339","wem/bandit_single","AKU3Z7174B91F","pain","2","","74","J","1","","0","0","1","","0.148696524","false","8","","0.187431757","main_expt","","0.148696524","","0.2324683495","","0.01847757052","","","","","",""
"973","","bandit","84","649927","0.0-46.0-0.0","32381339","wem/bandit_single","AKU3Z7174B91F","pain","2","","76","L","3","","0","0","1","","0.02695314055","false","9","","0.197470847","main_expt","","0.1181121295","","0.2440295668","","0.02695314055","","","","","",""
"316","","bandit","85","651998","0.0-47.0-0.0","32381339","wem/bandit_single","AKU3Z7174B91F","pain","2","","75","K","2","","0","0","1","","0.2465422232","false","10","","0.2298270047","main_expt","","0.1082266346","","0.2465422232","","0.02234311218","","","","","",""
"499","","bandit","86","654254","0.0-48.0-0.0","32381339","wem/bandit_single","AKU3Z7174B91F","pain","2","","74","J","1","","0","0","1","","0.1102162287","false","11","","0.2124937163","main_expt","","0.1102162287","","0.1529972956","","0.04960883058","","","","","",""
"166","","bandit","87","656175","0.0-49.0-0.0","32381339","wem/bandit_single","AKU3Z7174B91F","pain","2","","76","L","3","","0","0","1","","0.06086541187","false","12","","0.2043121782","main_expt","","0.1420736562","","0.1827224572","","0.06086541187","","","","","",""
"483","","bandit","88","658415","0.0-50.0-0.0","32381339","wem/bandit_single","AKU3Z7174B91F","pain","2","","72","H","0","img/none_selected.jpg","0","0","1","","0.2122729008","false","13","","0.2122729008","main_expt","","0.1582971975","","0.1973099221","","0.06603274732","","","","","",""
"284","","bandit","89","660455","0.0-51.0-0.0","32381339","wem/bandit_single","AKU3Z7174B91F","pain","2","","76","L","3","","0","0","1","","0.06952645267","false","14","","0.1748916548","main_expt","","0.1278364912","","0.2002936143","","0.06952645267","","","","","",""
"797","","bandit","90","663007","0.0-52.0-0.0","32381339","wem/bandit_single","AKU3Z7174B91F","pain","2","","74","J","1","","0","1","0","","0.1389591295","false","15","","0.1598041939","main_expt","","0.1389591295","","0.2100222876","","0.06705093019","","","","","",""
"185","","bandit","91","664950","0.0-53.0-0.0","32381339","wem/bandit_single","AKU3Z7174B91F","pain","2","","75","K","2","","0","0","1","","0.192095419","false","16","","0.1496559895","main_expt","","0.1087507618","","0.192095419","","0.08739136862","","","","","",""
"93","","bandit","92","666799","0.0-54.0-0.0","32381339","wem/bandit_single","AKU3Z7174B91F","pain","2","","76","L","3","","0","0","1","","0.0633177824","false","17","","0.1855105105","main_expt","","0.1591778588","","0.2057363858","","0.0633177824","","","","","",""
"59","","bandit","93","668614","0.0-55.0-0.0","32381339","wem/bandit_single","AKU3Z7174B91F","pain","2","","74","J","1","","0","1","0","","0.1612769879","false","18","","0.180786103","main_expt","","0.1612769879","","0.2142317849","","0.05969087175","","","","","",""
"381","","bandit","94","670750","0.0-56.0-0.0","32381339","wem/bandit_single","AKU3Z7174B91F","pain","2","","72","H","0","img/none_selected.jpg","0","1","0","","0.1867551017","false","19","","0.1867551017","main_expt","","0.1706614454","","0.2416868574","","0.08316546351","","","","","",""
"69","","bandit","95","672574","0.0-57.0-0.0","32381339","wem/bandit_single","AKU3Z7174B91F","pain","2","","74","J","1","","0","1","0","","0.2173206475","false","20","","0.2414580321","main_expt","","0.2173206475","","0.2556662882","","0.08506169859","","","","","",""
"293","","bandit","96","674622","0.0-58.0-0.0","32381339","wem/bandit_single","AKU3Z7174B91F","pain","2","","72","H","0","img/none_selected.jpg","0","1","0","","0.2552731096","false","21","","0.2552731096","main_expt","","0.2297715145","","0.2484624222","","0.08337624199","","","","","",""
"92","","bandit","97","676470","0.0-59.0-0.0","32381339","wem/bandit_single","AKU3Z7174B91F","pain","2","","74","J","1","","0","0","1","","0.2893552095","false","22","","0.2706059063","main_expt","","0.2893552095","","0.3180013331","","0.09400888178","","","","","",""
"38","","bandit","98","678262","0.0-60.0-0.0","32381339","wem/bandit_single","AKU3Z7174B91F","pain","2","","72","H","0","img/none_selected.jpg","0","1","0","","0.2240124609","false","23","","0.2240124609","main_expt","","0.1756353462","","0.3018869565","","0.08373077729","","","","","",""
"94","","bandit","99","680111","0.0-61.0-0.0","32381339","wem/bandit_single","AKU3Z7174B91F","pain","2","","74","J","1","","0","0","1","","0.144307289","false","24","","0.2337623096","main_expt","","0.144307289","","0.3479913718","","0.07394888686","","","","","",""
"118","","bandit","100","681992","0.0-62.0-0.0","32381339","wem/bandit_single","AKU3Z7174B91F","pain","2","","72","H","0","img/none_selected.jpg","0","0","1","","0.1992837424","false","25","","0.1992837424","main_expt","","0.1103761204","","0.3851600672","","0.1177231478","","","","","",""
"74","","bandit","101","683823","0.0-63.0-0.0","32381339","wem/bandit_single","AKU3Z7174B91F","pain","2","","76","L","3","","0","0","1","","0.1137187285","false","26","","0.2273902023","main_expt","","0.09313295331","","0.3771699284","","0.1137187285","","","","","",""
"579","","bandit","102","686159","0.0-64.0-0.0","32381339","wem/bandit_single","AKU3Z7174B91F","pain","2","","74","J","1","","0","0","1","","0.07841862492","false","27","","0.2020281611","main_expt","","0.07841862492","","0.3284072512","","0.1380279251","","","","","",""
"51","","bandit","103","687968","0.0-65.0-0.0","32381339","wem/bandit_single","AKU3Z7174B91F","pain","2","","75","K","2","","0","0","1","","0.3708797381","false","28","","0.2121805601","main_expt","","0.0635621653","","0.3708797381","","0.1926536066","","","","","",""
"99","","bandit","104","689822","0.0-66.0-0.0","32381339","wem/bandit_single","AKU3Z7174B91F","pain","2","","74","J","1","","0","0","1","","0.04349452081","false","29","","0.1986823058","main_expt","","0.04349452081","","0.3630760189","","0.1919064193","","","","","",""
"475","","bandit","105","692055","0.0-67.0-0.0","32381339","wem/bandit_single","AKU3Z7174B91F","pain","2","","76","L","3","","0","0","1","","0.1767437005","false","30","","0.2674628916","main_expt","","0.06175929786","","0.3414786107","","0.1767437005","","","","","",""
"113","","bandit","106","693927","0.0-68.0-0.0","32381339","wem/bandit_single","AKU3Z7174B91F","pain","2","","72","H","0","img/none_selected.jpg","0","1","0","","0.2862820789","false","31","","0.2862820789","main_expt","","0.06380111671","","0.3536929226","","0.2417082081","","","","","",""
"130","","bandit","107","695815","0.0-69.0-0.0","32381339","wem/bandit_single","AKU3Z7174B91F","pain","2","","74","J","1","","0","0","1","","0.08507033619","false","32","","0.2895619367","main_expt","","0.08507033619","","0.3238646006","","0.2312742115","","","","","",""
"236","","bandit","108","697808","0.0-70.0-0.0","32381339","wem/bandit_single","AKU3Z7174B91F","pain","2","","72","H","0","img/none_selected.jpg","0","1","0","","0.312502841","false","33","","0.312502841","main_expt","","0.1242974044","","0.3018803865","","0.2247834387","","","","","",""
"57","","bandit","109","699625","0.0-71.0-0.0","32381339","wem/bandit_single","AKU3Z7174B91F","pain","2","","76","L","3","","0","0","1","","0.1192543008","false","34","","0.2830864838","main_expt","","0.158311101","","0.2551449341","","0.1192543008","","","","","",""
"155","","bandit","110","701535","0.0-72.0-0.0","32381339","wem/bandit_single","AKU3Z7174B91F","pain","2","","72","H","0","img/none_selected.jpg","0","0","1","","0.2489219385","false","35","","0.2489219385","main_expt","","0.1293969191","","0.3200580053","","0.1336327135","","","","","",""
"787","","bandit","111","704078","0.0-73.0-0.0","32381339","wem/bandit_single","AKU3Z7174B91F","pain","2","","75","K","2","","0","1","0","","0.3241899647","false","36","","0.2090346537","main_expt","","0.1800853883","","0.3241899647","","0.09851205292","","","","","",""
"1066","","bandit","112","706903","0.0-74.0-0.0","32381339","wem/bandit_single","AKU3Z7174B91F","pain","2","","72","H","0","img/none_selected.jpg","0","1","0","","0.210385238","false","37","","0.210385238","main_expt","","0.1025448258","","0.3029113802","","0.05943694951","","","","","",""
"53","","bandit","113","708710","0.0-75.0-0.0","32381339","wem/bandit_single","AKU3Z7174B91F","pain","2","","75","K","2","","0","0","1","","0.2958592888","false","38","","0.162227856","main_expt","","0.1604021245","","0.2958592888","","0.06217728149","","","","","",""
"0","","bandit","114","710466","0.0-76.0-0.0","32381339","wem/bandit_single","AKU3Z7174B91F","pain","2","","74","J","1","","0","0","1","","0.1336531769","false","39","","0.1444893634","main_expt","","0.1336531769","","0.2941945884","","0.08902833973","","","","","",""
"506","","bandit","115","712728","0.0-77.0-0.0","32381339","wem/bandit_single","AKU3Z7174B91F","pain","2","","76","L","3","","0","0","1","","0.1098655825","false","40","","0.1340169349","main_expt","","0.1356889635","","0.2784490849","","0.1098655825","","","","","",""
"387","","bandit","116","714871","0.0-78.0-0.0","32381339","wem/bandit_single","AKU3Z7174B91F","pain","2","","75","K","2","","0","1","0","","0.2943099773","false","41","","0.1019114547","main_expt","","0.1434276379","","0.2943099773","","0.125718056","","","","","",""
"84","","bandit","117","716711","0.0-79.0-0.0","32381339","wem/bandit_single","AKU3Z7174B91F","pain","2","","72","H","0","img/none_selected.jpg","0","0","1","","0.07379386716","false","42","","0.07379386716","main_expt","","0.1432973755","","0.2502187242","","0.07668278466","","","","","",""
"363","","bandit","118","718831","0.0-80.0-0.0","32381339","wem/bandit_single","AKU3Z7174B91F","pain","2","","75","K","2","","0","0","1","","0.2691097515","false","43","","0.08186566242","main_expt","","0.1605884153","","0.2691097515","","0.08403116819","","","","","",""
"109","","bandit","119","720694","0.0-81.0-0.0","32381339","wem/bandit_single","AKU3Z7174B91F","pain","2","","72","H","0","img/none_selected.jpg","0","1","0","","0.08692603594","false","44","","0.08692603594","main_expt","","0.1396132557","","0.2601206974","","0.08258467284","","","","","",""
"221","","bandit","120","722670","0.0-82.0-0.0","32381339","wem/bandit_single","AKU3Z7174B91F","pain","2","","75","K","2","","0","1","0","","0.3222012474","false","45","","0.1212470101","main_expt","","0.2250933593","","0.3222012474","","0.07253936928","","","","","",""
"115","","bandit","121","724546","0.0-83.0-0.0","32381339","wem/bandit_single","AKU3Z7174B91F","pain","2","","72","H","0","img/none_selected.jpg","0","0","1","","0.134661007","false","46","","0.134661007","main_expt","","0.1826421925","","0.3060845752","","0.05374479905","","","","","",""
"570","","bandit","122","726870","0.0-84.0-0.0","32381339","wem/bandit_single","AKU3Z7174B91F","pain","2","","75","K","2","","0","0","1","","0.290950603","false","47","","0.1377890551","main_expt","","0.1706758886","","0.290950603","","0.06764850751","","","","","",""
"94","","bandit","123","728718","0.0-85.0-0.0","32381339","wem/bandit_single","AKU3Z7174B91F","pain","2","","72","H","0","img/none_selected.jpg","0","0","1","","0.1325860966","false","48","","0.1325860966","main_expt","","0.1686178854","","0.329307254","","0.05656727153","","","","","",""
"251","","bandit","124","730727","0.0-86.0-0.0","32381339","wem/bandit_single","AKU3Z7174B91F","pain","2","","76","L","3","","0","0","1","","0.08131597157","false","49","","0.1231750139","main_expt","","0.1822379713","","0.405044281","","0.08131597157","","","","","",""
"267","","bandit","125","732750","0.0-87.0-0.0","32381339","wem/bandit_single","AKU3Z7174B91F","pain","2","","74","J","1","","0","0","1","","0.2513484478","false","50","","0.1565964086","main_expt","","0.2513484478","","0.4121919591","","0.08274267654","","","","","",""
"1405","","bandit","126","735910","0.0-88.0-0.0","32381339","wem/bandit_single","AKU3Z7174B91F","pain","2","","72","H","0","img/none_selected.jpg","0","0","1","","0.1464659706","false","51","","0.1464659706","main_expt","","0.2812942615","","0.4271607293","","0.1154896937","","","","","",""
"27","","bandit","127","737694","0.0-89.0-0.0","32381339","wem/bandit_single","AKU3Z7174B91F","pain","2","","75","K","2","","0","0","1","","0.4249516559","false","52","","0.1196909414","main_expt","","0.2224049931","","0.4249516559","","0.07649260985","","","","","",""
"61","","bandit","128","739512","0.0-90.0-0.0","32381339","wem/bandit_single","AKU3Z7174B91F","pain","2","","75","K","2","","0","0","1","","0.414238899","false","53","","0.1578713891","main_expt","","0.2135714686","","0.414238899","","0.06211708307","","","","","",""
"120","","bandit","129","741391","0.0-91.0-0.0","32381339","wem/bandit_single","AKU3Z7174B91F","pain","2","","72","H","0","img/none_selected.jpg","0","0","1","","0.1420893662","false","54","","0.1420893662","main_expt","","0.2471494284","","0.4404827494","","0.05122165179","","","","","",""
"4","","bandit","130","743150","0.0-92.0-0.0","32381339","wem/bandit_single","AKU3Z7174B91F","pain","2","","74","J","1","","0","0","1","","0.26732004","false","55","","0.1255118638","main_expt","","0.26732004","","0.4258944343","","0.05779626682","","","","","",""
"213","","bandit","131","745119","0.0-93.0-0.0","32381339","wem/bandit_single","AKU3Z7174B91F","pain","2","","76","L","3","","0","0","1","","0.06578325953","false","56","","0.1040792381","main_expt","","0.258853447","","0.4058732664","","0.06578325953","","","","","",""
"481","","bandit","132","747359","0.0-94.0-0.0","32381339","wem/bandit_single","AKU3Z7174B91F","pain","2","","72","H","0","img/none_selected.jpg","0","1","0","","0.1058118143","false","57","","0.1058118143","main_expt","","0.247757255","","0.4269212616","","0.07487929626","","","","","",""
"346","","bandit","133","749463","0.0-95.0-0.0","32381339","wem/bandit_single","AKU3Z7174B91F","pain","2","","72","H","0","img/none_selected.jpg","0","0","1","","0.08107820888","false","58","","0.08107820888","main_expt","","0.2380046022","","0.4120073189","","0.05601765109","","","","","",""
"170","","bandit","134","751390","0.0-96.0-0.0","32381339","wem/bandit_single","AKU3Z7174B91F","pain","2","","72","H","0","img/none_selected.jpg","0","0","1","","0.115954585","false","59","","0.115954585","main_expt","","0.273239949","","0.367464959","","0.07158824907","","","","","",""
"76","","bandit","135","753234","0.0-97.0-0.0","32381339","wem/bandit_single","AKU3Z7174B91F","pain","2","","75","K","2","","0","0","1","","0.3113576115","false","60","","0.190529156","main_expt","","0.314936794","","0.3113576115","","0.1021813758","","","","","",""
"103","","bandit","136","755096","0.0-98.0-0.0","32381339","wem/bandit_single","AKU3Z7174B91F","pain","2","","74","J","1","","0","1","0","","0.3361315769","false","61","","0.2024767933","main_expt","","0.3361315769","","0.3217665369","","0.1422244628","","","","","",""
"361","","bandit","137","757214","0.0-99.0-0.0","32381339","wem/bandit_single","AKU3Z7174B91F","pain","2","","72","H","0","img/none_selected.jpg","0","0","1","","0.1478811465","false","62","","0.1478811465","main_expt","","0.3012470308","","0.3396020841","","0.1543762338","","","","","",""
"131","","bandit","138","759102","0.0-100.0-0.0","32381339","wem/bandit_single","AKU3Z7174B91F","pain","2","","75","K","2","","0","0","1","","0.3326008901","false","63","","0.1472080331","main_expt","","0.3035933772","","0.3326008901","","0.1957871903","","","","","",""
"75","","bandit","139","760934","0.0-101.0-0.0","32381339","wem/bandit_single","AKU3Z7174B91F","pain","2","","74","J","1","","0","1","0","","0.3061864711","false","64","","0.1523556625","main_expt","","0.3061864711","","0.2759567044","","0.1998827037","","","","","",""
"213","","bandit","140","762902","0.0-102.0-0.0","32381339","wem/bandit_single","AKU3Z7174B91F","pain","2","","76","L","3","","0","0","1","","0.2229124218","false","65","","0.1640586258","main_expt","","0.2795045379","","0.330340259","","0.2229124218","","","","","",""
"35","","bandit","141","764694","0.0-103.0-0.0","32381339","wem/bandit_single","AKU3Z7174B91F","pain","2","","72","H","0","img/none_selected.jpg","0","0","1","","0.1559289375","false","66","","0.1559289375","main_expt","","0.2624990872","","0.394496842","","0.2821528041","","","","","",""
"125","","bandit","142","766575","0.0-104.0-0.0","32381339","wem/bandit_single","AKU3Z7174B91F","pain","2","","74","J","1","","0","1","0","","0.2316809648","false","67","","0.09042099393","main_expt","","0.2316809648","","0.3780229448","","0.2228434199","","","","","",""
"106","","bandit","143","768438","0.0-105.0-0.0","32381339","wem/bandit_single","AKU3Z7174B91F","pain","2","","75","K","2","","0","0","1","","0.313258317","false","68","","0.08874767337","main_expt","","0.2266776066","","0.313258317","","0.2039549584","","","","","",""
"201","","bandit","144","770399","0.0-106.0-0.0","32381339","wem/bandit_single","AKU3Z7174B91F","pain","2","","74","J","1","","0","0","1","","0.1734363374","false","69","","0.09103688118","main_expt","","0.1734363374","","0.3466590849","","0.1998164138","","","","","",""
"72","","bandit","145","772231","0.0-107.0-0.0","32381339","wem/bandit_single","AKU3Z7174B91F","pain","2","","72","H","0","img/none_selected.jpg","0","0","1","","0.139461016","false","70","","0.139461016","main_expt","","0.1469163378","","0.3389702644","","0.1936545157","","","","","",""
"642","","bandit","146","774631","0.0-108.0-0.0","32381339","wem/bandit_single","AKU3Z7174B91F","pain","2","","75","K","2","","0","0","1","","0.3037518088","false","71","","0.1269809057","main_expt","","0.1903103683","","0.3037518088","","0.1875420319","","","","","",""
"1145","","bandit","147","777535","0.0-109.0-0.0","32381339","wem/bandit_single","AKU3Z7174B91F","pain","2","","74","J","1","","0","0","1","","0.2364630875","false","72","","0.1541032278","main_expt","","0.2364630875","","0.3007282465","","0.2275961541","","","","","",""
"160","","bandit","148","779455","0.0-110.0-0.0","32381339","wem/bandit_single","AKU3Z7174B91F","pain","2","","76","L","3","","0","0","1","","0.2485431464","false","73","","0.1618198783","main_expt","","0.2715971604","","0.2796446257","","0.2485431464","","","","","",""
"305","","bandit","149","781519","0.0-111.0-0.0","32381339","wem/bandit_single","AKU3Z7174B91F","pain","2","","74","J","1","","0","0","1","","0.2716254876","false","74","","0.1428156761","main_expt","","0.2716254876","","0.2729876577","","0.2394527842","","","","","",""
"167","","bandit","150","783447","0.0-112.0-0.0","32381339","wem/bandit_single","AKU3Z7174B91F","pain","2","","72","H","0","img/none_selected.jpg","0","0","1","","0.1312504708","false","75","","0.1312504708","main_expt","","0.2998540279","","0.2067723694","","0.2074684787","","","","","",""
"18","","bandit","151","785224","0.0-113.0-0.0","32381339","wem/bandit_single","AKU3Z7174B91F","pain","2","","75","K","2","","0","0","1","","0.2130899639","false","76","","0.1002429729","main_expt","","0.3195890579","","0.2130899639","","0.178133335","","","","","",""
"97","","bandit","152","787079","0.0-114.0-0.0","32381339","wem/bandit_single","AKU3Z7174B91F","pain","2","","74","J","1","","0","0","1","","0.2856322382","false","77","","0.07543037954","main_expt","","0.2856322382","","0.2109525889","","0.1788248706","","","","","",""
"720","","bandit","153","789559","0.0-115.0-0.0","32381339","wem/bandit_single","AKU3Z7174B91F","pain","2","","74","J","1","","0","0","1","","0.2919105172","false","78","","0.1153668935","main_expt","","0.2919105172","","0.1884332626","","0.1530293784","","","","","",""
"88","","bandit","154","791406","0.0-116.0-0.0","32381339","wem/bandit_single","AKU3Z7174B91F","pain","2","","74","J","1","","0","0","1","","0.2567181874","false","79","","0.07716777456","main_expt","","0.2567181874","","0.1883433777","","0.1593806387","","","","","",""
"96","","bandit","155","793262","0.0-117.0-0.0","32381339","wem/bandit_single","AKU3Z7174B91F","pain","2","","75","K","2","","0","0","1","","0.1998795799","false","80","","0.08058819474","main_expt","","0.3200023444","","0.1998795799","","0.1428411119","","","","","",""
"140","","bandit","156","795160","0.0-118.0-0.0","32381339","wem/bandit_single","AKU3Z7174B91F","pain","2","","72","H","0","img/none_selected.jpg","0","0","1","","0.09856946308","false","81","","0.09856946308","main_expt","","0.3117755618","","0.1651756375","","0.1982686668","","","","","",""
"624","","bandit","157","797543","0.0-119.0-0.0","32381339","wem/bandit_single","AKU3Z7174B91F","pain","2","","76","L","3","","0","0","1","","0.2291501313","false","82","","0.1000946235","main_expt","","0.3379160562","","0.2235829688","","0.2291501313","","","","","",""
"60","","bandit","158","799360","0.0-120.0-0.0","32381339","wem/bandit_single","AKU3Z7174B91F","pain","2","","76","L","3","","0","0","1","","0.2259362275","false","83","","0.06687408093","main_expt","","0.3620865136","","0.2456561592","","0.2259362275","","","","","",""
"113","","bandit","159","801230","0.0-121.0-0.0","32381339","wem/bandit_single","AKU3Z7174B91F","pain","2","","74","J","1","","0","1","0","","0.3904685548","false","84","","0.06463964557","main_expt","","0.3904685548","","0.2790354554","","0.1733031115","","","","","",""
"91","","bandit","160","803078","0.0-122.0-0.0","32381339","wem/bandit_single","AKU3Z7174B91F","pain","2","","75","K","2","","0","1","0","","0.2389339959","false","85","","0.09044174456","main_expt","","0.4201611698","","0.2389339959","","0.1577379057","","","","","",""
"242","","bandit","161","805079","0.0-123.0-0.0","32381339","wem/bandit_single","AKU3Z7174B91F","pain","2","","75","K","2","","0","1","0","","0.2905830411","false","86","","0.07242924321","main_expt","","0.4544588035","","0.2905830411","","0.1646880331","","","","","",""
"114","","bandit","162","806951","0.0-124.0-0.0","32381339","wem/bandit_single","AKU3Z7174B91F","pain","2","","75","K","2","","0","0","1","","0.3336128518","false","87","","0.06356931104","main_expt","","0.4444110865","","0.3336128518","","0.157008097","","","","","",""
"38","","bandit","163","808749","0.0-125.0-0.0","32381339","wem/bandit_single","AKU3Z7174B91F","pain","2","","75","K","2","","0","1","0","","0.3720796031","false","88","","0.08819972964","main_expt","","0.4276611285","","0.3720796031","","0.14663069","","","","","",""
"77","","bandit","164","810587","0.0-126.0-0.0","32381339","wem/bandit_single","AKU3Z7174B91F","pain","2","","75","K","2","","0","0","1","","0.3383028484","false","89","","0.09388884115","main_expt","","0.395063318","","0.3383028484","","0.1510377787","","","","","",""
"464","","bandit","165","812807","0.0-127.0-0.0","32381339","wem/bandit_single","AKU3Z7174B91F","pain","2","","75","K","2","","0","0","1","","0.3550100304","false","90","","0.1265583984","main_expt","","0.3790569413","","0.3550100304","","0.1600185234","","","","","",""
"137","","bandit","166","814704","0.0-128.0-0.0","32381339","wem/bandit_single","AKU3Z7174B91F","pain","2","","74","J","1","","0","0","1","","0.3763017738","false","91","","0.09433033469","main_expt","","0.3763017738","","0.4198742783","","0.1618321768","","","","","",""
"48","","bandit","167","816510","0.0-129.0-0.0","32381339","wem/bandit_single","AKU3Z7174B91F","pain","2","","72","H","0","img/none_selected.jpg","0","0","1","","0.05111462501","false","92","","0.05111462501","main_expt","","0.3829045729","","0.4522920775","","0.1408839615","","","","","",""
"198","","bandit","168","818463","0.0-130.0-0.0","32381339","wem/bandit_single","AKU3Z7174B91F","pain","2","","75","K","2","","0","1","0","","0.4572096334","false","93","","0.05378689714","main_expt","","0.4155552038","","0.4572096334","","0.1675332925","","","","","",""
"71","","bandit","169","820295","0.0-131.0-0.0","32381339","wem/bandit_single","AKU3Z7174B91F","pain","2","","75","K","2","","0","0","1","","0.457248447","false","94","","0.04385487208","main_expt","","0.3964247486","","0.457248447","","0.2154783406","","","","","",""
"73","","bandit","170","822126","0.0-132.0-0.0","32381339","wem/bandit_single","AKU3Z7174B91F","pain","2","","75","K","2","","0","1","0","","0.4284600246","false","95","","0.02374316345","main_expt","","0.4028729744","","0.4284600246","","0.2434825378","","","","","",""
"40","","bandit","171","823927","0.0-133.0-0.0","32381339","wem/bandit_single","AKU3Z7174B91F","pain","2","","75","K","2","","0","1","0","","0.4213934208","false","96","","0.01119532444","main_expt","","0.3937220057","","0.4213934208","","0.300751002","","","","","",""
"65","","bandit","172","825750","0.0-134.0-0.0","32381339","wem/bandit_single","AKU3Z7174B91F","pain","2","","75","K","2","","0","0","1","","0.4093218277","false","97","","0.01205949719","main_expt","","0.3951408858","","0.4093218277","","0.2390268827","","","","","",""
"149","","bandit","173","827662","0.0-135.0-0.0","32381339","wem/bandit_single","AKU3Z7174B91F","pain","2","","74","J","1","","0","0","1","","0.3872505806","false","98","","0.02530753644","main_expt","","0.3872505806","","0.4011771953","","0.1872158766","","","","","",""
"122","","bandit","174","829542","0.0-136.0-0.0","32381339","wem/bandit_single","AKU3Z7174B91F","pain","2","","75","K","2","","0","1","0","","0.4319140629","false","99","","0.02318317113","main_expt","","0.3237376228","","0.4319140629","","0.2281726053","","","","","",""
"91","","bandit","175","831391","0.0-137.0-0.0","32381339","wem/bandit_single","AKU3Z7174B91F","pain","2","","75","K","2","","0","1","0","","0.4388591553","false","100","","0.01577819671","main_expt","","0.3840854176","","0.4388591553","","0.2322026393","","","","","",""
"112","","bandit","176","833263","0.0-138.0-0.0","32381339","wem/bandit_single","AKU3Z7174B91F","pain","2","","75","K","2","","0","1","0","","0.4405661836","false","101","","0.03767304301","main_expt","","0.4043087267","","0.4405661836","","0.2675158553","","","","","",""
"55","","bandit","177","835079","0.0-139.0-0.0","32381339","wem/bandit_single","AKU3Z7174B91F","pain","2","","75","K","2","","0","1","0","","0.4155134761","false","102","","0.03003558128","main_expt","","0.423372456","","0.4155134761","","0.2334450153","","","","","",""
"77","","bandit","178","836918","0.0-140.0-0.0","32381339","wem/bandit_single","AKU3Z7174B91F","pain","2","","75","K","2","","0","1","0","","0.4079284656","false","103","","0.04748945294","main_expt","","0.4305794097","","0.4079284656","","0.2546104349","","","","","",""
"26","","bandit","179","838703","0.0-141.0-0.0","32381339","wem/bandit_single","AKU3Z7174B91F","pain","2","","75","K","2","","0","1","0","","0.3827156199","false","104","","0.06674284653","main_expt","","0.4515631957","","0.3827156199","","0.2657782481","","","","","",""
"127","","bandit","180","840595","0.0-142.0-0.0","32381339","wem/bandit_single","AKU3Z7174B91F","pain","2","","75","K","2","","0","0","1","","0.3892206975","false","105","","0.0806059128","main_expt","","0.454723383","","0.3892206975","","0.2397797145","","","","","",""
"78","","bandit","181","842431","0.0-143.0-0.0","32381339","wem/bandit_single","AKU3Z7174B91F","pain","2","","75","K","2","","0","0","1","","0.3499671591","false","106","","0.1147522423","main_expt","","0.4487898282","","0.3499671591","","0.1744994936","","","","","",""
"88","","bandit","182","844277","0.0-144.0-0.0","32381339","wem/bandit_single","AKU3Z7174B91F","pain","2","","75","K","2","","0","1","0","","0.3378870415","false","107","","0.1225979079","main_expt","","0.4300484018","","0.3378870415","","0.2004436591","","","","","",""
"148","","bandit","183","846184","0.0-145.0-0.0","32381339","wem/bandit_single","AKU3Z7174B91F","pain","2","","75","K","2","","0","0","1","","0.3206855754","false","108","","0.1808232933","main_expt","","0.4056187414","","0.3206855754","","0.1781349215","","","","","",""
"125","","bandit","184","848070","0.0-146.0-0.0","32381339","wem/bandit_single","AKU3Z7174B91F","pain","2","","75","K","2","","0","1","0","","0.3412252333","false","109","","0.2004688742","main_expt","","0.4145536126","","0.3412252333","","0.1603989886","","","","","",""
"266","","bandit","185","850095","0.0-147.0-0.0","32381339","wem/bandit_single","AKU3Z7174B91F","pain","2","","75","K","2","","0","1","0","","0.3650365033","false","110","","0.2261403934","main_expt","","0.3897928763","","0.3650365033","","0.1300992081","","","","","",""
"105","","bandit","186","851960","0.0-148.0-0.0","32381339","wem/bandit_single","AKU3Z7174B91F","pain","2","","75","K","2","","0","0","1","","0.341048274","false","111","","0.1612973213","main_expt","","0.4150540561","","0.341048274","","0.1740321776","","","","","",""
"79","","bandit","187","853799","0.0-149.0-0.0","32381339","wem/bandit_single","AKU3Z7174B91F","pain","2","","74","J","1","","0","0","1","","0.4394636757","false","112","","0.1655724556","main_expt","","0.4394636757","","0.3254027875","","0.2444477537","","","","","",""
"7","","bandit","188","855567","0.0-150.0-0.0","32381339","wem/bandit_single","AKU3Z7174B91F","pain","2","","72","H","0","img/none_selected.jpg","0","1","0","","0.1319876284","false","113","","0.1319876284","main_expt","","0.4301961846","","0.308059901","","0.2195244909","","","","","",""
"85","","bandit","189","857414","0.0-151.0-0.0","32381339","wem/bandit_single","AKU3Z7174B91F","pain","2","","72","H","0","img/none_selected.jpg","0","0","1","","0.1147934267","false","114","","0.1147934267","main_expt","","0.4497687286","","0.3238695313","","0.2719971232","","","","","",""
"46","","bandit","190","859223","0.0-152.0-0.0","32381339","wem/bandit_single","AKU3Z7174B91F","pain","2","","75","K","2","","0","1","0","","0.3315084933","false","115","","0.1301750396","main_expt","","0.4448888627","","0.3315084933","","0.2447677414","","","","","",""
"88","","bandit","191","861071","0.0-153.0-0.0","32381339","wem/bandit_single","AKU3Z7174B91F","pain","2","","72","H","0","img/none_selected.jpg","0","1","0","","0.130185029","false","116","","0.130185029","main_expt","","0.3905844751","","0.3234657333","","0.2296513069","","","","","",""
"96","","bandit","192","862926","0.0-154.0-0.0","32381339","wem/bandit_single","AKU3Z7174B91F","pain","2","","75","K","2","","0","0","1","","0.300593156","false","117","","0.1548944576","main_expt","","0.424359093","","0.300593156","","0.2151266314","","","","","",""
"322","","bandit","193","865010","0.0-155.0-0.0","32381339","wem/bandit_single","AKU3Z7174B91F","pain","2","","72","H","0","img/none_selected.jpg","0","0","1","","0.172903741","false","118","","0.172903741","main_expt","","0.4121010571","","0.3585138177","","0.1311834018","","","","","",""
"749","","bandit","194","867520","0.0-156.0-0.0","32381339","wem/bandit_single","AKU3Z7174B91F","pain","2","","75","K","2","","0","0","1","","0.3062020697","false","119","","0.1707570171","main_expt","","0.4117558181","","0.3062020697","","0.1190099868","","","","","",""
"10","","bandit","195","869291","0.0-157.0-0.0","32381339","wem/bandit_single","AKU3Z7174B91F","pain","2","","74","J","1","","0","0","1","","0.4275669698","false","120","","0.1870802187","main_expt","","0.4275669698","","0.3312553157","","0.1117686876","","","","","",""
"5","","bandit","196","871056","0.0-158.0-0.0","32381339","wem/bandit_single","AKU3Z7174B91F","pain","2","","76","L","3","","0","0","1","","0.1415869423","false","121","","0.1870161021","main_expt","","0.4428986123","","0.3892509988","","0.1415869423","","","","","",""
"231","","bandit","197","873048","0.0-159.0-0.0","32381339","wem/bandit_single","AKU3Z7174B91F","pain","2","","72","H","0","img/none_selected.jpg","0","0","1","","0.1926804843","false","122","","0.1926804843","main_expt","","0.4376246318","","0.4330036483","","0.1398412585","","","","","",""
"148","","bandit","198","874959","0.0-160.0-0.0","32381339","wem/bandit_single","AKU3Z7174B91F","pain","2","","75","K","2","","0","0","1","","0.4555957022","false","123","","0.2057615037","main_expt","","0.4153394585","","0.4555957022","","0.1163210087","","","","","",""
"90","","bandit","199","876807","0.0-161.0-0.0","32381339","wem/bandit_single","AKU3Z7174B91F","pain","2","","74","J","1","","0","0","1","","0.4203389285","false","124","","0.2639565913","main_expt","","0.4203389285","","0.4565029776","","0.07344578178","","","","","",""
"78","","bandit","200","878646","0.0-162.0-0.0","32381339","wem/bandit_single","AKU3Z7174B91F","pain","2","","75","K","2","","0","1","0","","0.4511527373","false","125","","0.3672341475","main_expt","","0.3710029205","","0.4511527373","","0.08752025541","","","","","",""
"135","","bandit","201","880542","0.0-163.0-0.0","32381339","wem/bandit_single","AKU3Z7174B91F","pain","2","","75","K","2","","0","1","0","","0.4426171603","false","126","","0.3606148775","main_expt","","0.3465273485","","0.4426171603","","0.1064058914","","","","","",""
"83","","bandit","202","882383","0.0-164.0-0.0","32381339","wem/bandit_single","AKU3Z7174B91F","pain","2","","75","K","2","","0","1","0","","0.4259104728","false","127","","0.4079700646","main_expt","","0.4106613481","","0.4259104728","","0.1103525866","","","","","",""
"77","","bandit","203","884223","0.0-165.0-0.0","32381339","wem/bandit_single","AKU3Z7174B91F","pain","2","","75","K","2","","0","1","0","","0.4543754413","false","128","","0.4204919645","main_expt","","0.4377707947","","0.4543754413","","0.1060480298","","","","","",""
"184","","bandit","204","886168","0.0-166.0-0.0","32381339","wem/bandit_single","AKU3Z7174B91F","pain","2","","75","K","2","","0","0","1","","0.4587533269","false","129","","0.4040923387","main_expt","","0.4481781661","","0.4587533269","","0.1332603285","","","","","",""
"500","","bandit","205","888431","0.0-167.0-0.0","32381339","wem/bandit_single","AKU3Z7174B91F","pain","2","","74","J","1","","0","0","1","","0.4301237728","false","130","","0.3906791758","main_expt","","0.4301237728","","0.4618517855","","0.09182468565","","","","","",""
"247","","bandit","206","890439","0.0-168.0-0.0","32381339","wem/bandit_single","AKU3Z7174B91F","pain","2","","75","K","2","","0","1","0","","0.4622878414","false","131","","0.380553204","main_expt","","0.4457858875","","0.4622878414","","0.09388333002","","","","","",""
"103","","bandit","207","892302","0.0-169.0-0.0","32381339","wem/bandit_single","AKU3Z7174B91F","pain","2","","75","K","2","","0","0","1","","0.4624711794","false","132","","0.4000467043","main_expt","","0.4732894157","","0.4624711794","","0.07277513685","","","","","",""
"45","","bandit","208","894102","0.0-170.0-0.0","32381339","wem/bandit_single","AKU3Z7174B91F","pain","2","","75","K","2","","0","1","0","","0.4794526202","false","133","","0.3929100345","main_expt","","0.4607838047","","0.4794526202","","0.1108266248","","","","","",""
"328","","bandit","209","896191","0.0-171.0-0.0","32381339","wem/bandit_single","AKU3Z7174B91F","pain","2","","75","K","2","","0","1","0","","0.481632873","false","134","","0.4009617203","main_expt","","0.4663808264","","0.481632873","","0.1466671782","","","","","",""
"183","","bandit","210","898135","0.0-172.0-0.0","32381339","wem/bandit_single","AKU3Z7174B91F","pain","2","","75","K","2","","0","0","1","","0.4667599148","false","135","","0.3859426802","main_expt","","0.4625615306","","0.4667599148","","0.1625995743","","","","","",""
"147","","bandit","211","900047","0.0-173.0-0.0","32381339","wem/bandit_single","AKU3Z7174B91F","pain","2","","72","H","0","img/none_selected.jpg","0","0","1","","0.4089350186","false","136","","0.4089350186","main_expt","","0.4629143089","","0.4468402508","","0.1555673637","","","","","",""
"87","","bandit","212","901895","0.0-174.0-0.0","32381339","wem/bandit_single","AKU3Z7174B91F","pain","2","","74","J","1","","0","1","0","","0.4644074349","false","137","","0.4009707033","main_expt","","0.4644074349","","0.4331537256","","0.1395554881","","","","","",""
"59","","bandit","213","903710","0.0-175.0-0.0","32381339","wem/bandit_single","AKU3Z7174B91F","pain","2","","75","K","2","","0","0","1","","0.4578477473","false","138","","0.4116224971","main_expt","","0.4741213624","","0.4578477473","","0.1387442451","","","","","",""
"43","","bandit","214","905511","0.0-176.0-0.0","32381339","wem/bandit_single","AKU3Z7174B91F","pain","2","","75","K","2","","0","1","0","","0.464919911","false","139","","0.4129411324","main_expt","","0.4736492243","","0.464919911","","0.1693780048","","","","","",""
"110","","bandit","215","907383","0.0-177.0-0.0","32381339","wem/bandit_single","AKU3Z7174B91F","pain","2","","75","K","2","","0","0","1","","0.4614371154","false","140","","0.4494235083","main_expt","","0.4752570035","","0.4614371154","","0.1753437518","","","","","",""
"92","","bandit","216","909239","0.0-178.0-0.0","32381339","wem/bandit_single","AKU3Z7174B91F","pain","2","","74","J","1","","0","1","0","","0.4857055712","false","141","","0.4453484197","main_expt","","0.4857055712","","0.4747872093","","0.2288512635","","","","","",""
"205","","bandit","217","911206","0.0-179.0-0.0","32381339","wem/bandit_single","AKU3Z7174B91F","pain","2","","75","K","2","","0","0","1","","0.4513335087","false","142","","0.4604546146","main_expt","","0.4792724089","","0.4513335087","","0.2579513082","","","","","",""
"58","","bandit","218","913023","0.0-180.0-0.0","32381339","wem/bandit_single","AKU3Z7174B91F","pain","2","","74","J","1","","0","0","1","","0.48057755","false","143","","0.4826245684","main_expt","","0.48057755","","0.4198830698","","0.21432658","","","","","",""
"22","","bandit","219","914806","0.0-181.0-0.0","32381339","wem/bandit_single","AKU3Z7174B91F","pain","2","","75","K","2","","0","1","0","","0.3673231636","false","144","","0.4890981767","main_expt","","0.4777600445","","0.3673231636","","0.1938021535","","","","","",""
"34","","bandit","220","916599","0.0-182.0-0.0","32381339","wem/bandit_single","AKU3Z7174B91F","pain","2","","75","K","2","","0","1","0","","0.3772368795","false","145","","0.4680822138","main_expt","","0.4735071841","","0.3772368795","","0.206497324","","","","","",""
"30","","bandit","221","918392","0.0-183.0-0.0","32381339","wem/bandit_single","AKU3Z7174B91F","pain","2","","75","K","2","","0","1","0","","0.3767069828","false","146","","0.4660155258","main_expt","","0.4598241197","","0.3767069828","","0.1857351915","","","","","",""
"53","","bandit","222","920207","0.0-184.0-0.0","32381339","wem/bandit_single","AKU3Z7174B91F","pain","2","","75","K","2","","0","0","1","","0.4039806626","false","147","","0.4723880167","main_expt","","0.4279993213","","0.4039806626","","0.1046475439","","","","","",""
"246","","bandit","223","922217","0.0-185.0-0.0","32381339","wem/bandit_single","AKU3Z7174B91F","pain","2","","74","J","1","","0","0","1","","0.4422782314","false","148","","0.4692947112","main_expt","","0.4422782314","","0.4178396587","","0.1098111678","","","","","",""
"11","","bandit","224","923991","0.0-186.0-0.0","32381339","wem/bandit_single","AKU3Z7174B91F","pain","2","","76","L","3","","0","0","1","","0.1221971929","false","149","","0.4702562614","main_expt","","0.4514785706","","0.3932004216","","0.1221971929","","","","","",""
"195","","bandit","225","925951","0.0-187.0-0.0","32381339","wem/bandit_single","AKU3Z7174B91F","pain","2","","76","L","3","","0","0","1","","0.1354034315","false","150","","0.4714094479","main_expt","","0.4189864991","","0.4103897693","","0.1354034315","","","","","",""
"6","","bandit","226","927721","0.0-188.0-0.0","32381339","wem/bandit_single","AKU3Z7174B91F","pain","2","","76","L","3","","0","0","1","","0.1041822367","false","151","","0.4761401221","main_expt","","0.4389233528","","0.4122179041","","0.1041822367","","","","","",""
"787","","bandit","227","930270","0.0-189.0-0.0","32381339","wem/bandit_single","AKU3Z7174B91F","pain","2","","76","L","3","","0","0","1","","0.09038071171","false","152","","0.4697737123","main_expt","","0.4244236929","","0.3952463752","","0.09038071171","","","","","",""
"76","","bandit","228","932110","0.0-190.0-0.0","32381339","wem/bandit_single","AKU3Z7174B91F","pain","2","","74","J","1","","0","0","1","","0.4476471014","false","153","","0.446753433","main_expt","","0.4476471014","","0.3877384472","","0.08460578514","","","","","",""
"590","","bandit","229","934462","0.0-191.0-0.0","32381339","wem/bandit_single","AKU3Z7174B91F","pain","2","","75","K","2","","0","0","1","","0.3551427127","false","154","","0.4588815304","main_expt","","0.4505336387","","0.3551427127","","0.06957086972","","","","","",""
"122","","bandit","230","936343","0.0-192.0-0.0","32381339","wem/bandit_single","AKU3Z7174B91F","pain","2","","74","J","1","","0","0","1","","0.466992112","false","155","","0.4483664475","main_expt","","0.466992112","","0.3027898514","","0.07570805595","","","","","",""
"10","","bandit","231","938111","0.0-193.0-0.0","32381339","wem/bandit_single","AKU3Z7174B91F","pain","2","","72","H","0","img/none_selected.jpg","0","1","0","","0.4383670719","false","156","","0.4383670719","main_expt","","0.4383448919","","0.3245978035","","0.1010055374","","","","","",""
"142","","bandit","232","940015","0.0-194.0-0.0","32381339","wem/bandit_single","AKU3Z7174B91F","pain","2","","72","H","0","img/none_selected.jpg","0","0","1","","0.42990192","false","157","","0.42990192","main_expt","","0.4181306447","","0.3293821827","","0.09959580587","","","","","",""
"4","","bandit","233","941783","0.0-195.0-0.0","32381339","wem/bandit_single","AKU3Z7174B91F","pain","2","","76","L","3","","0","0","1","","0.09130540219","false","158","","0.4112902825","main_expt","","0.4322591637","","0.3053991167","","0.09130540219","","","","","",""
"92","","bandit","234","943639","0.0-196.0-0.0","32381339","wem/bandit_single","AKU3Z7174B91F","pain","2","","72","H","0","img/none_selected.jpg","0","0","1","","0.4085113589","false","159","","0.4085113589","main_expt","","0.4129829621","","0.3475565739","","0.07080299429","","","","","",""
"93","","bandit","235","945494","0.0-197.0-0.0","32381339","wem/bandit_single","AKU3Z7174B91F","pain","2","","75","K","2","","0","1","0","","0.327393219","false","160","","0.4079314082","main_expt","","0.4094933958","","0.327393219","","0.05017383151","","","","","",""
"91","","bandit","236","947342","0.0-198.0-0.0","32381339","wem/bandit_single","AKU3Z7174B91F","pain","2","","74","J","1","","0","0","1","","0.404058003","false","161","","0.3631501835","main_expt","","0.404058003","","0.303429729","","0.03820476969","","","","","",""
"61","","bandit","237","949167","0.0-199.0-0.0","32381339","wem/bandit_single","AKU3Z7174B91F","pain","2","","75","K","2","","0","0","1","","0.3079210788","false","162","","0.3470346279","main_expt","","0.3846726044","","0.3079210788","","0.02512507724","","","","","",""
"399","","bandit","238","951328","0.0-200.0-0.0","32381339","wem/bandit_single","AKU3Z7174B91F","pain","2","","76","L","3","","0","0","1","","0.03932379445","false","163","","0.372656257","main_expt","","0.4016559577","","0.3004483846","","0.03932379445","","","","","",""
"70","","bandit","239","953159","0.0-201.0-0.0","32381339","wem/bandit_single","AKU3Z7174B91F","pain","2","","76","L","3","","0","0","1","","0.01829840099","false","164","","0.3802753243","main_expt","","0.3566256613","","0.2886014424","","0.01829840099","","","","","",""
"44","","bandit","240","954967","0.0-202.0-0.0","32381339","wem/bandit_single","AKU3Z7174B91F","pain","2","","76","L","3","","0","0","1","","0.02415252971","false","165","","0.3881672334","main_expt","","0.3509524146","","0.2088325088","","0.02415252971","","","","","",""
"68","","bandit","241","956798","0.0-203.0-0.0","32381339","wem/bandit_single","AKU3Z7174B91F","pain","2","","75","K","2","","0","1","0","","0.2160195985","false","166","","0.359536632","main_expt","","0.2773632025","","0.2160195985","","0.02185778449","","","","","",""
"504","","bandit","242","959062","0.0-204.0-0.0","32381339","wem/bandit_single","AKU3Z7174B91F","pain","2","","74","J","1","","0","1","0","","0.3022689801","false","167","","0.3693034809","main_expt","","0.3022689801","","0.1836534764","","0.02761124673","","","","","",""
"231","","bandit","243","961056","0.0-205.0-0.0","32381339","wem/bandit_single","AKU3Z7174B91F","pain","2","","75","K","2","","0","0","1","","0.1701024481","false","168","","0.3449050916","main_expt","","0.2937690027","","0.1701024481","","0.02160611799","","","","","",""
"114","","bandit","244","962934","0.0-206.0-0.0","32381339","wem/bandit_single","AKU3Z7174B91F","pain","2","","74","J","1","","0","0","1","","0.2488586406","false","169","","0.3515710367","main_expt","","0.2488586406","","0.1896079261","","0.02113437328","","","","","",""
"106","","bandit","245","964798","0.0-207.0-0.0","32381339","wem/bandit_single","AKU3Z7174B91F","pain","2","","75","K","2","","0","0","1","","0.2377789273","false","170","","0.3233833909","main_expt","","0.2112819205","","0.2377789273","","0.01292956957","","","","","",""
"137","","bandit","246","966694","0.0-208.0-0.0","32381339","wem/bandit_single","AKU3Z7174B91F","pain","2","","72","H","0","img/none_selected.jpg","0","0","1","","0.2468086364","false","171","","0.2468086364","main_expt","","0.2217900108","","0.2640247014","","0.01989811998","","","","","",""
"100","","bandit","247","968559","0.0-209.0-0.0","32381339","wem/bandit_single","AKU3Z7174B91F","pain","2","","75","K","2","","0","0","1","","0.2055846389","false","172","","0.3408906282","main_expt","","0.2387596097","","0.2055846389","","0.0296351857","","","","","",""
"82","","bandit","248","970399","0.0-210.0-0.0","32381339","wem/bandit_single","AKU3Z7174B91F","pain","2","","75","K","2","","0","0","1","","0.2438181894","false","173","","0.3252944763","main_expt","","0.2602125502","","0.2438181894","","0.03540771295","","","","","",""
"44","","bandit","249","972206","0.0-211.0-0.0","32381339","wem/bandit_single","AKU3Z7174B91F","pain","2","","75","K","2","","0","0","1","","0.2733147352","false","174","","0.3200904142","main_expt","","0.2202846771","","0.2733147352","","0.03725130304","","","","","",""
"348","","bandit","250","974311","0.0-212.0-0.0","32381339","wem/bandit_single","AKU3Z7174B91F","pain","2","","75","K","2","","0","1","0","","0.2767671147","false","175","","0.3622659173","main_expt","","0.233285157","","0.2767671147","","0.03242602151","","","","","",""
"53","","bandit","251","976127","0.0-213.0-0.0","32381339","wem/bandit_single","AKU3Z7174B91F","pain","2","","75","K","2","","0","0","1","","0.2195478827","false","176","","0.2937007374","main_expt","","0.2264555061","","0.2195478827","","0.04697917163","","","","","",""
"517","","bandit","252","978407","0.0-214.0-0.0","32381339","wem/bandit_single","AKU3Z7174B91F","pain","2","","75","K","2","","0","0","1","","0.1515864758","false","177","","0.2513366018","main_expt","","0.241841845","","0.1515864758","","0.04124559051","","","","","",""
"109","","bandit","253","980279","0.0-215.0-0.0","32381339","wem/bandit_single","AKU3Z7174B91F","pain","2","","75","K","2","","0","0","1","","0.1618037694","false","178","","0.3159509921","main_expt","","0.2423953475","","0.1618037694","","0.06205026603","","","","","",""
"140","","bandit","254","982182","0.0-216.0-0.0","32381339","wem/bandit_single","AKU3Z7174B91F","pain","2","","75","K","2","","0","1","0","","0.1653326191","false","179","","0.2899582247","main_expt","","0.2523089652","","0.1653326191","","0.08412795639","","","","","",""
"189","","bandit","255","984135","0.0-217.0-0.0","32381339","wem/bandit_single","AKU3Z7174B91F","pain","2","","75","K","2","","0","0","1","","0.1751853148","false","180","","0.3371390753","main_expt","","0.2223981335","","0.1751853148","","0.1304099397","","","","","",""
"0","","bandit","256","985898","0.0-218.0-0.0","32381339","wem/bandit_single","AKU3Z7174B91F","pain","2","","75","K","2","","0","0","1","","0.211978586","false","181","","0.3365963609","main_expt","","0.2319473409","","0.211978586","","0.1801801058","","","","","",""
"424","","bandit","257","988079","0.0-219.0-0.0","32381339","wem/bandit_single","AKU3Z7174B91F","pain","2","","74","J","1","","0","1","0","","0.2338578761","false","182","","0.2643366398","main_expt","","0.2338578761","","0.2323199139","","0.1951504204","","","","","",""
"883","","bandit","258","990727","0.0-220.0-0.0","32381339","wem/bandit_single","AKU3Z7174B91F","pain","2","","74","J","1","","0","1","0","","0.265472663","false","183","","0.2464000872","main_expt","","0.265472663","","0.2252803731","","0.2330781564","","","","","",""
"115","","bandit","259","992599","0.0-221.0-0.0","32381339","wem/bandit_single","AKU3Z7174B91F","pain","2","","74","J","1","","0","0","1","","0.2826161147","false","184","","0.3039071009","main_expt","","0.2826161147","","0.1614269484","","0.2711395555","","","","","",""
"62","","bandit","260","994424","0.0-222.0-0.0","32381339","wem/bandit_single","AKU3Z7174B91F","pain","2","","74","J","1","","0","0","1","","0.2542525597","false","185","","0.3100879913","main_expt","","0.2542525597","","0.1636939604","","0.2182249031","","","","","",""
"106","","bandit","261","996293","0.0-223.0-0.0","32381339","wem/bandit_single","AKU3Z7174B91F","pain","2","","74","J","1","","0","0","1","","0.260460085","false","186","","0.28505789","main_expt","","0.260460085","","0.1744134641","","0.2609412602","","","","","",""
"64","","bandit","262","998118","0.0-224.0-0.0","32381339","wem/bandit_single","AKU3Z7174B91F","pain","2","","74","J","1","","0","0","1","","0.2119714508","false","187","","0.2698122055","main_expt","","0.2119714508","","0.1955069844","","0.2242136054","","","","","",""
"21","","bandit","263","999902","0.0-225.0-0.0","32381339","wem/bandit_single","AKU3Z7174B91F","pain","2","","74","J","1","","0","0","1","","0.1887053186","false","188","","0.2270240414","main_expt","","0.1887053186","","0.2289740151","","0.2404864381","","","","","",""
"595","","bandit","264","1002253","0.0-226.0-0.0","32381339","wem/bandit_single","AKU3Z7174B91F","pain","2","","74","J","1","","0","1","0","","0.1944753942","false","189","","0.2182158859","main_expt","","0.1944753942","","0.2495887903","","0.2177927796","","","","","",""
"68","","bandit","265","1004078","0.0-227.0-0.0","32381339","wem/bandit_single","AKU3Z7174B91F","pain","2","","74","J","1","","0","0","1","","0.2163673671","false","190","","0.2445882628","main_expt","","0.2163673671","","0.2815424982","","0.2445379922","","","","","",""
"205","","bandit","266","1006047","0.0-228.0-0.0","32381339","wem/bandit_single","AKU3Z7174B91F","pain","2","","74","J","1","","0","1","0","","0.2584180811","false","191","","0.2733302752","main_expt","","0.2584180811","","0.2401402076","","0.2910265903","","","","","",""
"221","","bandit","267","1008032","0.0-229.0-0.0","32381339","wem/bandit_single","AKU3Z7174B91F","pain","2","","72","H","0","img/none_selected.jpg","0","0","1","","0.2776932955","false","192","","0.2776932955","main_expt","","0.2555063139","","0.2510809658","","0.3095983682","","","","","",""
"234","","bandit","268","1010031","0.0-230.0-0.0","32381339","wem/bandit_single","AKU3Z7174B91F","pain","2","","72","H","0","img/none_selected.jpg","0","1","0","","0.3335190616","false","193","","0.3335190616","main_expt","","0.2694863875","","0.2875405407","","0.3217156539","","","","","",""
"134","","bandit","269","1011926","0.0-231.0-0.0","32381339","wem/bandit_single","AKU3Z7174B91F","pain","2","","72","H","0","img/none_selected.jpg","0","1","0","","0.3308991278","false","194","","0.3308991278","main_expt","","0.2894821148","","0.2183543786","","0.278878796","","","","","",""
"113","","bandit","270","1013799","0.0-232.0-0.0","32381339","wem/bandit_single","AKU3Z7174B91F","pain","2","","72","H","0","img/none_selected.jpg","0","1","0","","0.3676749275","false","195","","0.3676749275","main_expt","","0.3028339589","","0.2626349305","","0.2738334973","","","","","",""
"70","","bandit","271","1015631","0.0-233.0-0.0","32381339","wem/bandit_single","AKU3Z7174B91F","pain","2","","72","H","0","img/none_selected.jpg","0","0","1","","0.3523241719","false","196","","0.3523241719","main_expt","","0.3051171059","","0.2046446137","","0.2494818112","","","","","",""
"71","","bandit","272","1017461","0.0-234.0-0.0","32381339","wem/bandit_single","AKU3Z7174B91F","pain","2","","72","H","0","img/none_selected.jpg","0","1","0","","0.3874168703","false","197","","0.3874168703","main_expt","","0.2901305303","","0.2122082762","","0.2620473779","","","","","",""
"58","","bandit","273","1019278","0.0-235.0-0.0","32381339","wem/bandit_single","AKU3Z7174B91F","pain","2","","72","H","0","img/none_selected.jpg","0","1","0","","0.4072223947","false","198","","0.4072223947","main_expt","","0.2403600488","","0.1962120249","","0.3153682745","","","","","",""
"59","","bandit","274","1021102","0.0-236.0-0.0","32381339","wem/bandit_single","AKU3Z7174B91F","pain","2","","72","H","0","img/none_selected.jpg","0","1","0","","0.4284861426","false","199","","0.4284861426","main_expt","","0.2034733728","","0.1840541487","","0.2424407548","","","","","",""
"117","","bandit","275","1022984","0.0-237.0-0.0","32381339","wem/bandit_single","AKU3Z7174B91F","pain","2","","72","H","0","img/none_selected.jpg","0","1","0","","0.4181746593","false","200","","0.4181746593","main_expt","","0.2193557146","","0.1575563837","","0.2692586032","","","","","",""
"68","","bandit","276","1024814","0.0-238.0-0.0","32381339","wem/bandit_single","AKU3Z7174B91F","pain","2","","72","H","0","img/none_selected.jpg","0","0","1","","0.4134190678","false","201","","0.4134190678","main_expt","","0.2412650678","","0.138860739","","0.2605377594","","","","","",""
"587","","bandit","277","1027161","0.0-239.0-0.0","32381339","wem/bandit_single","AKU3Z7174B91F","pain","2","","74","J","1","","0","0","1","","0.2106041824","false","202","","0.4255663607","main_expt","","0.2106041824","","0.1216759056","","0.2372211354","","","","","",""
"32","","bandit","278","1028950","0.0-240.0-0.0","32381339","wem/bandit_single","AKU3Z7174B91F","pain","2","","72","H","0","img/none_selected.jpg","0","1","0","","0.4267176133","false","203","","0.4267176133","main_expt","","0.2182463191","","0.1085797693","","0.20896917","","","","","",""
"26","","bandit","279","1030734","0.0-241.0-0.0","32381339","wem/bandit_single","AKU3Z7174B91F","pain","2","","74","J","1","","0","0","1","","0.2060997213","false","204","","0.460819217","main_expt","","0.2060997213","","0.08750272662","","0.2277156902","","","","","",""
"4","","bandit","280","1032495","0.0-242.0-0.0","32381339","wem/bandit_single","AKU3Z7174B91F","pain","2","","72","H","0","img/none_selected.jpg","0","1","0","","0.4797370756","false","205","","0.4797370756","main_expt","","0.2179237498","","0.1119911725","","0.2096017385","","","","","",""
"106","","bandit","281","1034360","0.0-243.0-0.0","32381339","wem/bandit_single","AKU3Z7174B91F","pain","2","","72","H","0","img/none_selected.jpg","0","1","0","","0.4850202511","false","206","","0.4850202511","main_expt","","0.194566176","","0.105166696","","0.2293009918","","","","","",""
"171","","bandit","282","1036296","0.0-244.0-0.0","32381339","wem/bandit_single","AKU3Z7174B91F","pain","2","","72","H","0","img/none_selected.jpg","0","1","0","","0.4588339162","false","207","","0.4588339162","main_expt","","0.2540459421","","0.07428909222","","0.2613461541","","","","","",""
"19","","bandit","283","1038078","0.0-245.0-0.0","32381339","wem/bandit_single","AKU3Z7174B91F","pain","2","","76","L","3","","0","0","1","","0.2921374763","false","208","","0.4704498371","main_expt","","0.2165425212","","0.08415887516","","0.2921374763","","","","","",""
"149","","bandit","284","1039995","0.0-246.0-0.0","32381339","wem/bandit_single","AKU3Z7174B91F","pain","2","","72","H","0","img/none_selected.jpg","0","1","0","","0.4498430745","false","209","","0.4498430745","main_expt","","0.1808740619","","0.05558253146","","0.2679345114","","","","","",""
"339","","bandit","285","1042095","0.0-247.0-0.0","32381339","wem/bandit_single","AKU3Z7174B91F","pain","2","","72","H","0","img/none_selected.jpg","0","1","0","","0.4463117693","false","210","","0.4463117693","main_expt","","0.2298827717","","0.04914985493","","0.2356021564","","","","","",""
"94","","bandit","286","1043951","0.0-248.0-0.0","32381339","wem/bandit_single","AKU3Z7174B91F","pain","2","","72","H","0","img/none_selected.jpg","0","0","1","","0.422163821","false","211","","0.422163821","main_expt","","0.2533880575","","0.03798033643","","0.2152320876","","","","","",""
"140","","bandit","287","1045857","0.0-249.0-0.0","32381339","wem/bandit_single","AKU3Z7174B91F","pain","2","","72","H","0","img/none_selected.jpg","0","1","0","","0.3852039581","false","212","","0.3852039581","main_expt","","0.2771241442","","0.03974322714","","0.2216595069","","","","","",""
"216","","bandit","288","1047839","0.0-250.0-0.0","32381339","wem/bandit_single","AKU3Z7174B91F","pain","2","","72","H","0","img/none_selected.jpg","0","0","1","","0.3822954745","false","213","","0.3822954745","main_expt","","0.3010302337","","0.02384455773","","0.2150176613","","","","","",""
"256","","bandit","289","1049855","0.0-251.0-0.0","32381339","wem/bandit_single","AKU3Z7174B91F","pain","2","","72","H","0","img/none_selected.jpg","0","0","1","","0.3608549874","false","214","","0.3608549874","main_expt","","0.3409008015","","0.03216660231","","0.1772129937","","","","","",""
"120","","bandit","290","1051744","0.0-252.0-0.0","32381339","wem/bandit_single","AKU3Z7174B91F","pain","2","","76","L","3","","0","0","1","","0.1584975441","false","215","","0.3621739951","main_expt","","0.3227810677","","0.03095464101","","0.1584975441","","","","","",""
"91","","bandit","291","1053600","0.0-253.0-0.0","32381339","wem/bandit_single","AKU3Z7174B91F","pain","2","","76","L","3","","0","0","1","","0.1256434713","false","216","","0.3733564142","main_expt","","0.3636386285","","0.04011500866","","0.1256434713","","","","","",""
"418","","bandit","292","1055784","0.0-254.0-0.0","32381339","wem/bandit_single","AKU3Z7174B91F","pain","2","","76","L","3","","0","0","1","","0.1601534085","false","217","","0.3856473275","main_expt","","0.3649758886","","0.02351309264","","0.1601534085","","","","","",""
"68","","bandit","293","1057615","0.0-255.0-0.0","32381339","wem/bandit_single","AKU3Z7174B91F","pain","2","","76","L","3","","0","0","1","","0.1514518834","false","218","","0.3645608201","main_expt","","0.3641131336","","0.01650540734","","0.1514518834","","","","","",""
"109","","bandit","294","1059488","0.0-256.0-0.0","32381339","wem/bandit_single","AKU3Z7174B91F","pain","2","","76","L","3","","0","0","1","","0.2415223947","false","219","","0.3851453746","main_expt","","0.341156599","","0.03577324375","","0.2415223947","","","","","",""
"421","","bandit","295","1061671","0.0-257.0-0.0","32381339","wem/bandit_single","AKU3Z7174B91F","pain","2","","72","H","0","img/none_selected.jpg","0","0","1","","0.4075423229","false","220","","0.4075423229","main_expt","","0.266049218","","0.03655385126","","0.2248182851","","","","","",""
"52","","bandit","296","1063487","0.0-258.0-0.0","32381339","wem/bandit_single","AKU3Z7174B91F","pain","2","","75","K","2","","0","0","1","","0.03282050992","false","221","","0.4083347012","main_expt","","0.2359154628","","0.03282050992","","0.2588925836","","","","","",""
"283","","bandit","297","1065535","0.0-259.0-0.0","32381339","wem/bandit_single","AKU3Z7174B91F","pain","2","","74","J","1","","0","0","1","","0.2640726019","false","222","","0.4083223781","main_expt","","0.2640726019","","0.02558717114","","0.2025188389","","","","","",""
"194","","bandit","298","1067494","0.0-260.0-0.0","32381339","wem/bandit_single","AKU3Z7174B91F","pain","2","","72","H","0","img/none_selected.jpg","0","1","0","","0.4240474742","false","223","","0.4240474742","main_expt","","0.1860418506","","0.04788205671","","0.1609755914","","","","","",""
"150","","bandit","299","1069407","0.0-261.0-0.0","32381339","wem/bandit_single","AKU3Z7174B91F","pain","2","","72","H","0","img/none_selected.jpg","0","1","0","","0.4346876605","false","224","","0.4346876605","main_expt","","0.151875944","","0.05498715651","","0.2316748255","","","","","",""
"130","","bandit","300","1071302","0.0-262.0-0.0","32381339","wem/bandit_single","AKU3Z7174B91F","pain","2","","72","H","0","img/none_selected.jpg","0","0","1","","0.4541072866","false","225","","0.4541072866","main_expt","","0.1209973656","","0.056476577","","0.1605893144","","","","","",""
"162","","bandit","301","1073223","0.0-263.0-0.0","32381339","wem/bandit_single","AKU3Z7174B91F","pain","2","","72","H","0","img/none_selected.jpg","0","0","1","","0.4239515892","false","226","","0.4239515892","main_expt","","0.1503457952","","0.06361054401","","0.1389366963","","","","","",""
"955","","bandit","302","1075943","0.0-264.0-0.0","32381339","wem/bandit_single","AKU3Z7174B91F","pain","2","","72","H","0","img/none_selected.jpg","0","0","1","","0.4122914309","false","227","","0.4122914309","main_expt","","0.1784166707","","0.03819722012","","0.09987042713","","","","","",""
"116","","bandit","303","1077823","0.0-265.0-0.0","32381339","wem/bandit_single","AKU3Z7174B91F","pain","2","","72","H","0","img/none_selected.jpg","0","0","1","","0.4022765074","false","228","","0.4022765074","main_expt","","0.1729157366","","0.03706892342","","0.1511988136","","","","","",""
"696","","bandit","304","1080279","0.0-266.0-0.0","32381339","wem/bandit_single","AKU3Z7174B91F","pain","2","","72","H","0","img/none_selected.jpg","0","0","1","","0.3991813765","false","229","","0.3991813765","main_expt","","0.2035050609","","0.05619366589","","0.1165125066","","","","","",""
"428","","bandit","305","1082471","0.0-267.0-0.0","32381339","wem/bandit_single","AKU3Z7174B91F","pain","2","","76","L","3","","0","1","0","","0.09058018373","false","230","","0.3771825363","main_expt","","0.1677195288","","0.02398835026","","0.09058018373","","","","","",""
"118","","bandit","306","1084351","0.0-268.0-0.0","32381339","wem/bandit_single","AKU3Z7174B91F","pain","2","","76","L","3","","0","0","1","","0.1254599363","false","231","","0.4081115595","main_expt","","0.1568417205","","0.01087418165","","0.1254599363","","","","","",""
"137","","bandit","307","1086247","0.0-269.0-0.0","32381339","wem/bandit_single","AKU3Z7174B91F","pain","2","","76","L","3","","0","0","1","","0.09699218641","false","232","","0.4227202023","main_expt","","0.1733774055","","0.005667282796","","0.09699218641","","","","","",""
"49","","bandit","308","1088062","0.0-270.0-0.0","32381339","wem/bandit_single","AKU3Z7174B91F","pain","2","","76","L","3","","0","0","1","","0.07122003092","false","233","","0.4267606383","main_expt","","0.2318808439","","0.00711790457","","0.07122003092","","","","","",""
"65","","bandit","309","1089894","0.0-271.0-0.0","32381339","wem/bandit_single","AKU3Z7174B91F","pain","2","","76","L","3","","0","0","1","","0.07078025717","false","234","","0.4076790224","main_expt","","0.2728484722","","0.01087448681","","0.07078025717","","","","","",""
"1827","","bandit","310","1093481","0.0-272.0-0.0","32381339","wem/bandit_single","AKU3Z7174B91F","pain","2","","76","L","3","","0","0","1","","0.04546889639","false","235","","0.3750136452","main_expt","","0.230842538","","0.008183852991","","0.04546889639","","","","","",""
"458","","bandit","311","1095702","0.0-273.0-0.0","32381339","wem/bandit_single","AKU3Z7174B91F","pain","2","","76","L","3","","0","0","1","","0.07949547843","false","236","","0.3579900966","main_expt","","0.2565969246","","0.00957014591","","0.07949547843","","","","","",""
"626","","bandit","312","1098087","0.0-274.0-0.0","32381339","wem/bandit_single","AKU3Z7174B91F","pain","2","","76","L","3","","0","0","1","","0.06498208703","false","237","","0.3685919787","main_expt","","0.2661079812","","0.02345003211","","0.06498208703","","","","","",""
"67","","bandit","313","1099919","0.0-275.0-0.0","32381339","wem/bandit_single","AKU3Z7174B91F","pain","2","","76","L","3","","0","0","1","","0.07283675032","false","238","","0.3220789964","main_expt","","0.3192940022","","0.02056264696","","0.07283675032","","","","","",""
"1242","","bandit","314","1102926","0.0-276.0-0.0","32381339","wem/bandit_single","AKU3Z7174B91F","pain","2","","74","J","1","","0","0","1","","0.3150738333","false","239","","0.3059519391","main_expt","","0.3150738333","","0.02436326326","","0.08723568047","","","","","",""
"89","","bandit","315","1104775","0.0-277.0-0.0","32381339","wem/bandit_single","AKU3Z7174B91F","pain","2","","74","J","1","","0","0","1","","0.3008600842","false","240","","0.3168560559","main_expt","","0.3008600842","","0.0242835944","","0.06404566497","","","","","",""
"74","","bandit","316","1106614","0.0-278.0-0.0","32381339","wem/bandit_single","AKU3Z7174B91F","pain","2","","74","J","1","","0","0","1","","0.2677087501","false","241","","0.269391424","main_expt","","0.2677087501","","0.02652021178","","0.05187051438","","","","","",""
"31","","bandit","317","1108407","0.0-279.0-0.0","32381339","wem/bandit_single","AKU3Z7174B91F","pain","2","","75","K","2","","0","0","1","","0.0264543433","false","242","","0.2061132751","main_expt","","0.2645585527","","0.0264543433","","0.04056120823","","","","","",""
"163","","bandit","318","1110335","0.0-280.0-0.0","32381339","wem/bandit_single","AKU3Z7174B91F","pain","2","","75","K","2","","0","0","1","","0.02176476481","false","243","","0.1996760118","main_expt","","0.2793098336","","0.02176476481","","0.02806248696","","","","","",""
"512","","bandit","319","1112614","0.0-281.0-0.0","32381339","wem/bandit_single","AKU3Z7174B91F","pain","2","","72","H","0","img/none_selected.jpg","0","0","1","","0.1719334629","false","244","","0.1719334629","main_expt","","0.285685864","","0.01301534777","","0.04063524207","","","","","",""
"91","","bandit","320","1114463","0.0-282.0-0.0","32381339","wem/bandit_single","AKU3Z7174B91F","pain","2","","72","H","0","img/none_selected.jpg","0","0","1","","0.2264626889","false","245","","0.2264626889","main_expt","","0.2792363563","","0.02332936253","","0.03258124644","","","","","",""
"131","","bandit","321","1116360","0.0-283.0-0.0","32381339","wem/bandit_single","AKU3Z7174B91F","pain","2","","72","H","0","img/none_selected.jpg","0","0","1","","0.2097999869","false","246","","0.2097999869","main_expt","","0.2721020884","","0.02379131239","","0.034431304","","","","","",""
"64","","bandit","322","1118191","0.0-284.0-0.0","32381339","wem/bandit_single","AKU3Z7174B91F","pain","2","","75","K","2","","0","0","1","","0.02988301985","false","247","","0.2190078117","main_expt","","0.2784836582","","0.02988301985","","0.0335896152","","","","","",""
"40","","bandit","323","1119999","0.0-285.0-0.0","32381339","wem/bandit_single","AKU3Z7174B91F","pain","2","","74","J","1","","0","0","1","","0.2155360038","false","248","","0.214739415","main_expt","","0.2155360038","","0.04121629219","","0.0373608022","","","","","",""
"306","","bandit","324","1122069","0.0-286.0-0.0","32381339","wem/bandit_single","AKU3Z7174B91F","pain","2","","76","L","3","","0","0","1","","0.04629433077","false","249","","0.2361668487","main_expt","","0.2182269439","","0.03081548873","","0.04629433077","","","","","",""
"113","","bandit","325","1123942","0.0-287.0-0.0","32381339","wem/bandit_single","AKU3Z7174B91F","pain","2","","76","L","3","","0","0","1","","0.04794370872","false","250","","0.2730147117","main_expt","","0.2794373206","","0.02831669856","","0.04794370872","","","","","",""
"405","","bandit","326","1126110","0.0-288.0-0.0","32381339","wem/bandit_single","AKU3Z7174B91F","pain","2","","75","K","2","","0","0","1","","0.02600870455","false","251","","0.2591269664","main_expt","","0.2925698281","","0.02600870455","","0.06568157066","","","","","",""
"92","","bandit","327","1127968","0.0-289.0-0.0","32381339","wem/bandit_single","AKU3Z7174B91F","pain","2","","74","J","1","","0","1","0","","0.2727886948","false","252","","0.3091321407","main_expt","","0.2727886948","","0.02705961599","","0.07567030371","","","","","",""
"72","","bandit","328","1129808","0.0-290.0-0.0","32381339","wem/bandit_single","AKU3Z7174B91F","pain","2","","74","J","1","","0","1","0","","0.2470803404","false","253","","0.2284010385","main_expt","","0.2470803404","","0.01805963102","","0.06628052114","","","","","",""
"90","","bandit","329","1131663","0.0-291.0-0.0","32381339","wem/bandit_single","AKU3Z7174B91F","pain","2","","74","J","1","","0","0","1","","0.3366881304","false","254","","0.2452739286","main_expt","","0.3366881304","","0.01631706542","","0.08321976201","","","","","",""
"159","","bandit","330","1133596","0.0-292.0-0.0","32381339","wem/bandit_single","AKU3Z7174B91F","pain","2","","75","K","2","","0","0","1","","0.01966147099","false","255","","0.2769296881","main_expt","","0.3781216995","","0.01966147099","","0.1379446817","","","","","",""
"755","","bandit","331","1136119","0.0-293.0-0.0","32381339","wem/bandit_single","AKU3Z7174B91F","pain","2","","74","J","1","","0","0","1","","0.3565974786","false","256","","0.222598086","main_expt","","0.3565974786","","0.02801527349","","0.1104053019","","","","","",""
"402","","bandit","332","1138287","0.0-294.0-0.0","32381339","wem/bandit_single","AKU3Z7174B91F","pain","2","","72","H","0","img/none_selected.jpg","0","0","1","","0.2497605863","false","257","","0.2497605863","main_expt","","0.3668333327","","0.02393064904","","0.110095483","","","","","",""
"160","","bandit","333","1140216","0.0-295.0-0.0","32381339","wem/bandit_single","AKU3Z7174B91F","pain","2","","75","K","2","","0","0","1","","0.01715644076","false","258","","0.248028097","main_expt","","0.3978392262","","0.01715644076","","0.09250214804","","","","","",""
"101","","bandit","334","1142086","0.0-296.0-0.0","32381339","wem/bandit_single","AKU3Z7174B91F","pain","2","","76","L","3","","0","0","1","","0.1288972452","false","259","","0.210079309","main_expt","","0.3892622443","","0.01812234738","","0.1288972452","","","","","",""
"353","","bandit","335","1144207","0.0-297.0-0.0","32381339","wem/bandit_single","AKU3Z7174B91F","pain","2","","74","J","1","","0","1","0","","0.3787635018","false","260","","0.1785868889","main_expt","","0.3787635018","","0.01699252537","","0.127844668","","","","","",""
"170","","bandit","336","1146143","0.0-298.0-0.0","32381339","wem/bandit_single","AKU3Z7174B91F","pain","2","","76","L","3","","0","0","1","","0.1408125104","false","261","","0.1855690742","main_expt","","0.4151771386","","0.02027773674","","0.1408125104","","","","","",""
"408","","bandit","337","1148319","0.0-299.0-0.0","32381339","wem/bandit_single","AKU3Z7174B91F","pain","2","","74","J","1","","0","0","1","","0.4184001904","false","262","","0.2454672077","main_expt","","0.4184001904","","0.008159173947","","0.1423762304","","","","","",""
"111","","bandit","338","1150197","0.0-300.0-0.0","32381339","wem/bandit_single","AKU3Z7174B91F","pain","2","","76","L","3","","0","0","1","","0.1237094287","false","263","","0.2423041147","main_expt","","0.4397427278","","0.00730364875","","0.1237094287","","","","","",""
"154","","bandit","339","1152119","0.0-301.0-0.0","32381339","wem/bandit_single","AKU3Z7174B91F","pain","2","","74","J","1","","0","0","1","","0.4308816061","false","264","","0.2771483686","main_expt","","0.4308816061","","0.008891010149","","0.1110826985","","","","","",""
"375","","bandit","340","1154262","0.0-302.0-0.0","32381339","wem/bandit_single","AKU3Z7174B91F","pain","2","","75","K","2","","0","0","1","","0.009434589262","false","265","","0.2066329382","main_expt","","0.4310956018","","0.009434589262","","0.09816719149","","","","","",""
"385","","bandit","341","1156415","0.0-303.0-0.0","32381339","wem/bandit_single","AKU3Z7174B91F","pain","2","","72","H","0","img/none_selected.jpg","0","1","0","","0.1954640054","false","266","","0.1954640054","main_expt","","0.4462346174","","0.009503255165","","0.1313615454","","","","","",""
"71","","bandit","342","1158254","0.0-304.0-0.0","32381339","wem/bandit_single","AKU3Z7174B91F","pain","2","","72","H","0","img/none_selected.jpg","0","0","1","","0.132533774","false","267","","0.132533774","main_expt","","0.4649068607","","0.01294763698","","0.1039649444","","","","","",""
"45","","bandit","343","1160062","0.0-305.0-0.0","32381339","wem/bandit_single","AKU3Z7174B91F","pain","2","","74","J","1","","0","0","1","","0.4499385749","false","268","","0.1212355483","main_expt","","0.4499385749","","0.01002763249","","0.0758663636","","","","","",""
"697","","bandit","344","1162527","0.0-306.0-0.0","32381339","wem/bandit_single","AKU3Z7174B91F","pain","2","","72","H","0","img/none_selected.jpg","0","0","1","","0.1363236216","false","269","","0.1363236216","main_expt","","0.4702815535","","0.009339874814","","0.08641939852","","","","","",""
"377","","bandit","345","1164663","0.0-307.0-0.0","32381339","wem/bandit_single","AKU3Z7174B91F","pain","2","","75","K","2","","0","0","1","","0.0101894737","false","270","","0.1061923246","main_expt","","0.4738293899","","0.0101894737","","0.08694739741","","","","","",""
"120","","bandit","346","1166550","0.0-308.0-0.0","32381339","wem/bandit_single","AKU3Z7174B91F","pain","2","","74","J","1","","0","1","0","","0.4552130477","false","271","","0.09682021381","main_expt","","0.4552130477","","0.0101062795","","0.07507278363","","","","","",""
"40","","bandit","347","1168351","0.0-309.0-0.0","32381339","wem/bandit_single","AKU3Z7174B91F","pain","2","","72","H","0","img/none_selected.jpg","0","0","1","","0.0728164368","false","272","","0.0728164368","main_expt","","0.4571227508","","0.009276773287","","0.09002305832","","","","","",""
"385","","bandit","348","1170505","0.0-310.0-0.0","32381339","wem/bandit_single","AKU3Z7174B91F","pain","2","","74","J","1","","0","1","0","","0.4262778794","false","273","","0.1026255411","main_expt","","0.4262778794","","0.0113492324","","0.07941117108","","","","","",""
"133","","bandit","349","1172399","0.0-311.0-0.0","32381339","wem/bandit_single","AKU3Z7174B91F","pain","2","","74","J","1","","0","0","1","","0.4017895895","false","274","","0.08683802548","main_expt","","0.4017895895","","0.005483919941","","0.09301171309","","","","","",""
"79","","bandit","350","1174246","0.0-312.0-0.0","32381339","wem/bandit_single","AKU3Z7174B91F","pain","2","","74","J","1","","0","1","0","","0.4017548056","false","275","","0.08250982893","main_expt","","0.4017548056","","0.00462874381","","0.1012072593","","","","","",""
"181","","bandit","351","1176191","0.0-313.0-0.0","32381339","wem/bandit_single","AKU3Z7174B91F","pain","2","","74","J","1","","0","0","1","","0.4072561249","false","276","","0.06031930624","main_expt","","0.4072561249","","0.009610611089","","0.1230964009","","","","","",""
"175","","bandit","352","1178135","0.0-314.0-0.0","32381339","wem/bandit_single","AKU3Z7174B91F","pain","2","","74","J","1","","0","0","1","","0.3248287115","false","277","","0.07169075363","main_expt","","0.3248287115","","0.01319252808","","0.1320105939","","","","","",""
"193","","bandit","353","1180095","0.0-315.0-0.0","32381339","wem/bandit_single","AKU3Z7174B91F","pain","2","","72","H","0","img/none_selected.jpg","0","1","0","","0.119525529","false","278","","0.119525529","main_expt","","0.2954662343","","0.008560453299","","0.100271112","","","","","",""
"336","","bandit","354","1182202","0.0-316.0-0.0","32381339","wem/bandit_single","AKU3Z7174B91F","pain","2","","72","H","0","img/none_selected.jpg","0","0","1","","0.05136608794","false","279","","0.05136608794","main_expt","","0.3430788315","","0.02270234009","","0.0752783975","","","","","",""
"183","","bandit","355","1184150","0.0-317.0-0.0","32381339","wem/bandit_single","AKU3Z7174B91F","pain","2","","74","J","1","","0","0","1","","0.298888987","false","280","","0.06692305053","main_expt","","0.298888987","","0.01842994591","","0.04609407158","","","","","",""
"959","","bandit","356","1186870","0.0-318.0-0.0","32381339","wem/bandit_single","AKU3Z7174B91F","pain","2","","72","H","0","img/none_selected.jpg","0","0","1","","0.08594942048","false","281","","0.08594942048","main_expt","","0.317374049","","0.01750385803","","0.05874754036","","","","","",""
"470","","bandit","357","1189103","0.0-319.0-0.0","32381339","wem/bandit_single","AKU3Z7174B91F","pain","2","","74","J","1","","0","0","1","","0.2905756231","false","282","","0.08562343316","main_expt","","0.2905756231","","0.01075771148","","0.05911354127","","","","","",""
"214","","bandit","358","1191088","0.0-320.0-0.0","32381339","wem/bandit_single","AKU3Z7174B91F","pain","2","","75","K","2","","0","0","1","","0.009487342711","false","283","","0.06507866554","main_expt","","0.335540713","","0.009487342711","","0.0444902615","","","","","",""
"271","","bandit","359","1193126","0.0-321.0-0.0","32381339","wem/bandit_single","AKU3Z7174B91F","pain","2","","76","L","3","","0","0","1","","0.03666520406","false","284","","0.05738126215","main_expt","","0.3569674754","","0.01035814212","","0.03666520406","","","","","",""
"488","","bandit","360","1195374","0.0-322.0-0.0","32381339","wem/bandit_single","AKU3Z7174B91F","pain","2","","72","H","0","img/none_selected.jpg","0","0","1","","0.06337296056","false","285","","0.06337296056","main_expt","","0.4068019922","","0.01056818013","","0.02451873239","","","","","",""
"202","","bandit","361","1197346","0.0-323.0-0.0","32381339","wem/bandit_single","AKU3Z7174B91F","pain","2","","74","J","1","","0","1","0","","0.432978486","false","286","","0.04649068967","main_expt","","0.432978486","","0.007821227136","","0.02877547985","","","","","",""
"204","","bandit","362","1199319","0.0-324.0-0.0","32381339","wem/bandit_single","AKU3Z7174B91F","pain","2","","74","J","1","","0","1","0","","0.4213006965","false","287","","0.04946639224","main_expt","","0.4213006965","","0.01039042452","","0.03331393821","","","","","",""
"144","","bandit","363","1201231","0.0-325.0-0.0","32381339","wem/bandit_single","AKU3Z7174B91F","pain","2","","74","J","1","","0","1","0","","0.4094413186","false","288","","0.03962947871","main_expt","","0.4094413186","","0.02141961277","","0.02363643209","","","","","",""
"129","","bandit","364","1203128","0.0-326.0-0.0","32381339","wem/bandit_single","AKU3Z7174B91F","pain","2","","74","J","1","","0","1","0","","0.3731302572","false","289","","0.05295486238","main_expt","","0.3731302572","","0.02062414181","","0.0366455232","","","","","",""
"153","","bandit","365","1205047","0.0-327.0-0.0","32381339","wem/bandit_single","AKU3Z7174B91F","pain","2","","74","J","1","","0","0","1","","0.4076032329","false","290","","0.06311332932","main_expt","","0.4076032329","","0.01411690602","","0.04887184979","","","","","",""
"11","","bandit","366","1206822","0.0-328.0-0.0","32381339","wem/bandit_single","AKU3Z7174B91F","pain","2","","75","K","2","","0","0","1","","0.03188260643","false","291","","0.07741633782","main_expt","","0.4134699565","","0.03188260643","","0.03783642248","","","","","",""
"133","","bandit","367","1208717","0.0-329.0-0.0","32381339","wem/bandit_single","AKU3Z7174B91F","pain","2","","74","J","1","","0","0","1","","0.3827884258","false","292","","0.09064252153","main_expt","","0.3827884258","","0.03429620073","","0.07820299584","","","","","",""
"96","","bandit","368","1210574","0.0-330.0-0.0","32381339","wem/bandit_single","AKU3Z7174B91F","pain","2","","74","J","1","","0","0","1","","0.4162015812","false","293","","0.07659126906","main_expt","","0.4162015812","","0.030392347","","0.07060894185","","","","","",""
"26","","bandit","369","1212398","0.0-331.0-0.0","32381339","wem/bandit_single","AKU3Z7174B91F","pain","2","","74","J","1","","0","0","1","","0.447674372","false","294","","0.08042624432","main_expt","","0.447674372","","0.04782046051","","0.1051632986","","","","","",""
"312","","bandit","370","1214479","0.0-332.0-0.0","32381339","wem/bandit_single","AKU3Z7174B91F","pain","2","","75","K","2","","0","0","1","","0.06309063339","false","295","","0.1216640212","main_expt","","0.4402126752","","0.06309063339","","0.06624019153","","","","","",""
"197","","bandit","371","1216438","0.0-333.0-0.0","32381339","wem/bandit_single","AKU3Z7174B91F","pain","2","","72","H","0","img/none_selected.jpg","0","0","1","","0.1058257345","false","296","","0.1058257345","main_expt","","0.4378891161","","0.09511663338","","0.07088700909","","","","","",""
"1007","","bandit","372","1219211","0.0-334.0-0.0","32381339","wem/bandit_single","AKU3Z7174B91F","pain","2","","74","J","1","","0","1","0","","0.468153315","false","297","","0.1101311263","main_expt","","0.468153315","","0.07325770628","","0.0529580871","","","","","",""
"469","","bandit","373","1221447","0.0-335.0-0.0","32381339","wem/bandit_single","AKU3Z7174B91F","pain","2","","74","J","1","","0","0","1","","0.4538992283","false","298","","0.1117004815","main_expt","","0.4538992283","","0.06352452747","","0.04256970448","","","","","",""
