"rt","responses","trial_type","trial_index","time_elapsed","internal_node_id","subjID","study","MID","cond","drift","key_press","respCharCode","respKey","respChoiceNum","respChoice","gems","bombs","no_reward","GemPrChosen","BombPrChosen","practice","trial_counter","WinPr_0","LosePr_0","trial_label","WinPr_1","LosePr_1","WinPr_2","LosePr_2","WinPr_3","LosePr_3","Q0","Q1","Q2","gender","age","ethnicity"
"5722","{""Q0"":""AOTF48KUV9KWM""}","survey-text","0","5735","0.0-0.0","33274456","wem/bandit_single","AOTF48KUV9KWM","pain","3","","","","","","","","","","","","","","","","","","","","","","","","","","",""
"1130","","text","1","7871","0.0-1.0","33274456","wem/bandit_single","AOTF48KUV9KWM","pain","3","32","","","","","","","","","","","","","","","","","","","","","","","","","",""
"1749","","text","2","9622","0.0-2.0","33274456","wem/bandit_single","AOTF48KUV9KWM","pain","3","32","","","","","","","","","","","","","","","","","","","","","","","","","",""
"8898","","text","3","18522","0.0-3.0","33274456","wem/bandit_single","AOTF48KUV9KWM","pain","3","32","","","","","","","","","","","","","","","","","","","","","","","","","",""
"10065","","text","4","28589","0.0-4.0","33274456","wem/bandit_single","AOTF48KUV9KWM","pain","3","32","","","","","","","","","","","","","","","","","","","","","","","","","",""
"5862","","text","5","34453","0.0-5.0","33274456","wem/bandit_single","AOTF48KUV9KWM","pain","3","32","","","","","","","","","","","","","","","","","","","","","","","","","",""
"2932","","text","6","37388","0.0-6.0","33274456","wem/bandit_single","AOTF48KUV9KWM","pain","3","32","","","","","","","","","","","","","","","","","","","","","","","","","",""
"1379","","text","7","38770","0.0-7.0","33274456","wem/bandit_single","AOTF48KUV9KWM","pain","3","32","","","","","","","","","","","","","","","","","","","","","","","","","",""
"1654","","text","8","40428","0.0-8.0","33274456","wem/bandit_single","AOTF48KUV9KWM","pain","3","32","","","","","","","","","","","","","","","","","","","","","","","","","",""
"2393","","text","9","42823","0.0-9.0","33274456","wem/bandit_single","AOTF48KUV9KWM","pain","3","32","","","","","","","","","","","","","","","","","","","","","","","","","",""
"1647","","text","10","44472","0.0-10.0","33274456","wem/bandit_single","AOTF48KUV9KWM","pain","3","32","","","","","","","","","","","","","","","","","","","","","","","","","",""
"3376","","text","11","47850","0.0-11.0","33274456","wem/bandit_single","AOTF48KUV9KWM","pain","3","32","","","","","","","","","","","","","","","","","","","","","","","","","",""
"814","","bandit","12","50178","0.0-12.0-0.0","33274456","wem/bandit_single","AOTF48KUV9KWM","pain","3","","74","J","0","img/none_selected_demo.jpg","0","0","1","0","0","true","0","0","0","","","","","","","","","","","","",""
"968","","bandit","13","52906","0.0-13.0-0.0","33274456","wem/bandit_single","AOTF48KUV9KWM","pain","3","","75","K","0","img/none_selected_demo.jpg","0","0","1","0","0","true","0","0","0","","","","","","","","","","","","",""
"2137","","text","14","55297","0.0-14.0","33274456","wem/bandit_single","AOTF48KUV9KWM","pain","3","32","","","","","","","","","","","","","","","","","","","","","","","","","",""
"897","","text","15","56196","0.0-15.0","33274456","wem/bandit_single","AOTF48KUV9KWM","pain","3","32","","","","","","","","","","","","","","","","","","","","","","","","","",""
"1866","","text","16","58065","0.0-16.0","33274456","wem/bandit_single","AOTF48KUV9KWM","pain","3","32","","","","","","","","","","","","","","","","","","","","","","","","","",""
"2034","","text","17","60103","0.0-17.0","33274456","wem/bandit_single","AOTF48KUV9KWM","pain","3","32","","","","","","","","","","","","","","","","","","","","","","","","","",""
"1238","","bandit","18","62848","0.0-18.0-0.0","33274456","wem/bandit_single","AOTF48KUV9KWM","pain","3","","74","J","0","img/none_selected_demo.jpg","0","1","0","0","0.8","true","0","0","0.8","80_20_practice","0","0.2","","","","","","","","","",""
"401","","bandit","19","65009","0.0-18.0-1.0","33274456","wem/bandit_single","AOTF48KUV9KWM","pain","3","","75","K","1","","0","0","1","0","0.2","true","0","0","0.8","80_20_practice","0","0.2","","","","","","","","","",""
"643","","bandit","20","67413","0.0-18.0-2.0","33274456","wem/bandit_single","AOTF48KUV9KWM","pain","3","","74","J","0","img/none_selected_demo.jpg","0","0","1","0","0.8","true","0","0","0.8","80_20_practice","0","0.2","","","","","","","","","",""
"130","","bandit","21","69302","0.0-18.0-3.0","33274456","wem/bandit_single","AOTF48KUV9KWM","pain","3","","75","K","1","","0","0","1","0","0.2","true","0","0","0.8","80_20_practice","0","0.2","","","","","","","","","",""
"71","","bandit","22","71131","0.0-18.0-4.0","33274456","wem/bandit_single","AOTF48KUV9KWM","pain","3","","74","J","0","img/none_selected_demo.jpg","0","1","0","0","0.8","true","0","0","0.8","80_20_practice","0","0.2","","","","","","","","","",""
"74","","bandit","23","72964","0.0-18.0-5.0","33274456","wem/bandit_single","AOTF48KUV9KWM","pain","3","","74","J","0","img/none_selected_demo.jpg","0","1","0","0","0.8","true","0","0","0.8","80_20_practice","0","0.2","","","","","","","","","",""
"724","","bandit","24","75448","0.0-18.0-6.0","33274456","wem/bandit_single","AOTF48KUV9KWM","pain","3","","74","J","0","img/none_selected_demo.jpg","0","1","0","0","0.8","true","0","0","0.8","80_20_practice","0","0.2","","","","","","","","","",""
"290","","bandit","25","77500","0.0-18.0-7.0","33274456","wem/bandit_single","AOTF48KUV9KWM","pain","3","","75","K","1","","0","0","1","0","0.2","true","0","0","0.8","80_20_practice","0","0.2","","","","","","","","","",""
"1461","","bandit","26","80720","0.0-18.0-8.0","33274456","wem/bandit_single","AOTF48KUV9KWM","pain","3","","74","J","0","img/none_selected_demo.jpg","0","1","0","0","0.8","true","0","0","0.8","80_20_practice","0","0.2","","","","","","","","","",""
"806","","bandit","27","83286","0.0-18.0-9.0","33274456","wem/bandit_single","AOTF48KUV9KWM","pain","3","","74","J","0","img/none_selected_demo.jpg","0","1","0","0","0.8","true","0","0","0.8","80_20_practice","0","0.2","","","","","","","","","",""
"483","","bandit","28","85528","0.0-18.0-10.0","33274456","wem/bandit_single","AOTF48KUV9KWM","pain","3","","74","J","0","img/none_selected_demo.jpg","0","1","0","0","0.8","true","0","0","0.8","80_20_practice","0","0.2","","","","","","","","","",""
"285","","bandit","29","87574","0.0-18.0-11.0","33274456","wem/bandit_single","AOTF48KUV9KWM","pain","3","","74","J","0","img/none_selected_demo.jpg","0","1","0","0","0.8","true","0","0","0.8","80_20_practice","0","0.2","","","","","","","","","",""
"51","","bandit","30","89386","0.0-18.0-12.0","33274456","wem/bandit_single","AOTF48KUV9KWM","pain","3","","74","J","0","img/none_selected_demo.jpg","0","0","1","0","0.8","true","0","0","0.8","80_20_practice","0","0.2","","","","","","","","","",""
"415","","bandit","31","91562","0.0-18.0-13.0","33274456","wem/bandit_single","AOTF48KUV9KWM","pain","3","","75","K","1","","0","0","1","0","0.2","true","0","0","0.8","80_20_practice","0","0.2","","","","","","","","","",""
"170","","bandit","32","93490","0.0-18.0-14.0","33274456","wem/bandit_single","AOTF48KUV9KWM","pain","3","","74","J","0","img/none_selected_demo.jpg","0","1","0","0","0.8","true","0","0","0.8","80_20_practice","0","0.2","","","","","","","","","",""
"147","","bandit","33","95396","0.0-18.0-15.0","33274456","wem/bandit_single","AOTF48KUV9KWM","pain","3","","74","J","0","img/none_selected_demo.jpg","0","1","0","0","0.8","true","0","0","0.8","80_20_practice","0","0.2","","","","","","","","","",""
"38","","bandit","34","97196","0.0-18.0-16.0","33274456","wem/bandit_single","AOTF48KUV9KWM","pain","3","","74","J","0","img/none_selected_demo.jpg","0","1","0","0","0.8","true","0","0","0.8","80_20_practice","0","0.2","","","","","","","","","",""
"126","","bandit","35","99082","0.0-18.0-17.0","33274456","wem/bandit_single","AOTF48KUV9KWM","pain","3","","74","J","0","img/none_selected_demo.jpg","0","0","1","0","0.8","true","0","0","0.8","80_20_practice","0","0.2","","","","","","","","","",""
"47","","bandit","36","100890","0.0-18.0-18.0","33274456","wem/bandit_single","AOTF48KUV9KWM","pain","3","","74","J","0","img/none_selected_demo.jpg","0","1","0","0","0.8","true","0","0","0.8","80_20_practice","0","0.2","","","","","","","","","",""
"76","","bandit","37","102725","0.0-18.0-19.0","33274456","wem/bandit_single","AOTF48KUV9KWM","pain","3","","74","J","0","img/none_selected_demo.jpg","0","1","0","0","0.8","true","0","0","0.8","80_20_practice","0","0.2","","","","","","","","","",""
"5089","","text","38","108070","0.0-19.0","33274456","wem/bandit_single","AOTF48KUV9KWM","pain","3","32","","","","","","","","","","","","","","","","","","","","","","","","","",""
"1567","","bandit","39","111145","0.0-20.0-0.0","33274456","wem/bandit_single","AOTF48KUV9KWM","pain","3","","74","J","0","img/none_selected_demo.jpg","0","0","1","0","0","true","0","0","0","","0","0","","","","","","","","","",""
"2538","","text","40","113938","0.0-21.0","33274456","wem/bandit_single","AOTF48KUV9KWM","pain","3","32","","","","","","","","","","","","","","","","","","","","","","","","","",""
"2962","","text","41","116903","0.0-22.0","33274456","wem/bandit_single","AOTF48KUV9KWM","pain","3","32","","","","","","","","","","","","","","","","","","","","","","","","","",""
"1374","","text","42","118280","0.0-23.0","33274456","wem/bandit_single","AOTF48KUV9KWM","pain","3","32","","","","","","","","","","","","","","","","","","","","","","","","","",""
"1615","","text","43","119899","0.0-24.0","33274456","wem/bandit_single","AOTF48KUV9KWM","pain","3","32","","","","","","","","","","","","","","","","","","","","","","","","","",""
"4504","","text","44","124406","0.0-25.0","33274456","wem/bandit_single","AOTF48KUV9KWM","pain","3","32","","","","","","","","","","","","","","","","","","","","","","","","","",""
"4439","","text","45","128848","0.0-26.0","33274456","wem/bandit_single","AOTF48KUV9KWM","pain","3","32","","","","","","","","","","","","","","","","","","","","","","","","","",""
"3697","","text","46","132549","0.0-27.0","33274456","wem/bandit_single","AOTF48KUV9KWM","pain","3","32","","","","","","","","","","","","","","","","","","","","","","","","","",""
"1700","","text","47","134253","0.0-28.0","33274456","wem/bandit_single","AOTF48KUV9KWM","pain","3","32","","","","","","","","","","","","","","","","","","","","","","","","","",""
"2497","","text","48","136757","0.0-29.0","33274456","wem/bandit_single","AOTF48KUV9KWM","pain","3","32","","","","","","","","","","","","","","","","","","","","","","","","","",""
"1241","","text","49","138001","0.0-30.0","33274456","wem/bandit_single","AOTF48KUV9KWM","pain","3","32","","","","","","","","","","","","","","","","","","","","","","","","","",""
"3805","","text","50","141810","0.0-31.0","33274456","wem/bandit_single","AOTF48KUV9KWM","pain","3","32","","","","","","","","","","","","","","","","","","","","","","","","","",""
"955","","bandit","51","144274","0.0-32.0-0.0","33274456","wem/bandit_single","AOTF48KUV9KWM","pain","3","","72","H","0","img/none_selected.jpg","0","1","0","0","0.8","true","0","0","0.8","full_practice","0","0.2","0","0.6","0","0.2","","","","","",""
"141","","bandit","52","146176","0.0-32.0-1.0","33274456","wem/bandit_single","AOTF48KUV9KWM","pain","3","","72","H","0","img/none_selected.jpg","0","0","1","0","0.8","true","0","0","0.8","full_practice","0","0.2","0","0.6","0","0.2","","","","","",""
"348","","bandit","53","148288","0.0-32.0-2.0","33274456","wem/bandit_single","AOTF48KUV9KWM","pain","3","","72","H","0","img/none_selected.jpg","0","1","0","0","0.8","true","0","0","0.8","full_practice","0","0.2","0","0.6","0","0.2","","","","","",""
"382","","bandit","54","150432","0.0-32.0-3.0","33274456","wem/bandit_single","AOTF48KUV9KWM","pain","3","","72","H","0","img/none_selected.jpg","0","1","0","0","0.8","true","0","0","0.8","full_practice","0","0.2","0","0.6","0","0.2","","","","","",""
"501","","bandit","55","152694","0.0-32.0-4.0","33274456","wem/bandit_single","AOTF48KUV9KWM","pain","3","","72","H","0","img/none_selected.jpg","0","1","0","0","0.8","true","0","0","0.8","full_practice","0","0.2","0","0.6","0","0.2","","","","","",""
"185","","bandit","56","154640","0.0-32.0-5.0","33274456","wem/bandit_single","AOTF48KUV9KWM","pain","3","","72","H","0","img/none_selected.jpg","0","1","0","0","0.8","true","0","0","0.8","full_practice","0","0.2","0","0.6","0","0.2","","","","","",""
"99","","bandit","57","156500","0.0-32.0-6.0","33274456","wem/bandit_single","AOTF48KUV9KWM","pain","3","","72","H","0","img/none_selected.jpg","0","0","1","0","0.8","true","0","0","0.8","full_practice","0","0.2","0","0.6","0","0.2","","","","","",""
"55","","bandit","58","158315","0.0-32.0-7.0","33274456","wem/bandit_single","AOTF48KUV9KWM","pain","3","","72","H","0","img/none_selected.jpg","0","1","0","0","0.8","true","0","0","0.8","full_practice","0","0.2","0","0.6","0","0.2","","","","","",""
"2","","bandit","59","160079","0.0-32.0-8.0","33274456","wem/bandit_single","AOTF48KUV9KWM","pain","3","","74","J","1","","0","0","1","0","0.2","true","0","0","0.8","full_practice","0","0.2","0","0.6","0","0.2","","","","","",""
"27","","bandit","60","161867","0.0-32.0-9.0","33274456","wem/bandit_single","AOTF48KUV9KWM","pain","3","","72","H","0","img/none_selected.jpg","0","1","0","0","0.8","true","0","0","0.8","full_practice","0","0.2","0","0.6","0","0.2","","","","","",""
"46","","bandit","61","163673","0.0-32.0-10.0","33274456","wem/bandit_single","AOTF48KUV9KWM","pain","3","","75","K","2","","0","0","1","0","0.6","true","0","0","0.8","full_practice","0","0.2","0","0.6","0","0.2","","","","","",""
"12","","bandit","62","165445","0.0-32.0-11.0","33274456","wem/bandit_single","AOTF48KUV9KWM","pain","3","","72","H","0","img/none_selected.jpg","0","1","0","0","0.8","true","0","0","0.8","full_practice","0","0.2","0","0.6","0","0.2","","","","","",""
"80","","bandit","63","167287","0.0-32.0-12.0","33274456","wem/bandit_single","AOTF48KUV9KWM","pain","3","","76","L","3","","0","0","1","0","0.2","true","0","0","0.8","full_practice","0","0.2","0","0.6","0","0.2","","","","","",""
"43","","bandit","64","169091","0.0-32.0-13.0","33274456","wem/bandit_single","AOTF48KUV9KWM","pain","3","","72","H","0","img/none_selected.jpg","0","1","0","0","0.8","true","0","0","0.8","full_practice","0","0.2","0","0.6","0","0.2","","","","","",""
"3","","bandit","65","170858","0.0-32.0-14.0","33274456","wem/bandit_single","AOTF48KUV9KWM","pain","3","","72","H","0","img/none_selected.jpg","0","1","0","0","0.8","true","0","0","0.8","full_practice","0","0.2","0","0.6","0","0.2","","","","","",""
"33","","bandit","66","172653","0.0-32.0-15.0","33274456","wem/bandit_single","AOTF48KUV9KWM","pain","3","","74","J","1","","0","0","1","0","0.2","true","0","0","0.8","full_practice","0","0.2","0","0.6","0","0.2","","","","","",""
"78","","bandit","67","174491","0.0-32.0-16.0","33274456","wem/bandit_single","AOTF48KUV9KWM","pain","3","","72","H","0","img/none_selected.jpg","0","1","0","0","0.8","true","0","0","0.8","full_practice","0","0.2","0","0.6","0","0.2","","","","","",""
"78","","bandit","68","176330","0.0-32.0-17.0","33274456","wem/bandit_single","AOTF48KUV9KWM","pain","3","","72","H","0","img/none_selected.jpg","0","1","0","0","0.8","true","0","0","0.8","full_practice","0","0.2","0","0.6","0","0.2","","","","","",""
"16","","bandit","69","178109","0.0-32.0-18.0","33274456","wem/bandit_single","AOTF48KUV9KWM","pain","3","","75","K","2","","0","1","0","0","0.6","true","0","0","0.8","full_practice","0","0.2","0","0.6","0","0.2","","","","","",""
"87","","bandit","70","179958","0.0-32.0-19.0","33274456","wem/bandit_single","AOTF48KUV9KWM","pain","3","","72","H","0","img/none_selected.jpg","0","1","0","0","0.8","true","0","0","0.8","full_practice","0","0.2","0","0.6","0","0.2","","","","","",""
"3116","","text","71","183337","0.0-33.0","33274456","wem/bandit_single","AOTF48KUV9KWM","pain","3","32","","","","","","","","","","","","","","","","","","","","","","","","","",""
"14280","","text","72","198624","0.0-34.0","33274456","wem/bandit_single","AOTF48KUV9KWM","pain","3","32","","","","","","","","","","","","","","","","","","","","","","","","","",""
"2612","","text","73","201241","0.0-35.0","33274456","wem/bandit_single","AOTF48KUV9KWM","pain","3","32","","","","","","","","","","","","","","","","","","","","","","","","","",""
"7761","","text","74","209006","0.0-36.0","33274456","wem/bandit_single","AOTF48KUV9KWM","pain","3","32","","","","","","","","","","","","","","","","","","","","","","","","","",""
"4141","","text","75","213151","0.0-37.0","33274456","wem/bandit_single","AOTF48KUV9KWM","pain","3","32","","","","","","","","","","","","","","","","","","","","","","","","","",""
"1497","","bandit","76","216157","0.0-38.0-0.0","33274456","wem/bandit_single","AOTF48KUV9KWM","pain","3","","72","H","0","img/none_selected.jpg","0","0","1","","0.2015711498","false","1","","0.2015711498","main_expt","","0.06813583588","","0.2211287853","","0.3417032333","","","","","",""
"273","","bandit","77","218191","0.0-39.0-0.0","33274456","wem/bandit_single","AOTF48KUV9KWM","pain","3","","74","J","1","","0","0","1","","0.08840771113","false","2","","0.1868286341","main_expt","","0.08840771113","","0.2921894834","","0.3935143322","","","","","",""
"91","","bandit","78","220044","0.0-40.0-0.0","33274456","wem/bandit_single","AOTF48KUV9KWM","pain","3","","75","K","2","","0","0","1","","0.2712314767","false","3","","0.2285659085","main_expt","","0.14311428","","0.2712314767","","0.3247841161","","","","","",""
"141","","bandit","79","221946","0.0-41.0-0.0","33274456","wem/bandit_single","AOTF48KUV9KWM","pain","3","","76","L","3","","0","1","0","","0.3524809632","false","4","","0.2587006496","main_expt","","0.1389033164","","0.3501044345","","0.3524809632","","","","","",""
"124","","bandit","80","223831","0.0-42.0-0.0","33274456","wem/bandit_single","AOTF48KUV9KWM","pain","3","","76","L","3","","0","0","1","","0.3243282494","false","5","","0.2238216231","main_expt","","0.1064755534","","0.3826883046","","0.3243282494","","","","","",""
"395","","bandit","81","225988","0.0-43.0-0.0","33274456","wem/bandit_single","AOTF48KUV9KWM","pain","3","","76","L","3","","0","0","1","","0.3856520047","false","6","","0.2114086621","main_expt","","0.07607549968","","0.3538977559","","0.3856520047","","","","","",""
"198","","bandit","82","227946","0.0-44.0-0.0","33274456","wem/bandit_single","AOTF48KUV9KWM","pain","3","","76","L","3","","0","0","1","","0.3595299576","false","7","","0.225256176","main_expt","","0.0490522351","","0.3911179113","","0.3595299576","","","","","",""
"842","","bandit","83","230549","0.0-45.0-0.0","33274456","wem/bandit_single","AOTF48KUV9KWM","pain","3","","72","H","0","img/none_selected.jpg","0","1","0","","0.1920600422","false","8","","0.1920600422","main_expt","","0.04564729275","","0.3378010318","","0.2908809246","","","","","",""
"216","","bandit","84","232527","0.0-46.0-0.0","33274456","wem/bandit_single","AOTF48KUV9KWM","pain","3","","72","H","0","img/none_selected.jpg","0","1","0","","0.222474992","false","9","","0.222474992","main_expt","","0.05361883364","","0.3584091786","","0.3401169694","","","","","",""
"730","","bandit","85","235017","0.0-47.0-0.0","33274456","wem/bandit_single","AOTF48KUV9KWM","pain","3","","72","H","0","img/none_selected.jpg","0","0","1","","0.1720297318","false","10","","0.1720297318","main_expt","","0.05689605437","","0.3822252457","","0.370347707","","","","","",""
"183","","bandit","86","236959","0.0-48.0-0.0","33274456","wem/bandit_single","AOTF48KUV9KWM","pain","3","","72","H","0","img/none_selected.jpg","0","0","1","","0.1672236423","false","11","","0.1672236423","main_expt","","0.05596529361","","0.4003480189","","0.3385652673","","","","","",""
"70","","bandit","87","238791","0.0-49.0-0.0","33274456","wem/bandit_single","AOTF48KUV9KWM","pain","3","","74","J","1","","0","0","1","","0.07455145674","false","12","","0.1908353862","main_expt","","0.07455145674","","0.4035898181","","0.3433253296","","","","","",""
"137","","bandit","88","240688","0.0-50.0-0.0","33274456","wem/bandit_single","AOTF48KUV9KWM","pain","3","","75","K","2","","0","0","1","","0.3939267589","false","13","","0.1373256951","main_expt","","0.1061797552","","0.3939267589","","0.3306460316","","","","","",""
"356","","bandit","89","242805","0.0-51.0-0.0","33274456","wem/bandit_single","AOTF48KUV9KWM","pain","3","","72","H","0","img/none_selected.jpg","0","1","0","","0.1605467602","false","14","","0.1605467602","main_expt","","0.09003395111","","0.4058751809","","0.3423394156","","","","","",""
"207","","bandit","90","244773","0.0-52.0-0.0","33274456","wem/bandit_single","AOTF48KUV9KWM","pain","3","","72","H","0","img/none_selected.jpg","0","1","0","","0.1270826231","false","15","","0.1270826231","main_expt","","0.09190110762","","0.3784768297","","0.3514631564","","","","","",""
"167","","bandit","91","246700","0.0-53.0-0.0","33274456","wem/bandit_single","AOTF48KUV9KWM","pain","3","","72","H","0","img/none_selected.jpg","0","0","1","","0.1659789958","false","16","","0.1659789958","main_expt","","0.1119147711","","0.3742197382","","0.3763865137","","","","","",""
"164","","bandit","92","248624","0.0-54.0-0.0","33274456","wem/bandit_single","AOTF48KUV9KWM","pain","3","","72","H","0","img/none_selected.jpg","0","1","0","","0.1810296119","false","17","","0.1810296119","main_expt","","0.1268228496","","0.3738750299","","0.3613216018","","","","","",""
"461","","bandit","93","250846","0.0-55.0-0.0","33274456","wem/bandit_single","AOTF48KUV9KWM","pain","3","","72","H","0","img/none_selected.jpg","0","1","0","","0.2209588372","false","18","","0.2209588372","main_expt","","0.160542793","","0.30878177","","0.3354311471","","","","","",""
"469","","bandit","94","253077","0.0-56.0-0.0","33274456","wem/bandit_single","AOTF48KUV9KWM","pain","3","","72","H","0","img/none_selected.jpg","0","0","1","","0.1577150754","false","19","","0.1577150754","main_expt","","0.1913020378","","0.3257740717","","0.3151580681","","","","","",""
"317","","bandit","95","255154","0.0-57.0-0.0","33274456","wem/bandit_single","AOTF48KUV9KWM","pain","3","","72","H","0","img/none_selected.jpg","0","0","1","","0.2368366468","false","20","","0.2368366468","main_expt","","0.2201213849","","0.2780557495","","0.2633525784","","","","","",""
"135","","bandit","96","257051","0.0-58.0-0.0","33274456","wem/bandit_single","AOTF48KUV9KWM","pain","3","","76","L","3","","0","0","1","","0.2730255539","false","21","","0.1692925459","main_expt","","0.1747441944","","0.2552615423","","0.2730255539","","","","","",""
"255","","bandit","97","259067","0.0-59.0-0.0","33274456","wem/bandit_single","AOTF48KUV9KWM","pain","3","","75","K","2","","0","0","1","","0.2862558775","false","22","","0.144462955","main_expt","","0.1407764438","","0.2862558775","","0.2366183143","","","","","",""
"143","","bandit","98","260971","0.0-60.0-0.0","33274456","wem/bandit_single","AOTF48KUV9KWM","pain","3","","72","H","0","img/none_selected.jpg","0","1","0","","0.1928882479","false","23","","0.1928882479","main_expt","","0.1444197889","","0.290674517","","0.2193011186","","","","","",""
"483","","bandit","99","263213","0.0-61.0-0.0","33274456","wem/bandit_single","AOTF48KUV9KWM","pain","3","","72","H","0","img/none_selected.jpg","0","0","1","","0.2077361259","false","24","","0.2077361259","main_expt","","0.1898422889","","0.2669553567","","0.2058852999","","","","","",""
"450","","bandit","100","265428","0.0-62.0-0.0","33274456","wem/bandit_single","AOTF48KUV9KWM","pain","3","","72","H","0","img/none_selected.jpg","0","1","0","","0.2580980749","false","25","","0.2580980749","main_expt","","0.2319991336","","0.2134469473","","0.2377147794","","","","","",""
"493","","bandit","101","267683","0.0-63.0-0.0","33274456","wem/bandit_single","AOTF48KUV9KWM","pain","3","","72","H","0","img/none_selected.jpg","0","1","0","","0.2593960467","false","26","","0.2593960467","main_expt","","0.2140617454","","0.2027981442","","0.3017638279","","","","","",""
"574","","bandit","102","270021","0.0-64.0-0.0","33274456","wem/bandit_single","AOTF48KUV9KWM","pain","3","","72","H","0","img/none_selected.jpg","0","0","1","","0.2913294918","false","27","","0.2913294918","main_expt","","0.2186733942","","0.1669761534","","0.2647551657","","","","","",""
"530","","bandit","103","272312","0.0-65.0-0.0","33274456","wem/bandit_single","AOTF48KUV9KWM","pain","3","","72","H","0","img/none_selected.jpg","0","0","1","","0.2838721205","false","28","","0.2838721205","main_expt","","0.2573772923","","0.1301617017","","0.2864353885","","","","","",""
"64","","bandit","104","274138","0.0-66.0-0.0","33274456","wem/bandit_single","AOTF48KUV9KWM","pain","3","","72","H","0","img/none_selected.jpg","0","0","1","","0.2225595658","false","29","","0.2225595658","main_expt","","0.2563684882","","0.1540227795","","0.2669447337","","","","","",""
"150","","bandit","105","276050","0.0-67.0-0.0","33274456","wem/bandit_single","AOTF48KUV9KWM","pain","3","","74","J","1","","0","0","1","","0.3180657859","false","30","","0.2450998207","main_expt","","0.3180657859","","0.1290956128","","0.242519946","","","","","",""
"69","","bandit","106","277880","0.0-68.0-0.0","33274456","wem/bandit_single","AOTF48KUV9KWM","pain","3","","74","J","1","","0","1","0","","0.3391977199","false","31","","0.2358374841","main_expt","","0.3391977199","","0.157476084","","0.1808952067","","","","","",""
"170","","bandit","107","279811","0.0-69.0-0.0","33274456","wem/bandit_single","AOTF48KUV9KWM","pain","3","","74","J","1","","0","0","1","","0.3655242212","false","32","","0.2465538883","main_expt","","0.3655242212","","0.1667461438","","0.1490402933","","","","","",""
"154","","bandit","108","281726","0.0-70.0-0.0","33274456","wem/bandit_single","AOTF48KUV9KWM","pain","3","","75","K","2","","0","0","1","","0.1698659255","false","33","","0.2479029149","main_expt","","0.3476833293","","0.1698659255","","0.1607825008","","","","","",""
"168","","bandit","109","283656","0.0-71.0-0.0","33274456","wem/bandit_single","AOTF48KUV9KWM","pain","3","","76","L","3","","0","0","1","","0.2019438485","false","34","","0.1813792252","main_expt","","0.3287357547","","0.1830702822","","0.2019438485","","","","","",""
"68","","bandit","110","285485","0.0-72.0-0.0","33274456","wem/bandit_single","AOTF48KUV9KWM","pain","3","","72","H","0","img/none_selected.jpg","0","0","1","","0.1507873856","false","35","","0.1507873856","main_expt","","0.3568635533","","0.1648441896","","0.1187506792","","","","","",""
"234","","bandit","111","287481","0.0-73.0-0.0","33274456","wem/bandit_single","AOTF48KUV9KWM","pain","3","","74","J","1","","0","0","1","","0.2559818432","false","36","","0.185146395","main_expt","","0.2559818432","","0.1702375356","","0.107122158","","","","","",""
"102","","bandit","112","289343","0.0-74.0-0.0","33274456","wem/bandit_single","AOTF48KUV9KWM","pain","3","","75","K","2","","0","0","1","","0.1248493821","false","37","","0.1995500277","main_expt","","0.2095103509","","0.1248493821","","0.1462043769","","","","","",""
"87","","bandit","113","291193","0.0-75.0-0.0","33274456","wem/bandit_single","AOTF48KUV9KWM","pain","3","","76","L","3","","0","0","1","","0.1562864446","false","38","","0.2324476024","main_expt","","0.1824107212","","0.1806095344","","0.1562864446","","","","","",""
"127","","bandit","114","293083","0.0-76.0-0.0","33274456","wem/bandit_single","AOTF48KUV9KWM","pain","3","","72","H","0","img/none_selected.jpg","0","0","1","","0.2374336796","false","39","","0.2374336796","main_expt","","0.180532013","","0.1636381498","","0.1425148763","","","","","",""
"271","","bandit","115","295115","0.0-77.0-0.0","33274456","wem/bandit_single","AOTF48KUV9KWM","pain","3","","72","H","0","img/none_selected.jpg","0","0","1","","0.1871034738","false","40","","0.1871034738","main_expt","","0.209403608","","0.128328165","","0.1332413707","","","","","",""
"92","","bandit","116","296969","0.0-78.0-0.0","33274456","wem/bandit_single","AOTF48KUV9KWM","pain","3","","74","J","1","","0","0","1","","0.1790729352","false","41","","0.1923798107","main_expt","","0.1790729352","","0.1128848486","","0.170838957","","","","","",""
"56","","bandit","117","298788","0.0-79.0-0.0","33274456","wem/bandit_single","AOTF48KUV9KWM","pain","3","","74","J","1","","0","1","0","","0.1586268334","false","42","","0.2175202152","main_expt","","0.1586268334","","0.1024028154","","0.221577246","","","","","",""
"81","","bandit","118","300631","0.0-80.0-0.0","33274456","wem/bandit_single","AOTF48KUV9KWM","pain","3","","74","J","1","","0","0","1","","0.1953085145","false","43","","0.199004634","main_expt","","0.1953085145","","0.1842117743","","0.2937465132","","","","","",""
"72","","bandit","119","302471","0.0-81.0-0.0","33274456","wem/bandit_single","AOTF48KUV9KWM","pain","3","","74","J","1","","0","0","1","","0.229373846","false","44","","0.1979694218","main_expt","","0.229373846","","0.2398699605","","0.2473378206","","","","","",""
"18","","bandit","120","304255","0.0-82.0-0.0","33274456","wem/bandit_single","AOTF48KUV9KWM","pain","3","","75","K","2","","0","0","1","","0.2666943954","false","45","","0.1992427108","main_expt","","0.2387173179","","0.2666943954","","0.2911711657","","","","","",""
"626","","bandit","121","306644","0.0-83.0-0.0","33274456","wem/bandit_single","AOTF48KUV9KWM","pain","3","","75","K","2","","0","0","1","","0.3187479261","false","46","","0.2240306516","main_expt","","0.2142046797","","0.3187479261","","0.2520057509","","","","","",""
"91","","bandit","122","308497","0.0-84.0-0.0","33274456","wem/bandit_single","AOTF48KUV9KWM","pain","3","","76","L","3","","0","1","0","","0.2527148282","false","47","","0.2065012218","main_expt","","0.2454335886","","0.3190608455","","0.2527148282","","","","","",""
"146","","bandit","123","310408","0.0-85.0-0.0","33274456","wem/bandit_single","AOTF48KUV9KWM","pain","3","","76","L","3","","0","0","1","","0.273334487","false","48","","0.1926440163","main_expt","","0.2810950816","","0.3135096665","","0.273334487","","","","","",""
"85","","bandit","124","312258","0.0-86.0-0.0","33274456","wem/bandit_single","AOTF48KUV9KWM","pain","3","","76","L","3","","0","0","1","","0.3181736471","false","49","","0.1670810943","main_expt","","0.2547597437","","0.3341811191","","0.3181736471","","","","","",""
"124","","bandit","125","314145","0.0-87.0-0.0","33274456","wem/bandit_single","AOTF48KUV9KWM","pain","3","","76","L","3","","0","1","0","","0.3806153608","false","50","","0.1198069869","main_expt","","0.224323175","","0.3459923598","","0.3806153608","","","","","",""
"42","","bandit","126","315949","0.0-88.0-0.0","33274456","wem/bandit_single","AOTF48KUV9KWM","pain","3","","76","L","3","","0","1","0","","0.3949296296","false","51","","0.103394302","main_expt","","0.2755477452","","0.3331953563","","0.3949296296","","","","","",""
"149","","bandit","127","317860","0.0-89.0-0.0","33274456","wem/bandit_single","AOTF48KUV9KWM","pain","3","","76","L","3","","0","0","1","","0.3544293331","false","52","","0.1018912343","main_expt","","0.3022170302","","0.3915962888","","0.3544293331","","","","","",""
"168","","bandit","128","319791","0.0-90.0-0.0","33274456","wem/bandit_single","AOTF48KUV9KWM","pain","3","","76","L","3","","0","1","0","","0.3007967805","false","53","","0.07233269407","main_expt","","0.2886203433","","0.3984086051","","0.3007967805","","","","","",""
"359","","bandit","129","321912","0.0-91.0-0.0","33274456","wem/bandit_single","AOTF48KUV9KWM","pain","3","","76","L","3","","0","0","1","","0.3376398899","false","54","","0.09210147888","main_expt","","0.3072524501","","0.4181407331","","0.3376398899","","","","","",""
"76","","bandit","130","323750","0.0-92.0-0.0","33274456","wem/bandit_single","AOTF48KUV9KWM","pain","3","","76","L","3","","0","1","0","","0.3625264345","false","55","","0.08866102842","main_expt","","0.3847595325","","0.3964386999","","0.3625264345","","","","","",""
"86","","bandit","131","325604","0.0-93.0-0.0","33274456","wem/bandit_single","AOTF48KUV9KWM","pain","3","","76","L","3","","0","0","1","","0.313137485","false","56","","0.1208391037","main_expt","","0.4008313728","","0.4043277199","","0.313137485","","","","","",""
"89","","bandit","132","327457","0.0-94.0-0.0","33274456","wem/bandit_single","AOTF48KUV9KWM","pain","3","","76","L","3","","0","1","0","","0.3287581384","false","57","","0.1429525169","main_expt","","0.3763680666","","0.3232173094","","0.3287581384","","","","","",""
"1186","","bandit","133","330405","0.0-95.0-0.0","33274456","wem/bandit_single","AOTF48KUV9KWM","pain","3","","76","L","3","","0","0","1","","0.2891608333","false","58","","0.1800007821","main_expt","","0.3630839511","","0.3352595409","","0.2891608333","","","","","",""
"267","","bandit","134","332437","0.0-96.0-0.0","33274456","wem/bandit_single","AOTF48KUV9KWM","pain","3","","76","L","3","","0","0","1","","0.2228703537","false","59","","0.1168587732","main_expt","","0.3166885591","","0.3423270404","","0.2228703537","","","","","",""
"184","","bandit","135","334386","0.0-97.0-0.0","33274456","wem/bandit_single","AOTF48KUV9KWM","pain","3","","76","L","3","","0","0","1","","0.2694349638","false","60","","0.08966050757","main_expt","","0.3339947878","","0.3326485747","","0.2694349638","","","","","",""
"400","","bandit","136","336555","0.0-98.0-0.0","33274456","wem/bandit_single","AOTF48KUV9KWM","pain","3","","76","L","3","","0","1","0","","0.3291501217","false","61","","0.06827284498","main_expt","","0.3559621948","","0.3239501662","","0.3291501217","","","","","",""
"350","","bandit","137","338668","0.0-99.0-0.0","33274456","wem/bandit_single","AOTF48KUV9KWM","pain","3","","76","L","3","","0","0","1","","0.3516688484","false","62","","0.0870528816","main_expt","","0.3565904981","","0.3140158541","","0.3516688484","","","","","",""
"146","","bandit","138","340575","0.0-100.0-0.0","33274456","wem/bandit_single","AOTF48KUV9KWM","pain","3","","76","L","3","","0","0","1","","0.3662001291","false","63","","0.07384780705","main_expt","","0.3766945074","","0.2896297009","","0.3662001291","","","","","",""
"580","","bandit","139","342917","0.0-101.0-0.0","33274456","wem/bandit_single","AOTF48KUV9KWM","pain","3","","76","L","3","","0","1","0","","0.3986377969","false","64","","0.09386223648","main_expt","","0.4038560084","","0.2848001348","","0.3986377969","","","","","",""
"339","","bandit","140","345021","0.0-102.0-0.0","33274456","wem/bandit_single","AOTF48KUV9KWM","pain","3","","76","L","3","","0","1","0","","0.4284050928","false","65","","0.08656227431","main_expt","","0.4081833366","","0.2621939157","","0.4284050928","","","","","",""
"112","","bandit","141","346899","0.0-103.0-0.0","33274456","wem/bandit_single","AOTF48KUV9KWM","pain","3","","76","L","3","","0","0","1","","0.4295130084","false","66","","0.1254260964","main_expt","","0.4111507483","","0.2218985249","","0.4295130084","","","","","",""
"123","","bandit","142","348787","0.0-104.0-0.0","33274456","wem/bandit_single","AOTF48KUV9KWM","pain","3","","76","L","3","","0","1","0","","0.4192215244","false","67","","0.0848557225","main_expt","","0.3731562577","","0.2203007364","","0.4192215244","","","","","",""
"22","","bandit","143","350573","0.0-105.0-0.0","33274456","wem/bandit_single","AOTF48KUV9KWM","pain","3","","76","L","3","","0","0","1","","0.4617344849","false","68","","0.1277621339","main_expt","","0.3471707475","","0.2163243509","","0.4617344849","","","","","",""
"1116","","bandit","144","353452","0.0-106.0-0.0","33274456","wem/bandit_single","AOTF48KUV9KWM","pain","3","","76","L","3","","0","0","1","","0.4496684627","false","69","","0.1425885083","main_expt","","0.3163780081","","0.1552451017","","0.4496684627","","","","","",""
"964","","bandit","145","356181","0.0-107.0-0.0","33274456","wem/bandit_single","AOTF48KUV9KWM","pain","3","","76","L","3","","0","0","1","","0.4572021165","false","70","","0.1765985622","main_expt","","0.2872849644","","0.144295094","","0.4572021165","","","","","",""
"528","","bandit","146","358473","0.0-108.0-0.0","33274456","wem/bandit_single","AOTF48KUV9KWM","pain","3","","76","L","3","","0","1","0","","0.457930868","false","71","","0.1520060204","main_expt","","0.300298776","","0.1823242822","","0.457930868","","","","","",""
"301","","bandit","147","360535","0.0-109.0-0.0","33274456","wem/bandit_single","AOTF48KUV9KWM","pain","3","","76","L","3","","0","0","1","","0.4687468973","false","72","","0.09933583891","main_expt","","0.3280152389","","0.144478384","","0.4687468973","","","","","",""
"439","","bandit","148","362737","0.0-110.0-0.0","33274456","wem/bandit_single","AOTF48KUV9KWM","pain","3","","76","L","3","","0","1","0","","0.4707862587","false","73","","0.1087995109","main_expt","","0.2758062481","","0.1420634247","","0.4707862587","","","","","",""
"537","","bandit","149","365038","0.0-111.0-0.0","33274456","wem/bandit_single","AOTF48KUV9KWM","pain","3","","76","L","3","","0","0","1","","0.4602293826","false","74","","0.150223613","main_expt","","0.3370537031","","0.1358649702","","0.4602293826","","","","","",""
"443","","bandit","150","367247","0.0-112.0-0.0","33274456","wem/bandit_single","AOTF48KUV9KWM","pain","3","","76","L","3","","0","0","1","","0.439891953","false","75","","0.1945690608","main_expt","","0.3323795279","","0.09700523291","","0.439891953","","","","","",""
"84","","bandit","151","369096","0.0-113.0-0.0","33274456","wem/bandit_single","AOTF48KUV9KWM","pain","3","","76","L","3","","0","0","1","","0.4424180744","false","76","","0.2454913388","main_expt","","0.3822428931","","0.07829726083","","0.4424180744","","","","","",""
"103","","bandit","152","370963","0.0-114.0-0.0","33274456","wem/bandit_single","AOTF48KUV9KWM","pain","3","","72","H","0","img/none_selected.jpg","0","1","0","","0.2181262922","false","77","","0.2181262922","main_expt","","0.4136836411","","0.08460916486","","0.4066280348","","","","","",""
"151","","bandit","153","372876","0.0-115.0-0.0","33274456","wem/bandit_single","AOTF48KUV9KWM","pain","3","","72","H","0","img/none_selected.jpg","0","0","1","","0.2500794828","false","78","","0.2500794828","main_expt","","0.4505469687","","0.0875988483","","0.3969262671","","","","","",""
"103","","bandit","154","374742","0.0-116.0-0.0","33274456","wem/bandit_single","AOTF48KUV9KWM","pain","3","","72","H","0","img/none_selected.jpg","0","0","1","","0.2021405589","false","79","","0.2021405589","main_expt","","0.4251749511","","0.06491107755","","0.4119020232","","","","","",""
"65","","bandit","155","376571","0.0-117.0-0.0","33274456","wem/bandit_single","AOTF48KUV9KWM","pain","3","","74","J","1","","0","1","0","","0.3976376265","false","80","","0.1654874554","main_expt","","0.3976376265","","0.1021818806","","0.3797331509","","","","","",""
"65","","bandit","156","378399","0.0-118.0-0.0","33274456","wem/bandit_single","AOTF48KUV9KWM","pain","3","","74","J","1","","0","0","1","","0.409462467","false","81","","0.1281487551","main_expt","","0.409462467","","0.07175209231","","0.4024270851","","","","","",""
"38","","bandit","157","380199","0.0-119.0-0.0","33274456","wem/bandit_single","AOTF48KUV9KWM","pain","3","","74","J","1","","0","0","1","","0.4541942335","false","82","","0.1167166884","main_expt","","0.4541942335","","0.04651379375","","0.3976574516","","","","","",""
"362","","bandit","158","382325","0.0-120.0-0.0","33274456","wem/bandit_single","AOTF48KUV9KWM","pain","3","","74","J","1","","0","0","1","","0.4452160763","false","83","","0.1426109787","main_expt","","0.4452160763","","0.03148502893","","0.3749492802","","","","","",""
"53","","bandit","159","384142","0.0-121.0-0.0","33274456","wem/bandit_single","AOTF48KUV9KWM","pain","3","","75","K","2","","0","0","1","","0.05186863446","false","84","","0.121887906","main_expt","","0.438985114","","0.05186863446","","0.4021863709","","","","","",""
"73","","bandit","160","385978","0.0-122.0-0.0","33274456","wem/bandit_single","AOTF48KUV9KWM","pain","3","","72","H","0","img/none_selected.jpg","0","1","0","","0.1361926199","false","85","","0.1361926199","main_expt","","0.4331173667","","0.04986731509","","0.3624574422","","","","","",""
"400","","bandit","161","388140","0.0-123.0-0.0","33274456","wem/bandit_single","AOTF48KUV9KWM","pain","3","","72","H","0","img/none_selected.jpg","0","0","1","","0.1287871674","false","86","","0.1287871674","main_expt","","0.447547065","","0.05891938772","","0.387939101","","","","","",""
"192","","bandit","162","390099","0.0-124.0-0.0","33274456","wem/bandit_single","AOTF48KUV9KWM","pain","3","","72","H","0","img/none_selected.jpg","0","0","1","","0.13112728","false","87","","0.13112728","main_expt","","0.4451560311","","0.06619539979","","0.3949621072","","","","","",""
"327","","bandit","163","392188","0.0-125.0-0.0","33274456","wem/bandit_single","AOTF48KUV9KWM","pain","3","","72","H","0","img/none_selected.jpg","0","0","1","","0.1385028762","false","88","","0.1385028762","main_expt","","0.4010299359","","0.03553047297","","0.3789082299","","","","","",""
"100","","bandit","164","394054","0.0-126.0-0.0","33274456","wem/bandit_single","AOTF48KUV9KWM","pain","3","","76","L","3","","0","0","1","","0.3718344374","false","89","","0.1377901848","main_expt","","0.430672582","","0.03983007571","","0.3718344374","","","","","",""
"498","","bandit","165","396322","0.0-127.0-0.0","33274456","wem/bandit_single","AOTF48KUV9KWM","pain","3","","76","L","3","","0","1","0","","0.4341719303","false","90","","0.1642812903","main_expt","","0.4063924327","","0.02618566652","","0.4341719303","","","","","",""
"378","","bandit","166","398463","0.0-128.0-0.0","33274456","wem/bandit_single","AOTF48KUV9KWM","pain","3","","76","L","3","","0","1","0","","0.4538289377","false","91","","0.2115922749","main_expt","","0.4115689239","","0.03325063158","","0.4538289377","","","","","",""
"257","","bandit","167","400482","0.0-129.0-0.0","33274456","wem/bandit_single","AOTF48KUV9KWM","pain","3","","76","L","3","","0","0","1","","0.4508501544","false","92","","0.1819790886","main_expt","","0.4195244723","","0.02042352937","","0.4508501544","","","","","",""
"35","","bandit","168","402283","0.0-130.0-0.0","33274456","wem/bandit_single","AOTF48KUV9KWM","pain","3","","76","L","3","","0","0","1","","0.4548943395","false","93","","0.2039146085","main_expt","","0.3976010387","","0.01887694535","","0.4548943395","","","","","",""
"54","","bandit","169","404101","0.0-131.0-0.0","33274456","wem/bandit_single","AOTF48KUV9KWM","pain","3","","76","L","3","","0","0","1","","0.4646086811","false","94","","0.2307813202","main_expt","","0.3668479885","","0.02367451168","","0.4646086811","","","","","",""
"50","","bandit","170","405915","0.0-132.0-0.0","33274456","wem/bandit_single","AOTF48KUV9KWM","pain","3","","72","H","0","img/none_selected.jpg","0","0","1","","0.2213313998","false","95","","0.2213313998","main_expt","","0.3332342888","","0.02723032617","","0.467541367","","","","","",""
"31","","bandit","171","407709","0.0-133.0-0.0","33274456","wem/bandit_single","AOTF48KUV9KWM","pain","3","","72","H","0","img/none_selected.jpg","0","0","1","","0.2568515079","false","96","","0.2568515079","main_expt","","0.2884910782","","0.02648196594","","0.4642351642","","","","","",""
"35","","bandit","172","409510","0.0-134.0-0.0","33274456","wem/bandit_single","AOTF48KUV9KWM","pain","3","","74","J","1","","0","0","1","","0.2656891479","false","97","","0.2699845376","main_expt","","0.2656891479","","0.01585024216","","0.4467755515","","","","","",""
"23","","bandit","173","411298","0.0-135.0-0.0","33274456","wem/bandit_single","AOTF48KUV9KWM","pain","3","","74","J","1","","0","0","1","","0.2595300749","false","98","","0.2797451528","main_expt","","0.2595300749","","0.01169409205","","0.4056350907","","","","","",""
"411","","bandit","174","413476","0.0-136.0-0.0","33274456","wem/bandit_single","AOTF48KUV9KWM","pain","3","","75","K","2","","0","0","1","","0.01197913588","false","99","","0.3187705275","main_expt","","0.2519900202","","0.01197913588","","0.339742379","","","","","",""
"116","","bandit","175","415361","0.0-137.0-0.0","33274456","wem/bandit_single","AOTF48KUV9KWM","pain","3","","75","K","2","","0","0","1","","0.01759776774","false","100","","0.3570824245","main_expt","","0.2523409295","","0.01759776774","","0.3381167522","","","","","",""
"30","","bandit","176","417157","0.0-138.0-0.0","33274456","wem/bandit_single","AOTF48KUV9KWM","pain","3","","76","L","3","","0","1","0","","0.2803213009","false","101","","0.3489468272","main_expt","","0.2146893193","","0.04295615511","","0.2803213009","","","","","",""
"91","","bandit","177","419013","0.0-139.0-0.0","33274456","wem/bandit_single","AOTF48KUV9KWM","pain","3","","76","L","3","","0","0","1","","0.317644571","false","102","","0.3015799625","main_expt","","0.1843767259","","0.06572998715","","0.317644571","","","","","",""
"206","","bandit","178","420985","0.0-140.0-0.0","33274456","wem/bandit_single","AOTF48KUV9KWM","pain","3","","76","L","3","","0","1","0","","0.3024927185","false","103","","0.2656450655","main_expt","","0.2108432206","","0.1043212589","","0.3024927185","","","","","",""
"59","","bandit","179","422807","0.0-141.0-0.0","33274456","wem/bandit_single","AOTF48KUV9KWM","pain","3","","76","L","3","","0","0","1","","0.3339077782","false","104","","0.261155182","main_expt","","0.26792014","","0.07063930719","","0.3339077782","","","","","",""
"34","","bandit","180","424605","0.0-142.0-0.0","33274456","wem/bandit_single","AOTF48KUV9KWM","pain","3","","76","L","3","","0","0","1","","0.2966783269","false","105","","0.2794756432","main_expt","","0.3302583292","","0.09992353171","","0.2966783269","","","","","",""
"711","","bandit","181","427078","0.0-143.0-0.0","33274456","wem/bandit_single","AOTF48KUV9KWM","pain","3","","76","L","3","","0","1","0","","0.3722996478","false","106","","0.2719827923","main_expt","","0.3099187861","","0.1074399807","","0.3722996478","","","","","",""
"47","","bandit","182","428888","0.0-144.0-0.0","33274456","wem/bandit_single","AOTF48KUV9KWM","pain","3","","76","L","3","","0","0","1","","0.3764369168","false","107","","0.2614179637","main_expt","","0.3526315454","","0.1398361659","","0.3764369168","","","","","",""
"62","","bandit","183","430716","0.0-145.0-0.0","33274456","wem/bandit_single","AOTF48KUV9KWM","pain","3","","76","L","3","","0","0","1","","0.3221289315","false","108","","0.3154283329","main_expt","","0.3741147492","","0.1503356919","","0.3221289315","","","","","",""
"68","","bandit","184","432546","0.0-146.0-0.0","33274456","wem/bandit_single","AOTF48KUV9KWM","pain","3","","76","L","3","","0","0","1","","0.3394272446","false","109","","0.3965133924","main_expt","","0.3775387023","","0.1554773292","","0.3394272446","","","","","",""
"192","","bandit","185","434503","0.0-147.0-0.0","33274456","wem/bandit_single","AOTF48KUV9KWM","pain","3","","76","L","3","","0","0","1","","0.3108194313","false","110","","0.4096679205","main_expt","","0.3603169275","","0.1862379276","","0.3108194313","","","","","",""
"136","","bandit","186","436404","0.0-148.0-0.0","33274456","wem/bandit_single","AOTF48KUV9KWM","pain","3","","76","L","3","","0","0","1","","0.2754643313","false","111","","0.4107972434","main_expt","","0.3492898999","","0.2096222548","","0.2754643313","","","","","",""
"112","","bandit","187","438279","0.0-149.0-0.0","33274456","wem/bandit_single","AOTF48KUV9KWM","pain","3","","76","L","3","","0","0","1","","0.2906444469","false","112","","0.4229867006","main_expt","","0.3332089306","","0.2432579143","","0.2906444469","","","","","",""
"157","","bandit","188","440200","0.0-150.0-0.0","33274456","wem/bandit_single","AOTF48KUV9KWM","pain","3","","72","H","0","img/none_selected.jpg","0","0","1","","0.4045712819","false","113","","0.4045712819","main_expt","","0.3450976056","","0.1721880852","","0.3006146448","","","","","",""
"44","","bandit","189","442010","0.0-151.0-0.0","33274456","wem/bandit_single","AOTF48KUV9KWM","pain","3","","72","H","0","img/none_selected.jpg","0","0","1","","0.3821667802","false","114","","0.3821667802","main_expt","","0.3725565121","","0.2081909003","","0.2668468313","","","","","",""
"84","","bandit","190","443858","0.0-152.0-0.0","33274456","wem/bandit_single","AOTF48KUV9KWM","pain","3","","74","J","1","","0","0","1","","0.3789561431","false","115","","0.3342096713","main_expt","","0.3789561431","","0.272711811","","0.3032344037","","","","","",""
"53","","bandit","191","445675","0.0-153.0-0.0","33274456","wem/bandit_single","AOTF48KUV9KWM","pain","3","","74","J","1","","0","1","0","","0.3829881954","false","116","","0.3475890958","main_expt","","0.3829881954","","0.2801201945","","0.279678247","","","","","",""
"175","","bandit","192","447614","0.0-154.0-0.0","33274456","wem/bandit_single","AOTF48KUV9KWM","pain","3","","74","J","1","","0","1","0","","0.3872477479","false","117","","0.3545652452","main_expt","","0.3872477479","","0.3615324036","","0.2762620489","","","","","",""
"106","","bandit","193","449484","0.0-155.0-0.0","33274456","wem/bandit_single","AOTF48KUV9KWM","pain","3","","74","J","1","","0","1","0","","0.3952603005","false","118","","0.3542043025","main_expt","","0.3952603005","","0.3615177178","","0.2880572365","","","","","",""
"50","","bandit","194","451296","0.0-156.0-0.0","33274456","wem/bandit_single","AOTF48KUV9KWM","pain","3","","74","J","1","","0","0","1","","0.3838673248","false","119","","0.3471352845","main_expt","","0.3838673248","","0.3875935955","","0.2807620685","","","","","",""
"162","","bandit","195","453223","0.0-157.0-0.0","33274456","wem/bandit_single","AOTF48KUV9KWM","pain","3","","74","J","1","","0","0","1","","0.4148997213","false","120","","0.3343169965","main_expt","","0.4148997213","","0.4052723714","","0.2811576832","","","","","",""
"8","","bandit","196","454994","0.0-158.0-0.0","33274456","wem/bandit_single","AOTF48KUV9KWM","pain","3","","74","J","1","","0","0","1","","0.4184259471","false","121","","0.3595120763","main_expt","","0.4184259471","","0.44462971","","0.3016455194","","","","","",""
"1","","bandit","197","456758","0.0-159.0-0.0","33274456","wem/bandit_single","AOTF48KUV9KWM","pain","3","","74","J","1","","0","0","1","","0.4271141924","false","122","","0.3296914373","main_expt","","0.4271141924","","0.4338931322","","0.3161331551","","","","","",""
"54","","bandit","198","458575","0.0-160.0-0.0","33274456","wem/bandit_single","AOTF48KUV9KWM","pain","3","","74","J","1","","0","1","0","","0.3994299035","false","123","","0.3369167856","main_expt","","0.3994299035","","0.4248885798","","0.2882518765","","","","","",""
"55","","bandit","199","460394","0.0-161.0-0.0","33274456","wem/bandit_single","AOTF48KUV9KWM","pain","3","","74","J","1","","0","0","1","","0.4319292606","false","124","","0.3181772373","main_expt","","0.4319292606","","0.3773411534","","0.3426101702","","","","","",""
"343","","bandit","200","462504","0.0-162.0-0.0","33274456","wem/bandit_single","AOTF48KUV9KWM","pain","3","","74","J","1","","0","0","1","","0.4228137624","false","125","","0.3285823626","main_expt","","0.4228137624","","0.3322500489","","0.3623178769","","","","","",""
"93","","bandit","201","464360","0.0-163.0-0.0","33274456","wem/bandit_single","AOTF48KUV9KWM","pain","3","","74","J","1","","0","1","0","","0.4445824992","false","126","","0.3203566048","main_expt","","0.4445824992","","0.3742157909","","0.3487147863","","","","","",""
"162","","bandit","202","466286","0.0-164.0-0.0","33274456","wem/bandit_single","AOTF48KUV9KWM","pain","3","","74","J","1","","0","1","0","","0.4525048151","false","127","","0.3852478983","main_expt","","0.4525048151","","0.3851047317","","0.4137567253","","","","","",""
"236","","bandit","203","468288","0.0-165.0-0.0","33274456","wem/bandit_single","AOTF48KUV9KWM","pain","3","","74","J","1","","0","1","0","","0.4692783601","false","128","","0.3389365807","main_expt","","0.4692783601","","0.4043255462","","0.3814482247","","","","","",""
"238","","bandit","204","470291","0.0-166.0-0.0","33274456","wem/bandit_single","AOTF48KUV9KWM","pain","3","","74","J","1","","0","0","1","","0.4168961411","false","129","","0.3137404055","main_expt","","0.4168961411","","0.4123407707","","0.4168244781","","","","","",""
"99","","bandit","205","472157","0.0-167.0-0.0","33274456","wem/bandit_single","AOTF48KUV9KWM","pain","3","","74","J","1","","0","1","0","","0.3790243023","false","130","","0.3258581953","main_expt","","0.3790243023","","0.4046971735","","0.4365918222","","","","","",""
"24","","bandit","206","473946","0.0-168.0-0.0","33274456","wem/bandit_single","AOTF48KUV9KWM","pain","3","","74","J","1","","0","0","1","","0.4049885765","false","131","","0.2883577813","main_expt","","0.4049885765","","0.4461276952","","0.4389841863","","","","","",""
"329","","bandit","207","476040","0.0-169.0-0.0","33274456","wem/bandit_single","AOTF48KUV9KWM","pain","3","","74","J","1","","0","0","1","","0.4146365962","false","132","","0.3560589507","main_expt","","0.4146365962","","0.4611465992","","0.4152650591","","","","","",""
"15","","bandit","208","477825","0.0-170.0-0.0","33274456","wem/bandit_single","AOTF48KUV9KWM","pain","3","","74","J","1","","0","1","0","","0.3895917514","false","133","","0.358394082","main_expt","","0.3895917514","","0.4798080461","","0.4542457407","","","","","",""
"36","","bandit","209","479627","0.0-171.0-0.0","33274456","wem/bandit_single","AOTF48KUV9KWM","pain","3","","74","J","1","","0","0","1","","0.4031985028","false","134","","0.3605573227","main_expt","","0.4031985028","","0.4536835414","","0.4598844585","","","","","",""
"638","","bandit","210","482031","0.0-172.0-0.0","33274456","wem/bandit_single","AOTF48KUV9KWM","pain","3","","74","J","1","","0","0","1","","0.3950250086","false","135","","0.3695471057","main_expt","","0.3950250086","","0.4297718384","","0.4690925783","","","","","",""
"155","","bandit","211","483952","0.0-173.0-0.0","33274456","wem/bandit_single","AOTF48KUV9KWM","pain","3","","74","J","1","","0","0","1","","0.3958408827","false","136","","0.4060603524","main_expt","","0.3958408827","","0.4047290025","","0.4382452635","","","","","",""
"69","","bandit","212","485787","0.0-174.0-0.0","33274456","wem/bandit_single","AOTF48KUV9KWM","pain","3","","74","J","1","","0","0","1","","0.4025558346","false","137","","0.3977168634","main_expt","","0.4025558346","","0.4062789173","","0.4469583278","","","","","",""
"110","","bandit","213","487662","0.0-175.0-0.0","33274456","wem/bandit_single","AOTF48KUV9KWM","pain","3","","74","J","1","","0","1","0","","0.3901350715","false","138","","0.3884520433","main_expt","","0.3901350715","","0.3893267926","","0.44739429","","","","","",""
"11","","bandit","214","489443","0.0-176.0-0.0","33274456","wem/bandit_single","AOTF48KUV9KWM","pain","3","","74","J","1","","0","0","1","","0.4069565875","false","139","","0.3517782966","main_expt","","0.4069565875","","0.3355070849","","0.4329330235","","","","","",""
"40","","bandit","215","491253","0.0-177.0-0.0","33274456","wem/bandit_single","AOTF48KUV9KWM","pain","3","","74","J","1","","0","0","1","","0.4384632306","false","140","","0.3147433726","main_expt","","0.4384632306","","0.3033729388","","0.4427321083","","","","","",""
"49","","bandit","216","493066","0.0-178.0-0.0","33274456","wem/bandit_single","AOTF48KUV9KWM","pain","3","","74","J","1","","0","0","1","","0.4513823692","false","141","","0.315874603","main_expt","","0.4513823692","","0.3495942718","","0.4630674526","","","","","",""
"470","","bandit","217","495303","0.0-179.0-0.0","33274456","wem/bandit_single","AOTF48KUV9KWM","pain","3","","75","K","2","","0","0","1","","0.373744609","false","142","","0.2660579121","main_expt","","0.4477105457","","0.373744609","","0.4678156034","","","","","",""
"441","","bandit","218","497511","0.0-180.0-0.0","33274456","wem/bandit_single","AOTF48KUV9KWM","pain","3","","75","K","2","","0","1","0","","0.3983109068","false","143","","0.2791435274","main_expt","","0.4399018081","","0.3983109068","","0.4556942345","","","","","",""
"432","","bandit","219","499708","0.0-181.0-0.0","33274456","wem/bandit_single","AOTF48KUV9KWM","pain","3","","75","K","2","","0","0","1","","0.4290647624","false","144","","0.3232226047","main_expt","","0.3929519584","","0.4290647624","","0.4606745253","","","","","",""
"79","","bandit","220","501555","0.0-182.0-0.0","33274456","wem/bandit_single","AOTF48KUV9KWM","pain","3","","75","K","2","","0","0","1","","0.4360055891","false","145","","0.2863527335","main_expt","","0.3638959839","","0.4360055891","","0.4493721712","","","","","",""
"142","","bandit","221","503465","0.0-183.0-0.0","33274456","wem/bandit_single","AOTF48KUV9KWM","pain","3","","76","L","3","","0","1","0","","0.411205332","false","146","","0.2399582054","main_expt","","0.3109408856","","0.4408793748","","0.411205332","","","","","",""
"108","","bandit","222","505338","0.0-184.0-0.0","33274456","wem/bandit_single","AOTF48KUV9KWM","pain","3","","76","L","3","","0","0","1","","0.4091009254","false","147","","0.2186627863","main_expt","","0.303790043","","0.4152856751","","0.4091009254","","","","","",""
"69","","bandit","223","507175","0.0-185.0-0.0","33274456","wem/bandit_single","AOTF48KUV9KWM","pain","3","","76","L","3","","0","0","1","","0.3878952866","false","148","","0.233860686","main_expt","","0.2836070719","","0.400149315","","0.3878952866","","","","","",""
"5","","bandit","224","508946","0.0-186.0-0.0","33274456","wem/bandit_single","AOTF48KUV9KWM","pain","3","","76","L","3","","0","0","1","","0.39239053","false","149","","0.2752018233","main_expt","","0.2132997302","","0.4081055764","","0.39239053","","","","","",""
"30","","bandit","225","510746","0.0-187.0-0.0","33274456","wem/bandit_single","AOTF48KUV9KWM","pain","3","","76","L","3","","0","1","0","","0.3869122725","false","150","","0.2306982087","main_expt","","0.1906505553","","0.3946041437","","0.3869122725","","","","","",""
"99","","bandit","226","512612","0.0-188.0-0.0","33274456","wem/bandit_single","AOTF48KUV9KWM","pain","3","","76","L","3","","0","0","1","","0.3562084687","false","151","","0.272940168","main_expt","","0.1887938372","","0.3517385329","","0.3562084687","","","","","",""
"28","","bandit","227","514406","0.0-189.0-0.0","33274456","wem/bandit_single","AOTF48KUV9KWM","pain","3","","76","L","3","","0","0","1","","0.3975166132","false","152","","0.246833375","main_expt","","0.1452925277","","0.33807167","","0.3975166132","","","","","",""
"57","","bandit","228","516229","0.0-190.0-0.0","33274456","wem/bandit_single","AOTF48KUV9KWM","pain","3","","76","L","3","","0","0","1","","0.4221253747","false","153","","0.2555278221","main_expt","","0.1236287895","","0.3507556502","","0.4221253747","","","","","",""
"33","","bandit","229","518028","0.0-191.0-0.0","33274456","wem/bandit_single","AOTF48KUV9KWM","pain","3","","72","H","0","img/none_selected.jpg","0","1","0","","0.1964980564","false","154","","0.1964980564","main_expt","","0.119712108","","0.3484399371","","0.3887365422","","","","","",""
"366","","bandit","230","520161","0.0-192.0-0.0","33274456","wem/bandit_single","AOTF48KUV9KWM","pain","3","","72","H","0","img/none_selected.jpg","0","0","1","","0.2158986014","false","155","","0.2158986014","main_expt","","0.1638630184","","0.4023996329","","0.3935049101","","","","","",""
"301","","bandit","231","522226","0.0-193.0-0.0","33274456","wem/bandit_single","AOTF48KUV9KWM","pain","3","","72","H","0","img/none_selected.jpg","0","0","1","","0.2269609611","false","156","","0.2269609611","main_expt","","0.138562935","","0.3489947109","","0.4185769797","","","","","",""
"170","","bandit","232","524161","0.0-194.0-0.0","33274456","wem/bandit_single","AOTF48KUV9KWM","pain","3","","72","H","0","img/none_selected.jpg","0","0","1","","0.2997599927","false","157","","0.2997599927","main_expt","","0.1424057266","","0.3223479281","","0.412821327","","","","","",""
"65","","bandit","233","525993","0.0-195.0-0.0","33274456","wem/bandit_single","AOTF48KUV9KWM","pain","3","","74","J","1","","0","1","0","","0.1068688432","false","158","","0.2608946303","main_expt","","0.1068688432","","0.3334556671","","0.4433072999","","","","","",""
"228","","bandit","234","527984","0.0-196.0-0.0","33274456","wem/bandit_single","AOTF48KUV9KWM","pain","3","","74","J","1","","0","0","1","","0.08394897778","false","159","","0.2927903113","main_expt","","0.08394897778","","0.3686402331","","0.4600675837","","","","","",""
"65","","bandit","235","529815","0.0-197.0-0.0","33274456","wem/bandit_single","AOTF48KUV9KWM","pain","3","","74","J","1","","0","0","1","","0.09909711901","false","160","","0.3165869591","main_expt","","0.09909711901","","0.3711838842","","0.449399373","","","","","",""
"534","","bandit","236","532114","0.0-198.0-0.0","33274456","wem/bandit_single","AOTF48KUV9KWM","pain","3","","74","J","1","","0","0","1","","0.09256485174","false","161","","0.3355773311","main_expt","","0.09256485174","","0.385982022","","0.4303005813","","","","","",""
"343","","bandit","237","534222","0.0-199.0-0.0","33274456","wem/bandit_single","AOTF48KUV9KWM","pain","3","","74","J","1","","0","0","1","","0.07550585721","false","162","","0.3801839585","main_expt","","0.07550585721","","0.3435676447","","0.4319487415","","","","","",""
"224","","bandit","238","536213","0.0-200.0-0.0","33274456","wem/bandit_single","AOTF48KUV9KWM","pain","3","","76","L","3","","0","0","1","","0.4459750046","false","163","","0.3796909961","main_expt","","0.08055395315","","0.3840292687","","0.4459750046","","","","","",""
"93","","bandit","239","538073","0.0-201.0-0.0","33274456","wem/bandit_single","AOTF48KUV9KWM","pain","3","","76","L","3","","0","1","0","","0.4529977304","false","164","","0.3657353238","main_expt","","0.07824920034","","0.3427058888","","0.4529977304","","","","","",""
"160","","bandit","240","539996","0.0-202.0-0.0","33274456","wem/bandit_single","AOTF48KUV9KWM","pain","3","","76","L","3","","0","0","1","","0.4472909282","false","165","","0.3937598932","main_expt","","0.08439791844","","0.3258967388","","0.4472909282","","","","","",""
"125","","bandit","241","541887","0.0-203.0-0.0","33274456","wem/bandit_single","AOTF48KUV9KWM","pain","3","","76","L","3","","0","1","0","","0.4399772256","false","166","","0.3914196171","main_expt","","0.05039915739","","0.2704303424","","0.4399772256","","","","","",""
"73","","bandit","242","543727","0.0-204.0-0.0","33274456","wem/bandit_single","AOTF48KUV9KWM","pain","3","","76","L","3","","0","0","1","","0.4636729032","false","167","","0.3919877423","main_expt","","0.05759530337","","0.3205555932","","0.4636729032","","","","","",""
"211","","bandit","243","545703","0.0-205.0-0.0","33274456","wem/bandit_single","AOTF48KUV9KWM","pain","3","","76","L","3","","0","1","0","","0.4437796743","false","168","","0.3647459683","main_expt","","0.04992464654","","0.3639109947","","0.4437796743","","","","","",""
"359","","bandit","244","547829","0.0-206.0-0.0","33274456","wem/bandit_single","AOTF48KUV9KWM","pain","3","","76","L","3","","0","0","1","","0.456101387","false","169","","0.4058418149","main_expt","","0.03416660819","","0.3733582142","","0.456101387","","","","","",""
"361","","bandit","245","549955","0.0-207.0-0.0","33274456","wem/bandit_single","AOTF48KUV9KWM","pain","3","","76","L","3","","0","0","1","","0.4571218852","false","170","","0.3998590153","main_expt","","0.01917125828","","0.3832331311","","0.4571218852","","","","","",""
"74","","bandit","246","551800","0.0-208.0-0.0","33274456","wem/bandit_single","AOTF48KUV9KWM","pain","3","","76","L","3","","0","1","0","","0.445510323","false","171","","0.3887500458","main_expt","","0.02244253376","","0.3815339887","","0.445510323","","","","","",""
"259","","bandit","247","553824","0.0-209.0-0.0","33274456","wem/bandit_single","AOTF48KUV9KWM","pain","3","","76","L","3","","0","0","1","","0.4280794999","false","172","","0.4102182378","main_expt","","0.02619280326","","0.3471775219","","0.4280794999","","","","","",""
"82","","bandit","248","555673","0.0-210.0-0.0","33274456","wem/bandit_single","AOTF48KUV9KWM","pain","3","","76","L","3","","0","0","1","","0.4379780546","false","173","","0.3895773165","main_expt","","0.0218428458","","0.340289466","","0.4379780546","","","","","",""
"327","","bandit","249","557764","0.0-211.0-0.0","33274456","wem/bandit_single","AOTF48KUV9KWM","pain","3","","76","L","3","","0","0","1","","0.4160926905","false","174","","0.3826402373","main_expt","","0.02840617367","","0.3280863639","","0.4160926905","","","","","",""
"67","","bandit","250","559599","0.0-212.0-0.0","33274456","wem/bandit_single","AOTF48KUV9KWM","pain","3","","76","L","3","","0","1","0","","0.44195178","false","175","","0.38572844","main_expt","","0.0268928826","","0.3782643392","","0.44195178","","","","","",""
"83","","bandit","251","561447","0.0-213.0-0.0","33274456","wem/bandit_single","AOTF48KUV9KWM","pain","3","","76","L","3","","0","1","0","","0.4469840309","false","176","","0.3566605828","main_expt","","0.04471375276","","0.3714875018","","0.4469840309","","","","","",""
"8","","bandit","252","563221","0.0-214.0-0.0","33274456","wem/bandit_single","AOTF48KUV9KWM","pain","3","","76","L","3","","0","0","1","","0.4732589693","false","177","","0.3736379944","main_expt","","0.04508647299","","0.3110573775","","0.4732589693","","","","","",""
"133","","bandit","253","565120","0.0-215.0-0.0","33274456","wem/bandit_single","AOTF48KUV9KWM","pain","3","","76","L","3","","0","1","0","","0.4716065645","false","178","","0.3835263095","main_expt","","0.07342594821","","0.3725785744","","0.4716065645","","","","","",""
"513","","bandit","254","567401","0.0-216.0-0.0","33274456","wem/bandit_single","AOTF48KUV9KWM","pain","3","","76","L","3","","0","0","1","","0.4724187392","false","179","","0.3531759074","main_expt","","0.08189943715","","0.4143512522","","0.4724187392","","","","","",""
"97","","bandit","255","569264","0.0-217.0-0.0","33274456","wem/bandit_single","AOTF48KUV9KWM","pain","3","","76","L","3","","0","0","1","","0.4551908631","false","180","","0.3185705061","main_expt","","0.07894611151","","0.4240428135","","0.4551908631","","","","","",""
"102","","bandit","256","571134","0.0-218.0-0.0","33274456","wem/bandit_single","AOTF48KUV9KWM","pain","3","","76","L","3","","0","0","1","","0.456416976","false","181","","0.2823592255","main_expt","","0.06982230443","","0.4394908049","","0.456416976","","","","","",""
"45","","bandit","257","572943","0.0-219.0-0.0","33274456","wem/bandit_single","AOTF48KUV9KWM","pain","3","","76","L","3","","0","1","0","","0.4525945541","false","182","","0.2741397005","main_expt","","0.06674639092","","0.4180692962","","0.4525945541","","","","","",""
"31","","bandit","258","574744","0.0-220.0-0.0","33274456","wem/bandit_single","AOTF48KUV9KWM","pain","3","","76","L","3","","0","0","1","","0.4439654651","false","183","","0.2936799338","main_expt","","0.04008595334","","0.4468782907","","0.4439654651","","","","","",""
"308","","bandit","259","576819","0.0-221.0-0.0","33274456","wem/bandit_single","AOTF48KUV9KWM","pain","3","","76","L","3","","0","0","1","","0.4366406792","false","184","","0.3027831177","main_expt","","0.04652727321","","0.4489540851","","0.4366406792","","","","","",""
"60","","bandit","260","578646","0.0-222.0-0.0","33274456","wem/bandit_single","AOTF48KUV9KWM","pain","3","","76","L","3","","0","0","1","","0.4282468188","false","185","","0.3180510168","main_expt","","0.05033673313","","0.4669005471","","0.4282468188","","","","","",""
"52","","bandit","261","580463","0.0-223.0-0.0","33274456","wem/bandit_single","AOTF48KUV9KWM","pain","3","","76","L","3","","0","0","1","","0.4249990568","false","186","","0.3285352945","main_expt","","0.03009771755","","0.419417397","","0.4249990568","","","","","",""
"40","","bandit","262","582270","0.0-224.0-0.0","33274456","wem/bandit_single","AOTF48KUV9KWM","pain","3","","76","L","3","","0","0","1","","0.4159118542","false","187","","0.3278715557","main_expt","","0.02601150791","","0.3735271503","","0.4159118542","","","","","",""
"548","","bandit","263","584583","0.0-225.0-0.0","33274456","wem/bandit_single","AOTF48KUV9KWM","pain","3","","76","L","3","","0","1","0","","0.4294829221","false","188","","0.3408065186","main_expt","","0.02389042297","","0.3339942922","","0.4294829221","","","","","",""
"166","","bandit","264","586518","0.0-226.0-0.0","33274456","wem/bandit_single","AOTF48KUV9KWM","pain","3","","76","L","3","","0","0","1","","0.4183094629","false","189","","0.3335894225","main_expt","","0.02303770395","","0.3200911101","","0.4183094629","","","","","",""
"22","","bandit","265","588307","0.0-227.0-0.0","33274456","wem/bandit_single","AOTF48KUV9KWM","pain","3","","76","L","3","","0","1","0","","0.3769048436","false","190","","0.2560009578","main_expt","","0.0156858998","","0.379511296","","0.3769048436","","","","","",""
"40","","bandit","266","590115","0.0-228.0-0.0","33274456","wem/bandit_single","AOTF48KUV9KWM","pain","3","","76","L","3","","0","1","0","","0.3654839124","false","191","","0.2422543603","main_expt","","0.02184200568","","0.3475909393","","0.3654839124","","","","","",""
"147","","bandit","267","592032","0.0-229.0-0.0","33274456","wem/bandit_single","AOTF48KUV9KWM","pain","3","","76","L","3","","0","1","0","","0.4158526776","false","192","","0.2479432207","main_expt","","0.04159540118","","0.3248483226","","0.4158526776","","","","","",""
"26","","bandit","268","593831","0.0-230.0-0.0","33274456","wem/bandit_single","AOTF48KUV9KWM","pain","3","","76","L","3","","0","1","0","","0.4294001388","false","193","","0.2198669916","main_expt","","0.02418359434","","0.3530355579","","0.4294001388","","","","","",""
"34","","bandit","269","595634","0.0-231.0-0.0","33274456","wem/bandit_single","AOTF48KUV9KWM","pain","3","","76","L","3","","0","0","1","","0.421006879","false","194","","0.1832858475","main_expt","","0.03036789999","","0.3613612536","","0.421006879","","","","","",""
"31","","bandit","270","597433","0.0-232.0-0.0","33274456","wem/bandit_single","AOTF48KUV9KWM","pain","3","","76","L","3","","0","1","0","","0.3993762185","false","195","","0.1758973168","main_expt","","0.0328032794","","0.3712676973","","0.3993762185","","","","","",""
"206","","bandit","271","599407","0.0-233.0-0.0","33274456","wem/bandit_single","AOTF48KUV9KWM","pain","3","","76","L","3","","0","0","1","","0.3953591144","false","196","","0.1472052011","main_expt","","0.03367124179","","0.3797177139","","0.3953591144","","","","","",""
"26","","bandit","272","601206","0.0-234.0-0.0","33274456","wem/bandit_single","AOTF48KUV9KWM","pain","3","","76","L","3","","0","0","1","","0.4186523265","false","197","","0.09357285733","main_expt","","0.03515804352","","0.3703437648","","0.4186523265","","","","","",""
"493","","bandit","273","603466","0.0-235.0-0.0","33274456","wem/bandit_single","AOTF48KUV9KWM","pain","3","","76","L","3","","0","0","1","","0.4334783576","false","198","","0.1466532231","main_expt","","0.0474911349","","0.3269028648","","0.4334783576","","","","","",""
"79","","bandit","274","605321","0.0-236.0-0.0","33274456","wem/bandit_single","AOTF48KUV9KWM","pain","3","","76","L","3","","0","1","0","","0.452916177","false","199","","0.1745555733","main_expt","","0.04758635843","","0.2972028605","","0.452916177","","","","","",""
"487","","bandit","275","607579","0.0-237.0-0.0","33274456","wem/bandit_single","AOTF48KUV9KWM","pain","3","","76","L","3","","0","0","1","","0.4652130485","false","200","","0.1496088854","main_expt","","0.06637193447","","0.2548635421","","0.4652130485","","","","","",""
"3","","bandit","276","609354","0.0-238.0-0.0","33274456","wem/bandit_single","AOTF48KUV9KWM","pain","3","","76","L","3","","0","1","0","","0.4544628945","false","201","","0.1144678821","main_expt","","0.03961336895","","0.2360204523","","0.4544628945","","","","","",""
"24","","bandit","277","611151","0.0-239.0-0.0","33274456","wem/bandit_single","AOTF48KUV9KWM","pain","3","","76","L","3","","0","0","1","","0.4346785174","false","202","","0.08314182588","main_expt","","0.04217273593","","0.1847208139","","0.4346785174","","","","","",""
"29","","bandit","278","612948","0.0-240.0-0.0","33274456","wem/bandit_single","AOTF48KUV9KWM","pain","3","","76","L","3","","0","0","1","","0.4340895374","false","203","","0.1008304514","main_expt","","0.03601881868","","0.1740418795","","0.4340895374","","","","","",""
"94","","bandit","279","614809","0.0-241.0-0.0","33274456","wem/bandit_single","AOTF48KUV9KWM","pain","3","","76","L","3","","0","1","0","","0.4398780919","false","204","","0.1170364225","main_expt","","0.04663301139","","0.1469060572","","0.4398780919","","","","","",""
"43","","bandit","280","616622","0.0-242.0-0.0","33274456","wem/bandit_single","AOTF48KUV9KWM","pain","3","","76","L","3","","0","0","1","","0.4001316318","false","205","","0.1228414706","main_expt","","0.04643109282","","0.1162446513","","0.4001316318","","","","","",""
"157","","bandit","281","618548","0.0-243.0-0.0","33274456","wem/bandit_single","AOTF48KUV9KWM","pain","3","","76","L","3","","0","0","1","","0.4347617828","false","206","","0.1574749647","main_expt","","0.06886832812","","0.1289033918","","0.4347617828","","","","","",""
"133","","bandit","282","620457","0.0-244.0-0.0","33274456","wem/bandit_single","AOTF48KUV9KWM","pain","3","","76","L","3","","0","1","0","","0.4383015813","false","207","","0.1922173773","main_expt","","0.0600143171","","0.1261822501","","0.4383015813","","","","","",""
"43","","bandit","283","622266","0.0-245.0-0.0","33274456","wem/bandit_single","AOTF48KUV9KWM","pain","3","","76","L","3","","0","1","0","","0.4038237536","false","208","","0.1673160211","main_expt","","0.04637571639","","0.1024795668","","0.4038237536","","","","","",""
"21","","bandit","284","624054","0.0-246.0-0.0","33274456","wem/bandit_single","AOTF48KUV9KWM","pain","3","","76","L","3","","0","0","1","","0.3890753365","false","209","","0.1269527993","main_expt","","0.04040360689","","0.1129838087","","0.3890753365","","","","","",""
"91","","bandit","285","625913","0.0-247.0-0.0","33274456","wem/bandit_single","AOTF48KUV9KWM","pain","3","","76","L","3","","0","1","0","","0.3792373644","false","210","","0.1114377498","main_expt","","0.02069644656","","0.1562804612","","0.3792373644","","","","","",""
"521","","bandit","286","628202","0.0-248.0-0.0","33274456","wem/bandit_single","AOTF48KUV9KWM","pain","3","","76","L","3","","0","1","0","","0.3780611868","false","211","","0.1155820846","main_expt","","0.03173395488","","0.1363837251","","0.3780611868","","","","","",""
"331","","bandit","287","630300","0.0-249.0-0.0","33274456","wem/bandit_single","AOTF48KUV9KWM","pain","3","","76","L","3","","0","1","0","","0.3483689532","false","212","","0.1553323518","main_expt","","0.02469601981","","0.09358237554","","0.3483689532","","","","","",""
"191","","bandit","288","632259","0.0-250.0-0.0","33274456","wem/bandit_single","AOTF48KUV9KWM","pain","3","","76","L","3","","0","0","1","","0.2874103991","false","213","","0.2062901667","main_expt","","0.04258417901","","0.05743859841","","0.2874103991","","","","","",""
"117","","bandit","289","634141","0.0-251.0-0.0","33274456","wem/bandit_single","AOTF48KUV9KWM","pain","3","","76","L","3","","0","0","1","","0.2620706088","false","214","","0.2076956631","main_expt","","0.05493755721","","0.05800100084","","0.2620706088","","","","","",""
"166","","bandit","290","636077","0.0-252.0-0.0","33274456","wem/bandit_single","AOTF48KUV9KWM","pain","3","","76","L","3","","0","0","1","","0.2855520155","false","215","","0.2609492508","main_expt","","0.08978059799","","0.05413405856","","0.2855520155","","","","","",""
"99","","bandit","291","637944","0.0-253.0-0.0","33274456","wem/bandit_single","AOTF48KUV9KWM","pain","3","","76","L","3","","0","0","1","","0.2916786734","false","216","","0.2500101786","main_expt","","0.09809121306","","0.03942357166","","0.2916786734","","","","","",""
"73","","bandit","292","639785","0.0-254.0-0.0","33274456","wem/bandit_single","AOTF48KUV9KWM","pain","3","","76","L","3","","0","0","1","","0.2823685681","false","217","","0.2748248586","main_expt","","0.1427848958","","0.03801572204","","0.2823685681","","","","","",""
"127","","bandit","293","641680","0.0-255.0-0.0","33274456","wem/bandit_single","AOTF48KUV9KWM","pain","3","","72","H","0","img/none_selected.jpg","0","0","1","","0.311954441","false","218","","0.311954441","main_expt","","0.1570322525","","0.03890441123","","0.2423520158","","","","","",""
"86","","bandit","294","643534","0.0-256.0-0.0","33274456","wem/bandit_single","AOTF48KUV9KWM","pain","3","","72","H","0","img/none_selected.jpg","0","1","0","","0.3632760336","false","219","","0.3632760336","main_expt","","0.1805036953","","0.01887456362","","0.2949403562","","","","","",""
"228","","bandit","295","645529","0.0-257.0-0.0","33274456","wem/bandit_single","AOTF48KUV9KWM","pain","3","","72","H","0","img/none_selected.jpg","0","1","0","","0.3369908474","false","220","","0.3369908474","main_expt","","0.1305519061","","0.02149820142","","0.3123592507","","","","","",""
"100","","bandit","296","647397","0.0-258.0-0.0","33274456","wem/bandit_single","AOTF48KUV9KWM","pain","3","","72","H","0","img/none_selected.jpg","0","0","1","","0.3047504054","false","221","","0.3047504054","main_expt","","0.09039333473","","0.03528878979","","0.3184432139","","","","","",""
"146","","bandit","297","649309","0.0-259.0-0.0","33274456","wem/bandit_single","AOTF48KUV9KWM","pain","3","","72","H","0","img/none_selected.jpg","0","0","1","","0.3107799438","false","222","","0.3107799438","main_expt","","0.0801847008","","0.03906528797","","0.3596246423","","","","","",""
"65","","bandit","298","651143","0.0-260.0-0.0","33274456","wem/bandit_single","AOTF48KUV9KWM","pain","3","","72","H","0","img/none_selected.jpg","0","0","1","","0.3359374044","false","223","","0.3359374044","main_expt","","0.08930296305","","0.04285152396","","0.3048299186","","","","","",""
"109","","bandit","299","653018","0.0-261.0-0.0","33274456","wem/bandit_single","AOTF48KUV9KWM","pain","3","","72","H","0","img/none_selected.jpg","0","1","0","","0.354776332","false","224","","0.354776332","main_expt","","0.0783544472","","0.03308098724","","0.3097637171","","","","","",""
"206","","bandit","300","654992","0.0-262.0-0.0","33274456","wem/bandit_single","AOTF48KUV9KWM","pain","3","","72","H","0","img/none_selected.jpg","0","0","1","","0.3747964846","false","225","","0.3747964846","main_expt","","0.05733223117","","0.03318257961","","0.3313621339","","","","","",""
"39","","bandit","301","656796","0.0-263.0-0.0","33274456","wem/bandit_single","AOTF48KUV9KWM","pain","3","","72","H","0","img/none_selected.jpg","0","0","1","","0.3530330239","false","226","","0.3530330239","main_expt","","0.09472546141","","0.02568716964","","0.2611013425","","","","","",""
"28","","bandit","302","658591","0.0-264.0-0.0","33274456","wem/bandit_single","AOTF48KUV9KWM","pain","3","","72","H","0","img/none_selected.jpg","0","0","1","","0.3299445106","false","227","","0.3299445106","main_expt","","0.08353253247","","0.03534330031","","0.2761398934","","","","","",""
"47","","bandit","303","660407","0.0-265.0-0.0","33274456","wem/bandit_single","AOTF48KUV9KWM","pain","3","","72","H","0","img/none_selected.jpg","0","1","0","","0.3286020352","false","228","","0.3286020352","main_expt","","0.06220105415","","0.03702628412","","0.2358148364","","","","","",""
"44","","bandit","304","662217","0.0-266.0-0.0","33274456","wem/bandit_single","AOTF48KUV9KWM","pain","3","","72","H","0","img/none_selected.jpg","0","0","1","","0.3178943429","false","229","","0.3178943429","main_expt","","0.06639782905","","0.03077125553","","0.2091128555","","","","","",""
"170","","bandit","305","664154","0.0-267.0-0.0","33274456","wem/bandit_single","AOTF48KUV9KWM","pain","3","","72","H","0","img/none_selected.jpg","0","1","0","","0.3254915512","false","230","","0.3254915512","main_expt","","0.07029464087","","0.03752036101","","0.181986641","","","","","",""
"51","","bandit","306","665972","0.0-268.0-0.0","33274456","wem/bandit_single","AOTF48KUV9KWM","pain","3","","72","H","0","img/none_selected.jpg","0","0","1","","0.3298497064","false","231","","0.3298497064","main_expt","","0.07612781315","","0.02736090244","","0.1599443191","","","","","",""
"45","","bandit","307","667788","0.0-269.0-0.0","33274456","wem/bandit_single","AOTF48KUV9KWM","pain","3","","72","H","0","img/none_selected.jpg","0","0","1","","0.300331178","false","232","","0.300331178","main_expt","","0.04325191911","","0.02154887034","","0.125214013","","","","","",""
"32","","bandit","308","669588","0.0-270.0-0.0","33274456","wem/bandit_single","AOTF48KUV9KWM","pain","3","","72","H","0","img/none_selected.jpg","0","1","0","","0.3357562734","false","233","","0.3357562734","main_expt","","0.04039924652","","0.0228348974","","0.134118517","","","","","",""
"56","","bandit","309","671413","0.0-271.0-0.0","33274456","wem/bandit_single","AOTF48KUV9KWM","pain","3","","72","H","0","img/none_selected.jpg","0","0","1","","0.3257461803","false","234","","0.3257461803","main_expt","","0.0435796211","","0.01030782054","","0.1238594142","","","","","",""
"304","","bandit","310","673485","0.0-272.0-0.0","33274456","wem/bandit_single","AOTF48KUV9KWM","pain","3","","72","H","0","img/none_selected.jpg","0","1","0","","0.3534766227","false","235","","0.3534766227","main_expt","","0.02315237623","","0.02615737471","","0.1141846942","","","","","",""
"396","","bandit","311","675649","0.0-273.0-0.0","33274456","wem/bandit_single","AOTF48KUV9KWM","pain","3","","72","H","0","img/none_selected.jpg","0","1","0","","0.3733068719","false","236","","0.3733068719","main_expt","","0.02010779399","","0.0224272094","","0.1101280349","","","","","",""
"104","","bandit","312","677521","0.0-274.0-0.0","33274456","wem/bandit_single","AOTF48KUV9KWM","pain","3","","72","H","0","img/none_selected.jpg","0","0","1","","0.4105295152","false","237","","0.4105295152","main_expt","","0.01796146932","","0.02679999918","","0.09079266978","","","","","",""
"18","","bandit","313","679307","0.0-275.0-0.0","33274456","wem/bandit_single","AOTF48KUV9KWM","pain","3","","72","H","0","img/none_selected.jpg","0","1","0","","0.4225156592","false","238","","0.4225156592","main_expt","","0.0167141813","","0.07542988795","","0.1365862295","","","","","",""
"46","","bandit","314","681127","0.0-276.0-0.0","33274456","wem/bandit_single","AOTF48KUV9KWM","pain","3","","72","H","0","img/none_selected.jpg","0","1","0","","0.4360895212","false","239","","0.4360895212","main_expt","","0.03283355296","","0.09772903","","0.1846819155","","","","","",""
"5","","bandit","315","682902","0.0-277.0-0.0","33274456","wem/bandit_single","AOTF48KUV9KWM","pain","3","","72","H","0","img/none_selected.jpg","0","0","1","","0.423514393","false","240","","0.423514393","main_expt","","0.05325110434","","0.1044145256","","0.1795044078","","","","","",""
"100","","bandit","316","684771","0.0-278.0-0.0","33274456","wem/bandit_single","AOTF48KUV9KWM","pain","3","","72","H","0","img/none_selected.jpg","0","0","1","","0.3824942702","false","241","","0.3824942702","main_expt","","0.04551940083","","0.109937241","","0.1522343712","","","","","",""
"79","","bandit","317","686618","0.0-279.0-0.0","33274456","wem/bandit_single","AOTF48KUV9KWM","pain","3","","72","H","0","img/none_selected.jpg","0","0","1","","0.3758562762","false","242","","0.3758562762","main_expt","","0.05503183359","","0.09239004846","","0.1433696576","","","","","",""
"78","","bandit","318","688464","0.0-280.0-0.0","33274456","wem/bandit_single","AOTF48KUV9KWM","pain","3","","72","H","0","img/none_selected.jpg","0","1","0","","0.2984655584","false","243","","0.2984655584","main_expt","","0.04467871076","","0.1014218366","","0.1427577162","","","","","",""
"115","","bandit","319","690354","0.0-281.0-0.0","33274456","wem/bandit_single","AOTF48KUV9KWM","pain","3","","72","H","0","img/none_selected.jpg","0","0","1","","0.2901672904","false","244","","0.2901672904","main_expt","","0.06552455376","","0.192841162","","0.1340795621","","","","","",""
"134","","bandit","320","692260","0.0-282.0-0.0","33274456","wem/bandit_single","AOTF48KUV9KWM","pain","3","","72","H","0","img/none_selected.jpg","0","0","1","","0.2495050599","false","245","","0.2495050599","main_expt","","0.1005127954","","0.1953250812","","0.1469719784","","","","","",""
"90","","bandit","321","694116","0.0-283.0-0.0","33274456","wem/bandit_single","AOTF48KUV9KWM","pain","3","","72","H","0","img/none_selected.jpg","0","1","0","","0.2406773486","false","246","","0.2406773486","main_expt","","0.11534406","","0.1865380945","","0.140914489","","","","","",""
"69","","bandit","322","695956","0.0-284.0-0.0","33274456","wem/bandit_single","AOTF48KUV9KWM","pain","3","","72","H","0","img/none_selected.jpg","0","0","1","","0.2265306157","false","247","","0.2265306157","main_expt","","0.08579934652","","0.221100819","","0.1592666071","","","","","",""
"18","","bandit","323","697743","0.0-285.0-0.0","33274456","wem/bandit_single","AOTF48KUV9KWM","pain","3","","72","H","0","img/none_selected.jpg","0","0","1","","0.2000380921","false","248","","0.2000380921","main_expt","","0.08554071629","","0.2106100544","","0.2210893918","","","","","",""
"74","","bandit","324","699587","0.0-286.0-0.0","33274456","wem/bandit_single","AOTF48KUV9KWM","pain","3","","72","H","0","img/none_selected.jpg","0","0","1","","0.1920984986","false","249","","0.1920984986","main_expt","","0.07137080198","","0.2172535859","","0.2306666851","","","","","",""
"105","","bandit","325","701459","0.0-287.0-0.0","33274456","wem/bandit_single","AOTF48KUV9KWM","pain","3","","72","H","0","img/none_selected.jpg","0","0","1","","0.1624135027","false","250","","0.1624135027","main_expt","","0.06874505311","","0.1953648199","","0.2422322172","","","","","",""
"91","","bandit","326","703319","0.0-288.0-0.0","33274456","wem/bandit_single","AOTF48KUV9KWM","pain","3","","72","H","0","img/none_selected.jpg","0","0","1","","0.2057369507","false","251","","0.2057369507","main_expt","","0.04927492375","","0.2129795833","","0.2425189851","","","","","",""
"37","","bandit","327","705133","0.0-289.0-0.0","33274456","wem/bandit_single","AOTF48KUV9KWM","pain","3","","74","J","1","","0","0","1","","0.0504542679","false","252","","0.26034901","main_expt","","0.0504542679","","0.2271134102","","0.1980379423","","","","","",""
"34","","bandit","328","706941","0.0-290.0-0.0","33274456","wem/bandit_single","AOTF48KUV9KWM","pain","3","","74","J","1","","0","0","1","","0.0313618618","false","253","","0.1886300366","main_expt","","0.0313618618","","0.2152809257","","0.2040952335","","","","","",""
"127","","bandit","329","708839","0.0-291.0-0.0","33274456","wem/bandit_single","AOTF48KUV9KWM","pain","3","","74","J","1","","0","0","1","","0.0191685034","false","254","","0.1978078828","main_expt","","0.0191685034","","0.2065685424","","0.1621407843","","","","","",""
"508","","bandit","330","711116","0.0-292.0-0.0","33274456","wem/bandit_single","AOTF48KUV9KWM","pain","3","","74","J","1","","0","0","1","","0.01882474885","false","255","","0.1544468143","main_expt","","0.01882474885","","0.2000715388","","0.1817956319","","","","","",""
"228","","bandit","331","713117","0.0-293.0-0.0","33274456","wem/bandit_single","AOTF48KUV9KWM","pain","3","","74","J","1","","0","0","1","","0.01765542058","false","256","","0.1552120094","main_expt","","0.01765542058","","0.1997851389","","0.1796151025","","","","","",""
"291","","bandit","332","715177","0.0-294.0-0.0","33274456","wem/bandit_single","AOTF48KUV9KWM","pain","3","","75","K","2","","0","0","1","","0.1965173465","false","257","","0.1337291471","main_expt","","0.0162265086","","0.1965173465","","0.1874922979","","","","","",""
"38","","bandit","333","716986","0.0-295.0-0.0","33274456","wem/bandit_single","AOTF48KUV9KWM","pain","3","","75","K","2","","0","1","0","","0.1816932188","false","258","","0.1279332347","main_expt","","0.01630278654","","0.1816932188","","0.2152410464","","","","","",""
"22","","bandit","334","718777","0.0-296.0-0.0","33274456","wem/bandit_single","AOTF48KUV9KWM","pain","3","","75","K","2","","0","1","0","","0.2275026539","false","259","","0.152418206","main_expt","","0.0149919991","","0.2275026539","","0.2311433436","","","","","",""
"8","","bandit","335","720555","0.0-297.0-0.0","33274456","wem/bandit_single","AOTF48KUV9KWM","pain","3","","75","K","2","","0","0","1","","0.1798156178","false","260","","0.1100328583","main_expt","","0.02225913397","","0.1798156178","","0.1621257941","","","","","",""
"77","","bandit","336","722400","0.0-298.0-0.0","33274456","wem/bandit_single","AOTF48KUV9KWM","pain","3","","75","K","2","","0","0","1","","0.187122726","false","261","","0.1537012171","main_expt","","0.02865634389","","0.187122726","","0.1219102136","","","","","",""
"322","","bandit","337","724491","0.0-299.0-0.0","33274456","wem/bandit_single","AOTF48KUV9KWM","pain","3","","75","K","2","","0","0","1","","0.1507521212","false","262","","0.1302597035","main_expt","","0.03173788073","","0.1507521212","","0.1667536199","","","","","",""
"71","","bandit","338","726333","0.0-300.0-0.0","33274456","wem/bandit_single","AOTF48KUV9KWM","pain","3","","75","K","2","","0","0","1","","0.1374951011","false","263","","0.1297736826","main_expt","","0.04250990858","","0.1374951011","","0.1361259709","","","","","",""
"63","","bandit","339","728169","0.0-301.0-0.0","33274456","wem/bandit_single","AOTF48KUV9KWM","pain","3","","75","K","2","","0","0","1","","0.1158818852","false","264","","0.1326654045","main_expt","","0.056503948","","0.1158818852","","0.1217381733","","","","","",""
"145","","bandit","340","730085","0.0-302.0-0.0","33274456","wem/bandit_single","AOTF48KUV9KWM","pain","3","","76","L","3","","0","0","1","","0.1258265959","false","265","","0.1586413096","main_expt","","0.07592662832","","0.1147359408","","0.1258265959","","","","","",""
"356","","bandit","341","732217","0.0-303.0-0.0","33274456","wem/bandit_single","AOTF48KUV9KWM","pain","3","","76","L","3","","0","0","1","","0.1445769791","false","266","","0.1496521415","main_expt","","0.1002340293","","0.09491002089","","0.1445769791","","","","","",""
"34","","bandit","342","734019","0.0-304.0-0.0","33274456","wem/bandit_single","AOTF48KUV9KWM","pain","3","","76","L","3","","0","0","1","","0.1014120844","false","267","","0.1410052581","main_expt","","0.1526998269","","0.1181284109","","0.1014120844","","","","","",""
"127","","bandit","343","735916","0.0-305.0-0.0","33274456","wem/bandit_single","AOTF48KUV9KWM","pain","3","","76","L","3","","0","0","1","","0.06386630904","false","268","","0.145208313","main_expt","","0.1340815566","","0.1054434992","","0.06386630904","","","","","",""
"89","","bandit","344","737776","0.0-306.0-0.0","33274456","wem/bandit_single","AOTF48KUV9KWM","pain","3","","76","L","3","","0","0","1","","0.03725778621","false","269","","0.1387339362","main_expt","","0.1350059692","","0.1307900039","","0.03725778621","","","","","",""
"23","","bandit","345","739576","0.0-307.0-0.0","33274456","wem/bandit_single","AOTF48KUV9KWM","pain","3","","72","H","0","img/none_selected.jpg","0","0","1","","0.1822325734","false","270","","0.1822325734","main_expt","","0.1008257698","","0.1444746669","","0.02825676517","","","","","",""
"172","","bandit","346","741518","0.0-308.0-0.0","33274456","wem/bandit_single","AOTF48KUV9KWM","pain","3","","72","H","0","img/none_selected.jpg","0","0","1","","0.1752825828","false","271","","0.1752825828","main_expt","","0.1257425884","","0.1622504114","","0.02967844624","","","","","",""
"71","","bandit","347","743360","0.0-309.0-0.0","33274456","wem/bandit_single","AOTF48KUV9KWM","pain","3","","72","H","0","img/none_selected.jpg","0","0","1","","0.1572277832","false","272","","0.1572277832","main_expt","","0.1363444874","","0.1814673171","","0.03051557875","","","","","",""
"49","","bandit","348","745186","0.0-310.0-0.0","33274456","wem/bandit_single","AOTF48KUV9KWM","pain","3","","72","H","0","img/none_selected.jpg","0","0","1","","0.1609880977","false","273","","0.1609880977","main_expt","","0.1090842693","","0.1930303076","","0.0408401102","","","","","",""
"175","","bandit","349","747132","0.0-311.0-0.0","33274456","wem/bandit_single","AOTF48KUV9KWM","pain","3","","72","H","0","img/none_selected.jpg","0","0","1","","0.2228580822","false","274","","0.2228580822","main_expt","","0.1397265487","","0.1704680895","","0.03240614182","","","","","",""
"144","","bandit","350","749044","0.0-312.0-0.0","33274456","wem/bandit_single","AOTF48KUV9KWM","pain","3","","74","J","1","","0","0","1","","0.210641606","false","275","","0.2126640298","main_expt","","0.210641606","","0.1785534293","","0.04120982645","","","","","",""
"157","","bandit","351","750975","0.0-313.0-0.0","33274456","wem/bandit_single","AOTF48KUV9KWM","pain","3","","74","J","1","","0","1","0","","0.1523626192","false","276","","0.2006548762","main_expt","","0.1523626192","","0.1843971019","","0.04353307789","","","","","",""
"86","","bandit","352","752830","0.0-314.0-0.0","33274456","wem/bandit_single","AOTF48KUV9KWM","pain","3","","74","J","1","","0","0","1","","0.16102954","false","277","","0.1986275587","main_expt","","0.16102954","","0.2042268453","","0.0172565486","","","","","",""
"296","","bandit","353","754896","0.0-315.0-0.0","33274456","wem/bandit_single","AOTF48KUV9KWM","pain","3","","74","J","1","","0","0","1","","0.1166001048","false","278","","0.1321506531","main_expt","","0.1166001048","","0.1609113936","","0.02582715814","","","","","",""
"37","","bandit","354","756700","0.0-316.0-0.0","33274456","wem/bandit_single","AOTF48KUV9KWM","pain","3","","74","J","1","","0","0","1","","0.1427402012","false","279","","0.2112193978","main_expt","","0.1427402012","","0.1604878733","","0.03609925784","","","","","",""
"27","","bandit","355","758497","0.0-317.0-0.0","33274456","wem/bandit_single","AOTF48KUV9KWM","pain","3","","74","J","1","","0","0","1","","0.1524149458","false","280","","0.1872216356","main_expt","","0.1524149458","","0.1678567182","","0.02629944548","","","","","",""
"17","","bandit","356","760282","0.0-318.0-0.0","33274456","wem/bandit_single","AOTF48KUV9KWM","pain","3","","74","J","1","","0","1","0","","0.1638207856","false","281","","0.1635487084","main_expt","","0.1638207856","","0.1338700362","","0.01890368782","","","","","",""
"49","","bandit","357","762100","0.0-319.0-0.0","33274456","wem/bandit_single","AOTF48KUV9KWM","pain","3","","74","J","1","","0","0","1","","0.1055747009","false","282","","0.1576359327","main_expt","","0.1055747009","","0.2010661714","","0.01508823693","","","","","",""
"2171","","bandit","358","766041","0.0-320.0-0.0","33274456","wem/bandit_single","AOTF48KUV9KWM","pain","3","","74","J","1","","0","0","1","","0.1121395768","false","283","","0.21861051","main_expt","","0.1121395768","","0.1763159594","","0.01359220223","","","","","",""
"450","","bandit","359","768263","0.0-321.0-0.0","33274456","wem/bandit_single","AOTF48KUV9KWM","pain","3","","74","J","1","","0","0","1","","0.1110051372","false","284","","0.180487154","main_expt","","0.1110051372","","0.2379754842","","0.01691173417","","","","","",""
"86","","bandit","360","770117","0.0-322.0-0.0","33274456","wem/bandit_single","AOTF48KUV9KWM","pain","3","","74","J","1","","0","0","1","","0.1746572204","false","285","","0.1641106304","main_expt","","0.1746572204","","0.2769670592","","0.01734240677","","","","","",""
"51","","bandit","361","771940","0.0-323.0-0.0","33274456","wem/bandit_single","AOTF48KUV9KWM","pain","3","","74","J","1","","0","0","1","","0.2038956484","false","286","","0.1866508097","main_expt","","0.2038956484","","0.3002963297","","0.01574531315","","","","","",""
"142","","bandit","362","773853","0.0-324.0-0.0","33274456","wem/bandit_single","AOTF48KUV9KWM","pain","3","","75","K","2","","0","0","1","","0.2804215723","false","287","","0.1339791425","main_expt","","0.2396876396","","0.2804215723","","0.011703364","","","","","",""
"59","","bandit","363","775682","0.0-325.0-0.0","33274456","wem/bandit_single","AOTF48KUV9KWM","pain","3","","75","K","2","","0","0","1","","0.2873948651","false","288","","0.1910191906","main_expt","","0.2300823482","","0.2873948651","","0.01499165326","","","","","",""
"14","","bandit","364","777468","0.0-326.0-0.0","33274456","wem/bandit_single","AOTF48KUV9KWM","pain","3","","75","K","2","","0","0","1","","0.3383825142","false","289","","0.1987886011","main_expt","","0.2697946193","","0.3383825142","","0.01307353483","","","","","",""
"587","","bandit","365","779828","0.0-327.0-0.0","33274456","wem/bandit_single","AOTF48KUV9KWM","pain","3","","75","K","2","","0","0","1","","0.3597664772","false","290","","0.2163493667","main_expt","","0.3030113395","","0.3597664772","","0.005839555229","","","","","",""
"64","","bandit","366","781662","0.0-328.0-0.0","33274456","wem/bandit_single","AOTF48KUV9KWM","pain","3","","75","K","2","","0","0","1","","0.3684517111","false","291","","0.1987756658","main_expt","","0.2903670118","","0.3684517111","","0.00760433752","","","","","",""
"185","","bandit","367","783615","0.0-329.0-0.0","33274456","wem/bandit_single","AOTF48KUV9KWM","pain","3","","76","L","3","","0","0","1","","0.01807310376","false","292","","0.1996771378","main_expt","","0.3219279298","","0.3471931258","","0.01807310376","","","","","",""
"137","","bandit","368","785521","0.0-330.0-0.0","33274456","wem/bandit_single","AOTF48KUV9KWM","pain","3","","76","L","3","","0","0","1","","0.02882206876","false","293","","0.2067525645","main_expt","","0.2585416619","","0.3742872252","","0.02882206876","","","","","",""
"135","","bandit","369","787432","0.0-331.0-0.0","33274456","wem/bandit_single","AOTF48KUV9KWM","pain","3","","76","L","3","","0","0","1","","0.02728804169","false","294","","0.230585761","main_expt","","0.3093607287","","0.3937541296","","0.02728804169","","","","","",""
"19","","bandit","370","789222","0.0-332.0-0.0","33274456","wem/bandit_single","AOTF48KUV9KWM","pain","3","","76","L","3","","0","0","1","","0.01545304162","false","295","","0.1936278336","main_expt","","0.315069057","","0.3331550888","","0.01545304162","","","","","",""
"96","","bandit","371","791087","0.0-333.0-0.0","33274456","wem/bandit_single","AOTF48KUV9KWM","pain","3","","76","L","3","","0","0","1","","0.01463146341","false","296","","0.1733248866","main_expt","","0.3556215031","","0.3564327955","","0.01463146341","","","","","",""
"243","","bandit","372","793102","0.0-334.0-0.0","33274456","wem/bandit_single","AOTF48KUV9KWM","pain","3","","74","J","1","","0","0","1","","0.3380436511","false","297","","0.1762096585","main_expt","","0.3380436511","","0.3344242189","","0.03487584845","","","","","",""
"82","","bandit","373","794955","0.0-335.0-0.0","33274456","wem/bandit_single","AOTF48KUV9KWM","pain","3","","74","J","1","","0","1","0","","0.347815101","false","298","","0.176801175","main_expt","","0.347815101","","0.3434582948","","0.04917346329","","","","","",""
"199","","bandit","374","796928","0.0-336.0-0.0","33274456","wem/bandit_single","AOTF48KUV9KWM","pain","3","","74","J","1","","0","0","1","","0.3608262918","false","299","","0.1784780758","main_expt","","0.3608262918","","0.3432424117","","0.05764452585","","","","","",""
