"rt","responses","trial_type","trial_index","time_elapsed","internal_node_id","subjID","study","MID","cond","drift","key_press","respCharCode","respKey","respChoiceNum","respChoice","gems","bombs","no_reward","GemPrChosen","BombPrChosen","practice","trial_counter","WinPr_0","LosePr_0","trial_label","WinPr_1","LosePr_1","WinPr_2","LosePr_2","WinPr_3","LosePr_3","Q0","Q1","Q2","gender","age","ethnicity"
"4809","{""Q0"":""A1B4WL7N3ACF2T""}","survey-text","0","4819","0.0-0.0","33995153","wem/bandit_single","A1B4WL7N3ACF2T","gain","5","","","","","","","","","","","","","","","","","","","","","","","","","","",""
"1940","","text","1","7780","0.0-1.0","33995153","wem/bandit_single","A1B4WL7N3ACF2T","gain","5","32","","","","","","","","","","","","","","","","","","","","","","","","","",""
"2210","","text","2","9990","0.0-2.0","33995153","wem/bandit_single","A1B4WL7N3ACF2T","gain","5","32","","","","","","","","","","","","","","","","","","","","","","","","","",""
"6467","","text","3","16457","0.0-3.0","33995153","wem/bandit_single","A1B4WL7N3ACF2T","gain","5","32","","","","","","","","","","","","","","","","","","","","","","","","","",""
"6341","","text","4","22798","0.0-4.0","33995153","wem/bandit_single","A1B4WL7N3ACF2T","gain","5","32","","","","","","","","","","","","","","","","","","","","","","","","","",""
"4307","","text","5","27105","0.0-5.0","33995153","wem/bandit_single","A1B4WL7N3ACF2T","gain","5","32","","","","","","","","","","","","","","","","","","","","","","","","","",""
"3627","","text","6","30742","0.0-6.0","33995153","wem/bandit_single","A1B4WL7N3ACF2T","gain","5","32","","","","","","","","","","","","","","","","","","","","","","","","","",""
"2476","","text","7","33218","0.0-7.0","33995153","wem/bandit_single","A1B4WL7N3ACF2T","gain","5","32","","","","","","","","","","","","","","","","","","","","","","","","","",""
"2771","","text","8","35989","0.0-8.0","33995153","wem/bandit_single","A1B4WL7N3ACF2T","gain","5","32","","","","","","","","","","","","","","","","","","","","","","","","","",""
"1284","","text","9","37273","0.0-9.0","33995153","wem/bandit_single","A1B4WL7N3ACF2T","gain","5","32","","","","","","","","","","","","","","","","","","","","","","","","","",""
"4372","","text","10","41645","0.0-10.0","33995153","wem/bandit_single","A1B4WL7N3ACF2T","gain","5","32","","","","","","","","","","","","","","","","","","","","","","","","","",""
"7068","","text","11","48713","0.0-11.0","33995153","wem/bandit_single","A1B4WL7N3ACF2T","gain","5","32","","","","","","","","","","","","","","","","","","","","","","","","","",""
"1888","","bandit","12","52114","0.0-12.0-0.0","33995153","wem/bandit_single","A1B4WL7N3ACF2T","gain","5","","74","J","0","img/none_selected_demo.jpg","0","0","1","0","0","true","0","0","0","","","","","","","","","","","","",""
"334","","bandit","13","54214","0.0-13.0-0.0","33995153","wem/bandit_single","A1B4WL7N3ACF2T","gain","5","","75","K","0","img/none_selected_demo.jpg","0","0","1","0","0","true","0","0","0","","","","","","","","","","","","",""
"2104","","text","14","56575","0.0-14.0","33995153","wem/bandit_single","A1B4WL7N3ACF2T","gain","5","32","","","","","","","","","","","","","","","","","","","","","","","","","",""
"1097","","text","15","57672","0.0-15.0","33995153","wem/bandit_single","A1B4WL7N3ACF2T","gain","5","32","","","","","","","","","","","","","","","","","","","","","","","","","",""
"1802","","text","16","59484","0.0-16.0","33995153","wem/bandit_single","A1B4WL7N3ACF2T","gain","5","32","","","","","","","","","","","","","","","","","","","","","","","","","",""
"2128","","text","17","61612","0.0-17.0","33995153","wem/bandit_single","A1B4WL7N3ACF2T","gain","5","32","","","","","","","","","","","","","","","","","","","","","","","","","",""
"2003","","bandit","18","65125","0.0-18.0-0.0","33995153","wem/bandit_single","A1B4WL7N3ACF2T","gain","5","","74","J","0","img/none_selected_demo.jpg","1","0","0","0.8","0","true","0","0.8","0","80_20_practice","0.2","0","","","","","","","","","",""
"1879","","bandit","19","68821","0.0-18.0-1.0","33995153","wem/bandit_single","A1B4WL7N3ACF2T","gain","5","","75","K","1","","0","0","1","0.2","0","true","0","0.8","0","80_20_practice","0.2","0","","","","","","","","","",""
"0","","bandit","20","70593","0.0-18.0-2.0","33995153","wem/bandit_single","A1B4WL7N3ACF2T","gain","5","","74","J","0","img/none_selected_demo.jpg","1","0","0","0.8","0","true","0","0.8","0","80_20_practice","0.2","0","","","","","","","","","",""
"110","","bandit","21","72478","0.0-18.0-3.0","33995153","wem/bandit_single","A1B4WL7N3ACF2T","gain","5","","74","J","0","img/none_selected_demo.jpg","1","0","0","0.8","0","true","0","0.8","0","80_20_practice","0.2","0","","","","","","","","","",""
"119","","bandit","22","74362","0.0-18.0-4.0","33995153","wem/bandit_single","A1B4WL7N3ACF2T","gain","5","","74","J","0","img/none_selected_demo.jpg","1","0","0","0.8","0","true","0","0.8","0","80_20_practice","0.2","0","","","","","","","","","",""
"138","","bandit","23","76279","0.0-18.0-5.0","33995153","wem/bandit_single","A1B4WL7N3ACF2T","gain","5","","74","J","0","img/none_selected_demo.jpg","1","0","0","0.8","0","true","0","0.8","0","80_20_practice","0.2","0","","","","","","","","","",""
"281","","bandit","24","78325","0.0-18.0-6.0","33995153","wem/bandit_single","A1B4WL7N3ACF2T","gain","5","","74","J","0","img/none_selected_demo.jpg","1","0","0","0.8","0","true","0","0.8","0","80_20_practice","0.2","0","","","","","","","","","",""
"1395","","bandit","25","81496","0.0-18.0-7.0","33995153","wem/bandit_single","A1B4WL7N3ACF2T","gain","5","","74","J","0","img/none_selected_demo.jpg","1","0","0","0.8","0","true","0","0.8","0","80_20_practice","0.2","0","","","","","","","","","",""
"390","","bandit","26","83651","0.0-18.0-8.0","33995153","wem/bandit_single","A1B4WL7N3ACF2T","gain","5","","74","J","0","img/none_selected_demo.jpg","0","0","1","0.8","0","true","0","0.8","0","80_20_practice","0.2","0","","","","","","","","","",""
"1036","","bandit","27","86468","0.0-18.0-9.0","33995153","wem/bandit_single","A1B4WL7N3ACF2T","gain","5","","75","K","1","","0","0","1","0.2","0","true","0","0.8","0","80_20_practice","0.2","0","","","","","","","","","",""
"2073","","bandit","28","90316","0.0-18.0-10.0","33995153","wem/bandit_single","A1B4WL7N3ACF2T","gain","5","","74","J","0","img/none_selected_demo.jpg","1","0","0","0.8","0","true","0","0.8","0","80_20_practice","0.2","0","","","","","","","","","",""
"156","","bandit","29","92255","0.0-18.0-11.0","33995153","wem/bandit_single","A1B4WL7N3ACF2T","gain","5","","74","J","0","img/none_selected_demo.jpg","1","0","0","0.8","0","true","0","0.8","0","80_20_practice","0.2","0","","","","","","","","","",""
"134","","bandit","30","94161","0.0-18.0-12.0","33995153","wem/bandit_single","A1B4WL7N3ACF2T","gain","5","","74","J","0","img/none_selected_demo.jpg","1","0","0","0.8","0","true","0","0.8","0","80_20_practice","0.2","0","","","","","","","","","",""
"22","","bandit","31","95951","0.0-18.0-13.0","33995153","wem/bandit_single","A1B4WL7N3ACF2T","gain","5","","74","J","0","img/none_selected_demo.jpg","1","0","0","0.8","0","true","0","0.8","0","80_20_practice","0.2","0","","","","","","","","","",""
"260","","bandit","32","97983","0.0-18.0-14.0","33995153","wem/bandit_single","A1B4WL7N3ACF2T","gain","5","","74","J","0","img/none_selected_demo.jpg","1","0","0","0.8","0","true","0","0.8","0","80_20_practice","0.2","0","","","","","","","","","",""
"84","","bandit","33","99845","0.0-18.0-15.0","33995153","wem/bandit_single","A1B4WL7N3ACF2T","gain","5","","74","J","0","img/none_selected_demo.jpg","1","0","0","0.8","0","true","0","0.8","0","80_20_practice","0.2","0","","","","","","","","","",""
"51","","bandit","34","101663","0.0-18.0-16.0","33995153","wem/bandit_single","A1B4WL7N3ACF2T","gain","5","","74","J","0","img/none_selected_demo.jpg","1","0","0","0.8","0","true","0","0.8","0","80_20_practice","0.2","0","","","","","","","","","",""
"168","","bandit","35","103608","0.0-18.0-17.0","33995153","wem/bandit_single","A1B4WL7N3ACF2T","gain","5","","74","J","0","img/none_selected_demo.jpg","1","0","0","0.8","0","true","0","0.8","0","80_20_practice","0.2","0","","","","","","","","","",""
"2896","","bandit","36","108269","0.0-18.0-18.0","33995153","wem/bandit_single","A1B4WL7N3ACF2T","gain","5","","74","J","0","img/none_selected_demo.jpg","0","0","1","0.8","0","true","0","0.8","0","80_20_practice","0.2","0","","","","","","","","","",""
"98","","bandit","37","110132","0.0-18.0-19.0","33995153","wem/bandit_single","A1B4WL7N3ACF2T","gain","5","","74","J","0","img/none_selected_demo.jpg","1","0","0","0.8","0","true","0","0.8","0","80_20_practice","0.2","0","","","","","","","","","",""
"25934","","text","38","136326","0.0-19.0","33995153","wem/bandit_single","A1B4WL7N3ACF2T","gain","5","32","","","","","","","","","","","","","","","","","","","","","","","","","",""
"914","","bandit","39","138752","0.0-20.0-0.0","33995153","wem/bandit_single","A1B4WL7N3ACF2T","gain","5","","74","J","0","img/none_selected_demo.jpg","0","0","1","0","0","true","0","0","0","","0","0","","","","","","","","","",""
"2551","","text","40","141562","0.0-21.0","33995153","wem/bandit_single","A1B4WL7N3ACF2T","gain","5","32","","","","","","","","","","","","","","","","","","","","","","","","","",""
"147988","","text","41","289550","0.0-22.0","33995153","wem/bandit_single","A1B4WL7N3ACF2T","gain","5","32","","","","","","","","","","","","","","","","","","","","","","","","","",""
"1973","","text","42","291523","0.0-23.0","33995153","wem/bandit_single","A1B4WL7N3ACF2T","gain","5","32","","","","","","","","","","","","","","","","","","","","","","","","","",""
"1366","","text","43","292889","0.0-24.0","33995153","wem/bandit_single","A1B4WL7N3ACF2T","gain","5","32","","","","","","","","","","","","","","","","","","","","","","","","","",""
"2552","","text","44","295441","0.0-25.0","33995153","wem/bandit_single","A1B4WL7N3ACF2T","gain","5","32","","","","","","","","","","","","","","","","","","","","","","","","","",""
"2616","","text","45","298057","0.0-26.0","33995153","wem/bandit_single","A1B4WL7N3ACF2T","gain","5","32","","","","","","","","","","","","","","","","","","","","","","","","","",""
"2209","","text","46","300266","0.0-27.0","33995153","wem/bandit_single","A1B4WL7N3ACF2T","gain","5","32","","","","","","","","","","","","","","","","","","","","","","","","","",""
"2365","","text","47","302631","0.0-28.0","33995153","wem/bandit_single","A1B4WL7N3ACF2T","gain","5","32","","","","","","","","","","","","","","","","","","","","","","","","","",""
"2298","","text","48","304939","0.0-29.0","33995153","wem/bandit_single","A1B4WL7N3ACF2T","gain","5","32","","","","","","","","","","","","","","","","","","","","","","","","","",""
"1210","","text","49","306149","0.0-30.0","33995153","wem/bandit_single","A1B4WL7N3ACF2T","gain","5","32","","","","","","","","","","","","","","","","","","","","","","","","","",""
"2372","","text","50","308521","0.0-31.0","33995153","wem/bandit_single","A1B4WL7N3ACF2T","gain","5","32","","","","","","","","","","","","","","","","","","","","","","","","","",""
"1469","","bandit","51","311505","0.0-32.0-0.0","33995153","wem/bandit_single","A1B4WL7N3ACF2T","gain","5","","72","H","0","img/none_selected.jpg","1","0","0","0.8","0","true","0","0.8","0","full_practice","0.2","0","0.6","0","0.2","0","","","","","",""
"282","","bandit","52","313559","0.0-32.0-1.0","33995153","wem/bandit_single","A1B4WL7N3ACF2T","gain","5","","72","H","0","img/none_selected.jpg","0","0","1","0.8","0","true","0","0.8","0","full_practice","0.2","0","0.6","0","0.2","0","","","","","",""
"886","","bandit","53","316214","0.0-32.0-2.0","33995153","wem/bandit_single","A1B4WL7N3ACF2T","gain","5","","75","K","2","","1","0","0","0.6","0","true","0","0.8","0","full_practice","0.2","0","0.6","0","0.2","0","","","","","",""
"263","","bandit","54","318241","0.0-32.0-3.0","33995153","wem/bandit_single","A1B4WL7N3ACF2T","gain","5","","75","K","2","","1","0","0","0.6","0","true","0","0.8","0","full_practice","0.2","0","0.6","0","0.2","0","","","","","",""
"483","","bandit","55","320508","0.0-32.0-4.0","33995153","wem/bandit_single","A1B4WL7N3ACF2T","gain","5","","75","K","2","","1","0","0","0.6","0","true","0","0.8","0","full_practice","0.2","0","0.6","0","0.2","0","","","","","",""
"70","","bandit","56","322344","0.0-32.0-5.0","33995153","wem/bandit_single","A1B4WL7N3ACF2T","gain","5","","75","K","2","","1","0","0","0.6","0","true","0","0.8","0","full_practice","0.2","0","0.6","0","0.2","0","","","","","",""
"682","","bandit","57","324806","0.0-32.0-6.0","33995153","wem/bandit_single","A1B4WL7N3ACF2T","gain","5","","75","K","2","","1","0","0","0.6","0","true","0","0.8","0","full_practice","0.2","0","0.6","0","0.2","0","","","","","",""
"542","","bandit","58","327129","0.0-32.0-7.0","33995153","wem/bandit_single","A1B4WL7N3ACF2T","gain","5","","75","K","2","","1","0","0","0.6","0","true","0","0.8","0","full_practice","0.2","0","0.6","0","0.2","0","","","","","",""
"272","","bandit","59","329167","0.0-32.0-8.0","33995153","wem/bandit_single","A1B4WL7N3ACF2T","gain","5","","75","K","2","","0","0","1","0.6","0","true","0","0.8","0","full_practice","0.2","0","0.6","0","0.2","0","","","","","",""
"778","","bandit","60","331726","0.0-32.0-9.0","33995153","wem/bandit_single","A1B4WL7N3ACF2T","gain","5","","72","H","0","img/none_selected.jpg","1","0","0","0.8","0","true","0","0.8","0","full_practice","0.2","0","0.6","0","0.2","0","","","","","",""
"124","","bandit","61","333630","0.0-32.0-10.0","33995153","wem/bandit_single","A1B4WL7N3ACF2T","gain","5","","72","H","0","img/none_selected.jpg","1","0","0","0.8","0","true","0","0.8","0","full_practice","0.2","0","0.6","0","0.2","0","","","","","",""
"214","","bandit","62","335617","0.0-32.0-11.0","33995153","wem/bandit_single","A1B4WL7N3ACF2T","gain","5","","72","H","0","img/none_selected.jpg","1","0","0","0.8","0","true","0","0.8","0","full_practice","0.2","0","0.6","0","0.2","0","","","","","",""
"210","","bandit","63","337599","0.0-32.0-12.0","33995153","wem/bandit_single","A1B4WL7N3ACF2T","gain","5","","72","H","0","img/none_selected.jpg","1","0","0","0.8","0","true","0","0.8","0","full_practice","0.2","0","0.6","0","0.2","0","","","","","",""
"1231","","bandit","64","340607","0.0-32.0-13.0","33995153","wem/bandit_single","A1B4WL7N3ACF2T","gain","5","","72","H","0","img/none_selected.jpg","1","0","0","0.8","0","true","0","0.8","0","full_practice","0.2","0","0.6","0","0.2","0","","","","","",""
"298","","bandit","65","342681","0.0-32.0-14.0","33995153","wem/bandit_single","A1B4WL7N3ACF2T","gain","5","","72","H","0","img/none_selected.jpg","1","0","0","0.8","0","true","0","0.8","0","full_practice","0.2","0","0.6","0","0.2","0","","","","","",""
"680","","bandit","66","345128","0.0-32.0-15.0","33995153","wem/bandit_single","A1B4WL7N3ACF2T","gain","5","","72","H","0","img/none_selected.jpg","1","0","0","0.8","0","true","0","0.8","0","full_practice","0.2","0","0.6","0","0.2","0","","","","","",""
"1739","","bandit","67","348640","0.0-32.0-16.0","33995153","wem/bandit_single","A1B4WL7N3ACF2T","gain","5","","72","H","0","img/none_selected.jpg","1","0","0","0.8","0","true","0","0.8","0","full_practice","0.2","0","0.6","0","0.2","0","","","","","",""
"51","","bandit","68","350461","0.0-32.0-17.0","33995153","wem/bandit_single","A1B4WL7N3ACF2T","gain","5","","72","H","0","img/none_selected.jpg","1","0","0","0.8","0","true","0","0.8","0","full_practice","0.2","0","0.6","0","0.2","0","","","","","",""
"1401","","bandit","69","353639","0.0-32.0-18.0","33995153","wem/bandit_single","A1B4WL7N3ACF2T","gain","5","","72","H","0","img/none_selected.jpg","1","0","0","0.8","0","true","0","0.8","0","full_practice","0.2","0","0.6","0","0.2","0","","","","","",""
"359","","bandit","70","355777","0.0-32.0-19.0","33995153","wem/bandit_single","A1B4WL7N3ACF2T","gain","5","","72","H","0","img/none_selected.jpg","0","0","1","0.8","0","true","0","0.8","0","full_practice","0.2","0","0.6","0","0.2","0","","","","","",""
"4559","","text","71","360598","0.0-33.0","33995153","wem/bandit_single","A1B4WL7N3ACF2T","gain","5","32","","","","","","","","","","","","","","","","","","","","","","","","","",""
"9309","","text","72","370927","0.0-34.0","33995153","wem/bandit_single","A1B4WL7N3ACF2T","gain","5","32","","","","","","","","","","","","","","","","","","","","","","","","","",""
"2523","","text","73","373450","0.0-35.0","33995153","wem/bandit_single","A1B4WL7N3ACF2T","gain","5","32","","","","","","","","","","","","","","","","","","","","","","","","","",""
"3358","","text","74","376808","0.0-36.0","33995153","wem/bandit_single","A1B4WL7N3ACF2T","gain","5","32","","","","","","","","","","","","","","","","","","","","","","","","","",""
"2573","","text","75","379381","0.0-37.0","33995153","wem/bandit_single","A1B4WL7N3ACF2T","gain","5","32","","","","","","","","","","","","","","","","","","","","","","","","","",""
"1136","","bandit","76","382030","0.0-38.0-0.0","33995153","wem/bandit_single","A1B4WL7N3ACF2T","gain","5","","72","H","0","img/none_selected.jpg","1","0","0","0.3811303016","","false","1","0.3811303016","","main_expt","0.4657241486","","0.04962883862","","0.1478184891","","","","","","",""
"43","","bandit","77","383848","0.0-39.0-0.0","33995153","wem/bandit_single","A1B4WL7N3ACF2T","gain","5","","72","H","0","img/none_selected.jpg","0","0","1","0.350111504","","false","2","0.350111504","","main_expt","0.4660849779","","0.03569255153","","0.2081060842","","","","","","",""
"96","","bandit","78","385720","0.0-40.0-0.0","33995153","wem/bandit_single","A1B4WL7N3ACF2T","gain","5","","75","K","2","","0","0","1","0.02901958263","","false","3","0.3436486883","","main_expt","0.4687539887","","0.02901958263","","0.1722167697","","","","","","",""
"707","","bandit","79","388201","0.0-41.0-0.0","33995153","wem/bandit_single","A1B4WL7N3ACF2T","gain","5","","76","L","3","","1","0","0","0.1424145416","","false","4","0.3419997506","","main_expt","0.48401473","","0.04894390993","","0.1424145416","","","","","","",""
"212","","bandit","80","390178","0.0-42.0-0.0","33995153","wem/bandit_single","A1B4WL7N3ACF2T","gain","5","","76","L","3","","0","0","1","0.1446667298","","false","5","0.3692180445","","main_expt","0.4755123677","","0.04206610475","","0.1446667298","","","","","","",""
"476","","bandit","81","392432","0.0-43.0-0.0","33995153","wem/bandit_single","A1B4WL7N3ACF2T","gain","5","","72","H","0","img/none_selected.jpg","1","0","0","0.3602257359","","false","6","0.3602257359","","main_expt","0.4802482158","","0.04292771587","","0.1447199692","","","","","","",""
"970","","bandit","82","395173","0.0-44.0-0.0","33995153","wem/bandit_single","A1B4WL7N3ACF2T","gain","5","","72","H","0","img/none_selected.jpg","0","0","1","0.3568498895","","false","7","0.3568498895","","main_expt","0.4780438684","","0.06035830385","","0.1001258446","","","","","","",""
"10","","bandit","83","396968","0.0-45.0-0.0","33995153","wem/bandit_single","A1B4WL7N3ACF2T","gain","5","","75","K","2","","0","0","1","0.09727842944","","false","8","0.294604339","","main_expt","0.4575173044","","0.09727842944","","0.1244671667","","","","","","",""
"139","","bandit","84","398880","0.0-46.0-0.0","33995153","wem/bandit_single","A1B4WL7N3ACF2T","gain","5","","74","J","1","","1","0","0","0.4525933246","","false","9","0.3802768622","","main_expt","0.4525933246","","0.07952196982","","0.1293804987","","","","","","",""
"90","","bandit","85","400748","0.0-47.0-0.0","33995153","wem/bandit_single","A1B4WL7N3ACF2T","gain","5","","74","J","1","","0","0","1","0.4476408152","","false","10","0.3530595227","","main_expt","0.4476408152","","0.1049852556","","0.1606810952","","","","","","",""
"75","","bandit","86","402598","0.0-48.0-0.0","33995153","wem/bandit_single","A1B4WL7N3ACF2T","gain","5","","76","L","3","","0","0","1","0.1585385462","","false","11","0.358648576","","main_expt","0.4484644352","","0.1118692116","","0.1585385462","","","","","","",""
"390","","bandit","87","404768","0.0-49.0-0.0","33995153","wem/bandit_single","A1B4WL7N3ACF2T","gain","5","","72","H","0","img/none_selected.jpg","0","0","1","0.3382469396","","false","12","0.3382469396","","main_expt","0.4466341879","","0.1270372311","","0.1492634201","","","","","","",""
"299","","bandit","88","406839","0.0-50.0-0.0","33995153","wem/bandit_single","A1B4WL7N3ACF2T","gain","5","","75","K","2","","0","0","1","0.1278892577","","false","13","0.3092021245","","main_expt","0.4642511008","","0.1278892577","","0.1106465011","","","","","","",""
"420","","bandit","89","409031","0.0-51.0-0.0","33995153","wem/bandit_single","A1B4WL7N3ACF2T","gain","5","","74","J","1","","1","0","0","0.4615970843","","false","14","0.3532484784","","main_expt","0.4615970843","","0.1024725346","","0.1232346967","","","","","","",""
"220","","bandit","90","411040","0.0-52.0-0.0","33995153","wem/bandit_single","A1B4WL7N3ACF2T","gain","5","","74","J","1","","0","0","1","0.4692442536","","false","15","0.3371384495","","main_expt","0.4692442536","","0.1234109619","","0.1323340596","","","","","","",""
"66","","bandit","91","412879","0.0-53.0-0.0","33995153","wem/bandit_single","A1B4WL7N3ACF2T","gain","5","","75","K","2","","0","0","1","0.1360550169","","false","16","0.3282622062","","main_expt","0.4755425263","","0.1360550169","","0.1410223318","","","","","","",""
"532","","bandit","92","415182","0.0-54.0-0.0","33995153","wem/bandit_single","A1B4WL7N3ACF2T","gain","5","","72","H","0","img/none_selected.jpg","1","0","0","0.3032164303","","false","17","0.3032164303","","main_expt","0.4828633911","","0.1070219664","","0.1498636582","","","","","","",""
"113","","bandit","93","417062","0.0-55.0-0.0","33995153","wem/bandit_single","A1B4WL7N3ACF2T","gain","5","","72","H","0","img/none_selected.jpg","0","0","1","0.2834034058","","false","18","0.2834034058","","main_expt","0.4784959143","","0.09318331203","","0.1132842199","","","","","","",""
"454","","bandit","94","419292","0.0-56.0-0.0","33995153","wem/bandit_single","A1B4WL7N3ACF2T","gain","5","","76","L","3","","0","0","1","0.08554013857","","false","19","0.376157017","","main_expt","0.4645747316","","0.08644374764","","0.08554013857","","","","","","",""
"133","","bandit","95","421200","0.0-57.0-0.0","33995153","wem/bandit_single","A1B4WL7N3ACF2T","gain","5","","72","H","0","img/none_selected.jpg","0","0","1","0.3718288413","","false","20","0.3718288413","","main_expt","0.4441513352","","0.1066513301","","0.1176407844","","","","","","",""
"416","","bandit","96","423381","0.0-58.0-0.0","33995153","wem/bandit_single","A1B4WL7N3ACF2T","gain","5","","75","K","2","","1","0","0","0.1143532382","","false","21","0.3755251961","","main_expt","0.4281495132","","0.1143532382","","0.09701455477","","","","","","",""
"31","","bandit","97","425180","0.0-59.0-0.0","33995153","wem/bandit_single","A1B4WL7N3ACF2T","gain","5","","75","K","2","","0","0","1","0.111858438","","false","22","0.3536603278","","main_expt","0.4374563715","","0.111858438","","0.08683592795","","","","","","",""
"509","","bandit","98","427474","0.0-60.0-0.0","33995153","wem/bandit_single","A1B4WL7N3ACF2T","gain","5","","75","K","2","","0","0","1","0.09088087914","","false","23","0.3908816919","","main_expt","0.4408316507","","0.09088087914","","0.1062952262","","","","","","",""
"422","","bandit","99","429679","0.0-61.0-0.0","33995153","wem/bandit_single","A1B4WL7N3ACF2T","gain","5","","74","J","1","","0","0","1","0.4249736282","","false","24","0.3639752867","","main_expt","0.4249736282","","0.1045917755","","0.1320295984","","","","","","",""
"130","","bandit","100","431579","0.0-62.0-0.0","33995153","wem/bandit_single","A1B4WL7N3ACF2T","gain","5","","72","H","0","img/none_selected.jpg","0","0","1","0.3569796848","","false","25","0.3569796848","","main_expt","0.4542404639","","0.107118439","","0.18562956","","","","","","",""
"270","","bandit","101","433624","0.0-63.0-0.0","33995153","wem/bandit_single","A1B4WL7N3ACF2T","gain","5","","76","L","3","","0","0","1","0.1589772959","","false","26","0.3466804264","","main_expt","0.4707756245","","0.08847958778","","0.1589772959","","","","","","",""
"237","","bandit","102","435632","0.0-64.0-0.0","33995153","wem/bandit_single","A1B4WL7N3ACF2T","gain","5","","75","K","2","","0","0","1","0.105958259","","false","27","0.3487144915","","main_expt","0.4492807888","","0.105958259","","0.1361305173","","","","","","",""
"194","","bandit","103","437609","0.0-65.0-0.0","33995153","wem/bandit_single","A1B4WL7N3ACF2T","gain","5","","74","J","1","","0","0","1","0.4630254912","","false","28","0.31872733","","main_expt","0.4630254912","","0.09976229861","","0.1517112547","","","","","","",""
"300","","bandit","104","439669","0.0-66.0-0.0","33995153","wem/bandit_single","A1B4WL7N3ACF2T","gain","5","","72","H","0","img/none_selected.jpg","0","0","1","0.3351256986","","false","29","0.3351256986","","main_expt","0.4582460064","","0.1117783291","","0.1207272987","","","","","","",""
"210","","bandit","105","441659","0.0-67.0-0.0","33995153","wem/bandit_single","A1B4WL7N3ACF2T","gain","5","","76","L","3","","0","0","1","0.06619286558","","false","30","0.3165147827","","main_expt","0.44398484","","0.104708879","","0.06619286558","","","","","","",""
"1214","","bandit","106","444659","0.0-68.0-0.0","33995153","wem/bandit_single","A1B4WL7N3ACF2T","gain","5","","75","K","2","","0","0","1","0.1168740313","","false","31","0.3587164307","","main_expt","0.4662875842","","0.1168740313","","0.08172424971","","","","","","",""
"392","","bandit","107","446839","0.0-69.0-0.0","33995153","wem/bandit_single","A1B4WL7N3ACF2T","gain","5","","75","K","2","","0","0","1","0.1193100679","","false","32","0.384091524","","main_expt","0.4823207571","","0.1193100679","","0.1118972321","","","","","","",""
"266","","bandit","108","448889","0.0-70.0-0.0","33995153","wem/bandit_single","A1B4WL7N3ACF2T","gain","5","","75","K","2","","1","0","0","0.1160378653","","false","33","0.3410562849","","main_expt","0.4887640326","","0.1160378653","","0.07764728595","","","","","","",""
"26","","bandit","109","450691","0.0-71.0-0.0","33995153","wem/bandit_single","A1B4WL7N3ACF2T","gain","5","","75","K","2","","0","0","1","0.1240203414","","false","34","0.3772037995","","main_expt","0.4871413525","","0.1240203414","","0.1021677232","","","","","","",""
"241","","bandit","110","452699","0.0-72.0-0.0","33995153","wem/bandit_single","A1B4WL7N3ACF2T","gain","5","","75","K","2","","1","0","0","0.1568527985","","false","35","0.3601610849","","main_expt","0.472467875","","0.1568527985","","0.09263198197","","","","","","",""
"80","","bandit","111","454552","0.0-73.0-0.0","33995153","wem/bandit_single","A1B4WL7N3ACF2T","gain","5","","75","K","2","","1","0","0","0.1887398002","","false","36","0.3199141994","","main_expt","0.4801988656","","0.1887398002","","0.1395706987","","","","","","",""
"76","","bandit","112","456401","0.0-74.0-0.0","33995153","wem/bandit_single","A1B4WL7N3ACF2T","gain","5","","75","K","2","","1","0","0","0.1567271146","","false","37","0.3022128767","","main_expt","0.4658101737","","0.1567271146","","0.1166343238","","","","","","",""
"103","","bandit","113","458287","0.0-75.0-0.0","33995153","wem/bandit_single","A1B4WL7N3ACF2T","gain","5","","75","K","2","","1","0","0","0.1213003185","","false","38","0.220841548","","main_expt","0.4725237643","","0.1213003185","","0.1344783462","","","","","","",""
"59","","bandit","114","460110","0.0-76.0-0.0","33995153","wem/bandit_single","A1B4WL7N3ACF2T","gain","5","","75","K","2","","0","0","1","0.1129188575","","false","39","0.2273815274","","main_expt","0.4863678522","","0.1129188575","","0.1132701409","","","","","","",""
"52","","bandit","115","461934","0.0-77.0-0.0","33995153","wem/bandit_single","A1B4WL7N3ACF2T","gain","5","","72","H","0","img/none_selected.jpg","0","0","1","0.2216047912","","false","40","0.2216047912","","main_expt","0.4756100127","","0.1490040727","","0.1269330716","","","","","","",""
"77","","bandit","116","463772","0.0-78.0-0.0","33995153","wem/bandit_single","A1B4WL7N3ACF2T","gain","5","","72","H","0","img/none_selected.jpg","0","0","1","0.1790357129","","false","41","0.1790357129","","main_expt","0.4644843691","","0.20555416","","0.1043764639","","","","","","",""
"30","","bandit","117","465572","0.0-79.0-0.0","33995153","wem/bandit_single","A1B4WL7N3ACF2T","gain","5","","72","H","0","img/none_selected.jpg","0","0","1","0.1124402831","","false","42","0.1124402831","","main_expt","0.4595487669","","0.2458082757","","0.123259557","","","","","","",""
"428","","bandit","118","467780","0.0-80.0-0.0","33995153","wem/bandit_single","A1B4WL7N3ACF2T","gain","5","","76","L","3","","0","0","1","0.1523094635","","false","43","0.1309909921","","main_expt","0.4598563523","","0.1980967925","","0.1523094635","","","","","","",""
"170","","bandit","119","469720","0.0-81.0-0.0","33995153","wem/bandit_single","A1B4WL7N3ACF2T","gain","5","","74","J","1","","1","0","0","0.4444935065","","false","44","0.1620245532","","main_expt","0.4444935065","","0.2011817551","","0.1438901127","","","","","","",""
"187","","bandit","120","471690","0.0-82.0-0.0","33995153","wem/bandit_single","A1B4WL7N3ACF2T","gain","5","","74","J","1","","1","0","0","0.4201454787","","false","45","0.1962154431","","main_expt","0.4201454787","","0.1908172103","","0.1381896233","","","","","","",""
"56","","bandit","121","473522","0.0-83.0-0.0","33995153","wem/bandit_single","A1B4WL7N3ACF2T","gain","5","","74","J","1","","0","0","1","0.4420567968","","false","46","0.1548021256","","main_expt","0.4420567968","","0.1682898959","","0.08118013389","","","","","","",""
"10","","bandit","122","475312","0.0-84.0-0.0","33995153","wem/bandit_single","A1B4WL7N3ACF2T","gain","5","","74","J","1","","1","0","0","0.4454115659","","false","47","0.155425446","","main_expt","0.4454115659","","0.114950809","","0.08279503272","","","","","","",""
"35","","bandit","123","477115","0.0-85.0-0.0","33995153","wem/bandit_single","A1B4WL7N3ACF2T","gain","5","","74","J","1","","1","0","0","0.4409121906","","false","48","0.2368850053","","main_expt","0.4409121906","","0.1231508501","","0.09757227309","","","","","","",""
"305","","bandit","124","479204","0.0-86.0-0.0","33995153","wem/bandit_single","A1B4WL7N3ACF2T","gain","5","","74","J","1","","0","0","1","0.4640555105","","false","49","0.1712995484","","main_expt","0.4640555105","","0.1264715503","","0.1407466139","","","","","","",""
"266","","bandit","125","481254","0.0-87.0-0.0","33995153","wem/bandit_single","A1B4WL7N3ACF2T","gain","5","","74","J","1","","0","0","1","0.4619625264","","false","50","0.2371897999","","main_expt","0.4619625264","","0.1119267987","","0.1128896644","","","","","","",""
"204","","bandit","126","483236","0.0-88.0-0.0","33995153","wem/bandit_single","A1B4WL7N3ACF2T","gain","5","","72","H","0","img/none_selected.jpg","0","0","1","0.2520952739","","false","51","0.2520952739","","main_expt","0.4686499241","","0.1192285775","","0.1292206793","","","","","","",""
"163","","bandit","127","485179","0.0-89.0-0.0","33995153","wem/bandit_single","A1B4WL7N3ACF2T","gain","5","","75","K","2","","0","0","1","0.1536714506","","false","52","0.2201249325","","main_expt","0.4721244997","","0.1536714506","","0.117204758","","","","","","",""
"386","","bandit","128","487340","0.0-90.0-0.0","33995153","wem/bandit_single","A1B4WL7N3ACF2T","gain","5","","75","K","2","","0","0","1","0.1817289366","","false","53","0.2019083534","","main_expt","0.4776765754","","0.1817289366","","0.1180232867","","","","","","",""
"1034","","bandit","129","490150","0.0-91.0-0.0","33995153","wem/bandit_single","A1B4WL7N3ACF2T","gain","5","","76","L","3","","0","0","1","0.09503139185","","false","54","0.2133100918","","main_expt","0.4788042678","","0.1664376657","","0.09503139185","","","","","","",""
"341","","bandit","130","492252","0.0-92.0-0.0","33995153","wem/bandit_single","A1B4WL7N3ACF2T","gain","5","","76","L","3","","0","0","1","0.1238025275","","false","55","0.2210295122","","main_expt","0.4852168201","","0.1219288973","","0.1238025275","","","","","","",""
"526","","bandit","131","494560","0.0-93.0-0.0","33995153","wem/bandit_single","A1B4WL7N3ACF2T","gain","5","","75","K","2","","1","0","0","0.1392062569","","false","56","0.1728424853","","main_expt","0.4860946669","","0.1392062569","","0.1544257673","","","","","","",""
"58","","bandit","132","496385","0.0-94.0-0.0","33995153","wem/bandit_single","A1B4WL7N3ACF2T","gain","5","","75","K","2","","0","0","1","0.2060247316","","false","57","0.2301797189","","main_expt","0.4859962979","","0.2060247316","","0.1492478473","","","","","","",""
"70","","bandit","133","498233","0.0-95.0-0.0","33995153","wem/bandit_single","A1B4WL7N3ACF2T","gain","5","","75","K","2","","1","0","0","0.1723567799","","false","58","0.2820892606","","main_expt","0.4751013025","","0.1723567799","","0.1392181034","","","","","","",""
"239","","bandit","134","500260","0.0-96.0-0.0","33995153","wem/bandit_single","A1B4WL7N3ACF2T","gain","5","","75","K","2","","1","0","0","0.16345501","","false","59","0.308641684","","main_expt","0.4816883425","","0.16345501","","0.1854998728","","","","","","",""
"89","","bandit","135","502120","0.0-97.0-0.0","33995153","wem/bandit_single","A1B4WL7N3ACF2T","gain","5","","75","K","2","","1","0","0","0.1552759559","","false","60","0.3012287428","","main_expt","0.4846541976","","0.1552759559","","0.1306651225","","","","","","",""
"164","","bandit","136","504060","0.0-98.0-0.0","33995153","wem/bandit_single","A1B4WL7N3ACF2T","gain","5","","75","K","2","","1","0","0","0.1652193455","","false","61","0.263166603","","main_expt","0.4848840061","","0.1652193455","","0.1567024934","","","","","","",""
"58","","bandit","137","505910","0.0-99.0-0.0","33995153","wem/bandit_single","A1B4WL7N3ACF2T","gain","5","","75","K","2","","0","0","1","0.1813222976","","false","62","0.2428038775","","main_expt","0.4856292504","","0.1813222976","","0.1622246099","","","","","","",""
"286","","bandit","138","507990","0.0-100.0-0.0","33995153","wem/bandit_single","A1B4WL7N3ACF2T","gain","5","","75","K","2","","0","0","1","0.1727004114","","false","63","0.2843805899","","main_expt","0.4865153319","","0.1727004114","","0.2196770705","","","","","","",""
"101","","bandit","139","509865","0.0-101.0-0.0","33995153","wem/bandit_single","A1B4WL7N3ACF2T","gain","5","","75","K","2","","0","0","1","0.2105999223","","false","64","0.2895992306","","main_expt","0.4874146034","","0.2105999223","","0.218319606","","","","","","",""
"356","","bandit","140","512001","0.0-102.0-0.0","33995153","wem/bandit_single","A1B4WL7N3ACF2T","gain","5","","72","H","0","img/none_selected.jpg","1","0","0","0.3847688","","false","65","0.3847688","","main_expt","0.4781609215","","0.240225816","","0.2278721313","","","","","","",""
"179","","bandit","141","513960","0.0-103.0-0.0","33995153","wem/bandit_single","A1B4WL7N3ACF2T","gain","5","","72","H","0","img/none_selected.jpg","0","0","1","0.4083751038","","false","66","0.4083751038","","main_expt","0.4848714892","","0.2924754864","","0.1599393353","","","","","","",""
"353","","bandit","142","516090","0.0-104.0-0.0","33995153","wem/bandit_single","A1B4WL7N3ACF2T","gain","5","","72","H","0","img/none_selected.jpg","1","0","0","0.4036944211","","false","67","0.4036944211","","main_expt","0.4872204599","","0.2363072125","","0.1647045883","","","","","","",""
"124","","bandit","143","517986","0.0-105.0-0.0","33995153","wem/bandit_single","A1B4WL7N3ACF2T","gain","5","","72","H","0","img/none_selected.jpg","0","0","1","0.3910329043","","false","68","0.3910329043","","main_expt","0.4749956953","","0.264359064","","0.1442333851","","","","","","",""
"379","","bandit","144","520133","0.0-106.0-0.0","33995153","wem/bandit_single","A1B4WL7N3ACF2T","gain","5","","72","H","0","img/none_selected.jpg","0","0","1","0.3438989047","","false","69","0.3438989047","","main_expt","0.4776093432","","0.2755227552","","0.1757685765","","","","","","",""
"54","","bandit","145","521954","0.0-107.0-0.0","33995153","wem/bandit_single","A1B4WL7N3ACF2T","gain","5","","74","J","1","","0","0","1","0.4550183311","","false","70","0.3282106587","","main_expt","0.4550183311","","0.2978365432","","0.1995177274","","","","","","",""
"114","","bandit","146","523838","0.0-108.0-0.0","33995153","wem/bandit_single","A1B4WL7N3ACF2T","gain","5","","74","J","1","","1","0","0","0.4466984445","","false","71","0.3085852942","","main_expt","0.4466984445","","0.2788476436","","0.2429348876","","","","","","",""
"226","","bandit","147","525843","0.0-109.0-0.0","33995153","wem/bandit_single","A1B4WL7N3ACF2T","gain","5","","74","J","1","","0","0","1","0.453817204","","false","72","0.317066931","","main_expt","0.453817204","","0.2983184618","","0.2134703404","","","","","","",""
"10","","bandit","148","527631","0.0-110.0-0.0","33995153","wem/bandit_single","A1B4WL7N3ACF2T","gain","5","","75","K","2","","1","0","0","0.3235064893","","false","73","0.3118309255","","main_expt","0.4421557619","","0.3235064893","","0.2779115064","","","","","","",""
"76","","bandit","149","529484","0.0-111.0-0.0","33995153","wem/bandit_single","A1B4WL7N3ACF2T","gain","5","","75","K","2","","0","0","1","0.2605282151","","false","74","0.3442292265","","main_expt","0.4340536998","","0.2605282151","","0.2696493969","","","","","","",""
"137","","bandit","150","531401","0.0-112.0-0.0","33995153","wem/bandit_single","A1B4WL7N3ACF2T","gain","5","","75","K","2","","0","0","1","0.3081503464","","false","75","0.3392290825","","main_expt","0.4148912722","","0.3081503464","","0.2929582525","","","","","","",""
"29","","bandit","151","533206","0.0-113.0-0.0","33995153","wem/bandit_single","A1B4WL7N3ACF2T","gain","5","","75","K","2","","1","0","0","0.3793773342","","false","76","0.3019050266","","main_expt","0.4049452856","","0.3793773342","","0.2925997362","","","","","","",""
"94","","bandit","152","535083","0.0-114.0-0.0","33995153","wem/bandit_single","A1B4WL7N3ACF2T","gain","5","","75","K","2","","1","0","0","0.4108459626","","false","77","0.3346778491","","main_expt","0.3804311168","","0.4108459626","","0.2402419665","","","","","","",""
"67","","bandit","153","536922","0.0-115.0-0.0","33995153","wem/bandit_single","A1B4WL7N3ACF2T","gain","5","","75","K","2","","1","0","0","0.432197644","","false","78","0.2858281516","","main_expt","0.4076768351","","0.432197644","","0.2662288132","","","","","","",""
"82","","bandit","154","538771","0.0-116.0-0.0","33995153","wem/bandit_single","A1B4WL7N3ACF2T","gain","5","","75","K","2","","0","0","1","0.4681634707","","false","79","0.2601805687","","main_expt","0.4322729224","","0.4681634707","","0.2946750364","","","","","","",""
"426","","bandit","155","540972","0.0-117.0-0.0","33995153","wem/bandit_single","A1B4WL7N3ACF2T","gain","5","","76","L","3","","0","0","1","0.3142603933","","false","80","0.2494540003","","main_expt","0.4344903628","","0.4487514359","","0.3142603933","","","","","","",""
"252","","bandit","156","543001","0.0-118.0-0.0","33995153","wem/bandit_single","A1B4WL7N3ACF2T","gain","5","","76","L","3","","0","0","1","0.3045476359","","false","81","0.2029748002","","main_expt","0.4128510282","","0.4278748425","","0.3045476359","","","","","","",""
"423","","bandit","157","545211","0.0-119.0-0.0","33995153","wem/bandit_single","A1B4WL7N3ACF2T","gain","5","","75","K","2","","0","0","1","0.3873338363","","false","82","0.1459008349","","main_expt","0.3473788204","","0.3873338363","","0.2481672469","","","","","","",""
"30","","bandit","158","547011","0.0-120.0-0.0","33995153","wem/bandit_single","A1B4WL7N3ACF2T","gain","5","","75","K","2","","1","0","0","0.3676955993","","false","83","0.1792892234","","main_expt","0.3964685929","","0.3676955993","","0.2366474468","","","","","","",""
"295","","bandit","159","549091","0.0-121.0-0.0","33995153","wem/bandit_single","A1B4WL7N3ACF2T","gain","5","","75","K","2","","0","0","1","0.3494013457","","false","84","0.1384159538","","main_expt","0.4058457219","","0.3494013457","","0.2327145127","","","","","","",""
"76","","bandit","160","550941","0.0-122.0-0.0","33995153","wem/bandit_single","A1B4WL7N3ACF2T","gain","5","","75","K","2","","0","0","1","0.3484693071","","false","85","0.1569521301","","main_expt","0.419702676","","0.3484693071","","0.2276425053","","","","","","",""
"12","","bandit","161","552731","0.0-123.0-0.0","33995153","wem/bandit_single","A1B4WL7N3ACF2T","gain","5","","75","K","2","","1","0","0","0.3738623358","","false","86","0.2111509195","","main_expt","0.3584641731","","0.3738623358","","0.1932648708","","","","","","",""
"57","","bandit","162","554554","0.0-124.0-0.0","33995153","wem/bandit_single","A1B4WL7N3ACF2T","gain","5","","75","K","2","","0","0","1","0.3635865115","","false","87","0.1855749087","","main_expt","0.3362954576","","0.3635865115","","0.1554886006","","","","","","",""
"190","","bandit","163","556522","0.0-125.0-0.0","33995153","wem/bandit_single","A1B4WL7N3ACF2T","gain","5","","72","H","0","img/none_selected.jpg","0","0","1","0.1260067519","","false","88","0.1260067519","","main_expt","0.3495778317","","0.28993028","","0.1288388744","","","","","","",""
"283","","bandit","164","558575","0.0-126.0-0.0","33995153","wem/bandit_single","A1B4WL7N3ACF2T","gain","5","","72","H","0","img/none_selected.jpg","0","0","1","0.1930097593","","false","89","0.1930097593","","main_expt","0.3337998134","","0.2529053562","","0.1672252434","","","","","","",""
"82","","bandit","165","560427","0.0-127.0-0.0","33995153","wem/bandit_single","A1B4WL7N3ACF2T","gain","5","","72","H","0","img/none_selected.jpg","1","0","0","0.2016869017","","false","90","0.2016869017","","main_expt","0.3254710898","","0.2239223254","","0.1379373657","","","","","","",""
"144","","bandit","166","562358","0.0-128.0-0.0","33995153","wem/bandit_single","A1B4WL7N3ACF2T","gain","5","","72","H","0","img/none_selected.jpg","0","0","1","0.2283296651","","false","91","0.2283296651","","main_expt","0.3248617863","","0.1874521573","","0.1296834551","","","","","","",""
"21","","bandit","167","564153","0.0-129.0-0.0","33995153","wem/bandit_single","A1B4WL7N3ACF2T","gain","5","","74","J","1","","0","0","1","0.3290731597","","false","92","0.2253008126","","main_expt","0.3290731597","","0.1464907128","","0.1601432093","","","","","","",""
"76","","bandit","168","566011","0.0-130.0-0.0","33995153","wem/bandit_single","A1B4WL7N3ACF2T","gain","5","","74","J","1","","1","0","0","0.2947126164","","false","93","0.1826671142","","main_expt","0.2947126164","","0.1817498408","","0.1976873148","","","","","","",""
"35","","bandit","169","567824","0.0-131.0-0.0","33995153","wem/bandit_single","A1B4WL7N3ACF2T","gain","5","","74","J","1","","0","0","1","0.2762739163","","false","94","0.1650727581","","main_expt","0.2762739163","","0.1967130988","","0.2296862911","","","","","","",""
"444","","bandit","170","570044","0.0-132.0-0.0","33995153","wem/bandit_single","A1B4WL7N3ACF2T","gain","5","","72","H","0","img/none_selected.jpg","0","0","1","0.1971582392","","false","95","0.1971582392","","main_expt","0.3184689772","","0.2294656294","","0.1990842867","","","","","","",""
"300","","bandit","171","572122","0.0-133.0-0.0","33995153","wem/bandit_single","A1B4WL7N3ACF2T","gain","5","","74","J","1","","0","0","1","0.281027734","","false","96","0.1791402521","","main_expt","0.281027734","","0.2966343553","","0.258496532","","","","","","",""
"144","","bandit","172","574041","0.0-134.0-0.0","33995153","wem/bandit_single","A1B4WL7N3ACF2T","gain","5","","75","K","2","","0","0","1","0.3346257274","","false","97","0.1516442175","","main_expt","0.2474299406","","0.3346257274","","0.2766566169","","","","","","",""
"248","","bandit","173","576063","0.0-135.0-0.0","33995153","wem/bandit_single","A1B4WL7N3ACF2T","gain","5","","76","L","3","","0","0","1","0.2377114848","","false","98","0.2200018313","","main_expt","0.2217126022","","0.3139493976","","0.2377114848","","","","","","",""
"198","","bandit","174","578042","0.0-136.0-0.0","33995153","wem/bandit_single","A1B4WL7N3ACF2T","gain","5","","76","L","3","","1","0","0","0.3124158187","","false","99","0.2752547205","","main_expt","0.2677278576","","0.2478490566","","0.3124158187","","","","","","",""
"178","","bandit","175","579990","0.0-137.0-0.0","33995153","wem/bandit_single","A1B4WL7N3ACF2T","gain","5","","76","L","3","","0","0","1","0.2059987679","","false","100","0.252850905","","main_expt","0.3271916833","","0.2602221343","","0.2059987679","","","","","","",""
"398","","bandit","176","582162","0.0-138.0-0.0","33995153","wem/bandit_single","A1B4WL7N3ACF2T","gain","5","","76","L","3","","0","0","1","0.1758265216","","false","101","0.1867047362","","main_expt","0.3066156257","","0.2584762291","","0.1758265216","","","","","","",""
"10","","bandit","177","583952","0.0-139.0-0.0","33995153","wem/bandit_single","A1B4WL7N3ACF2T","gain","5","","75","K","2","","1","0","0","0.282093771","","false","102","0.1175578895","","main_expt","0.3260250896","","0.282093771","","0.2262322791","","","","","","",""
"138","","bandit","178","585866","0.0-140.0-0.0","33995153","wem/bandit_single","A1B4WL7N3ACF2T","gain","5","","75","K","2","","0","0","1","0.2725256196","","false","103","0.09132094505","","main_expt","0.3731136732","","0.2725256196","","0.2018281434","","","","","","",""
"65","","bandit","179","587712","0.0-141.0-0.0","33995153","wem/bandit_single","A1B4WL7N3ACF2T","gain","5","","75","K","2","","0","0","1","0.2243623384","","false","104","0.1422553795","","main_expt","0.3941656488","","0.2243623384","","0.1447482012","","","","","","",""
"385","","bandit","180","589882","0.0-142.0-0.0","33995153","wem/bandit_single","A1B4WL7N3ACF2T","gain","5","","75","K","2","","1","0","0","0.2403200944","","false","105","0.1390697773","","main_expt","0.4030151573","","0.2403200944","","0.2104813725","","","","","","",""
"65","","bandit","181","591715","0.0-143.0-0.0","33995153","wem/bandit_single","A1B4WL7N3ACF2T","gain","5","","75","K","2","","0","0","1","0.2332798071","","false","106","0.1155807694","","main_expt","0.3715193073","","0.2332798071","","0.2492378957","","","","","","",""
"139","","bandit","182","593636","0.0-144.0-0.0","33995153","wem/bandit_single","A1B4WL7N3ACF2T","gain","5","","75","K","2","","1","0","0","0.181620067","","false","107","0.105728532","","main_expt","0.3837270358","","0.181620067","","0.217404121","","","","","","",""
"99","","bandit","183","595513","0.0-145.0-0.0","33995153","wem/bandit_single","A1B4WL7N3ACF2T","gain","5","","75","K","2","","0","0","1","0.2173069915","","false","108","0.08831090648","","main_expt","0.3908875135","","0.2173069915","","0.2142202377","","","","","","",""
"210","","bandit","184","597485","0.0-146.0-0.0","33995153","wem/bandit_single","A1B4WL7N3ACF2T","gain","5","","75","K","2","","0","0","1","0.226697077","","false","109","0.1043724426","","main_expt","0.3774052568","","0.226697077","","0.2683226389","","","","","","",""
"34","","bandit","185","599289","0.0-147.0-0.0","33995153","wem/bandit_single","A1B4WL7N3ACF2T","gain","5","","74","J","1","","0","0","1","0.3601275089","","false","110","0.07530108238","","main_expt","0.3601275089","","0.2695419639","","0.2619142817","","","","","","",""
"160","","bandit","186","601213","0.0-148.0-0.0","33995153","wem/bandit_single","A1B4WL7N3ACF2T","gain","5","","72","H","0","img/none_selected.jpg","0","0","1","0.05159845725","","false","111","0.05159845725","","main_expt","0.3880855357","","0.2635727161","","0.2754039507","","","","","","",""
"119","","bandit","187","603112","0.0-149.0-0.0","33995153","wem/bandit_single","A1B4WL7N3ACF2T","gain","5","","72","H","0","img/none_selected.jpg","0","0","1","0.08116028731","","false","112","0.08116028731","","main_expt","0.3864248384","","0.3202716687","","0.2721436228","","","","","","",""
"189","","bandit","188","605078","0.0-150.0-0.0","33995153","wem/bandit_single","A1B4WL7N3ACF2T","gain","5","","72","H","0","img/none_selected.jpg","0","0","1","0.08538759299","","false","113","0.08538759299","","main_expt","0.339569604","","0.3546461764","","0.2598768298","","","","","","",""
"71","","bandit","189","606927","0.0-151.0-0.0","33995153","wem/bandit_single","A1B4WL7N3ACF2T","gain","5","","74","J","1","","1","0","0","0.3612744832","","false","114","0.106551095","","main_expt","0.3612744832","","0.3339806629","","0.2271708717","","","","","","",""
"73","","bandit","190","608772","0.0-152.0-0.0","33995153","wem/bandit_single","A1B4WL7N3ACF2T","gain","5","","74","J","1","","1","0","0","0.3616298021","","false","115","0.1120532439","","main_expt","0.3616298021","","0.3175163572","","0.2382373761","","","","","","",""
"70","","bandit","191","610619","0.0-153.0-0.0","33995153","wem/bandit_single","A1B4WL7N3ACF2T","gain","5","","74","J","1","","1","0","0","0.3886586702","","false","116","0.07206247825","","main_expt","0.3886586702","","0.3626291523","","0.2092397162","","","","","","",""
"75","","bandit","192","612472","0.0-154.0-0.0","33995153","wem/bandit_single","A1B4WL7N3ACF2T","gain","5","","74","J","1","","0","0","1","0.3837198657","","false","117","0.05990892348","","main_expt","0.3837198657","","0.4005972513","","0.1790603663","","","","","","",""
"203","","bandit","193","614452","0.0-155.0-0.0","33995153","wem/bandit_single","A1B4WL7N3ACF2T","gain","5","","75","K","2","","0","0","1","0.3994725347","","false","118","0.07349038746","","main_expt","0.3831944796","","0.3994725347","","0.2515048449","","","","","","",""
"152","","bandit","194","616380","0.0-156.0-0.0","33995153","wem/bandit_single","A1B4WL7N3ACF2T","gain","5","","74","J","1","","0","0","1","0.3200080389","","false","119","0.0880416307","","main_expt","0.3200080389","","0.3690387214","","0.2591845625","","","","","","",""
"155","","bandit","195","618322","0.0-157.0-0.0","33995153","wem/bandit_single","A1B4WL7N3ACF2T","gain","5","","72","H","0","img/none_selected.jpg","0","0","1","0.08832912692","","false","120","0.08832912692","","main_expt","0.3498825307","","0.3553033444","","0.2719994365","","","","","","",""
"102","","bandit","196","620192","0.0-158.0-0.0","33995153","wem/bandit_single","A1B4WL7N3ACF2T","gain","5","","72","H","0","img/none_selected.jpg","0","0","1","0.08322673311","","false","121","0.08322673311","","main_expt","0.3150568547","","0.3558993888","","0.2511552987","","","","","","",""
"80","","bandit","197","622052","0.0-159.0-0.0","33995153","wem/bandit_single","A1B4WL7N3ACF2T","gain","5","","74","J","1","","0","0","1","0.332296042","","false","122","0.1027924146","","main_expt","0.332296042","","0.3539125929","","0.246059836","","","","","","",""
"265","","bandit","198","624097","0.0-160.0-0.0","33995153","wem/bandit_single","A1B4WL7N3ACF2T","gain","5","","75","K","2","","1","0","0","0.2756210624","","false","123","0.1112730508","","main_expt","0.3023892254","","0.2756210624","","0.201637063","","","","","","",""
"273","","bandit","199","626149","0.0-161.0-0.0","33995153","wem/bandit_single","A1B4WL7N3ACF2T","gain","5","","75","K","2","","0","0","1","0.2924451827","","false","124","0.1401536705","","main_expt","0.2971441903","","0.2924451827","","0.2424225803","","","","","","",""
"105","","bandit","200","628033","0.0-162.0-0.0","33995153","wem/bandit_single","A1B4WL7N3ACF2T","gain","5","","75","K","2","","0","0","1","0.3283550958","","false","125","0.170676821","","main_expt","0.2989687221","","0.3283550958","","0.2663511033","","","","","","",""
"10","","bandit","201","629815","0.0-163.0-0.0","33995153","wem/bandit_single","A1B4WL7N3ACF2T","gain","5","","76","L","3","","0","0","1","0.2214557307","","false","126","0.2239131839","","main_expt","0.3470717071","","0.3561713316","","0.2214557307","","","","","","",""
"106","","bandit","202","631698","0.0-164.0-0.0","33995153","wem/bandit_single","A1B4WL7N3ACF2T","gain","5","","76","L","3","","1","0","0","0.2274120533","","false","127","0.1828765327","","main_expt","0.3399927284","","0.3093512765","","0.2274120533","","","","","","",""
"66","","bandit","203","633548","0.0-165.0-0.0","33995153","wem/bandit_single","A1B4WL7N3ACF2T","gain","5","","76","L","3","","0","0","1","0.2035603578","","false","128","0.2182936746","","main_expt","0.3039142281","","0.3682433617","","0.2035603578","","","","","","",""
"47","","bandit","204","635373","0.0-166.0-0.0","33995153","wem/bandit_single","A1B4WL7N3ACF2T","gain","5","","76","L","3","","0","0","1","0.1571118888","","false","129","0.2206976306","","main_expt","0.331948561","","0.3485983391","","0.1571118888","","","","","","",""
"54","","bandit","205","637194","0.0-167.0-0.0","33995153","wem/bandit_single","A1B4WL7N3ACF2T","gain","5","","76","L","3","","0","0","1","0.08617346002","","false","130","0.1657145536","","main_expt","0.3512730473","","0.3907345736","","0.08617346002","","","","","","",""
"398","","bandit","206","639361","0.0-168.0-0.0","33995153","wem/bandit_single","A1B4WL7N3ACF2T","gain","5","","75","K","2","","0","0","1","0.3697977754","","false","131","0.2555784817","","main_expt","0.3617370935","","0.3697977754","","0.1196539686","","","","","","",""
"362","","bandit","207","641494","0.0-169.0-0.0","33995153","wem/bandit_single","A1B4WL7N3ACF2T","gain","5","","75","K","2","","1","0","0","0.3916621277","","false","132","0.287060772","","main_expt","0.3520165756","","0.3916621277","","0.1111227042","","","","","","",""
"90","","bandit","208","643356","0.0-170.0-0.0","33995153","wem/bandit_single","A1B4WL7N3ACF2T","gain","5","","75","K","2","","0","0","1","0.3437671512","","false","133","0.238965149","","main_expt","0.3863989014","","0.3437671512","","0.1223368092","","","","","","",""
"430","","bandit","209","645565","0.0-171.0-0.0","33995153","wem/bandit_single","A1B4WL7N3ACF2T","gain","5","","75","K","2","","1","0","0","0.3636108046","","false","134","0.2457001749","","main_expt","0.3391859262","","0.3636108046","","0.1001486166","","","","","","",""
"428","","bandit","210","647778","0.0-172.0-0.0","33995153","wem/bandit_single","A1B4WL7N3ACF2T","gain","5","","75","K","2","","1","0","0","0.3251377881","","false","135","0.2499382958","","main_expt","0.3700101905","","0.3251377881","","0.1179747861","","","","","","",""
"10","","bandit","211","649578","0.0-173.0-0.0","33995153","wem/bandit_single","A1B4WL7N3ACF2T","gain","5","","75","K","2","","0","0","1","0.3838305716","","false","136","0.2553087313","","main_expt","0.3002558999","","0.3838305716","","0.1167775935","","","","","","",""
"24","","bandit","212","651373","0.0-174.0-0.0","33995153","wem/bandit_single","A1B4WL7N3ACF2T","gain","5","","75","K","2","","1","0","0","0.374624825","","false","137","0.2517181947","","main_expt","0.3242357935","","0.374624825","","0.1459170178","","","","","","",""
"34","","bandit","213","653187","0.0-175.0-0.0","33995153","wem/bandit_single","A1B4WL7N3ACF2T","gain","5","","75","K","2","","0","0","1","0.36903936","","false","138","0.2531469116","","main_expt","0.3413485239","","0.36903936","","0.1403776257","","","","","","",""
"377","","bandit","214","655338","0.0-176.0-0.0","33995153","wem/bandit_single","A1B4WL7N3ACF2T","gain","5","","75","K","2","","0","0","1","0.3757762965","","false","139","0.2810662396","","main_expt","0.3172825342","","0.3757762965","","0.1647502834","","","","","","",""
"79","","bandit","215","657206","0.0-177.0-0.0","33995153","wem/bandit_single","A1B4WL7N3ACF2T","gain","5","","75","K","2","","0","0","1","0.3240643918","","false","140","0.2226737135","","main_expt","0.3683668128","","0.3240643918","","0.2135508935","","","","","","",""
"430","","bandit","216","659406","0.0-178.0-0.0","33995153","wem/bandit_single","A1B4WL7N3ACF2T","gain","5","","74","J","1","","0","0","1","0.2976824498","","false","141","0.2330331678","","main_expt","0.2976824498","","0.342151626","","0.2286669107","","","","","","",""
"110","","bandit","217","661291","0.0-179.0-0.0","33995153","wem/bandit_single","A1B4WL7N3ACF2T","gain","5","","74","J","1","","0","0","1","0.3424177608","","false","142","0.1833347363","","main_expt","0.3424177608","","0.3576151309","","0.1870561284","","","","","","",""
"101","","bandit","218","663174","0.0-180.0-0.0","33995153","wem/bandit_single","A1B4WL7N3ACF2T","gain","5","","72","H","0","img/none_selected.jpg","0","0","1","0.2063127673","","false","143","0.2063127673","","main_expt","0.3367953268","","0.3075624404","","0.220851353","","","","","","",""
"123","","bandit","219","665076","0.0-181.0-0.0","33995153","wem/bandit_single","A1B4WL7N3ACF2T","gain","5","","72","H","0","img/none_selected.jpg","0","0","1","0.24054226","","false","144","0.24054226","","main_expt","0.3446852995","","0.3666812205","","0.1581776843","","","","","","",""
"743","","bandit","220","667596","0.0-182.0-0.0","33995153","wem/bandit_single","A1B4WL7N3ACF2T","gain","5","","72","H","0","img/none_selected.jpg","0","0","1","0.3397881996","","false","145","0.3397881996","","main_expt","0.3569090532","","0.373264243","","0.1562309797","","","","","","",""
"266","","bandit","221","669636","0.0-183.0-0.0","33995153","wem/bandit_single","A1B4WL7N3ACF2T","gain","5","","74","J","1","","0","0","1","0.3546691234","","false","146","0.334771558","","main_expt","0.3546691234","","0.3588440804","","0.201277092","","","","","","",""
"367","","bandit","222","671779","0.0-184.0-0.0","33995153","wem/bandit_single","A1B4WL7N3ACF2T","gain","5","","75","K","2","","1","0","0","0.3848898601","","false","147","0.3135854179","","main_expt","0.3346193534","","0.3848898601","","0.2014254916","","","","","","",""
"61","","bandit","223","673624","0.0-185.0-0.0","33995153","wem/bandit_single","A1B4WL7N3ACF2T","gain","5","","75","K","2","","1","0","0","0.4049875018","","false","148","0.2601716543","","main_expt","0.3481099765","","0.4049875018","","0.1783642851","","","","","","",""
"168","","bandit","224","675573","0.0-186.0-0.0","33995153","wem/bandit_single","A1B4WL7N3ACF2T","gain","5","","75","K","2","","0","0","1","0.3644303146","","false","149","0.2449203511","","main_expt","0.3473239498","","0.3644303146","","0.2394621943","","","","","","",""
"206","","bandit","225","677554","0.0-187.0-0.0","33995153","wem/bandit_single","A1B4WL7N3ACF2T","gain","5","","75","K","2","","1","0","0","0.3820895465","","false","150","0.2679682766","","main_expt","0.3457177179","","0.3820895465","","0.2009439561","","","","","","",""
"51","","bandit","226","679374","0.0-188.0-0.0","33995153","wem/bandit_single","A1B4WL7N3ACF2T","gain","5","","75","K","2","","0","0","1","0.3715335383","","false","151","0.2811524043","","main_expt","0.3131990842","","0.3715335383","","0.1783838281","","","","","","",""
"201","","bandit","227","681357","0.0-189.0-0.0","33995153","wem/bandit_single","A1B4WL7N3ACF2T","gain","5","","75","K","2","","0","0","1","0.3270427106","","false","152","0.2320671432","","main_expt","0.2632978047","","0.3270427106","","0.2357029213","","","","","","",""
"892","","bandit","228","684028","0.0-190.0-0.0","33995153","wem/bandit_single","A1B4WL7N3ACF2T","gain","5","","75","K","2","","0","0","1","0.3117301263","","false","153","0.2655606304","","main_expt","0.2782579121","","0.3117301263","","0.1701289497","","","","","","",""
"189","","bandit","229","685999","0.0-191.0-0.0","33995153","wem/bandit_single","A1B4WL7N3ACF2T","gain","5","","76","L","3","","0","0","1","0.1613436629","","false","154","0.3485425359","","main_expt","0.2212449789","","0.2860829053","","0.1613436629","","","","","","",""
"672","","bandit","230","688450","0.0-192.0-0.0","33995153","wem/bandit_single","A1B4WL7N3ACF2T","gain","5","","76","L","3","","0","0","1","0.1419994917","","false","155","0.3302543019","","main_expt","0.1944586175","","0.2412247214","","0.1419994917","","","","","","",""
"121","","bandit","231","690344","0.0-193.0-0.0","33995153","wem/bandit_single","A1B4WL7N3ACF2T","gain","5","","76","L","3","","1","0","0","0.2076402971","","false","156","0.2696600886","","main_expt","0.2035424954","","0.2505935016","","0.2076402971","","","","","","",""
"64","","bandit","232","692175","0.0-194.0-0.0","33995153","wem/bandit_single","A1B4WL7N3ACF2T","gain","5","","76","L","3","","0","0","1","0.2253974945","","false","157","0.3095791192","","main_expt","0.2039725598","","0.2677381881","","0.2253974945","","","","","","",""
"200","","bandit","233","694154","0.0-195.0-0.0","33995153","wem/bandit_single","A1B4WL7N3ACF2T","gain","5","","76","L","3","","1","0","0","0.3173726248","","false","158","0.3427908005","","main_expt","0.1610126092","","0.228073272","","0.3173726248","","","","","","",""
"6","","bandit","234","695935","0.0-196.0-0.0","33995153","wem/bandit_single","A1B4WL7N3ACF2T","gain","5","","76","L","3","","1","0","0","0.2929560982","","false","159","0.3459652535","","main_expt","0.2244023171","","0.2181731157","","0.2929560982","","","","","","",""
"31","","bandit","235","697744","0.0-197.0-0.0","33995153","wem/bandit_single","A1B4WL7N3ACF2T","gain","5","","76","L","3","","0","0","1","0.2599130114","","false","160","0.3277363444","","main_expt","0.2550463449","","0.2483475363","","0.2599130114","","","","","","",""
"59","","bandit","236","699580","0.0-198.0-0.0","33995153","wem/bandit_single","A1B4WL7N3ACF2T","gain","5","","76","L","3","","0","0","1","0.3006759107","","false","161","0.3043896987","","main_expt","0.1988840894","","0.2287268475","","0.3006759107","","","","","","",""
"560","","bandit","237","701915","0.0-199.0-0.0","33995153","wem/bandit_single","A1B4WL7N3ACF2T","gain","5","","76","L","3","","0","0","1","0.3359074288","","false","162","0.3013302692","","main_expt","0.3208820199","","0.2118340618","","0.3359074288","","","","","","",""
"369","","bandit","238","704071","0.0-200.0-0.0","33995153","wem/bandit_single","A1B4WL7N3ACF2T","gain","5","","76","L","3","","1","0","0","0.3248254093","","false","163","0.3359404133","","main_expt","0.3416291965","","0.2467500447","","0.3248254093","","","","","","",""
"31","","bandit","239","705869","0.0-201.0-0.0","33995153","wem/bandit_single","A1B4WL7N3ACF2T","gain","5","","76","L","3","","1","0","0","0.2480447101","","false","164","0.3449747326","","main_expt","0.3531125991","","0.2745506496","","0.2480447101","","","","","","",""
"218","","bandit","240","707874","0.0-202.0-0.0","33995153","wem/bandit_single","A1B4WL7N3ACF2T","gain","5","","76","L","3","","0","0","1","0.2291527929","","false","165","0.3388680014","","main_expt","0.3329293945","","0.2893970703","","0.2291527929","","","","","","",""
"515","","bandit","241","710164","0.0-203.0-0.0","33995153","wem/bandit_single","A1B4WL7N3ACF2T","gain","5","","76","L","3","","1","0","0","0.2408823094","","false","166","0.3565097084","","main_expt","0.368824295","","0.326956194","","0.2408823094","","","","","","",""
"355","","bandit","242","712299","0.0-204.0-0.0","33995153","wem/bandit_single","A1B4WL7N3ACF2T","gain","5","","76","L","3","","0","0","1","0.1852653973","","false","167","0.3807311224","","main_expt","0.3528049135","","0.2562538154","","0.1852653973","","","","","","",""
"25","","bandit","243","714091","0.0-205.0-0.0","33995153","wem/bandit_single","A1B4WL7N3ACF2T","gain","5","","76","L","3","","0","0","1","0.1123614246","","false","168","0.4157533759","","main_expt","0.3530437727","","0.259707785","","0.1123614246","","","","","","",""
"491","","bandit","244","716361","0.0-206.0-0.0","33995153","wem/bandit_single","A1B4WL7N3ACF2T","gain","5","","76","L","3","","0","0","1","0.1289140747","","false","169","0.3990846218","","main_expt","0.3619584092","","0.305903145","","0.1289140747","","","","","","",""
"301","","bandit","245","718447","0.0-207.0-0.0","33995153","wem/bandit_single","A1B4WL7N3ACF2T","gain","5","","75","K","2","","0","0","1","0.2780458482","","false","170","0.3840903594","","main_expt","0.3851568221","","0.2780458482","","0.1082073398","","","","","","",""
"263","","bandit","246","720495","0.0-208.0-0.0","33995153","wem/bandit_single","A1B4WL7N3ACF2T","gain","5","","75","K","2","","0","0","1","0.2754425626","","false","171","0.4279034191","","main_expt","0.369821393","","0.2754425626","","0.09560917383","","","","","","",""
"49","","bandit","247","722318","0.0-209.0-0.0","33995153","wem/bandit_single","A1B4WL7N3ACF2T","gain","5","","75","K","2","","0","0","1","0.2801866594","","false","172","0.4277210969","","main_expt","0.3238500873","","0.2801866594","","0.09002122866","","","","","","",""
"355","","bandit","248","724451","0.0-210.0-0.0","33995153","wem/bandit_single","A1B4WL7N3ACF2T","gain","5","","72","H","0","img/none_selected.jpg","0","0","1","0.4177409887","","false","173","0.4177409887","","main_expt","0.371178543","","0.2903169923","","0.06359212806","","","","","","",""
"235","","bandit","249","726457","0.0-211.0-0.0","33995153","wem/bandit_single","A1B4WL7N3ACF2T","gain","5","","72","H","0","img/none_selected.jpg","1","0","0","0.4149019111","","false","174","0.4149019111","","main_expt","0.364968973","","0.3135769273","","0.07897407323","","","","","","",""
"0","","bandit","250","728229","0.0-212.0-0.0","33995153","wem/bandit_single","A1B4WL7N3ACF2T","gain","5","","72","H","0","img/none_selected.jpg","0","0","1","0.3890834012","","false","175","0.3890834012","","main_expt","0.4172857806","","0.3205535054","","0.05374651045","","","","","","",""
"330","","bandit","251","730330","0.0-213.0-0.0","33995153","wem/bandit_single","A1B4WL7N3ACF2T","gain","5","","72","H","0","img/none_selected.jpg","0","0","1","0.3775492635","","false","176","0.3775492635","","main_expt","0.3931137538","","0.3548310205","","0.05298342689","","","","","","",""
"281","","bandit","252","732387","0.0-214.0-0.0","33995153","wem/bandit_single","A1B4WL7N3ACF2T","gain","5","","72","H","0","img/none_selected.jpg","0","0","1","0.2763311933","","false","177","0.2763311933","","main_expt","0.4118750583","","0.3374760958","","0.04117570961","","","","","","",""
"258","","bandit","253","734428","0.0-215.0-0.0","33995153","wem/bandit_single","A1B4WL7N3ACF2T","gain","5","","74","J","1","","1","0","0","0.4019835374","","false","178","0.2117274321","","main_expt","0.4019835374","","0.3045899674","","0.0682688674","","","","","","",""
"107","","bandit","254","736312","0.0-216.0-0.0","33995153","wem/bandit_single","A1B4WL7N3ACF2T","gain","5","","74","J","1","","0","0","1","0.3943962464","","false","179","0.2071796451","","main_expt","0.3943962464","","0.2701203387","","0.0699035784","","","","","","",""
"96","","bandit","255","738195","0.0-217.0-0.0","33995153","wem/bandit_single","A1B4WL7N3ACF2T","gain","5","","74","J","1","","0","0","1","0.3879360396","","false","180","0.2237333922","","main_expt","0.3879360396","","0.3010541938","","0.08066818268","","","","","","",""
"108","","bandit","256","740076","0.0-218.0-0.0","33995153","wem/bandit_single","A1B4WL7N3ACF2T","gain","5","","72","H","0","img/none_selected.jpg","0","0","1","0.1462221579","","false","181","0.1462221579","","main_expt","0.3516035239","","0.2685782119","","0.06418194011","","","","","","",""
"428","","bandit","257","742288","0.0-219.0-0.0","33995153","wem/bandit_single","A1B4WL7N3ACF2T","gain","5","","72","H","0","img/none_selected.jpg","1","0","0","0.1745001591","","false","182","0.1745001591","","main_expt","0.3544849886","","0.2333395507","","0.05948248489","","","","","","",""
"66","","bandit","258","744136","0.0-220.0-0.0","33995153","wem/bandit_single","A1B4WL7N3ACF2T","gain","5","","72","H","0","img/none_selected.jpg","0","0","1","0.1840457003","","false","183","0.1840457003","","main_expt","0.3239224462","","0.1817222791","","0.04249263759","","","","","","",""
"245","","bandit","259","746161","0.0-221.0-0.0","33995153","wem/bandit_single","A1B4WL7N3ACF2T","gain","5","","72","H","0","img/none_selected.jpg","0","0","1","0.1684271963","","false","184","0.1684271963","","main_expt","0.3437575642","","0.1946528514","","0.05174265856","","","","","","",""
"42","","bandit","260","747986","0.0-222.0-0.0","33995153","wem/bandit_single","A1B4WL7N3ACF2T","gain","5","","74","J","1","","0","0","1","0.3584643827","","false","185","0.1820742113","","main_expt","0.3584643827","","0.1998780622","","0.04700335152","","","","","","",""
"301","","bandit","261","750056","0.0-223.0-0.0","33995153","wem/bandit_single","A1B4WL7N3ACF2T","gain","5","","75","K","2","","1","0","0","0.2674223733","","false","186","0.2156320388","","main_expt","0.3968797112","","0.2674223733","","0.0651928762","","","","","","",""
"84","","bandit","262","751926","0.0-224.0-0.0","33995153","wem/bandit_single","A1B4WL7N3ACF2T","gain","5","","75","K","2","","0","0","1","0.2625155344","","false","187","0.2805416817","","main_expt","0.3851297664","","0.2625155344","","0.1006801651","","","","","","",""
"74","","bandit","263","753778","0.0-225.0-0.0","33995153","wem/bandit_single","A1B4WL7N3ACF2T","gain","5","","76","L","3","","1","0","0","0.1650650448","","false","188","0.255869765","","main_expt","0.3861445831","","0.2428845682","","0.1650650448","","","","","","",""
"352","","bandit","264","755911","0.0-226.0-0.0","33995153","wem/bandit_single","A1B4WL7N3ACF2T","gain","5","","76","L","3","","0","0","1","0.1545550266","","false","189","0.1757761595","","main_expt","0.3904601473","","0.2017656849","","0.1545550266","","","","","","",""
"162","","bandit","265","757851","0.0-227.0-0.0","33995153","wem/bandit_single","A1B4WL7N3ACF2T","gain","5","","75","K","2","","0","0","1","0.2163316772","","false","190","0.1346649685","","main_expt","0.430863334","","0.2163316772","","0.187471884","","","","","","",""
"391","","bandit","266","760026","0.0-228.0-0.0","33995153","wem/bandit_single","A1B4WL7N3ACF2T","gain","5","","75","K","2","","0","0","1","0.2055350187","","false","191","0.1132332922","","main_expt","0.4113524325","","0.2055350187","","0.1611513775","","","","","","",""
"70","","bandit","267","761876","0.0-229.0-0.0","33995153","wem/bandit_single","A1B4WL7N3ACF2T","gain","5","","76","L","3","","1","0","0","0.1777959463","","false","192","0.1208943264","","main_expt","0.4039805352","","0.1895719249","","0.1777959463","","","","","","",""
"605","","bandit","268","764259","0.0-230.0-0.0","33995153","wem/bandit_single","A1B4WL7N3ACF2T","gain","5","","76","L","3","","0","0","1","0.1871499601","","false","193","0.1939792015","","main_expt","0.4245567291","","0.1748526562","","0.1871499601","","","","","","",""
"55","","bandit","269","766081","0.0-231.0-0.0","33995153","wem/bandit_single","A1B4WL7N3ACF2T","gain","5","","76","L","3","","0","0","1","0.1876497678","","false","194","0.16637132","","main_expt","0.3947968319","","0.1474168317","","0.1876497678","","","","","","",""
"85","","bandit","270","767950","0.0-232.0-0.0","33995153","wem/bandit_single","A1B4WL7N3ACF2T","gain","5","","76","L","3","","0","0","1","0.1091892437","","false","195","0.1730885183","","main_expt","0.4142863389","","0.192031623","","0.1091892437","","","","","","",""
"301","","bandit","271","770028","0.0-233.0-0.0","33995153","wem/bandit_single","A1B4WL7N3ACF2T","gain","5","","75","K","2","","1","0","0","0.2058404012","","false","196","0.215114198","","main_expt","0.4233691667","","0.2058404012","","0.1617114059","","","","","","",""
"263","","bandit","272","772073","0.0-234.0-0.0","33995153","wem/bandit_single","A1B4WL7N3ACF2T","gain","5","","75","K","2","","0","0","1","0.2424759238","","false","197","0.2080771369","","main_expt","0.3910113043","","0.2424759238","","0.1704243662","","","","","","",""
"170","","bandit","273","774016","0.0-235.0-0.0","33995153","wem/bandit_single","A1B4WL7N3ACF2T","gain","5","","75","K","2","","1","0","0","0.2209877853","","false","198","0.2349601263","","main_expt","0.4036427912","","0.2209877853","","0.1547158464","","","","","","",""
"25","","bandit","274","775816","0.0-236.0-0.0","33995153","wem/bandit_single","A1B4WL7N3ACF2T","gain","5","","75","K","2","","0","0","1","0.2167038869","","false","199","0.2603506135","","main_expt","0.4211573591","","0.2167038869","","0.1871633293","","","","","","",""
"446","","bandit","275","778039","0.0-237.0-0.0","33995153","wem/bandit_single","A1B4WL7N3ACF2T","gain","5","","75","K","2","","0","0","1","0.1923465651","","false","200","0.3238520586","","main_expt","0.4279321675","","0.1923465651","","0.2044595191","","","","","","",""
"228","","bandit","276","780048","0.0-238.0-0.0","33995153","wem/bandit_single","A1B4WL7N3ACF2T","gain","5","","75","K","2","","1","0","0","0.2292217674","","false","201","0.3006478669","","main_expt","0.4164542871","","0.2292217674","","0.2260370877","","","","","","",""
"187","","bandit","277","782010","0.0-239.0-0.0","33995153","wem/bandit_single","A1B4WL7N3ACF2T","gain","5","","75","K","2","","0","0","1","0.2458551357","","false","202","0.2728804465","","main_expt","0.4304584766","","0.2458551357","","0.2543806879","","","","","","",""
"137","","bandit","278","783919","0.0-240.0-0.0","33995153","wem/bandit_single","A1B4WL7N3ACF2T","gain","5","","75","K","2","","1","0","0","0.2388066436","","false","203","0.3070028205","","main_expt","0.4301844238","","0.2388066436","","0.248330882","","","","","","",""
"167","","bandit","279","785869","0.0-241.0-0.0","33995153","wem/bandit_single","A1B4WL7N3ACF2T","gain","5","","75","K","2","","0","0","1","0.2087278664","","false","204","0.2937269753","","main_expt","0.3900297032","","0.2087278664","","0.272777159","","","","","","",""
"265","","bandit","280","787908","0.0-242.0-0.0","33995153","wem/bandit_single","A1B4WL7N3ACF2T","gain","5","","75","K","2","","0","0","1","0.1498191458","","false","205","0.2378968556","","main_expt","0.3928583167","","0.1498191458","","0.3434557908","","","","","","",""
"82","","bandit","281","789778","0.0-243.0-0.0","33995153","wem/bandit_single","A1B4WL7N3ACF2T","gain","5","","72","H","0","img/none_selected.jpg","1","0","0","0.2621799838","","false","206","0.2621799838","","main_expt","0.4066069638","","0.1173401749","","0.3670462125","","","","","","",""
"115","","bandit","282","791669","0.0-244.0-0.0","33995153","wem/bandit_single","A1B4WL7N3ACF2T","gain","5","","72","H","0","img/none_selected.jpg","0","0","1","0.2751860601","","false","207","0.2751860601","","main_expt","0.3973448409","","0.131911627","","0.3762900352","","","","","","",""
"225","","bandit","283","793666","0.0-245.0-0.0","33995153","wem/bandit_single","A1B4WL7N3ACF2T","gain","5","","72","H","0","img/none_selected.jpg","0","0","1","0.2449975294","","false","208","0.2449975294","","main_expt","0.4149937731","","0.121614138","","0.3619644859","","","","","","",""
"138","","bandit","284","795577","0.0-246.0-0.0","33995153","wem/bandit_single","A1B4WL7N3ACF2T","gain","5","","72","H","0","img/none_selected.jpg","1","0","0","0.2260792918","","false","209","0.2260792918","","main_expt","0.4174336027","","0.1301565943","","0.3487947413","","","","","","",""
"211","","bandit","285","797561","0.0-247.0-0.0","33995153","wem/bandit_single","A1B4WL7N3ACF2T","gain","5","","72","H","0","img/none_selected.jpg","0","0","1","0.2506868781","","false","210","0.2506868781","","main_expt","0.3969791934","","0.09603783024","","0.3019817091","","","","","","",""
"271","","bandit","286","799611","0.0-248.0-0.0","33995153","wem/bandit_single","A1B4WL7N3ACF2T","gain","5","","72","H","0","img/none_selected.jpg","1","0","0","0.2364470615","","false","211","0.2364470615","","main_expt","0.4109689779","","0.09853312819","","0.3322841588","","","","","","",""
"50","","bandit","287","801430","0.0-249.0-0.0","33995153","wem/bandit_single","A1B4WL7N3ACF2T","gain","5","","72","H","0","img/none_selected.jpg","0","0","1","0.2097336517","","false","212","0.2097336517","","main_expt","0.3870841375","","0.08497623984","","0.3257981887","","","","","","",""
"109","","bandit","288","803325","0.0-250.0-0.0","33995153","wem/bandit_single","A1B4WL7N3ACF2T","gain","5","","72","H","0","img/none_selected.jpg","0","0","1","0.223293056","","false","213","0.223293056","","main_expt","0.3702451026","","0.0690536233","","0.299150427","","","","","","",""
"49","","bandit","289","805147","0.0-251.0-0.0","33995153","wem/bandit_single","A1B4WL7N3ACF2T","gain","5","","72","H","0","img/none_selected.jpg","0","0","1","0.2797804449","","false","214","0.2797804449","","main_expt","0.4052473305","","0.05607702273","","0.2841516905","","","","","","",""
"86","","bandit","290","807012","0.0-252.0-0.0","33995153","wem/bandit_single","A1B4WL7N3ACF2T","gain","5","","72","H","0","img/none_selected.jpg","1","0","0","0.3307304153","","false","215","0.3307304153","","main_expt","0.4003088938","","0.0612243178","","0.2421432752","","","","","","",""
"78","","bandit","291","808867","0.0-253.0-0.0","33995153","wem/bandit_single","A1B4WL7N3ACF2T","gain","5","","72","H","0","img/none_selected.jpg","0","0","1","0.3341057131","","false","216","0.3341057131","","main_expt","0.4087675299","","0.03010565971","","0.1705338946","","","","","","",""
"315","","bandit","292","810951","0.0-254.0-0.0","33995153","wem/bandit_single","A1B4WL7N3ACF2T","gain","5","","72","H","0","img/none_selected.jpg","0","0","1","0.3086359365","","false","217","0.3086359365","","main_expt","0.3947963157","","0.05034411961","","0.219014384","","","","","","",""
"941","","bandit","293","813669","0.0-255.0-0.0","33995153","wem/bandit_single","A1B4WL7N3ACF2T","gain","5","","72","H","0","img/none_selected.jpg","1","0","0","0.370061562","","false","218","0.370061562","","main_expt","0.4200256015","","0.03278593655","","0.2135739311","","","","","","",""
"16","","bandit","294","815462","0.0-256.0-0.0","33995153","wem/bandit_single","A1B4WL7N3ACF2T","gain","5","","72","H","0","img/none_selected.jpg","0","0","1","0.3425962001","","false","219","0.3425962001","","main_expt","0.3845181055","","0.02968551415","","0.1719688778","","","","","","",""
"427","","bandit","295","817664","0.0-257.0-0.0","33995153","wem/bandit_single","A1B4WL7N3ACF2T","gain","5","","72","H","0","img/none_selected.jpg","0","0","1","0.3200162658","","false","220","0.3200162658","","main_expt","0.3200105211","","0.03392365282","","0.1017501311","","","","","","",""
"147","","bandit","296","819587","0.0-258.0-0.0","33995153","wem/bandit_single","A1B4WL7N3ACF2T","gain","5","","72","H","0","img/none_selected.jpg","1","0","0","0.3209906652","","false","221","0.3209906652","","main_expt","0.297673658","","0.03139192041","","0.1121412156","","","","","","",""
"237","","bandit","297","821597","0.0-259.0-0.0","33995153","wem/bandit_single","A1B4WL7N3ACF2T","gain","5","","72","H","0","img/none_selected.jpg","0","0","1","0.3013890172","","false","222","0.3013890172","","main_expt","0.2963768597","","0.02842311261","","0.1091313961","","","","","","",""
"315","","bandit","298","823691","0.0-260.0-0.0","33995153","wem/bandit_single","A1B4WL7N3ACF2T","gain","5","","72","H","0","img/none_selected.jpg","0","0","1","0.2614115174","","false","223","0.2614115174","","main_expt","0.2927297303","","0.0287580325","","0.09983876589","","","","","","",""
"130","","bandit","299","825599","0.0-261.0-0.0","33995153","wem/bandit_single","A1B4WL7N3ACF2T","gain","5","","72","H","0","img/none_selected.jpg","0","0","1","0.2490141009","","false","224","0.2490141009","","main_expt","0.2751498343","","0.02300930076","","0.1018501693","","","","","","",""
"90","","bandit","300","827468","0.0-262.0-0.0","33995153","wem/bandit_single","A1B4WL7N3ACF2T","gain","5","","72","H","0","img/none_selected.jpg","1","0","0","0.263459589","","false","225","0.263459589","","main_expt","0.2377617529","","0.02989568437","","0.1222407881","","","","","","",""
"170","","bandit","301","829424","0.0-263.0-0.0","33995153","wem/bandit_single","A1B4WL7N3ACF2T","gain","5","","72","H","0","img/none_selected.jpg","0","0","1","0.2828917593","","false","226","0.2828917593","","main_expt","0.2137681397","","0.04233903912","","0.1332846515","","","","","","",""
"57","","bandit","302","831257","0.0-264.0-0.0","33995153","wem/bandit_single","A1B4WL7N3ACF2T","gain","5","","72","H","0","img/none_selected.jpg","0","0","1","0.2635957152","","false","227","0.2635957152","","main_expt","0.1830623781","","0.0317259717","","0.1606351014","","","","","","",""
"487","","bandit","303","833529","0.0-265.0-0.0","33995153","wem/bandit_single","A1B4WL7N3ACF2T","gain","5","","75","K","2","","0","0","1","0.04253553249","","false","228","0.259674247","","main_expt","0.1665925442","","0.04253553249","","0.1292420082","","","","","","",""
"103","","bandit","304","835408","0.0-266.0-0.0","33995153","wem/bandit_single","A1B4WL7N3ACF2T","gain","5","","75","K","2","","0","0","1","0.06761640147","","false","229","0.2737318667","","main_expt","0.2136718414","","0.06761640147","","0.1281284096","","","","","","",""
"80","","bandit","305","837261","0.0-267.0-0.0","33995153","wem/bandit_single","A1B4WL7N3ACF2T","gain","5","","75","K","2","","0","0","1","0.08572380951","","false","230","0.3195589589","","main_expt","0.2435987791","","0.08572380951","","0.0791291566","","","","","","",""
"130","","bandit","306","839171","0.0-268.0-0.0","33995153","wem/bandit_single","A1B4WL7N3ACF2T","gain","5","","72","H","0","img/none_selected.jpg","0","0","1","0.3304270948","","false","231","0.3304270948","","main_expt","0.2566168121","","0.07272236896","","0.10920453","","","","","","",""
"129","","bandit","307","841077","0.0-269.0-0.0","33995153","wem/bandit_single","A1B4WL7N3ACF2T","gain","5","","72","H","0","img/none_selected.jpg","0","0","1","0.2806951239","","false","232","0.2806951239","","main_expt","0.2152843379","","0.0735724775","","0.167261158","","","","","","",""
"206","","bandit","308","843060","0.0-270.0-0.0","33995153","wem/bandit_single","A1B4WL7N3ACF2T","gain","5","","72","H","0","img/none_selected.jpg","0","0","1","0.3115261247","","false","233","0.3115261247","","main_expt","0.2361400262","","0.06465645962","","0.1078973024","","","","","","",""
"48","","bandit","309","844884","0.0-271.0-0.0","33995153","wem/bandit_single","A1B4WL7N3ACF2T","gain","5","","74","J","1","","1","0","0","0.2575526348","","false","234","0.3001083946","","main_expt","0.2575526348","","0.04279198238","","0.2366146445","","","","","","",""
"215","","bandit","310","846880","0.0-272.0-0.0","33995153","wem/bandit_single","A1B4WL7N3ACF2T","gain","5","","74","J","1","","0","0","1","0.2828430508","","false","235","0.2768541542","","main_expt","0.2828430508","","0.06672803397","","0.2393051992","","","","","","",""
"64","","bandit","311","848720","0.0-273.0-0.0","33995153","wem/bandit_single","A1B4WL7N3ACF2T","gain","5","","74","J","1","","1","0","0","0.2860482958","","false","236","0.332362789","","main_expt","0.2860482958","","0.07100342573","","0.2976693115","","","","","","",""
"114","","bandit","312","850607","0.0-274.0-0.0","33995153","wem/bandit_single","A1B4WL7N3ACF2T","gain","5","","74","J","1","","0","0","1","0.2783023894","","false","237","0.3408832027","","main_expt","0.2783023894","","0.03680589181","","0.2674299269","","","","","","",""
"541","","bandit","313","852922","0.0-275.0-0.0","33995153","wem/bandit_single","A1B4WL7N3ACF2T","gain","5","","74","J","1","","1","0","0","0.2644861187","","false","238","0.362117859","","main_expt","0.2644861187","","0.02733344458","","0.2647207175","","","","","","",""
"176","","bandit","314","854878","0.0-276.0-0.0","33995153","wem/bandit_single","A1B4WL7N3ACF2T","gain","5","","74","J","1","","0","0","1","0.3186717024","","false","239","0.3574250999","","main_expt","0.3186717024","","0.01831396817","","0.1936342125","","","","","","",""
"24","","bandit","315","856678","0.0-277.0-0.0","33995153","wem/bandit_single","A1B4WL7N3ACF2T","gain","5","","74","J","1","","0","0","1","0.3360375491","","false","240","0.290436356","","main_expt","0.3360375491","","0.01383764992","","0.2382432393","","","","","","",""
"175","","bandit","316","858649","0.0-278.0-0.0","33995153","wem/bandit_single","A1B4WL7N3ACF2T","gain","5","","75","K","2","","0","0","1","0.0277662638","","false","241","0.3414967811","","main_expt","0.3386213473","","0.0277662638","","0.2984572788","","","","","","",""
"210","","bandit","317","860641","0.0-279.0-0.0","33995153","wem/bandit_single","A1B4WL7N3ACF2T","gain","5","","75","K","2","","0","0","1","0.04064120638","","false","242","0.3778608287","","main_expt","0.3523037021","","0.04064120638","","0.2927867707","","","","","","",""
"66","","bandit","318","862490","0.0-280.0-0.0","33995153","wem/bandit_single","A1B4WL7N3ACF2T","gain","5","","75","K","2","","0","0","1","0.04640587852","","false","243","0.3552630766","","main_expt","0.360543067","","0.04640587852","","0.2870713985","","","","","","",""
"10","","bandit","319","864280","0.0-281.0-0.0","33995153","wem/bandit_single","A1B4WL7N3ACF2T","gain","5","","72","H","0","img/none_selected.jpg","0","0","1","0.3538674815","","false","244","0.3538674815","","main_expt","0.3728786331","","0.06567084485","","0.2882437102","","","","","","",""
"31","","bandit","320","866079","0.0-282.0-0.0","33995153","wem/bandit_single","A1B4WL7N3ACF2T","gain","5","","72","H","0","img/none_selected.jpg","1","0","0","0.3592745223","","false","245","0.3592745223","","main_expt","0.3736501537","","0.1069305933","","0.3125457984","","","","","","",""
"50","","bandit","321","867903","0.0-283.0-0.0","33995153","wem/bandit_single","A1B4WL7N3ACF2T","gain","5","","72","H","0","img/none_selected.jpg","0","0","1","0.3784559109","","false","246","0.3784559109","","main_expt","0.3880614915","","0.07318543846","","0.2949331023","","","","","","",""
"343","","bandit","322","870021","0.0-284.0-0.0","33995153","wem/bandit_single","A1B4WL7N3ACF2T","gain","5","","72","H","0","img/none_selected.jpg","0","0","1","0.3871101473","","false","247","0.3871101473","","main_expt","0.3906355486","","0.06866628372","","0.3557375168","","","","","","",""
"227","","bandit","323","872019","0.0-285.0-0.0","33995153","wem/bandit_single","A1B4WL7N3ACF2T","gain","5","","72","H","0","img/none_selected.jpg","0","0","1","0.366594806","","false","248","0.366594806","","main_expt","0.3713177951","","0.06101724449","","0.3190142928","","","","","","",""
"379","","bandit","324","874168","0.0-286.0-0.0","33995153","wem/bandit_single","A1B4WL7N3ACF2T","gain","5","","72","H","0","img/none_selected.jpg","0","0","1","0.35265903","","false","249","0.35265903","","main_expt","0.2887643678","","0.07132197128","","0.2946857214","","","","","","",""
"797","","bandit","325","876730","0.0-287.0-0.0","33995153","wem/bandit_single","A1B4WL7N3ACF2T","gain","5","","72","H","0","img/none_selected.jpg","0","0","1","0.3725690128","","false","250","0.3725690128","","main_expt","0.3503459773","","0.04991986053","","0.285145352","","","","","","",""
"384","","bandit","326","878893","0.0-288.0-0.0","33995153","wem/bandit_single","A1B4WL7N3ACF2T","gain","5","","72","H","0","img/none_selected.jpg","0","0","1","0.3516217444","","false","251","0.3516217444","","main_expt","0.3900307368","","0.087584861","","0.2572530626","","","","","","",""
"64","","bandit","327","880735","0.0-289.0-0.0","33995153","wem/bandit_single","A1B4WL7N3ACF2T","gain","5","","75","K","2","","0","0","1","0.1089760904","","false","252","0.3478664427","","main_expt","0.3998204568","","0.1089760904","","0.206609756","","","","","","",""
"1500","","bandit","328","884014","0.0-290.0-0.0","33995153","wem/bandit_single","A1B4WL7N3ACF2T","gain","5","","75","K","2","","0","0","1","0.1389783028","","false","253","0.2845216812","","main_expt","0.4062214202","","0.1389783028","","0.2526850855","","","","","","",""
"556","","bandit","329","886339","0.0-291.0-0.0","33995153","wem/bandit_single","A1B4WL7N3ACF2T","gain","5","","75","K","2","","0","0","1","0.1438582992","","false","254","0.3395138109","","main_expt","0.434330363","","0.1438582992","","0.2143143283","","","","","","",""
"4","","bandit","330","888122","0.0-292.0-0.0","33995153","wem/bandit_single","A1B4WL7N3ACF2T","gain","5","","75","K","2","","0","0","1","0.1341592381","","false","255","0.284072963","","main_expt","0.463361135","","0.1341592381","","0.2330346229","","","","","","",""
"1033","","bandit","331","890930","0.0-293.0-0.0","33995153","wem/bandit_single","A1B4WL7N3ACF2T","gain","5","","74","J","1","","1","0","0","0.4513325925","","false","256","0.2791977035","","main_expt","0.4513325925","","0.1539827047","","0.1707848091","","","","","","",""
"471","","bandit","332","893191","0.0-294.0-0.0","33995153","wem/bandit_single","A1B4WL7N3ACF2T","gain","5","","74","J","1","","0","0","1","0.4493477618","","false","257","0.2827618753","","main_expt","0.4493477618","","0.1067893116","","0.204762461","","","","","","",""
"308","","bandit","333","895269","0.0-295.0-0.0","33995153","wem/bandit_single","A1B4WL7N3ACF2T","gain","5","","74","J","1","","1","0","0","0.4586876348","","false","258","0.2367173663","","main_expt","0.4586876348","","0.05021154971","","0.1678630312","","","","","","",""
"26","","bandit","334","897067","0.0-296.0-0.0","33995153","wem/bandit_single","A1B4WL7N3ACF2T","gain","5","","74","J","1","","0","0","1","0.45931789","","false","259","0.2715647874","","main_expt","0.45931789","","0.04357518244","","0.1739170557","","","","","","",""
"218","","bandit","335","899074","0.0-297.0-0.0","33995153","wem/bandit_single","A1B4WL7N3ACF2T","gain","5","","74","J","1","","0","0","1","0.4583289396","","false","260","0.2310951927","","main_expt","0.4583289396","","0.05606835832","","0.1848885371","","","","","","",""
"117","","bandit","336","900979","0.0-298.0-0.0","33995153","wem/bandit_single","A1B4WL7N3ACF2T","gain","5","","74","J","1","","1","0","0","0.4470277171","","false","261","0.2297288133","","main_expt","0.4470277171","","0.05035703518","","0.2258440324","","","","","","",""
"126","","bandit","337","902883","0.0-299.0-0.0","33995153","wem/bandit_single","A1B4WL7N3ACF2T","gain","5","","74","J","1","","0","0","1","0.457772586","","false","262","0.2072969611","","main_expt","0.457772586","","0.04352905051","","0.2167220908","","","","","","",""
"103","","bandit","338","904769","0.0-300.0-0.0","33995153","wem/bandit_single","A1B4WL7N3ACF2T","gain","5","","74","J","1","","1","0","0","0.417694616","","false","263","0.2427077321","","main_expt","0.417694616","","0.0373968872","","0.2118780444","","","","","","",""
"121","","bandit","339","906674","0.0-301.0-0.0","33995153","wem/bandit_single","A1B4WL7N3ACF2T","gain","5","","74","J","1","","0","0","1","0.4214939516","","false","264","0.3052561595","","main_expt","0.4214939516","","0.04440415955","","0.1870566281","","","","","","",""
"146","","bandit","340","908603","0.0-302.0-0.0","33995153","wem/bandit_single","A1B4WL7N3ACF2T","gain","5","","74","J","1","","1","0","0","0.413465883","","false","265","0.3000319327","","main_expt","0.413465883","","0.0139225964","","0.1706127143","","","","","","",""
"140","","bandit","341","910523","0.0-303.0-0.0","33995153","wem/bandit_single","A1B4WL7N3ACF2T","gain","5","","74","J","1","","1","0","0","0.4116424673","","false","266","0.3134404232","","main_expt","0.4116424673","","0.01259799349","","0.1693140566","","","","","","",""
"112","","bandit","342","912412","0.0-304.0-0.0","33995153","wem/bandit_single","A1B4WL7N3ACF2T","gain","5","","74","J","1","","0","0","1","0.3863145418","","false","267","0.3066387991","","main_expt","0.3863145418","","0.00740451457","","0.1753800763","","","","","","",""
"101","","bandit","343","914302","0.0-305.0-0.0","33995153","wem/bandit_single","A1B4WL7N3ACF2T","gain","5","","74","J","1","","1","0","0","0.4265221664","","false","268","0.3058482798","","main_expt","0.4265221664","","0.004693585052","","0.1918786918","","","","","","",""
"130","","bandit","344","916204","0.0-306.0-0.0","33995153","wem/bandit_single","A1B4WL7N3ACF2T","gain","5","","74","J","1","","0","0","1","0.4515898034","","false","269","0.2523051309","","main_expt","0.4515898034","","0.004824061053","","0.1999989265","","","","","","",""
"183","","bandit","345","918179","0.0-307.0-0.0","33995153","wem/bandit_single","A1B4WL7N3ACF2T","gain","5","","74","J","1","","0","0","1","0.4467147125","","false","270","0.2663701485","","main_expt","0.4467147125","","0.006174480496","","0.2211747839","","","","","","",""
"151","","bandit","346","920109","0.0-308.0-0.0","33995153","wem/bandit_single","A1B4WL7N3ACF2T","gain","5","","74","J","1","","1","0","0","0.4582909467","","false","271","0.2485798686","","main_expt","0.4582909467","","0.00832103917","","0.2404792593","","","","","","",""
"165","","bandit","347","922053","0.0-309.0-0.0","33995153","wem/bandit_single","A1B4WL7N3ACF2T","gain","5","","74","J","1","","1","0","0","0.4709209778","","false","272","0.2345495347","","main_expt","0.4709209778","","0.00728594366","","0.2558589782","","","","","","",""
"138","","bandit","348","923971","0.0-310.0-0.0","33995153","wem/bandit_single","A1B4WL7N3ACF2T","gain","5","","74","J","1","","1","0","0","0.4660917397","","false","273","0.2137032991","","main_expt","0.4660917397","","0.01114453755","","0.1700432942","","","","","","",""
"203","","bandit","349","925949","0.0-311.0-0.0","33995153","wem/bandit_single","A1B4WL7N3ACF2T","gain","5","","74","J","1","","1","0","0","0.4639522763","","false","274","0.2108512091","","main_expt","0.4639522763","","0.01390500062","","0.2452429789","","","","","","",""
"181","","bandit","350","927919","0.0-312.0-0.0","33995153","wem/bandit_single","A1B4WL7N3ACF2T","gain","5","","74","J","1","","1","0","0","0.4559735555","","false","275","0.1817434844","","main_expt","0.4559735555","","0.01307999715","","0.2540496776","","","","","","",""
"92","","bandit","351","929789","0.0-313.0-0.0","33995153","wem/bandit_single","A1B4WL7N3ACF2T","gain","5","","74","J","1","","0","0","1","0.4246507461","","false","276","0.2037179719","","main_expt","0.4246507461","","0.01650166306","","0.2816965905","","","","","","",""
"253","","bandit","352","931829","0.0-314.0-0.0","33995153","wem/bandit_single","A1B4WL7N3ACF2T","gain","5","","74","J","1","","1","0","0","0.4061878557","","false","277","0.211691867","","main_expt","0.4061878557","","0.02228120093","","0.2757967379","","","","","","",""
"212","","bandit","353","933825","0.0-315.0-0.0","33995153","wem/bandit_single","A1B4WL7N3ACF2T","gain","5","","74","J","1","","0","0","1","0.4185559707","","false","278","0.1725584367","","main_expt","0.4185559707","","0.01609054627","","0.3233086266","","","","","","",""
"289","","bandit","354","935899","0.0-316.0-0.0","33995153","wem/bandit_single","A1B4WL7N3ACF2T","gain","5","","74","J","1","","0","0","1","0.4048416859","","false","279","0.1976152383","","main_expt","0.4048416859","","0.03276024715","","0.3447853064","","","","","","",""
"192","","bandit","355","937869","0.0-317.0-0.0","33995153","wem/bandit_single","A1B4WL7N3ACF2T","gain","5","","74","J","1","","1","0","0","0.3930733378","","false","280","0.2245419331","","main_expt","0.3930733378","","0.045813934","","0.2944080033","","","","","","",""
"79","","bandit","356","939737","0.0-318.0-0.0","33995153","wem/bandit_single","A1B4WL7N3ACF2T","gain","5","","74","J","1","","0","0","1","0.3722539572","","false","281","0.2649095144","","main_expt","0.3722539572","","0.07680660156","","0.3455536282","","","","","","",""
"80","","bandit","357","941601","0.0-319.0-0.0","33995153","wem/bandit_single","A1B4WL7N3ACF2T","gain","5","","74","J","1","","0","0","1","0.392640689","","false","282","0.2440542309","","main_expt","0.392640689","","0.08989395926","","0.3002636441","","","","","","",""
"241","","bandit","358","943619","0.0-320.0-0.0","33995153","wem/bandit_single","A1B4WL7N3ACF2T","gain","5","","74","J","1","","0","0","1","0.3657249804","","false","283","0.3074658718","","main_expt","0.3657249804","","0.1096048843","","0.2433385189","","","","","","",""
"130","","bandit","359","945524","0.0-321.0-0.0","33995153","wem/bandit_single","A1B4WL7N3ACF2T","gain","5","","74","J","1","","1","0","0","0.3625644972","","false","284","0.3224089974","","main_expt","0.3625644972","","0.1082817284","","0.2108667552","","","","","","",""
"147","","bandit","360","947446","0.0-322.0-0.0","33995153","wem/bandit_single","A1B4WL7N3ACF2T","gain","5","","74","J","1","","1","0","0","0.3054288932","","false","285","0.3022873968","","main_expt","0.3054288932","","0.1629804938","","0.2340218901","","","","","","",""
"136","","bandit","361","949360","0.0-323.0-0.0","33995153","wem/bandit_single","A1B4WL7N3ACF2T","gain","5","","74","J","1","","0","0","1","0.3391155559","","false","286","0.2889410052","","main_expt","0.3391155559","","0.1852598429","","0.2499238339","","","","","","",""
"117","","bandit","362","951264","0.0-324.0-0.0","33995153","wem/bandit_single","A1B4WL7N3ACF2T","gain","5","","74","J","1","","0","0","1","0.3328791194","","false","287","0.3151816804","","main_expt","0.3328791194","","0.2065414002","","0.2334780882","","","","","","",""
"131","","bandit","363","953171","0.0-325.0-0.0","33995153","wem/bandit_single","A1B4WL7N3ACF2T","gain","5","","74","J","1","","0","0","1","0.3011075564","","false","288","0.3489654206","","main_expt","0.3011075564","","0.1811366591","","0.2784320663","","","","","","",""
"265","","bandit","364","955233","0.0-326.0-0.0","33995153","wem/bandit_single","A1B4WL7N3ACF2T","gain","5","","72","H","0","img/none_selected.jpg","1","0","0","0.3673528387","","false","289","0.3673528387","","main_expt","0.3326814497","","0.1202209304","","0.2751214951","","","","","","",""
"190","","bandit","365","957215","0.0-327.0-0.0","33995153","wem/bandit_single","A1B4WL7N3ACF2T","gain","5","","72","H","0","img/none_selected.jpg","0","0","1","0.3156989172","","false","290","0.3156989172","","main_expt","0.3289320066","","0.1453470377","","0.304381699","","","","","","",""
"159","","bandit","366","959161","0.0-328.0-0.0","33995153","wem/bandit_single","A1B4WL7N3ACF2T","gain","5","","72","H","0","img/none_selected.jpg","1","0","0","0.3731423443","","false","291","0.3731423443","","main_expt","0.3074380044","","0.1477070836","","0.2447169523","","","","","","",""
"292","","bandit","367","961232","0.0-329.0-0.0","33995153","wem/bandit_single","A1B4WL7N3ACF2T","gain","5","","72","H","0","img/none_selected.jpg","1","0","0","0.3819638953","","false","292","0.3819638953","","main_expt","0.247625386","","0.1442574827","","0.2422140582","","","","","","",""
"164","","bandit","368","963171","0.0-330.0-0.0","33995153","wem/bandit_single","A1B4WL7N3ACF2T","gain","5","","72","H","0","img/none_selected.jpg","1","0","0","0.3709780048","","false","293","0.3709780048","","main_expt","0.2438381571","","0.1219757373","","0.1480972705","","","","","","",""
"52","","bandit","369","965010","0.0-331.0-0.0","33995153","wem/bandit_single","A1B4WL7N3ACF2T","gain","5","","72","H","0","img/none_selected.jpg","0","0","1","0.4013541824","","false","294","0.4013541824","","main_expt","0.2772308066","","0.149249144","","0.1338078997","","","","","","",""
"249","","bandit","370","967048","0.0-332.0-0.0","33995153","wem/bandit_single","A1B4WL7N3ACF2T","gain","5","","72","H","0","img/none_selected.jpg","0","0","1","0.4203470877","","false","295","0.4203470877","","main_expt","0.2386370059","","0.1066825056","","0.1452417655","","","","","","",""
"143","","bandit","371","968972","0.0-333.0-0.0","33995153","wem/bandit_single","A1B4WL7N3ACF2T","gain","5","","72","H","0","img/none_selected.jpg","1","0","0","0.4006598815","","false","296","0.4006598815","","main_expt","0.2322267342","","0.06692503618","","0.12995508","","","","","","",""
"219","","bandit","372","970971","0.0-334.0-0.0","33995153","wem/bandit_single","A1B4WL7N3ACF2T","gain","5","","72","H","0","img/none_selected.jpg","1","0","0","0.4189250697","","false","297","0.4189250697","","main_expt","0.2930795043","","0.08806334149","","0.1079814357","","","","","","",""
