"rt","responses","trial_type","trial_index","time_elapsed","internal_node_id","subjID","study","MID","cond","drift","key_press","respCharCode","respKey","respChoiceNum","respChoice","gems","bombs","no_reward","GemPrChosen","BombPrChosen","practice","trial_counter","WinPr_0","LosePr_0","trial_label","WinPr_1","LosePr_1","WinPr_2","LosePr_2","WinPr_3","LosePr_3","Q0","Q1","Q2","gender","age","ethnicity"
"21216","{""Q0"":""A2NQOD21QCRKG0""}","survey-text","0","21232","0.0-0.0","34313623","wem/bandit_single","A2NQOD21QCRKG0","gain","6","","","","","","","","","","","","","","","","","","","","","","","","","","",""
"1805","","text","1","24053","0.0-1.0","34313623","wem/bandit_single","A2NQOD21QCRKG0","gain","6","32","","","","","","","","","","","","","","","","","","","","","","","","","",""
"5644","","text","2","29703","0.0-2.0","34313623","wem/bandit_single","A2NQOD21QCRKG0","gain","6","32","","","","","","","","","","","","","","","","","","","","","","","","","",""
"27698","","text","3","57406","0.0-3.0","34313623","wem/bandit_single","A2NQOD21QCRKG0","gain","6","32","","","","","","","","","","","","","","","","","","","","","","","","","",""
"15259","","text","4","72669","0.0-4.0","34313623","wem/bandit_single","A2NQOD21QCRKG0","gain","6","32","","","","","","","","","","","","","","","","","","","","","","","","","",""
"9244","","text","5","81916","0.0-5.0","34313623","wem/bandit_single","A2NQOD21QCRKG0","gain","6","32","","","","","","","","","","","","","","","","","","","","","","","","","",""
"5918","","text","6","87837","0.0-6.0","34313623","wem/bandit_single","A2NQOD21QCRKG0","gain","6","32","","","","","","","","","","","","","","","","","","","","","","","","","",""
"25484","","text","7","113325","0.0-7.0","34313623","wem/bandit_single","A2NQOD21QCRKG0","gain","6","32","","","","","","","","","","","","","","","","","","","","","","","","","",""
"4433","","text","8","117762","0.0-8.0","34313623","wem/bandit_single","A2NQOD21QCRKG0","gain","6","32","","","","","","","","","","","","","","","","","","","","","","","","","",""
"3211","","text","9","120977","0.0-9.0","34313623","wem/bandit_single","A2NQOD21QCRKG0","gain","6","32","","","","","","","","","","","","","","","","","","","","","","","","","",""
"3982","","text","10","124961","0.0-10.0","34313623","wem/bandit_single","A2NQOD21QCRKG0","gain","6","32","","","","","","","","","","","","","","","","","","","","","","","","","",""
"6081","","text","11","131046","0.0-11.0","34313623","wem/bandit_single","A2NQOD21QCRKG0","gain","6","32","","","","","","","","","","","","","","","","","","","","","","","","","",""
"3215","","bandit","12","135792","0.0-12.0-0.0","34313623","wem/bandit_single","A2NQOD21QCRKG0","gain","6","","74","J","0","img/none_selected_demo.jpg","0","0","1","0","0","true","0","0","0","","","","","","","","","","","","",""
"1048","","bandit","13","138629","0.0-13.0-0.0","34313623","wem/bandit_single","A2NQOD21QCRKG0","gain","6","","75","K","0","img/none_selected_demo.jpg","0","0","1","0","0","true","0","0","0","","","","","","","","","","","","",""
"6088","","text","14","144977","0.0-14.0","34313623","wem/bandit_single","A2NQOD21QCRKG0","gain","6","32","","","","","","","","","","","","","","","","","","","","","","","","","",""
"3104","","text","15","148085","0.0-15.0","34313623","wem/bandit_single","A2NQOD21QCRKG0","gain","6","32","","","","","","","","","","","","","","","","","","","","","","","","","",""
"3620","","text","16","151709","0.0-16.0","34313623","wem/bandit_single","A2NQOD21QCRKG0","gain","6","32","","","","","","","","","","","","","","","","","","","","","","","","","",""
"2265","","text","17","153981","0.0-17.0","34313623","wem/bandit_single","A2NQOD21QCRKG0","gain","6","32","","","","","","","","","","","","","","","","","","","","","","","","","",""
"2114","","bandit","18","157628","0.0-18.0-0.0","34313623","wem/bandit_single","A2NQOD21QCRKG0","gain","6","","75","K","1","","0","0","1","0.2","0","true","0","0.8","0","80_20_practice","0.2","0","","","","","","","","","",""
"2519","","bandit","19","161933","0.0-18.0-1.0","34313623","wem/bandit_single","A2NQOD21QCRKG0","gain","6","","74","J","0","img/none_selected_demo.jpg","1","0","0","0.8","0","true","0","0.8","0","80_20_practice","0.2","0","","","","","","","","","",""
"1647","","bandit","20","165367","0.0-18.0-2.0","34313623","wem/bandit_single","A2NQOD21QCRKG0","gain","6","","74","J","0","img/none_selected_demo.jpg","1","0","0","0.8","0","true","0","0.8","0","80_20_practice","0.2","0","","","","","","","","","",""
"1050","","bandit","21","168187","0.0-18.0-3.0","34313623","wem/bandit_single","A2NQOD21QCRKG0","gain","6","","74","J","0","img/none_selected_demo.jpg","0","0","1","0.8","0","true","0","0.8","0","80_20_practice","0.2","0","","","","","","","","","",""
"721","","bandit","22","170687","0.0-18.0-4.0","34313623","wem/bandit_single","A2NQOD21QCRKG0","gain","6","","74","J","0","img/none_selected_demo.jpg","1","0","0","0.8","0","true","0","0.8","0","80_20_practice","0.2","0","","","","","","","","","",""
"1123","","bandit","23","173591","0.0-18.0-5.0","34313623","wem/bandit_single","A2NQOD21QCRKG0","gain","6","","74","J","0","img/none_selected_demo.jpg","0","0","1","0.8","0","true","0","0.8","0","80_20_practice","0.2","0","","","","","","","","","",""
"349","","bandit","24","175717","0.0-18.0-6.0","34313623","wem/bandit_single","A2NQOD21QCRKG0","gain","6","","75","K","1","","0","0","1","0.2","0","true","0","0.8","0","80_20_practice","0.2","0","","","","","","","","","",""
"482","","bandit","25","177992","0.0-18.0-7.0","34313623","wem/bandit_single","A2NQOD21QCRKG0","gain","6","","75","K","1","","0","0","1","0.2","0","true","0","0.8","0","80_20_practice","0.2","0","","","","","","","","","",""
"299","","bandit","26","180076","0.0-18.0-8.0","34313623","wem/bandit_single","A2NQOD21QCRKG0","gain","6","","74","J","0","img/none_selected_demo.jpg","1","0","0","0.8","0","true","0","0.8","0","80_20_practice","0.2","0","","","","","","","","","",""
"1107","","bandit","27","182954","0.0-18.0-9.0","34313623","wem/bandit_single","A2NQOD21QCRKG0","gain","6","","74","J","0","img/none_selected_demo.jpg","1","0","0","0.8","0","true","0","0.8","0","80_20_practice","0.2","0","","","","","","","","","",""
"1491","","bandit","28","186240","0.0-18.0-10.0","34313623","wem/bandit_single","A2NQOD21QCRKG0","gain","6","","74","J","0","img/none_selected_demo.jpg","1","0","0","0.8","0","true","0","0.8","0","80_20_practice","0.2","0","","","","","","","","","",""
"1008","","bandit","29","189027","0.0-18.0-11.0","34313623","wem/bandit_single","A2NQOD21QCRKG0","gain","6","","74","J","0","img/none_selected_demo.jpg","0","0","1","0.8","0","true","0","0.8","0","80_20_practice","0.2","0","","","","","","","","","",""
"1561","","bandit","30","192374","0.0-18.0-12.0","34313623","wem/bandit_single","A2NQOD21QCRKG0","gain","6","","74","J","0","img/none_selected_demo.jpg","1","0","0","0.8","0","true","0","0.8","0","80_20_practice","0.2","0","","","","","","","","","",""
"835","","bandit","31","194986","0.0-18.0-13.0","34313623","wem/bandit_single","A2NQOD21QCRKG0","gain","6","","74","J","0","img/none_selected_demo.jpg","1","0","0","0.8","0","true","0","0.8","0","80_20_practice","0.2","0","","","","","","","","","",""
"1182","","bandit","32","197932","0.0-18.0-14.0","34313623","wem/bandit_single","A2NQOD21QCRKG0","gain","6","","74","J","0","img/none_selected_demo.jpg","1","0","0","0.8","0","true","0","0.8","0","80_20_practice","0.2","0","","","","","","","","","",""
"744","","bandit","33","200440","0.0-18.0-15.0","34313623","wem/bandit_single","A2NQOD21QCRKG0","gain","6","","74","J","0","img/none_selected_demo.jpg","0","0","1","0.8","0","true","0","0.8","0","80_20_practice","0.2","0","","","","","","","","","",""
"606","","bandit","34","202828","0.0-18.0-16.0","34313623","wem/bandit_single","A2NQOD21QCRKG0","gain","6","","74","J","0","img/none_selected_demo.jpg","1","0","0","0.8","0","true","0","0.8","0","80_20_practice","0.2","0","","","","","","","","","",""
"1275","","bandit","35","205904","0.0-18.0-17.0","34313623","wem/bandit_single","A2NQOD21QCRKG0","gain","6","","74","J","0","img/none_selected_demo.jpg","1","0","0","0.8","0","true","0","0.8","0","80_20_practice","0.2","0","","","","","","","","","",""
"650","","bandit","36","208332","0.0-18.0-18.0","34313623","wem/bandit_single","A2NQOD21QCRKG0","gain","6","","74","J","0","img/none_selected_demo.jpg","1","0","0","0.8","0","true","0","0.8","0","80_20_practice","0.2","0","","","","","","","","","",""
"81","","bandit","37","210191","0.0-18.0-19.0","34313623","wem/bandit_single","A2NQOD21QCRKG0","gain","6","","75","K","1","","0","0","1","0.2","0","true","0","0.8","0","80_20_practice","0.2","0","","","","","","","","","",""
"4792","","text","38","215250","0.0-19.0","34313623","wem/bandit_single","A2NQOD21QCRKG0","gain","6","32","","","","","","","","","","","","","","","","","","","","","","","","","",""
"2153","","bandit","39","218922","0.0-20.0-0.0","34313623","wem/bandit_single","A2NQOD21QCRKG0","gain","6","","74","J","0","img/none_selected_demo.jpg","0","0","1","0","0","true","0","0","0","","0","0","","","","","","","","","",""
"5840","","text","40","225033","0.0-21.0","34313623","wem/bandit_single","A2NQOD21QCRKG0","gain","6","32","","","","","","","","","","","","","","","","","","","","","","","","","",""
"3852","","text","41","228890","0.0-22.0","34313623","wem/bandit_single","A2NQOD21QCRKG0","gain","6","32","","","","","","","","","","","","","","","","","","","","","","","","","",""
"3171","","text","42","232066","0.0-23.0","34313623","wem/bandit_single","A2NQOD21QCRKG0","gain","6","32","","","","","","","","","","","","","","","","","","","","","","","","","",""
"2397","","text","43","234468","0.0-24.0","34313623","wem/bandit_single","A2NQOD21QCRKG0","gain","6","32","","","","","","","","","","","","","","","","","","","","","","","","","",""
"7234","","text","44","241706","0.0-25.0","34313623","wem/bandit_single","A2NQOD21QCRKG0","gain","6","32","","","","","","","","","","","","","","","","","","","","","","","","","",""
"3494","","text","45","245205","0.0-26.0","34313623","wem/bandit_single","A2NQOD21QCRKG0","gain","6","32","","","","","","","","","","","","","","","","","","","","","","","","","",""
"4442","","text","46","249652","0.0-27.0","34313623","wem/bandit_single","A2NQOD21QCRKG0","gain","6","32","","","","","","","","","","","","","","","","","","","","","","","","","",""
"4847","","text","47","254504","0.0-28.0","34313623","wem/bandit_single","A2NQOD21QCRKG0","gain","6","32","","","","","","","","","","","","","","","","","","","","","","","","","",""
"4779","","text","48","259286","0.0-29.0","34313623","wem/bandit_single","A2NQOD21QCRKG0","gain","6","32","","","","","","","","","","","","","","","","","","","","","","","","","",""
"2858","","text","49","262149","0.0-30.0","34313623","wem/bandit_single","A2NQOD21QCRKG0","gain","6","32","","","","","","","","","","","","","","","","","","","","","","","","","",""
"7806","","text","50","269960","0.0-31.0","34313623","wem/bandit_single","A2NQOD21QCRKG0","gain","6","32","","","","","","","","","","","","","","","","","","","","","","","","","",""
"1431","","bandit","51","272919","0.0-32.0-0.0","34313623","wem/bandit_single","A2NQOD21QCRKG0","gain","6","","74","J","1","","0","0","1","0.2","0","true","0","0.8","0","full_practice","0.2","0","0.6","0","0.2","0","","","","","",""
"143","","bandit","52","274837","0.0-32.0-1.0","34313623","wem/bandit_single","A2NQOD21QCRKG0","gain","6","","72","H","0","img/none_selected.jpg","1","0","0","0.8","0","true","0","0.8","0","full_practice","0.2","0","0.6","0","0.2","0","","","","","",""
"264","","bandit","53","276890","0.0-32.0-2.0","34313623","wem/bandit_single","A2NQOD21QCRKG0","gain","6","","72","H","0","img/none_selected.jpg","1","0","0","0.8","0","true","0","0.8","0","full_practice","0.2","0","0.6","0","0.2","0","","","","","",""
"265","","bandit","54","278928","0.0-32.0-3.0","34313623","wem/bandit_single","A2NQOD21QCRKG0","gain","6","","72","H","0","img/none_selected.jpg","0","0","1","0.8","0","true","0","0.8","0","full_practice","0.2","0","0.6","0","0.2","0","","","","","",""
"602","","bandit","55","281312","0.0-32.0-4.0","34313623","wem/bandit_single","A2NQOD21QCRKG0","gain","6","","76","L","3","","0","0","1","0.2","0","true","0","0.8","0","full_practice","0.2","0","0.6","0","0.2","0","","","","","",""
"128","","bandit","56","283221","0.0-32.0-5.0","34313623","wem/bandit_single","A2NQOD21QCRKG0","gain","6","","74","J","1","","0","0","1","0.2","0","true","0","0.8","0","full_practice","0.2","0","0.6","0","0.2","0","","","","","",""
"554","","bandit","57","285555","0.0-32.0-6.0","34313623","wem/bandit_single","A2NQOD21QCRKG0","gain","6","","72","H","0","img/none_selected.jpg","0","0","1","0.8","0","true","0","0.8","0","full_practice","0.2","0","0.6","0","0.2","0","","","","","",""
"212","","bandit","58","287536","0.0-32.0-7.0","34313623","wem/bandit_single","A2NQOD21QCRKG0","gain","6","","74","J","1","","0","0","1","0.2","0","true","0","0.8","0","full_practice","0.2","0","0.6","0","0.2","0","","","","","",""
"101","","bandit","59","289429","0.0-32.0-8.0","34313623","wem/bandit_single","A2NQOD21QCRKG0","gain","6","","75","K","2","","0","0","1","0.6","0","true","0","0.8","0","full_practice","0.2","0","0.6","0","0.2","0","","","","","",""
"184","","bandit","60","291406","0.0-32.0-9.0","34313623","wem/bandit_single","A2NQOD21QCRKG0","gain","6","","76","L","3","","0","0","1","0.2","0","true","0","0.8","0","full_practice","0.2","0","0.6","0","0.2","0","","","","","",""
"176","","bandit","61","293388","0.0-32.0-10.0","34313623","wem/bandit_single","A2NQOD21QCRKG0","gain","6","","74","J","1","","0","0","1","0.2","0","true","0","0.8","0","full_practice","0.2","0","0.6","0","0.2","0","","","","","",""
"99","","bandit","62","295269","0.0-32.0-11.0","34313623","wem/bandit_single","A2NQOD21QCRKG0","gain","6","","72","H","0","img/none_selected.jpg","1","0","0","0.8","0","true","0","0.8","0","full_practice","0.2","0","0.6","0","0.2","0","","","","","",""
"574","","bandit","63","297623","0.0-32.0-12.0","34313623","wem/bandit_single","A2NQOD21QCRKG0","gain","6","","72","H","0","img/none_selected.jpg","1","0","0","0.8","0","true","0","0.8","0","full_practice","0.2","0","0.6","0","0.2","0","","","","","",""
"227","","bandit","64","299633","0.0-32.0-13.0","34313623","wem/bandit_single","A2NQOD21QCRKG0","gain","6","","72","H","0","img/none_selected.jpg","1","0","0","0.8","0","true","0","0.8","0","full_practice","0.2","0","0.6","0","0.2","0","","","","","",""
"181","","bandit","65","301600","0.0-32.0-14.0","34313623","wem/bandit_single","A2NQOD21QCRKG0","gain","6","","72","H","0","img/none_selected.jpg","1","0","0","0.8","0","true","0","0.8","0","full_practice","0.2","0","0.6","0","0.2","0","","","","","",""
"744","","bandit","66","304116","0.0-32.0-15.0","34313623","wem/bandit_single","A2NQOD21QCRKG0","gain","6","","72","H","0","img/none_selected.jpg","1","0","0","0.8","0","true","0","0.8","0","full_practice","0.2","0","0.6","0","0.2","0","","","","","",""
"215","","bandit","67","306112","0.0-32.0-16.0","34313623","wem/bandit_single","A2NQOD21QCRKG0","gain","6","","72","H","0","img/none_selected.jpg","1","0","0","0.8","0","true","0","0.8","0","full_practice","0.2","0","0.6","0","0.2","0","","","","","",""
"457","","bandit","68","308364","0.0-32.0-17.0","34313623","wem/bandit_single","A2NQOD21QCRKG0","gain","6","","72","H","0","img/none_selected.jpg","1","0","0","0.8","0","true","0","0.8","0","full_practice","0.2","0","0.6","0","0.2","0","","","","","",""
"609","","bandit","69","310745","0.0-32.0-18.0","34313623","wem/bandit_single","A2NQOD21QCRKG0","gain","6","","72","H","0","img/none_selected.jpg","1","0","0","0.8","0","true","0","0.8","0","full_practice","0.2","0","0.6","0","0.2","0","","","","","",""
"495","","bandit","70","313032","0.0-32.0-19.0","34313623","wem/bandit_single","A2NQOD21QCRKG0","gain","6","","72","H","0","img/none_selected.jpg","1","0","0","0.8","0","true","0","0.8","0","full_practice","0.2","0","0.6","0","0.2","0","","","","","",""
"2150","","text","71","315453","0.0-33.0","34313623","wem/bandit_single","A2NQOD21QCRKG0","gain","6","32","","","","","","","","","","","","","","","","","","","","","","","","","",""
"10632","","text","72","327106","0.0-34.0","34313623","wem/bandit_single","A2NQOD21QCRKG0","gain","6","32","","","","","","","","","","","","","","","","","","","","","","","","","",""
"4916","","text","73","332028","0.0-35.0","34313623","wem/bandit_single","A2NQOD21QCRKG0","gain","6","32","","","","","","","","","","","","","","","","","","","","","","","","","",""
"5251","","text","74","337286","0.0-36.0","34313623","wem/bandit_single","A2NQOD21QCRKG0","gain","6","32","","","","","","","","","","","","","","","","","","","","","","","","","",""
"6582","","text","75","343876","0.0-37.0","34313623","wem/bandit_single","A2NQOD21QCRKG0","gain","6","32","","","","","","","","","","","","","","","","","","","","","","","","","",""
"2135","","bandit","76","347535","0.0-38.0-0.0","34313623","wem/bandit_single","A2NQOD21QCRKG0","gain","6","","72","H","0","img/none_selected.jpg","0","0","1","0.1940838181","","false","1","0.1940838181","","main_expt","0.3785571591","","0.1142009487","","0.1623639982","","","","","","",""
"276","","bandit","77","349603","0.0-39.0-0.0","34313623","wem/bandit_single","A2NQOD21QCRKG0","gain","6","","74","J","1","","1","0","0","0.3894156921","","false","2","0.2410489397","","main_expt","0.3894156921","","0.09165924831","","0.1864124343","","","","","","",""
"190","","bandit","78","351579","0.0-40.0-0.0","34313623","wem/bandit_single","A2NQOD21QCRKG0","gain","6","","74","J","1","","1","0","0","0.4125386255","","false","3","0.2645422736","","main_expt","0.4125386255","","0.1174954382","","0.1494323563","","","","","","",""
"490","","bandit","79","353856","0.0-41.0-0.0","34313623","wem/bandit_single","A2NQOD21QCRKG0","gain","6","","74","J","1","","0","0","1","0.3990363537","","false","4","0.1984909652","","main_expt","0.3990363537","","0.1426329369","","0.1266436655","","","","","","",""
"157","","bandit","80","355792","0.0-42.0-0.0","34313623","wem/bandit_single","A2NQOD21QCRKG0","gain","6","","74","J","1","","1","0","0","0.454435597","","false","5","0.1239860826","","main_expt","0.454435597","","0.1503595054","","0.1476492511","","","","","","",""
"475","","bandit","81","358046","0.0-43.0-0.0","34313623","wem/bandit_single","A2NQOD21QCRKG0","gain","6","","74","J","1","","1","0","0","0.4583077461","","false","6","0.06805906468","","main_expt","0.4583077461","","0.1646450236","","0.1525625276","","","","","","",""
"236","","bandit","82","360053","0.0-44.0-0.0","34313623","wem/bandit_single","A2NQOD21QCRKG0","gain","6","","74","J","1","","0","0","1","0.4617786505","","false","7","0.05890971721","","main_expt","0.4617786505","","0.2031930874","","0.1856713893","","","","","","",""
"307","","bandit","83","362130","0.0-45.0-0.0","34313623","wem/bandit_single","A2NQOD21QCRKG0","gain","6","","74","J","1","","1","0","0","0.475168559","","false","8","0.0832196585","","main_expt","0.475168559","","0.181996894","","0.2108076934","","","","","","",""
"691","","bandit","84","364617","0.0-46.0-0.0","34313623","wem/bandit_single","A2NQOD21QCRKG0","gain","6","","74","J","1","","1","0","0","0.458325554","","false","9","0.1325638406","","main_expt","0.458325554","","0.1673845292","","0.1956497028","","","","","","",""
"290","","bandit","85","366680","0.0-47.0-0.0","34313623","wem/bandit_single","A2NQOD21QCRKG0","gain","6","","74","J","1","","0","0","1","0.4316924572","","false","10","0.1196898321","","main_expt","0.4316924572","","0.2328473308","","0.1582923175","","","","","","",""
"142","","bandit","86","368609","0.0-48.0-0.0","34313623","wem/bandit_single","A2NQOD21QCRKG0","gain","6","","74","J","1","","1","0","0","0.3756511011","","false","11","0.1103103944","","main_expt","0.3756511011","","0.20589494","","0.167734997","","","","","","",""
"206","","bandit","87","370601","0.0-49.0-0.0","34313623","wem/bandit_single","A2NQOD21QCRKG0","gain","6","","74","J","1","","0","0","1","0.3549088727","","false","12","0.06819125589","","main_expt","0.3549088727","","0.2246944015","","0.2150601968","","","","","","",""
"137","","bandit","88","372520","0.0-50.0-0.0","34313623","wem/bandit_single","A2NQOD21QCRKG0","gain","6","","76","L","3","","0","0","1","0.252216208","","false","13","0.07076675629","","main_expt","0.3455803359","","0.2613447163","","0.252216208","","","","","","",""
"94","","bandit","89","374401","0.0-51.0-0.0","34313623","wem/bandit_single","A2NQOD21QCRKG0","gain","6","","72","H","0","img/none_selected.jpg","0","0","1","0.09241451512","","false","14","0.09241451512","","main_expt","0.3809937316","","0.212655478","","0.2184022087","","","","","","",""
"187","","bandit","90","376367","0.0-52.0-0.0","34313623","wem/bandit_single","A2NQOD21QCRKG0","gain","6","","75","K","2","","0","0","1","0.1679070286","","false","15","0.07205700739","","main_expt","0.3479508526","","0.1679070286","","0.210005203","","","","","","",""
"80","","bandit","91","378252","0.0-53.0-0.0","34313623","wem/bandit_single","A2NQOD21QCRKG0","gain","6","","74","J","1","","1","0","0","0.3287514515","","false","16","0.04760190598","","main_expt","0.3287514515","","0.1774383452","","0.2402495983","","","","","","",""
"215","","bandit","92","380242","0.0-54.0-0.0","34313623","wem/bandit_single","A2NQOD21QCRKG0","gain","6","","74","J","1","","1","0","0","0.4008698656","","false","17","0.03958098904","","main_expt","0.4008698656","","0.1562672395","","0.2766196603","","","","","","",""
"938","","bandit","93","382958","0.0-55.0-0.0","34313623","wem/bandit_single","A2NQOD21QCRKG0","gain","6","","74","J","1","","1","0","0","0.3845126264","","false","18","0.03128671198","","main_expt","0.3845126264","","0.1407597156","","0.3193638145","","","","","","",""
"719","","bandit","94","385463","0.0-56.0-0.0","34313623","wem/bandit_single","A2NQOD21QCRKG0","gain","6","","74","J","1","","0","0","1","0.3979941068","","false","19","0.04453616628","","main_expt","0.3979941068","","0.1310890834","","0.2953318626","","","","","","",""
"185","","bandit","95","387433","0.0-57.0-0.0","34313623","wem/bandit_single","A2NQOD21QCRKG0","gain","6","","74","J","1","","1","0","0","0.3920029867","","false","20","0.04596917346","","main_expt","0.3920029867","","0.1317163977","","0.3007143328","","","","","","",""
"340","","bandit","96","389549","0.0-58.0-0.0","34313623","wem/bandit_single","A2NQOD21QCRKG0","gain","6","","74","J","1","","0","0","1","0.4057752261","","false","21","0.04297504417","","main_expt","0.4057752261","","0.1752537558","","0.3105995928","","","","","","",""
"109","","bandit","97","391444","0.0-59.0-0.0","34313623","wem/bandit_single","A2NQOD21QCRKG0","gain","6","","72","H","0","img/none_selected.jpg","0","0","1","0.04739698515","","false","22","0.04739698515","","main_expt","0.4072420822","","0.2064983175","","0.3742057862","","","","","","",""
"111","","bandit","98","393351","0.0-60.0-0.0","34313623","wem/bandit_single","A2NQOD21QCRKG0","gain","6","","74","J","1","","1","0","0","0.3798298113","","false","23","0.08003173613","","main_expt","0.3798298113","","0.216691321","","0.3439758112","","","","","","",""
"281","","bandit","99","395413","0.0-61.0-0.0","34313623","wem/bandit_single","A2NQOD21QCRKG0","gain","6","","74","J","1","","0","0","1","0.3329856024","","false","24","0.09868307827","","main_expt","0.3329856024","","0.2342773894","","0.3549138733","","","","","","",""
"1135","","bandit","100","398333","0.0-62.0-0.0","34313623","wem/bandit_single","A2NQOD21QCRKG0","gain","6","","74","J","1","","0","0","1","0.3337381726","","false","25","0.07950464875","","main_expt","0.3337381726","","0.2378870173","","0.3811330683","","","","","","",""
"313","","bandit","101","400433","0.0-63.0-0.0","34313623","wem/bandit_single","A2NQOD21QCRKG0","gain","6","","76","L","3","","0","0","1","0.3131907418","","false","26","0.09697268327","","main_expt","0.3650510818","","0.2555438901","","0.3131907418","","","","","","",""
"172","","bandit","102","402386","0.0-64.0-0.0","34313623","wem/bandit_single","A2NQOD21QCRKG0","gain","6","","75","K","2","","1","0","0","0.2487754609","","false","27","0.09831328215","","main_expt","0.3930286133","","0.2487754609","","0.3210571327","","","","","","",""
"338","","bandit","103","404509","0.0-65.0-0.0","34313623","wem/bandit_single","A2NQOD21QCRKG0","gain","6","","75","K","2","","0","0","1","0.2023297646","","false","28","0.08798585883","","main_expt","0.3849328395","","0.2023297646","","0.3350138966","","","","","","",""
"664","","bandit","104","406947","0.0-66.0-0.0","34313623","wem/bandit_single","A2NQOD21QCRKG0","gain","6","","74","J","1","","0","0","1","0.3635333449","","false","29","0.1001400419","","main_expt","0.3635333449","","0.1824385616","","0.3491704597","","","","","","",""
"106","","bandit","105","408839","0.0-67.0-0.0","34313623","wem/bandit_single","A2NQOD21QCRKG0","gain","6","","72","H","0","img/none_selected.jpg","0","0","1","0.100360092","","false","30","0.100360092","","main_expt","0.3870800473","","0.2108935763","","0.3515390533","","","","","","",""
"184","","bandit","106","410807","0.0-68.0-0.0","34313623","wem/bandit_single","A2NQOD21QCRKG0","gain","6","","75","K","2","","0","0","1","0.2212072473","","false","31","0.1235489826","","main_expt","0.407818568","","0.2212072473","","0.3116189274","","","","","","",""
"89","","bandit","107","412676","0.0-69.0-0.0","34313623","wem/bandit_single","A2NQOD21QCRKG0","gain","6","","74","J","1","","0","0","1","0.4365503818","","false","32","0.0999088058","","main_expt","0.4365503818","","0.2349080289","","0.2923613921","","","","","","",""
"147","","bandit","108","414608","0.0-70.0-0.0","34313623","wem/bandit_single","A2NQOD21QCRKG0","gain","6","","74","J","1","","0","0","1","0.438397095","","false","33","0.1229353218","","main_expt","0.438397095","","0.2233211346","","0.2833872006","","","","","","",""
"77","","bandit","109","416480","0.0-71.0-0.0","34313623","wem/bandit_single","A2NQOD21QCRKG0","gain","6","","76","L","3","","0","0","1","0.251012165","","false","34","0.1174339591","","main_expt","0.4225996483","","0.2328620384","","0.251012165","","","","","","",""
"133","","bandit","110","418408","0.0-72.0-0.0","34313623","wem/bandit_single","A2NQOD21QCRKG0","gain","6","","76","L","3","","0","0","1","0.2150204629","","false","35","0.08922948311","","main_expt","0.3719427837","","0.2442853791","","0.2150204629","","","","","","",""
"104","","bandit","111","420300","0.0-73.0-0.0","34313623","wem/bandit_single","A2NQOD21QCRKG0","gain","6","","75","K","2","","0","0","1","0.2536962779","","false","36","0.1065429935","","main_expt","0.3643608465","","0.2536962779","","0.2003821391","","","","","","",""
"132","","bandit","112","422228","0.0-74.0-0.0","34313623","wem/bandit_single","A2NQOD21QCRKG0","gain","6","","75","K","2","","1","0","0","0.1968410568","","false","37","0.119331244","","main_expt","0.3951734682","","0.1968410568","","0.1584744983","","","","","","",""
"78","","bandit","113","424092","0.0-75.0-0.0","34313623","wem/bandit_single","A2NQOD21QCRKG0","gain","6","","75","K","2","","0","0","1","0.1903576104","","false","38","0.1140529394","","main_expt","0.4106313244","","0.1903576104","","0.1107345946","","","","","","",""
"178","","bandit","114","426051","0.0-76.0-0.0","34313623","wem/bandit_single","A2NQOD21QCRKG0","gain","6","","75","K","2","","0","0","1","0.2094560733","","false","39","0.1377706652","","main_expt","0.385877281","","0.2094560733","","0.1922112034","","","","","","",""
"255","","bandit","115","428087","0.0-77.0-0.0","34313623","wem/bandit_single","A2NQOD21QCRKG0","gain","6","","76","L","3","","1","0","0","0.202991566","","false","40","0.1686011578","","main_expt","0.3814638094","","0.2157952434","","0.202991566","","","","","","",""
"301","","bandit","116","430180","0.0-78.0-0.0","34313623","wem/bandit_single","A2NQOD21QCRKG0","gain","6","","76","L","3","","1","0","0","0.257249123","","false","41","0.1640814413","","main_expt","0.3569976603","","0.1982376225","","0.257249123","","","","","","",""
"246","","bandit","117","432224","0.0-79.0-0.0","34313623","wem/bandit_single","A2NQOD21QCRKG0","gain","6","","76","L","3","","0","0","1","0.3139605103","","false","42","0.1444461896","","main_expt","0.3254656301","","0.1815133425","","0.3139605103","","","","","","",""
"1024","","bandit","118","435022","0.0-80.0-0.0","34313623","wem/bandit_single","A2NQOD21QCRKG0","gain","6","","76","L","3","","1","0","0","0.2859416922","","false","43","0.1466097136","","main_expt","0.3061667188","","0.1804658283","","0.2859416922","","","","","","",""
"104","","bandit","119","436918","0.0-81.0-0.0","34313623","wem/bandit_single","A2NQOD21QCRKG0","gain","6","","76","L","3","","0","0","1","0.2344477797","","false","44","0.1701376127","","main_expt","0.3247162798","","0.1453808853","","0.2344477797","","","","","","",""
"105","","bandit","120","438807","0.0-82.0-0.0","34313623","wem/bandit_single","A2NQOD21QCRKG0","gain","6","","76","L","3","","0","0","1","0.25278305","","false","45","0.2382164817","","main_expt","0.3464274235","","0.1975985391","","0.25278305","","","","","","",""
"165","","bandit","121","440748","0.0-83.0-0.0","34313623","wem/bandit_single","A2NQOD21QCRKG0","gain","6","","76","L","3","","0","0","1","0.2447001663","","false","46","0.2817064876","","main_expt","0.2853596265","","0.2099331931","","0.2447001663","","","","","","",""
"154","","bandit","122","442692","0.0-84.0-0.0","34313623","wem/bandit_single","A2NQOD21QCRKG0","gain","6","","75","K","2","","0","0","1","0.2373708448","","false","47","0.3449614965","","main_expt","0.2781892211","","0.2373708448","","0.2439886488","","","","","","",""
"81","","bandit","123","444546","0.0-85.0-0.0","34313623","wem/bandit_single","A2NQOD21QCRKG0","gain","6","","75","K","2","","0","0","1","0.2929879582","","false","48","0.2846403666","","main_expt","0.2802769371","","0.2929879582","","0.3453423138","","","","","","",""
"234","","bandit","124","446576","0.0-86.0-0.0","34313623","wem/bandit_single","A2NQOD21QCRKG0","gain","6","","74","J","1","","1","0","0","0.3162769287","","false","49","0.3292227521","","main_expt","0.3162769287","","0.2643709298","","0.3208634608","","","","","","",""
"353","","bandit","125","448733","0.0-87.0-0.0","34313623","wem/bandit_single","A2NQOD21QCRKG0","gain","6","","74","J","1","","0","0","1","0.2524095143","","false","50","0.270904054","","main_expt","0.2524095143","","0.2666646559","","0.2600740437","","","","","","",""
"317","","bandit","126","450836","0.0-88.0-0.0","34313623","wem/bandit_single","A2NQOD21QCRKG0","gain","6","","74","J","1","","0","0","1","0.2630113652","","false","51","0.2503066232","","main_expt","0.2630113652","","0.2550538978","","0.2451527442","","","","","","",""
"1560","","bandit","127","454174","0.0-89.0-0.0","34313623","wem/bandit_single","A2NQOD21QCRKG0","gain","6","","72","H","0","img/none_selected.jpg","0","0","1","0.2405173112","","false","52","0.2405173112","","main_expt","0.2707742251","","0.3235330097","","0.1882651979","","","","","","",""
"110","","bandit","128","456081","0.0-90.0-0.0","34313623","wem/bandit_single","A2NQOD21QCRKG0","gain","6","","72","H","0","img/none_selected.jpg","0","0","1","0.2966352861","","false","53","0.2966352861","","main_expt","0.2150274285","","0.347433539","","0.1930778153","","","","","","",""
"133","","bandit","129","458012","0.0-91.0-0.0","34313623","wem/bandit_single","A2NQOD21QCRKG0","gain","6","","76","L","3","","0","0","1","0.2216955806","","false","54","0.2887198369","","main_expt","0.2326572497","","0.3368202787","","0.2216955806","","","","","","",""
"112","","bandit","130","459920","0.0-92.0-0.0","34313623","wem/bandit_single","A2NQOD21QCRKG0","gain","6","","74","J","1","","0","0","1","0.2134399586","","false","55","0.2801160178","","main_expt","0.2134399586","","0.3503124627","","0.2422165651","","","","","","",""
"253","","bandit","131","461964","0.0-93.0-0.0","34313623","wem/bandit_single","A2NQOD21QCRKG0","gain","6","","74","J","1","","1","0","0","0.2394891912","","false","56","0.3022415889","","main_expt","0.2394891912","","0.368841946","","0.228979269","","","","","","",""
"279","","bandit","132","464037","0.0-94.0-0.0","34313623","wem/bandit_single","A2NQOD21QCRKG0","gain","6","","74","J","1","","0","0","1","0.2942469327","","false","57","0.3300995428","","main_expt","0.2942469327","","0.3883837061","","0.243325051","","","","","","",""
"137","","bandit","133","465966","0.0-95.0-0.0","34313623","wem/bandit_single","A2NQOD21QCRKG0","gain","6","","74","J","1","","0","0","1","0.369295693","","false","58","0.3393984951","","main_expt","0.369295693","","0.4116863428","","0.2326991071","","","","","","",""
"35","","bandit","134","467779","0.0-96.0-0.0","34313623","wem/bandit_single","A2NQOD21QCRKG0","gain","6","","74","J","1","","0","0","1","0.3663837161","","false","59","0.3592245678","","main_expt","0.3663837161","","0.3980375199","","0.2480349675","","","","","","",""
"91","","bandit","135","469668","0.0-97.0-0.0","34313623","wem/bandit_single","A2NQOD21QCRKG0","gain","6","","75","K","2","","0","0","1","0.3849919156","","false","60","0.3431938453","","main_expt","0.3578669063","","0.3849919156","","0.2591134247","","","","","","",""
"129","","bandit","136","471582","0.0-98.0-0.0","34313623","wem/bandit_single","A2NQOD21QCRKG0","gain","6","","75","K","2","","0","0","1","0.3822359719","","false","61","0.3622980041","","main_expt","0.3901807011","","0.3822359719","","0.2828027123","","","","","","",""
"218","","bandit","137","473581","0.0-99.0-0.0","34313623","wem/bandit_single","A2NQOD21QCRKG0","gain","6","","75","K","2","","0","0","1","0.3356955782","","false","62","0.3898917795","","main_expt","0.4199484271","","0.3356955782","","0.2645717152","","","","","","",""
"176","","bandit","138","475535","0.0-100.0-0.0","34313623","wem/bandit_single","A2NQOD21QCRKG0","gain","6","","76","L","3","","1","0","0","0.3164731366","","false","63","0.3730814422","","main_expt","0.431710707","","0.2961333539","","0.3164731366","","","","","","",""
"431","","bandit","139","477753","0.0-101.0-0.0","34313623","wem/bandit_single","A2NQOD21QCRKG0","gain","6","","76","L","3","","1","0","0","0.3549458842","","false","64","0.359514794","","main_expt","0.4302834116","","0.3332154777","","0.3549458842","","","","","","",""
"489","","bandit","140","480023","0.0-102.0-0.0","34313623","wem/bandit_single","A2NQOD21QCRKG0","gain","6","","76","L","3","","0","0","1","0.288515421","","false","65","0.3114607296","","main_expt","0.3985691748","","0.35785358","","0.288515421","","","","","","",""
"63","","bandit","141","481883","0.0-103.0-0.0","34313623","wem/bandit_single","A2NQOD21QCRKG0","gain","6","","76","L","3","","0","0","1","0.3011993237","","false","66","0.2942291023","","main_expt","0.4041176093","","0.406057841","","0.3011993237","","","","","","",""
"77","","bandit","142","483745","0.0-104.0-0.0","34313623","wem/bandit_single","A2NQOD21QCRKG0","gain","6","","76","L","3","","0","0","1","0.345072876","","false","67","0.3320533568","","main_expt","0.4007812862","","0.4196038874","","0.345072876","","","","","","",""
"175","","bandit","143","485695","0.0-105.0-0.0","34313623","wem/bandit_single","A2NQOD21QCRKG0","gain","6","","76","L","3","","0","0","1","0.3196529892","","false","68","0.3600975808","","main_expt","0.4294162969","","0.3890604874","","0.3196529892","","","","","","",""
"135","","bandit","144","487625","0.0-106.0-0.0","34313623","wem/bandit_single","A2NQOD21QCRKG0","gain","6","","74","J","1","","0","0","1","0.3767619451","","false","69","0.2872110667","","main_expt","0.3767619451","","0.4084138829","","0.3649702463","","","","","","",""
"454","","bandit","145","489872","0.0-107.0-0.0","34313623","wem/bandit_single","A2NQOD21QCRKG0","gain","6","","74","J","1","","1","0","0","0.3777248691","","false","70","0.295141158","","main_expt","0.3777248691","","0.3468887804","","0.356932825","","","","","","",""
"447","","bandit","146","492108","0.0-108.0-0.0","34313623","wem/bandit_single","A2NQOD21QCRKG0","gain","6","","74","J","1","","0","0","1","0.3795242786","","false","71","0.3206647592","","main_expt","0.3795242786","","0.341524862","","0.3835678776","","","","","","",""
"239","","bandit","147","494127","0.0-109.0-0.0","34313623","wem/bandit_single","A2NQOD21QCRKG0","gain","6","","74","J","1","","1","0","0","0.3665841139","","false","72","0.3264000429","","main_expt","0.3665841139","","0.3749246652","","0.4212385026","","","","","","",""
"170","","bandit","148","496088","0.0-110.0-0.0","34313623","wem/bandit_single","A2NQOD21QCRKG0","gain","6","","74","J","1","","0","0","1","0.3651794524","","false","73","0.333972891","","main_expt","0.3651794524","","0.3871824506","","0.4261424303","","","","","","",""
"829","","bandit","149","498698","0.0-111.0-0.0","34313623","wem/bandit_single","A2NQOD21QCRKG0","gain","6","","74","J","1","","0","0","1","0.3550305672","","false","74","0.3616968722","","main_expt","0.3550305672","","0.3721906724","","0.3977974162","","","","","","",""
"81","","bandit","150","500567","0.0-112.0-0.0","34313623","wem/bandit_single","A2NQOD21QCRKG0","gain","6","","75","K","2","","0","0","1","0.3111946895","","false","75","0.3975057441","","main_expt","0.2927321298","","0.3111946895","","0.4267201321","","","","","","",""
"107","","bandit","151","502454","0.0-113.0-0.0","34313623","wem/bandit_single","A2NQOD21QCRKG0","gain","6","","75","K","2","","1","0","0","0.3336428477","","false","76","0.3807363423","","main_expt","0.2842047713","","0.3336428477","","0.4263250047","","","","","","",""
"287","","bandit","152","504537","0.0-114.0-0.0","34313623","wem/bandit_single","A2NQOD21QCRKG0","gain","6","","75","K","2","","0","0","1","0.2972108807","","false","77","0.394346207","","main_expt","0.291961298","","0.2972108807","","0.4081139898","","","","","","",""
"200","","bandit","153","506514","0.0-115.0-0.0","34313623","wem/bandit_single","A2NQOD21QCRKG0","gain","6","","75","K","2","","0","0","1","0.3500338334","","false","78","0.4130135997","","main_expt","0.2772504781","","0.3500338334","","0.4081745619","","","","","","",""
"77","","bandit","154","508372","0.0-116.0-0.0","34313623","wem/bandit_single","A2NQOD21QCRKG0","gain","6","","76","L","3","","0","0","1","0.4210543479","","false","79","0.388257836","","main_expt","0.2910266255","","0.3382579744","","0.4210543479","","","","","","",""
"106","","bandit","155","510278","0.0-117.0-0.0","34313623","wem/bandit_single","A2NQOD21QCRKG0","gain","6","","76","L","3","","1","0","0","0.4173400146","","false","80","0.402189785","","main_expt","0.3236474027","","0.2848378437","","0.4173400146","","","","","","",""
"399","","bandit","156","512464","0.0-118.0-0.0","34313623","wem/bandit_single","A2NQOD21QCRKG0","gain","6","","76","L","3","","1","0","0","0.3876294662","","false","81","0.4188164015","","main_expt","0.3171491255","","0.2824957966","","0.3876294662","","","","","","",""
"353","","bandit","157","514619","0.0-119.0-0.0","34313623","wem/bandit_single","A2NQOD21QCRKG0","gain","6","","76","L","3","","0","0","1","0.3960397656","","false","82","0.3923487362","","main_expt","0.3253049084","","0.2921189703","","0.3960397656","","","","","","",""
"291","","bandit","158","516698","0.0-120.0-0.0","34313623","wem/bandit_single","A2NQOD21QCRKG0","gain","6","","76","L","3","","1","0","0","0.4048972575","","false","83","0.3765831671","","main_expt","0.2650825447","","0.346808059","","0.4048972575","","","","","","",""
"463","","bandit","159","518948","0.0-121.0-0.0","34313623","wem/bandit_single","A2NQOD21QCRKG0","gain","6","","76","L","3","","0","0","1","0.4261464595","","false","84","0.3744655151","","main_expt","0.2860936523","","0.3142369957","","0.4261464595","","","","","","",""
"38","","bandit","160","520775","0.0-122.0-0.0","34313623","wem/bandit_single","A2NQOD21QCRKG0","gain","6","","76","L","3","","0","0","1","0.4252889048","","false","85","0.4097897279","","main_expt","0.2965161573","","0.3336664699","","0.4252889048","","","","","","",""
"81","","bandit","161","522631","0.0-123.0-0.0","34313623","wem/bandit_single","A2NQOD21QCRKG0","gain","6","","76","L","3","","0","0","1","0.4234238012","","false","86","0.4365994201","","main_expt","0.2718920201","","0.3487181938","","0.4234238012","","","","","","",""
"22","","bandit","162","524445","0.0-124.0-0.0","34313623","wem/bandit_single","A2NQOD21QCRKG0","gain","6","","76","L","3","","1","0","0","0.4493325849","","false","87","0.4485753971","","main_expt","0.2663647104","","0.3595256023","","0.4493325849","","","","","","",""
"81","","bandit","163","526313","0.0-125.0-0.0","34313623","wem/bandit_single","A2NQOD21QCRKG0","gain","6","","76","L","3","","1","0","0","0.4618336953","","false","88","0.4682155013","","main_expt","0.2505207396","","0.3633435887","","0.4618336953","","","","","","",""
"259","","bandit","164","528381","0.0-126.0-0.0","34313623","wem/bandit_single","A2NQOD21QCRKG0","gain","6","","76","L","3","","0","0","1","0.470357169","","false","89","0.455546077","","main_expt","0.2380326514","","0.3301577903","","0.470357169","","","","","","",""
"2252","","bandit","165","532406","0.0-127.0-0.0","34313623","wem/bandit_single","A2NQOD21QCRKG0","gain","6","","76","L","3","","1","0","0","0.4756012524","","false","90","0.4648286352","","main_expt","0.2825572521","","0.2983975746","","0.4756012524","","","","","","",""
"263","","bandit","166","534443","0.0-128.0-0.0","34313623","wem/bandit_single","A2NQOD21QCRKG0","gain","6","","76","L","3","","1","0","0","0.4661355378","","false","91","0.4597569826","","main_expt","0.3629334232","","0.2708507867","","0.4661355378","","","","","","",""
"1043","","bandit","167","537278","0.0-129.0-0.0","34313623","wem/bandit_single","A2NQOD21QCRKG0","gain","6","","76","L","3","","1","0","0","0.4640816948","","false","92","0.4636055165","","main_expt","0.4318733099","","0.2025174094","","0.4640816948","","","","","","",""
"106","","bandit","168","539167","0.0-130.0-0.0","34313623","wem/bandit_single","A2NQOD21QCRKG0","gain","6","","76","L","3","","0","0","1","0.4745032584","","false","93","0.4344757896","","main_expt","0.4354989634","","0.1991535532","","0.4745032584","","","","","","",""
"47","","bandit","169","540999","0.0-131.0-0.0","34313623","wem/bandit_single","A2NQOD21QCRKG0","gain","6","","76","L","3","","0","0","1","0.4713826624","","false","94","0.4540573516","","main_expt","0.4569950804","","0.2072674268","","0.4713826624","","","","","","",""
"882","","bandit","170","543669","0.0-132.0-0.0","34313623","wem/bandit_single","A2NQOD21QCRKG0","gain","6","","76","L","3","","1","0","0","0.4518091014","","false","95","0.467393544","","main_expt","0.4626037768","","0.2139910976","","0.4518091014","","","","","","",""
"115","","bandit","171","545579","0.0-133.0-0.0","34313623","wem/bandit_single","A2NQOD21QCRKG0","gain","6","","76","L","3","","1","0","0","0.4610288074","","false","96","0.4523779492","","main_expt","0.4632162831","","0.1714021876","","0.4610288074","","","","","","",""
"77","","bandit","172","547449","0.0-134.0-0.0","34313623","wem/bandit_single","A2NQOD21QCRKG0","gain","6","","76","L","3","","0","0","1","0.4610411697","","false","97","0.4734298584","","main_expt","0.4574348148","","0.1776734449","","0.4610411697","","","","","","",""
"16","","bandit","173","549253","0.0-135.0-0.0","34313623","wem/bandit_single","A2NQOD21QCRKG0","gain","6","","76","L","3","","1","0","0","0.4658458747","","false","98","0.4822123269","","main_expt","0.4551488225","","0.2143852757","","0.4658458747","","","","","","",""
"347","","bandit","174","551383","0.0-136.0-0.0","34313623","wem/bandit_single","A2NQOD21QCRKG0","gain","6","","76","L","3","","0","0","1","0.4372748216","","false","99","0.4829706494","","main_expt","0.4604873832","","0.2341872784","","0.4372748216","","","","","","",""
"116","","bandit","175","553287","0.0-137.0-0.0","34313623","wem/bandit_single","A2NQOD21QCRKG0","gain","6","","76","L","3","","0","0","1","0.4237986198","","false","100","0.4918551361","","main_expt","0.4364445071","","0.2835639283","","0.4237986198","","","","","","",""
"140","","bandit","176","555218","0.0-138.0-0.0","34313623","wem/bandit_single","A2NQOD21QCRKG0","gain","6","","76","L","3","","0","0","1","0.4239408107","","false","101","0.4891782125","","main_expt","0.4152010141","","0.3342764243","","0.4239408107","","","","","","",""
"314","","bandit","177","557314","0.0-139.0-0.0","34313623","wem/bandit_single","A2NQOD21QCRKG0","gain","6","","76","L","3","","1","0","0","0.4482877494","","false","102","0.484620563","","main_expt","0.4463558977","","0.3693598309","","0.4482877494","","","","","","",""
"560","","bandit","178","559652","0.0-140.0-0.0","34313623","wem/bandit_single","A2NQOD21QCRKG0","gain","6","","76","L","3","","0","0","1","0.4319618448","","false","103","0.4880888492","","main_expt","0.4519222506","","0.3465782007","","0.4319618448","","","","","","",""
"65","","bandit","179","561517","0.0-141.0-0.0","34313623","wem/bandit_single","A2NQOD21QCRKG0","gain","6","","76","L","3","","1","0","0","0.3989131432","","false","104","0.4862983338","","main_expt","0.44950272","","0.356437927","","0.3989131432","","","","","","",""
"368","","bandit","180","563652","0.0-142.0-0.0","34313623","wem/bandit_single","A2NQOD21QCRKG0","gain","6","","76","L","3","","1","0","0","0.3718051273","","false","105","0.4761426531","","main_expt","0.4631277203","","0.349556789","","0.3718051273","","","","","","",""
"84","","bandit","181","565533","0.0-143.0-0.0","34313623","wem/bandit_single","A2NQOD21QCRKG0","gain","6","","76","L","3","","1","0","0","0.3820213715","","false","106","0.4724420891","","main_expt","0.4761070442","","0.3368343046","","0.3820213715","","","","","","",""
"53","","bandit","182","567386","0.0-144.0-0.0","34313623","wem/bandit_single","A2NQOD21QCRKG0","gain","6","","76","L","3","","1","0","0","0.3903902173","","false","107","0.4544285192","","main_expt","0.4574049266","","0.3492990444","","0.3903902173","","","","","","",""
"199","","bandit","183","569377","0.0-145.0-0.0","34313623","wem/bandit_single","A2NQOD21QCRKG0","gain","6","","76","L","3","","1","0","0","0.424383047","","false","108","0.4489506099","","main_expt","0.4342229458","","0.3657086014","","0.424383047","","","","","","",""
"59","","bandit","184","571207","0.0-146.0-0.0","34313623","wem/bandit_single","A2NQOD21QCRKG0","gain","6","","76","L","3","","0","0","1","0.3732822228","","false","109","0.4357570441","","main_expt","0.4437976733","","0.3473329542","","0.3732822228","","","","","","",""
"870","","bandit","185","573866","0.0-147.0-0.0","34313623","wem/bandit_single","A2NQOD21QCRKG0","gain","6","","76","L","3","","0","0","1","0.3545846445","","false","110","0.4243789051","","main_expt","0.4131704669","","0.3937482981","","0.3545846445","","","","","","",""
"279","","bandit","186","575937","0.0-148.0-0.0","34313623","wem/bandit_single","A2NQOD21QCRKG0","gain","6","","76","L","3","","0","0","1","0.2861948885","","false","111","0.4235572131","","main_expt","0.3849612216","","0.4067223002","","0.2861948885","","","","","","",""
"816","","bandit","187","578560","0.0-149.0-0.0","34313623","wem/bandit_single","A2NQOD21QCRKG0","gain","6","","74","J","1","","0","0","1","0.4197473064","","false","112","0.4216330179","","main_expt","0.4197473064","","0.3791461054","","0.3148935151","","","","","","",""
"125","","bandit","188","580460","0.0-150.0-0.0","34313623","wem/bandit_single","A2NQOD21QCRKG0","gain","6","","75","K","2","","0","0","1","0.3697872407","","false","113","0.3981229654","","main_expt","0.4477672952","","0.3697872407","","0.310891148","","","","","","",""
"119","","bandit","189","582383","0.0-151.0-0.0","34313623","wem/bandit_single","A2NQOD21QCRKG0","gain","6","","74","J","1","","0","0","1","0.4347577032","","false","114","0.4051483532","","main_expt","0.4347577032","","0.3542284497","","0.3312817134","","","","","","",""
"622","","bandit","190","584791","0.0-152.0-0.0","34313623","wem/bandit_single","A2NQOD21QCRKG0","gain","6","","72","H","0","img/none_selected.jpg","0","0","1","0.3664587937","","false","115","0.3664587937","","main_expt","0.4123529648","","0.3424252445","","0.3328181623","","","","","","",""
"161","","bandit","191","586760","0.0-153.0-0.0","34313623","wem/bandit_single","A2NQOD21QCRKG0","gain","6","","75","K","2","","0","0","1","0.3364913945","","false","116","0.3815824605","","main_expt","0.4374051313","","0.3364913945","","0.282168926","","","","","","",""
"92","","bandit","192","588658","0.0-154.0-0.0","34313623","wem/bandit_single","A2NQOD21QCRKG0","gain","6","","76","L","3","","0","0","1","0.3282440564","","false","117","0.3718524962","","main_expt","0.4336999329","","0.3607093693","","0.3282440564","","","","","","",""
"127","","bandit","193","590581","0.0-155.0-0.0","34313623","wem/bandit_single","A2NQOD21QCRKG0","gain","6","","76","L","3","","1","0","0","0.3735758205","","false","118","0.3228128462","","main_expt","0.4609057125","","0.3651530194","","0.3735758205","","","","","","",""
"166","","bandit","194","592546","0.0-156.0-0.0","34313623","wem/bandit_single","A2NQOD21QCRKG0","gain","6","","76","L","3","","1","0","0","0.4085136599","","false","119","0.3303119184","","main_expt","0.4644995027","","0.391691743","","0.4085136599","","","","","","",""
"76","","bandit","195","594419","0.0-157.0-0.0","34313623","wem/bandit_single","A2NQOD21QCRKG0","gain","6","","76","L","3","","1","0","0","0.4152109264","","false","120","0.3566896217","","main_expt","0.4699288035","","0.3892352466","","0.4152109264","","","","","","",""
"503","","bandit","196","596712","0.0-158.0-0.0","34313623","wem/bandit_single","A2NQOD21QCRKG0","gain","6","","76","L","3","","1","0","0","0.4362055741","","false","121","0.3938610898","","main_expt","0.48416914","","0.4119078466","","0.4362055741","","","","","","",""
"209","","bandit","197","598702","0.0-159.0-0.0","34313623","wem/bandit_single","A2NQOD21QCRKG0","gain","6","","76","L","3","","0","0","1","0.4381361327","","false","122","0.3846692282","","main_expt","0.4744752566","","0.3864510994","","0.4381361327","","","","","","",""
"227","","bandit","198","600727","0.0-160.0-0.0","34313623","wem/bandit_single","A2NQOD21QCRKG0","gain","6","","76","L","3","","0","0","1","0.4266523018","","false","123","0.3479888462","","main_expt","0.4770694964","","0.3206095238","","0.4266523018","","","","","","",""
"855","","bandit","199","603373","0.0-161.0-0.0","34313623","wem/bandit_single","A2NQOD21QCRKG0","gain","6","","74","J","1","","1","0","0","0.4882663864","","false","124","0.3446564944","","main_expt","0.4882663864","","0.3004639257","","0.3976500929","","","","","","",""
"247","","bandit","200","605414","0.0-162.0-0.0","34313623","wem/bandit_single","A2NQOD21QCRKG0","gain","6","","74","J","1","","1","0","0","0.4867438878","","false","125","0.3742116014","","main_expt","0.4867438878","","0.2718713493","","0.4004048686","","","","","","",""
"307","","bandit","201","607502","0.0-163.0-0.0","34313623","wem/bandit_single","A2NQOD21QCRKG0","gain","6","","74","J","1","","0","0","1","0.4859509926","","false","126","0.3522130289","","main_expt","0.4859509926","","0.312825386","","0.3978852423","","","","","","",""
"160","","bandit","202","609458","0.0-164.0-0.0","34313623","wem/bandit_single","A2NQOD21QCRKG0","gain","6","","74","J","1","","1","0","0","0.4910312391","","false","127","0.4136983804","","main_expt","0.4910312391","","0.2929193121","","0.4164913371","","","","","","",""
"299","","bandit","203","611555","0.0-165.0-0.0","34313623","wem/bandit_single","A2NQOD21QCRKG0","gain","6","","74","J","1","","1","0","0","0.4916106826","","false","128","0.3740150402","","main_expt","0.4916106826","","0.3483635392","","0.4273270633","","","","","","",""
"703","","bandit","204","614062","0.0-166.0-0.0","34313623","wem/bandit_single","A2NQOD21QCRKG0","gain","6","","74","J","1","","1","0","0","0.4774596984","","false","129","0.3561584853","","main_expt","0.4774596984","","0.3180783589","","0.4403517336","","","","","","",""
"753","","bandit","205","616612","0.0-167.0-0.0","34313623","wem/bandit_single","A2NQOD21QCRKG0","gain","6","","74","J","1","","0","0","1","0.4792113904","","false","130","0.3781611856","","main_expt","0.4792113904","","0.332672873","","0.436469863","","","","","","",""
"129","","bandit","206","618541","0.0-168.0-0.0","34313623","wem/bandit_single","A2NQOD21QCRKG0","gain","6","","74","J","1","","1","0","0","0.4761250173","","false","131","0.3972118802","","main_expt","0.4761250173","","0.3172252399","","0.467157068","","","","","","",""
"370","","bandit","207","620708","0.0-169.0-0.0","34313623","wem/bandit_single","A2NQOD21QCRKG0","gain","6","","74","J","1","","0","0","1","0.4782449011","","false","132","0.3951630556","","main_expt","0.4782449011","","0.2808852702","","0.4747764211","","","","","","",""
"113","","bandit","208","622600","0.0-170.0-0.0","34313623","wem/bandit_single","A2NQOD21QCRKG0","gain","6","","74","J","1","","0","0","1","0.4789501527","","false","133","0.3918056992","","main_expt","0.4789501527","","0.2846237695","","0.4662147581","","","","","","",""
"418","","bandit","209","624831","0.0-171.0-0.0","34313623","wem/bandit_single","A2NQOD21QCRKG0","gain","6","","74","J","1","","0","0","1","0.4821877595","","false","134","0.395342783","","main_expt","0.4821877595","","0.3115497245","","0.4711951182","","","","","","",""
"7","","bandit","210","626622","0.0-172.0-0.0","34313623","wem/bandit_single","A2NQOD21QCRKG0","gain","6","","76","L","3","","0","0","1","0.4540730246","","false","135","0.3867762939","","main_expt","0.4863767518","","0.3413582918","","0.4540730246","","","","","","",""
"84","","bandit","211","628498","0.0-173.0-0.0","34313623","wem/bandit_single","A2NQOD21QCRKG0","gain","6","","76","L","3","","1","0","0","0.4412688847","","false","136","0.3929594686","","main_expt","0.4887786445","","0.316763081","","0.4412688847","","","","","","",""
"619","","bandit","212","630923","0.0-174.0-0.0","34313623","wem/bandit_single","A2NQOD21QCRKG0","gain","6","","76","L","3","","1","0","0","0.4585130214","","false","137","0.3067223256","","main_expt","0.4896902137","","0.2585559296","","0.4585130214","","","","","","",""
"180","","bandit","213","632908","0.0-175.0-0.0","34313623","wem/bandit_single","A2NQOD21QCRKG0","gain","6","","76","L","3","","1","0","0","0.4413786145","","false","138","0.3444805877","","main_expt","0.4754525561","","0.2320291273","","0.4413786145","","","","","","",""
"197","","bandit","214","634894","0.0-176.0-0.0","34313623","wem/bandit_single","A2NQOD21QCRKG0","gain","6","","76","L","3","","1","0","0","0.4235974169","","false","139","0.4025185773","","main_expt","0.4525902595","","0.2705305451","","0.4235974169","","","","","","",""
"295","","bandit","215","636989","0.0-177.0-0.0","34313623","wem/bandit_single","A2NQOD21QCRKG0","gain","6","","76","L","3","","0","0","1","0.3993595144","","false","140","0.4000290511","","main_expt","0.474141966","","0.2115164241","","0.3993595144","","","","","","",""
"2","","bandit","216","638765","0.0-178.0-0.0","34313623","wem/bandit_single","A2NQOD21QCRKG0","gain","6","","76","L","3","","0","0","1","0.3845482665","","false","141","0.4052231698","","main_expt","0.4642583801","","0.2166269704","","0.3845482665","","","","","","",""
"98","","bandit","217","640668","0.0-179.0-0.0","34313623","wem/bandit_single","A2NQOD21QCRKG0","gain","6","","76","L","3","","0","0","1","0.3636407915","","false","142","0.3881257509","","main_expt","0.4713728632","","0.2477117994","","0.3636407915","","","","","","",""
"285","","bandit","218","642756","0.0-180.0-0.0","34313623","wem/bandit_single","A2NQOD21QCRKG0","gain","6","","76","L","3","","0","0","1","0.3360879677","","false","143","0.4101759482","","main_expt","0.4714731714","","0.2347168821","","0.3360879677","","","","","","",""
"88","","bandit","219","644654","0.0-181.0-0.0","34313623","wem/bandit_single","A2NQOD21QCRKG0","gain","6","","76","L","3","","0","0","1","0.2886719504","","false","144","0.4100488723","","main_expt","0.4777196865","","0.190213181","","0.2886719504","","","","","","",""
"89","","bandit","220","646541","0.0-182.0-0.0","34313623","wem/bandit_single","A2NQOD21QCRKG0","gain","6","","76","L","3","","0","0","1","0.2607344777","","false","145","0.4294240464","","main_expt","0.467438704","","0.2873677543","","0.2607344777","","","","","","",""
"452","","bandit","221","648805","0.0-183.0-0.0","34313623","wem/bandit_single","A2NQOD21QCRKG0","gain","6","","76","L","3","","1","0","0","0.261523257","","false","146","0.4447984025","","main_expt","0.4764572222","","0.3434581746","","0.261523257","","","","","","",""
"187","","bandit","222","650775","0.0-184.0-0.0","34313623","wem/bandit_single","A2NQOD21QCRKG0","gain","6","","76","L","3","","0","0","1","0.2768268543","","false","147","0.4339083406","","main_expt","0.4670163239","","0.3677167414","","0.2768268543","","","","","","",""
"84","","bandit","223","652660","0.0-185.0-0.0","34313623","wem/bandit_single","A2NQOD21QCRKG0","gain","6","","76","L","3","","0","0","1","0.2822793125","","false","148","0.4200875786","","main_expt","0.4762727371","","0.378672096","","0.2822793125","","","","","","",""
"44","","bandit","224","654508","0.0-186.0-0.0","34313623","wem/bandit_single","A2NQOD21QCRKG0","gain","6","","76","L","3","","0","0","1","0.3100291085","","false","149","0.4370731276","","main_expt","0.4763998188","","0.3447579657","","0.3100291085","","","","","","",""
"555","","bandit","225","656850","0.0-187.0-0.0","34313623","wem/bandit_single","A2NQOD21QCRKG0","gain","6","","74","J","1","","1","0","0","0.4534074178","","false","150","0.4606741766","","main_expt","0.4534074178","","0.3225325285","","0.3473977335","","","","","","",""
"417","","bandit","226","659049","0.0-188.0-0.0","34313623","wem/bandit_single","A2NQOD21QCRKG0","gain","6","","74","J","1","","0","0","1","0.4518750411","","false","151","0.4831185644","","main_expt","0.4518750411","","0.2971371866","","0.3755194153","","","","","","",""
"308","","bandit","227","661136","0.0-189.0-0.0","34313623","wem/bandit_single","A2NQOD21QCRKG0","gain","6","","74","J","1","","0","0","1","0.4724220712","","false","152","0.489350082","","main_expt","0.4724220712","","0.2436525959","","0.3931135366","","","","","","",""
"103","","bandit","228","663040","0.0-190.0-0.0","34313623","wem/bandit_single","A2NQOD21QCRKG0","gain","6","","76","L","3","","0","0","1","0.3704791656","","false","153","0.4874668037","","main_expt","0.4655138208","","0.2745817176","","0.3704791656","","","","","","",""
"82","","bandit","229","664888","0.0-191.0-0.0","34313623","wem/bandit_single","A2NQOD21QCRKG0","gain","6","","75","K","2","","0","0","1","0.2354012901","","false","154","0.4906252114","","main_expt","0.466892577","","0.2354012901","","0.3918087328","","","","","","",""
"164","","bandit","230","666843","0.0-192.0-0.0","34313623","wem/bandit_single","A2NQOD21QCRKG0","gain","6","","72","H","0","img/none_selected.jpg","0","0","1","0.4807331657","","false","155","0.4807331657","","main_expt","0.4696525674","","0.2125693007","","0.3629162862","","","","","","",""
"154","","bandit","231","668803","0.0-193.0-0.0","34313623","wem/bandit_single","A2NQOD21QCRKG0","gain","6","","72","H","0","img/none_selected.jpg","1","0","0","0.4886913858","","false","156","0.4886913858","","main_expt","0.4798639378","","0.2344806361","","0.3329402669","","","","","","",""
"306","","bandit","232","670900","0.0-194.0-0.0","34313623","wem/bandit_single","A2NQOD21QCRKG0","gain","6","","72","H","0","img/none_selected.jpg","0","0","1","0.4791259403","","false","157","0.4791259403","","main_expt","0.4706110477","","0.1314384861","","0.2681960896","","","","","","",""
"197","","bandit","233","672903","0.0-195.0-0.0","34313623","wem/bandit_single","A2NQOD21QCRKG0","gain","6","","72","H","0","img/none_selected.jpg","1","0","0","0.4733263956","","false","158","0.4733263956","","main_expt","0.4469873257","","0.181857365","","0.2540197996","","","","","","",""
"230","","bandit","234","674923","0.0-196.0-0.0","34313623","wem/bandit_single","A2NQOD21QCRKG0","gain","6","","72","H","0","img/none_selected.jpg","0","0","1","0.4815819336","","false","159","0.4815819336","","main_expt","0.4239904196","","0.158015958","","0.2609952623","","","","","","",""
"115","","bandit","235","676839","0.0-197.0-0.0","34313623","wem/bandit_single","A2NQOD21QCRKG0","gain","6","","72","H","0","img/none_selected.jpg","1","0","0","0.4721468952","","false","160","0.4721468952","","main_expt","0.4459131135","","0.141078422","","0.2023108268","","","","","","",""
"150","","bandit","236","678776","0.0-198.0-0.0","34313623","wem/bandit_single","A2NQOD21QCRKG0","gain","6","","72","H","0","img/none_selected.jpg","0","0","1","0.4711146003","","false","161","0.4711146003","","main_expt","0.4186734055","","0.1347361735","","0.2500661268","","","","","","",""
"494","","bandit","237","681071","0.0-199.0-0.0","34313623","wem/bandit_single","A2NQOD21QCRKG0","gain","6","","72","H","0","img/none_selected.jpg","0","0","1","0.4712261849","","false","162","0.4712261849","","main_expt","0.3857154427","","0.09535719087","","0.2540596089","","","","","","",""
"458","","bandit","238","683330","0.0-200.0-0.0","34313623","wem/bandit_single","A2NQOD21QCRKG0","gain","6","","72","H","0","img/none_selected.jpg","0","0","1","0.4845321786","","false","163","0.4845321786","","main_expt","0.4174701589","","0.08326456225","","0.2601053227","","","","","","",""
"163","","bandit","239","685292","0.0-201.0-0.0","34313623","wem/bandit_single","A2NQOD21QCRKG0","gain","6","","74","J","1","","0","0","1","0.3890878976","","false","164","0.4759389929","","main_expt","0.3890878976","","0.09053498257","","0.2541421927","","","","","","",""
"184","","bandit","240","687283","0.0-202.0-0.0","34313623","wem/bandit_single","A2NQOD21QCRKG0","gain","6","","74","J","1","","1","0","0","0.4138915172","","false","165","0.4720948066","","main_expt","0.4138915172","","0.08506048778","","0.2481661974","","","","","","",""
"432","","bandit","241","689507","0.0-203.0-0.0","34313623","wem/bandit_single","A2NQOD21QCRKG0","gain","6","","74","J","1","","1","0","0","0.3965001983","","false","166","0.4785392204","","main_expt","0.3965001983","","0.1313511463","","0.2774316831","","","","","","",""
"978","","bandit","242","692282","0.0-204.0-0.0","34313623","wem/bandit_single","A2NQOD21QCRKG0","gain","6","","74","J","1","","0","0","1","0.3565429409","","false","167","0.4807372421","","main_expt","0.3565429409","","0.1176964862","","0.2487678046","","","","","","",""
"282","","bandit","243","694354","0.0-205.0-0.0","34313623","wem/bandit_single","A2NQOD21QCRKG0","gain","6","","74","J","1","","0","0","1","0.3697134737","","false","168","0.4679921472","","main_expt","0.3697134737","","0.08442850793","","0.3058486258","","","","","","",""
"318","","bandit","244","696469","0.0-206.0-0.0","34313623","wem/bandit_single","A2NQOD21QCRKG0","gain","6","","74","J","1","","0","0","1","0.3754926497","","false","169","0.4504326489","","main_expt","0.3754926497","","0.08508452716","","0.3196595105","","","","","","",""
"190","","bandit","245","698444","0.0-207.0-0.0","34313623","wem/bandit_single","A2NQOD21QCRKG0","gain","6","","76","L","3","","0","0","1","0.2675331271","","false","170","0.4575738232","","main_expt","0.3688606114","","0.06647736925","","0.2675331271","","","","","","",""
"121","","bandit","246","700335","0.0-208.0-0.0","34313623","wem/bandit_single","A2NQOD21QCRKG0","gain","6","","76","L","3","","0","0","1","0.2898788388","","false","171","0.4515033555","","main_expt","0.3548436987","","0.05048422731","","0.2898788388","","","","","","",""
"78","","bandit","247","702218","0.0-209.0-0.0","34313623","wem/bandit_single","A2NQOD21QCRKG0","gain","6","","76","L","3","","0","0","1","0.3066863737","","false","172","0.4804896953","","main_expt","0.3789739593","","0.05782489063","","0.3066863737","","","","","","",""
"155","","bandit","248","704155","0.0-210.0-0.0","34313623","wem/bandit_single","A2NQOD21QCRKG0","gain","6","","75","K","2","","0","0","1","0.05297704283","","false","173","0.4915792717","","main_expt","0.361488512","","0.05297704283","","0.2694007619","","","","","","",""
"258","","bandit","249","706208","0.0-211.0-0.0","34313623","wem/bandit_single","A2NQOD21QCRKG0","gain","6","","75","K","2","","0","0","1","0.05353397103","","false","174","0.4861742571","","main_expt","0.3460135238","","0.05353397103","","0.2754062015","","","","","","",""
"161","","bandit","250","708152","0.0-212.0-0.0","34313623","wem/bandit_single","A2NQOD21QCRKG0","gain","6","","75","K","2","","0","0","1","0.03778759003","","false","175","0.4817940596","","main_expt","0.3522158256","","0.03778759003","","0.296446081","","","","","","",""
"59","","bandit","251","710009","0.0-213.0-0.0","34313623","wem/bandit_single","A2NQOD21QCRKG0","gain","6","","72","H","0","img/none_selected.jpg","0","0","1","0.4757066075","","false","176","0.4757066075","","main_expt","0.2998164985","","0.02527008277","","0.3058710094","","","","","","",""
"159","","bandit","252","711964","0.0-214.0-0.0","34313623","wem/bandit_single","A2NQOD21QCRKG0","gain","6","","72","H","0","img/none_selected.jpg","1","0","0","0.4781570811","","false","177","0.4781570811","","main_expt","0.2523084086","","0.03305249037","","0.2349503117","","","","","","",""
"295","","bandit","253","714069","0.0-215.0-0.0","34313623","wem/bandit_single","A2NQOD21QCRKG0","gain","6","","72","H","0","img/none_selected.jpg","1","0","0","0.4800614517","","false","178","0.4800614517","","main_expt","0.304071788","","0.03386287722","","0.2619038699","","","","","","",""
"265","","bandit","254","716124","0.0-216.0-0.0","34313623","wem/bandit_single","A2NQOD21QCRKG0","gain","6","","72","H","0","img/none_selected.jpg","1","0","0","0.4829502963","","false","179","0.4829502963","","main_expt","0.2871062198","","0.04065763291","","0.2830684205","","","","","","",""
"306","","bandit","255","718235","0.0-217.0-0.0","34313623","wem/bandit_single","A2NQOD21QCRKG0","gain","6","","72","H","0","img/none_selected.jpg","1","0","0","0.4858173281","","false","180","0.4858173281","","main_expt","0.2266659288","","0.05743716857","","0.3534450431","","","","","","",""
"391","","bandit","256","720415","0.0-218.0-0.0","34313623","wem/bandit_single","A2NQOD21QCRKG0","gain","6","","72","H","0","img/none_selected.jpg","0","0","1","0.4744777914","","false","181","0.4744777914","","main_expt","0.221928096","","0.04418568229","","0.3212605574","","","","","","",""
"579","","bandit","257","722775","0.0-219.0-0.0","34313623","wem/bandit_single","A2NQOD21QCRKG0","gain","6","","72","H","0","img/none_selected.jpg","1","0","0","0.4845259409","","false","182","0.4845259409","","main_expt","0.2300829386","","0.08176319179","","0.3315430587","","","","","","",""
"481","","bandit","258","725066","0.0-220.0-0.0","34313623","wem/bandit_single","A2NQOD21QCRKG0","gain","6","","72","H","0","img/none_selected.jpg","1","0","0","0.481953826","","false","183","0.481953826","","main_expt","0.236046558","","0.127405614","","0.3284942609","","","","","","",""
"71","","bandit","259","726933","0.0-221.0-0.0","34313623","wem/bandit_single","A2NQOD21QCRKG0","gain","6","","72","H","0","img/none_selected.jpg","1","0","0","0.4855041368","","false","184","0.4855041368","","main_expt","0.2923178249","","0.08615736955","","0.3122619856","","","","","","",""
"239","","bandit","260","728953","0.0-222.0-0.0","34313623","wem/bandit_single","A2NQOD21QCRKG0","gain","6","","72","H","0","img/none_selected.jpg","1","0","0","0.4698046591","","false","185","0.4698046591","","main_expt","0.2808840613","","0.1184297318","","0.2923416166","","","","","","",""
"800","","bandit","261","731536","0.0-223.0-0.0","34313623","wem/bandit_single","A2NQOD21QCRKG0","gain","6","","72","H","0","img/none_selected.jpg","1","0","0","0.4595088788","","false","186","0.4595088788","","main_expt","0.2016881086","","0.1909222977","","0.2743414945","","","","","","",""
"260","","bandit","262","733581","0.0-224.0-0.0","34313623","wem/bandit_single","A2NQOD21QCRKG0","gain","6","","72","H","0","img/none_selected.jpg","0","0","1","0.4646501277","","false","187","0.4646501277","","main_expt","0.2403842116","","0.156943311","","0.3313242874","","","","","","",""
"186","","bandit","263","735562","0.0-225.0-0.0","34313623","wem/bandit_single","A2NQOD21QCRKG0","gain","6","","72","H","0","img/none_selected.jpg","0","0","1","0.4587354039","","false","188","0.4587354039","","main_expt","0.2559443775","","0.139104156","","0.3665806697","","","","","","",""
"158","","bandit","264","737515","0.0-226.0-0.0","34313623","wem/bandit_single","A2NQOD21QCRKG0","gain","6","","72","H","0","img/none_selected.jpg","0","0","1","0.4433819168","","false","189","0.4433819168","","main_expt","0.2450962267","","0.1984961232","","0.3982105691","","","","","","",""
"71","","bandit","265","739383","0.0-227.0-0.0","34313623","wem/bandit_single","A2NQOD21QCRKG0","gain","6","","74","J","1","","1","0","0","0.2520413598","","false","190","0.441597313","","main_expt","0.2520413598","","0.3152507924","","0.4063069195","","","","","","",""
"354","","bandit","266","741517","0.0-228.0-0.0","34313623","wem/bandit_single","A2NQOD21QCRKG0","gain","6","","74","J","1","","0","0","1","0.3069822625","","false","191","0.4447050695","","main_expt","0.3069822625","","0.34868685","","0.4073058099","","","","","","",""
"287","","bandit","267","743579","0.0-229.0-0.0","34313623","wem/bandit_single","A2NQOD21QCRKG0","gain","6","","74","J","1","","0","0","1","0.269658105","","false","192","0.3903647542","","main_expt","0.269658105","","0.3244392246","","0.3597632315","","","","","","",""
"185","","bandit","268","745567","0.0-230.0-0.0","34313623","wem/bandit_single","A2NQOD21QCRKG0","gain","6","","76","L","3","","0","0","1","0.3512918873","","false","193","0.37796371","","main_expt","0.2337652902","","0.3077199203","","0.3512918873","","","","","","",""
"59","","bandit","269","747408","0.0-231.0-0.0","34313623","wem/bandit_single","A2NQOD21QCRKG0","gain","6","","75","K","2","","0","0","1","0.3089314305","","false","194","0.4130200877","","main_expt","0.232364398","","0.3089314305","","0.2959519196","","","","","","",""
"116","","bandit","270","749312","0.0-232.0-0.0","34313623","wem/bandit_single","A2NQOD21QCRKG0","gain","6","","74","J","1","","0","0","1","0.3001816851","","false","195","0.4247195967","","main_expt","0.3001816851","","0.2747286701","","0.335494982","","","","","","",""
"204","","bandit","271","751338","0.0-233.0-0.0","34313623","wem/bandit_single","A2NQOD21QCRKG0","gain","6","","72","H","0","img/none_selected.jpg","0","0","1","0.4243543636","","false","196","0.4243543636","","main_expt","0.3408234979","","0.234477082","","0.349715921","","","","","","",""
"164","","bandit","272","753308","0.0-234.0-0.0","34313623","wem/bandit_single","A2NQOD21QCRKG0","gain","6","","72","H","0","img/none_selected.jpg","0","0","1","0.3856928417","","false","197","0.3856928417","","main_expt","0.3048500693","","0.2134381397","","0.301359959","","","","","","",""
"299","","bandit","273","755415","0.0-235.0-0.0","34313623","wem/bandit_single","A2NQOD21QCRKG0","gain","6","","74","J","1","","0","0","1","0.320222978","","false","198","0.3619593125","","main_expt","0.320222978","","0.1732682886","","0.2948231879","","","","","","",""
"1532","","bandit","274","758749","0.0-236.0-0.0","34313623","wem/bandit_single","A2NQOD21QCRKG0","gain","6","","74","J","1","","0","0","1","0.3267381451","","false","199","0.367752629","","main_expt","0.3267381451","","0.1702760897","","0.2739130918","","","","","","",""
"59","","bandit","275","760624","0.0-237.0-0.0","34313623","wem/bandit_single","A2NQOD21QCRKG0","gain","6","","74","J","1","","0","0","1","0.3471124056","","false","200","0.3243939248","","main_expt","0.3471124056","","0.1149890083","","0.2519174554","","","","","","",""
"314","","bandit","276","762733","0.0-238.0-0.0","34313623","wem/bandit_single","A2NQOD21QCRKG0","gain","6","","76","L","3","","0","0","1","0.2607800984","","false","201","0.309205964","","main_expt","0.377370495","","0.1378425817","","0.2607800984","","","","","","",""
"265","","bandit","277","764783","0.0-239.0-0.0","34313623","wem/bandit_single","A2NQOD21QCRKG0","gain","6","","76","L","3","","0","0","1","0.2144757733","","false","202","0.2762714965","","main_expt","0.4118986778","","0.1351165101","","0.2144757733","","","","","","",""
"932","","bandit","278","767512","0.0-240.0-0.0","34313623","wem/bandit_single","A2NQOD21QCRKG0","gain","6","","75","K","2","","0","0","1","0.105254576","","false","203","0.296808735","","main_expt","0.4232074982","","0.105254576","","0.3006883459","","","","","","",""
"595","","bandit","279","769913","0.0-241.0-0.0","34313623","wem/bandit_single","A2NQOD21QCRKG0","gain","6","","75","K","2","","0","0","1","0.09939331469","","false","204","0.3198559136","","main_expt","0.422672589","","0.09939331469","","0.3059688055","","","","","","",""
"149","","bandit","280","771864","0.0-242.0-0.0","34313623","wem/bandit_single","A2NQOD21QCRKG0","gain","6","","74","J","1","","1","0","0","0.4290364806","","false","205","0.3814451683","","main_expt","0.4290364806","","0.1099723927","","0.2810212056","","","","","","",""
"349","","bandit","281","774008","0.0-243.0-0.0","34313623","wem/bandit_single","A2NQOD21QCRKG0","gain","6","","74","J","1","","0","0","1","0.4412489094","","false","206","0.3836436308","","main_expt","0.4412489094","","0.1203356594","","0.2427537705","","","","","","",""
"267","","bandit","282","776083","0.0-244.0-0.0","34313623","wem/bandit_single","A2NQOD21QCRKG0","gain","6","","74","J","1","","0","0","1","0.461161346","","false","207","0.3943212714","","main_expt","0.461161346","","0.1887874267","","0.2312113295","","","","","","",""
"54","","bandit","283","777933","0.0-245.0-0.0","34313623","wem/bandit_single","A2NQOD21QCRKG0","gain","6","","72","H","0","img/none_selected.jpg","0","0","1","0.4100076043","","false","208","0.4100076043","","main_expt","0.4749000037","","0.1570662604","","0.2502246517","","","","","","",""
"547","","bandit","284","780283","0.0-246.0-0.0","34313623","wem/bandit_single","A2NQOD21QCRKG0","gain","6","","72","H","0","img/none_selected.jpg","0","0","1","0.4207901851","","false","209","0.4207901851","","main_expt","0.4677638209","","0.2050570797","","0.2378747501","","","","","","",""
"240","","bandit","285","782323","0.0-247.0-0.0","34313623","wem/bandit_single","A2NQOD21QCRKG0","gain","6","","74","J","1","","1","0","0","0.4507398287","","false","210","0.4261573075","","main_expt","0.4507398287","","0.1803355731","","0.2323826376","","","","","","",""
"927","","bandit","286","785032","0.0-248.0-0.0","34313623","wem/bandit_single","A2NQOD21QCRKG0","gain","6","","74","J","1","","1","0","0","0.4275102647","","false","211","0.3677002177","","main_expt","0.4275102647","","0.2066302241","","0.2346446126","","","","","","",""
"240","","bandit","287","787076","0.0-249.0-0.0","34313623","wem/bandit_single","A2NQOD21QCRKG0","gain","6","","74","J","1","","1","0","0","0.4147803006","","false","212","0.4030871251","","main_expt","0.4147803006","","0.2190460355","","0.2017096022","","","","","","",""
"226","","bandit","288","789094","0.0-250.0-0.0","34313623","wem/bandit_single","A2NQOD21QCRKG0","gain","6","","74","J","1","","0","0","1","0.4119553225","","false","213","0.3616850983","","main_expt","0.4119553225","","0.2433731683","","0.2149770465","","","","","","",""
"415","","bandit","289","791292","0.0-251.0-0.0","34313623","wem/bandit_single","A2NQOD21QCRKG0","gain","6","","74","J","1","","0","0","1","0.4097086646","","false","214","0.3380837625","","main_expt","0.4097086646","","0.2355486522","","0.2323699387","","","","","","",""
"199","","bandit","290","793270","0.0-252.0-0.0","34313623","wem/bandit_single","A2NQOD21QCRKG0","gain","6","","74","J","1","","0","0","1","0.4553079268","","false","215","0.3788103814","","main_expt","0.4553079268","","0.2493822419","","0.1880023584","","","","","","",""
"222","","bandit","291","795286","0.0-253.0-0.0","34313623","wem/bandit_single","A2NQOD21QCRKG0","gain","6","","74","J","1","","0","0","1","0.4360341733","","false","216","0.3844600678","","main_expt","0.4360341733","","0.2455091026","","0.2305078945","","","","","","",""
"140","","bandit","292","797223","0.0-254.0-0.0","34313623","wem/bandit_single","A2NQOD21QCRKG0","gain","6","","72","H","0","img/none_selected.jpg","1","0","0","0.3747540642","","false","217","0.3747540642","","main_expt","0.4337093526","","0.193913996","","0.2042922501","","","","","","",""
"383","","bandit","293","799395","0.0-255.0-0.0","34313623","wem/bandit_single","A2NQOD21QCRKG0","gain","6","","72","H","0","img/none_selected.jpg","0","0","1","0.373903774","","false","218","0.373903774","","main_expt","0.4646024675","","0.2375794361","","0.1827914188","","","","","","",""
"319","","bandit","294","801514","0.0-256.0-0.0","34313623","wem/bandit_single","A2NQOD21QCRKG0","gain","6","","72","H","0","img/none_selected.jpg","0","0","1","0.3735380413","","false","219","0.3735380413","","main_expt","0.4630893692","","0.2477723709","","0.2630445196","","","","","","",""
"91","","bandit","295","803402","0.0-257.0-0.0","34313623","wem/bandit_single","A2NQOD21QCRKG0","gain","6","","76","L","3","","0","0","1","0.311946342","","false","220","0.383917491","","main_expt","0.4683356487","","0.2543503475","","0.311946342","","","","","","",""
"190","","bandit","296","805383","0.0-258.0-0.0","34313623","wem/bandit_single","A2NQOD21QCRKG0","gain","6","","76","L","3","","0","0","1","0.2972788283","","false","221","0.3479973737","","main_expt","0.4682635517","","0.2776519347","","0.2972788283","","","","","","",""
"190","","bandit","297","807353","0.0-259.0-0.0","34313623","wem/bandit_single","A2NQOD21QCRKG0","gain","6","","75","K","2","","0","0","1","0.2291835432","","false","222","0.3845595158","","main_expt","0.4771668828","","0.2291835432","","0.3550400804","","","","","","",""
"150","","bandit","298","809304","0.0-260.0-0.0","34313623","wem/bandit_single","A2NQOD21QCRKG0","gain","6","","75","K","2","","0","0","1","0.2266132179","","false","223","0.368723436","","main_expt","0.4773959318","","0.2266132179","","0.3246239653","","","","","","",""
"121","","bandit","299","811213","0.0-261.0-0.0","34313623","wem/bandit_single","A2NQOD21QCRKG0","gain","6","","72","H","0","img/none_selected.jpg","0","0","1","0.3566991655","","false","224","0.3566991655","","main_expt","0.4567335023","","0.2124948974","","0.351266899","","","","","","",""
"24","","bandit","300","813027","0.0-262.0-0.0","34313623","wem/bandit_single","A2NQOD21QCRKG0","gain","6","","72","H","0","img/none_selected.jpg","0","0","1","0.3557331736","","false","225","0.3557331736","","main_expt","0.4545703871","","0.2168010387","","0.3617362435","","","","","","",""
"406","","bandit","301","815235","0.0-263.0-0.0","34313623","wem/bandit_single","A2NQOD21QCRKG0","gain","6","","74","J","1","","0","0","1","0.4563055184","","false","226","0.3620904828","","main_expt","0.4563055184","","0.2286352314","","0.3625162538","","","","","","",""
"295","","bandit","302","817338","0.0-264.0-0.0","34313623","wem/bandit_single","A2NQOD21QCRKG0","gain","6","","74","J","1","","0","0","1","0.4414344485","","false","227","0.3794330306","","main_expt","0.4414344485","","0.2349833204","","0.3638477037","","","","","","",""
"78","","bandit","303","819204","0.0-265.0-0.0","34313623","wem/bandit_single","A2NQOD21QCRKG0","gain","6","","72","H","0","img/none_selected.jpg","1","0","0","0.3480060926","","false","228","0.3480060926","","main_expt","0.4509897562","","0.2376541641","","0.321865515","","","","","","",""
"307","","bandit","304","821312","0.0-266.0-0.0","34313623","wem/bandit_single","A2NQOD21QCRKG0","gain","6","","72","H","0","img/none_selected.jpg","1","0","0","0.3197951212","","false","229","0.3197951212","","main_expt","0.4355264455","","0.2141250471","","0.2574970425","","","","","","",""
"142","","bandit","305","823234","0.0-267.0-0.0","34313623","wem/bandit_single","A2NQOD21QCRKG0","gain","6","","72","H","0","img/none_selected.jpg","0","0","1","0.2360623461","","false","230","0.2360623461","","main_expt","0.4393215817","","0.1986478114","","0.3167366343","","","","","","",""
"94","","bandit","306","825120","0.0-268.0-0.0","34313623","wem/bandit_single","A2NQOD21QCRKG0","gain","6","","72","H","0","img/none_selected.jpg","1","0","0","0.228441671","","false","231","0.228441671","","main_expt","0.426442838","","0.1632677176","","0.359889087","","","","","","",""
"49","","bandit","307","826967","0.0-269.0-0.0","34313623","wem/bandit_single","A2NQOD21QCRKG0","gain","6","","72","H","0","img/none_selected.jpg","1","0","0","0.2233622879","","false","232","0.2233622879","","main_expt","0.4455015341","","0.1437929512","","0.3765691143","","","","","","",""
"87","","bandit","308","828838","0.0-270.0-0.0","34313623","wem/bandit_single","A2NQOD21QCRKG0","gain","6","","72","H","0","img/none_selected.jpg","1","0","0","0.1782647691","","false","233","0.1782647691","","main_expt","0.4370113712","","0.2490618922","","0.351320345","","","","","","",""
"239","","bandit","309","830883","0.0-271.0-0.0","34313623","wem/bandit_single","A2NQOD21QCRKG0","gain","6","","72","H","0","img/none_selected.jpg","0","0","1","0.1971530904","","false","234","0.1971530904","","main_expt","0.4228056097","","0.2811602772","","0.2997083133","","","","","","",""
"105","","bandit","310","832790","0.0-272.0-0.0","34313623","wem/bandit_single","A2NQOD21QCRKG0","gain","6","","72","H","0","img/none_selected.jpg","1","0","0","0.2109348075","","false","235","0.2109348075","","main_expt","0.4176536857","","0.332316849","","0.3526624454","","","","","","",""
"441","","bandit","311","835048","0.0-273.0-0.0","34313623","wem/bandit_single","A2NQOD21QCRKG0","gain","6","","72","H","0","img/none_selected.jpg","0","0","1","0.1891579582","","false","236","0.1891579582","","main_expt","0.419442654","","0.3059905229","","0.3050627859","","","","","","",""
"384","","bandit","312","837219","0.0-274.0-0.0","34313623","wem/bandit_single","A2NQOD21QCRKG0","gain","6","","72","H","0","img/none_selected.jpg","1","0","0","0.1278978542","","false","237","0.1278978542","","main_expt","0.4082659589","","0.3058344165","","0.312969263","","","","","","",""
"77","","bandit","313","839093","0.0-275.0-0.0","34313623","wem/bandit_single","A2NQOD21QCRKG0","gain","6","","72","H","0","img/none_selected.jpg","0","0","1","0.1509653188","","false","238","0.1509653188","","main_expt","0.4108407801","","0.2931512536","","0.380225341","","","","","","",""
"204","","bandit","314","841109","0.0-276.0-0.0","34313623","wem/bandit_single","A2NQOD21QCRKG0","gain","6","","72","H","0","img/none_selected.jpg","1","0","0","0.1919733462","","false","239","0.1919733462","","main_expt","0.4378360478","","0.2922133777","","0.3657076542","","","","","","",""
"295","","bandit","315","843208","0.0-277.0-0.0","34313623","wem/bandit_single","A2NQOD21QCRKG0","gain","6","","72","H","0","img/none_selected.jpg","0","0","1","0.1751407906","","false","240","0.1751407906","","main_expt","0.4467030129","","0.3452033359","","0.3815359164","","","","","","",""
"59","","bandit","316","845065","0.0-278.0-0.0","34313623","wem/bandit_single","A2NQOD21QCRKG0","gain","6","","72","H","0","img/none_selected.jpg","1","0","0","0.1759125222","","false","241","0.1759125222","","main_expt","0.4705393647","","0.3682897549","","0.3251101936","","","","","","",""
"176","","bandit","317","847032","0.0-279.0-0.0","34313623","wem/bandit_single","A2NQOD21QCRKG0","gain","6","","72","H","0","img/none_selected.jpg","0","0","1","0.2137068054","","false","242","0.2137068054","","main_expt","0.4610792938","","0.3628947189","","0.3212185421","","","","","","",""
"244","","bandit","318","849072","0.0-280.0-0.0","34313623","wem/bandit_single","A2NQOD21QCRKG0","gain","6","","72","H","0","img/none_selected.jpg","1","0","0","0.2179170348","","false","243","0.2179170348","","main_expt","0.4437729889","","0.3766569032","","0.3270030252","","","","","","",""
"203","","bandit","319","851073","0.0-281.0-0.0","34313623","wem/bandit_single","A2NQOD21QCRKG0","gain","6","","72","H","0","img/none_selected.jpg","0","0","1","0.2426329099","","false","244","0.2426329099","","main_expt","0.4199869792","","0.377991886","","0.309973419","","","","","","",""
"1167","","bandit","320","854032","0.0-282.0-0.0","34313623","wem/bandit_single","A2NQOD21QCRKG0","gain","6","","72","H","0","img/none_selected.jpg","0","0","1","0.2351694379","","false","245","0.2351694379","","main_expt","0.4183767379","","0.304751896","","0.3342881273","","","","","","",""
"942","","bandit","321","856774","0.0-283.0-0.0","34313623","wem/bandit_single","A2NQOD21QCRKG0","gain","6","","72","H","0","img/none_selected.jpg","1","0","0","0.2111663312","","false","246","0.2111663312","","main_expt","0.4292136751","","0.3348187262","","0.3149240913","","","","","","",""
"490","","bandit","322","859046","0.0-284.0-0.0","34313623","wem/bandit_single","A2NQOD21QCRKG0","gain","6","","72","H","0","img/none_selected.jpg","0","0","1","0.1899020887","","false","247","0.1899020887","","main_expt","0.4577956797","","0.3307987246","","0.296458043","","","","","","",""
"154","","bandit","323","861003","0.0-285.0-0.0","34313623","wem/bandit_single","A2NQOD21QCRKG0","gain","6","","72","H","0","img/none_selected.jpg","0","0","1","0.2151484255","","false","248","0.2151484255","","main_expt","0.4586239927","","0.3774544282","","0.3038576119","","","","","","",""
"493","","bandit","324","863318","0.0-286.0-0.0","34313623","wem/bandit_single","A2NQOD21QCRKG0","gain","6","","72","H","0","img/none_selected.jpg","0","0","1","0.2454548658","","false","249","0.2454548658","","main_expt","0.4709187109","","0.3553688181","","0.3383832125","","","","","","",""
"187","","bandit","325","865291","0.0-287.0-0.0","34313623","wem/bandit_single","A2NQOD21QCRKG0","gain","6","","72","H","0","img/none_selected.jpg","0","0","1","0.1973527755","","false","250","0.1973527755","","main_expt","0.4742496359","","0.3209961504","","0.3505221498","","","","","","",""
"541","","bandit","326","867628","0.0-288.0-0.0","34313623","wem/bandit_single","A2NQOD21QCRKG0","gain","6","","74","J","1","","0","0","1","0.4684276702","","false","251","0.2459600056","","main_expt","0.4684276702","","0.2938420796","","0.3439557404","","","","","","",""
"324","","bandit","327","869753","0.0-289.0-0.0","34313623","wem/bandit_single","A2NQOD21QCRKG0","gain","6","","74","J","1","","0","0","1","0.465775704","","false","252","0.2361341643","","main_expt","0.465775704","","0.2377141092","","0.3394881367","","","","","","",""
"299","","bandit","328","871843","0.0-290.0-0.0","34313623","wem/bandit_single","A2NQOD21QCRKG0","gain","6","","74","J","1","","1","0","0","0.4739398589","","false","253","0.2263014677","","main_expt","0.4739398589","","0.28098189","","0.3195186677","","","","","","",""
"640","","bandit","329","874292","0.0-291.0-0.0","34313623","wem/bandit_single","A2NQOD21QCRKG0","gain","6","","74","J","1","","1","0","0","0.4709597483","","false","254","0.2384195691","","main_expt","0.4709597483","","0.36168886","","0.3607388593","","","","","","",""
"490","","bandit","330","876597","0.0-292.0-0.0","34313623","wem/bandit_single","A2NQOD21QCRKG0","gain","6","","74","J","1","","1","0","0","0.468651231","","false","255","0.2186709452","","main_expt","0.468651231","","0.3196270919","","0.3801942793","","","","","","",""
"499","","bandit","331","878908","0.0-293.0-0.0","34313623","wem/bandit_single","A2NQOD21QCRKG0","gain","6","","74","J","1","","0","0","1","0.4837462493","","false","256","0.1625458568","","main_expt","0.4837462493","","0.3201998045","","0.2987962353","","","","","","",""
"560","","bandit","332","881258","0.0-294.0-0.0","34313623","wem/bandit_single","A2NQOD21QCRKG0","gain","6","","74","J","1","","0","0","1","0.4842399178","","false","257","0.159361747","","main_expt","0.4842399178","","0.3576002339","","0.272571782","","","","","","",""
"1338","","bandit","333","884397","0.0-295.0-0.0","34313623","wem/bandit_single","A2NQOD21QCRKG0","gain","6","","74","J","1","","0","0","1","0.4878873921","","false","258","0.1556255119","","main_expt","0.4878873921","","0.3715220428","","0.2593204486","","","","","","",""
"474","","bandit","334","886683","0.0-296.0-0.0","34313623","wem/bandit_single","A2NQOD21QCRKG0","gain","6","","72","H","0","img/none_selected.jpg","0","0","1","0.1256368346","","false","259","0.1256368346","","main_expt","0.4869160663","","0.3730860303","","0.2951424317","","","","","","",""
"934","","bandit","335","889414","0.0-297.0-0.0","34313623","wem/bandit_single","A2NQOD21QCRKG0","gain","6","","74","J","1","","1","0","0","0.4912834456","","false","260","0.1449854444","","main_expt","0.4912834456","","0.3724964978","","0.2369093976","","","","","","",""
"435","","bandit","336","891651","0.0-298.0-0.0","34313623","wem/bandit_single","A2NQOD21QCRKG0","gain","6","","74","J","1","","0","0","1","0.4907072989","","false","261","0.1647157085","","main_expt","0.4907072989","","0.3574286068","","0.2234433316","","","","","","",""
"14","","bandit","337","893454","0.0-299.0-0.0","34313623","wem/bandit_single","A2NQOD21QCRKG0","gain","6","","74","J","1","","1","0","0","0.4904114062","","false","262","0.1586541082","","main_expt","0.4904114062","","0.4204463107","","0.215626833","","","","","","",""
"10","","bandit","338","895268","0.0-300.0-0.0","34313623","wem/bandit_single","A2NQOD21QCRKG0","gain","6","","74","J","1","","0","0","1","0.4900075499","","false","263","0.1683870388","","main_expt","0.4900075499","","0.4244263348","","0.2227197798","","","","","","",""
"132","","bandit","339","897192","0.0-301.0-0.0","34313623","wem/bandit_single","A2NQOD21QCRKG0","gain","6","","74","J","1","","0","0","1","0.4922230388","","false","264","0.2205087037","","main_expt","0.4922230388","","0.4217668892","","0.2113558788","","","","","","",""
"74","","bandit","340","899072","0.0-302.0-0.0","34313623","wem/bandit_single","A2NQOD21QCRKG0","gain","6","","74","J","1","","1","0","0","0.4892111554","","false","265","0.1554736059","","main_expt","0.4892111554","","0.3908218086","","0.1814287308","","","","","","",""
"274","","bandit","341","901128","0.0-303.0-0.0","34313623","wem/bandit_single","A2NQOD21QCRKG0","gain","6","","74","J","1","","1","0","0","0.4894097466","","false","266","0.1556775797","","main_expt","0.4894097466","","0.350583855","","0.2579261203","","","","","","",""
"234","","bandit","342","903179","0.0-304.0-0.0","34313623","wem/bandit_single","A2NQOD21QCRKG0","gain","6","","74","J","1","","1","0","0","0.4898547377","","false","267","0.1732223335","","main_expt","0.4898547377","","0.2971845499","","0.3033521226","","","","","","",""
"314","","bandit","343","905285","0.0-305.0-0.0","34313623","wem/bandit_single","A2NQOD21QCRKG0","gain","6","","74","J","1","","1","0","0","0.4960714099","","false","268","0.1670192172","","main_expt","0.4960714099","","0.3271935382","","0.2697057224","","","","","","",""
"435","","bandit","344","907531","0.0-306.0-0.0","34313623","wem/bandit_single","A2NQOD21QCRKG0","gain","6","","74","J","1","","0","0","1","0.4951393121","","false","269","0.1666577124","","main_expt","0.4951393121","","0.2912245063","","0.3075876552","","","","","","",""
"103","","bandit","345","909411","0.0-307.0-0.0","34313623","wem/bandit_single","A2NQOD21QCRKG0","gain","6","","74","J","1","","0","0","1","0.4903783272","","false","270","0.1133531577","","main_expt","0.4903783272","","0.3007980493","","0.3437361696","","","","","","",""
"185","","bandit","346","911408","0.0-308.0-0.0","34313623","wem/bandit_single","A2NQOD21QCRKG0","gain","6","","74","J","1","","1","0","0","0.4932948231","","false","271","0.1453503833","","main_expt","0.4932948231","","0.3025875308","","0.2596534978","","","","","","",""
"659","","bandit","347","913873","0.0-309.0-0.0","34313623","wem/bandit_single","A2NQOD21QCRKG0","gain","6","","74","J","1","","0","0","1","0.4950636705","","false","272","0.1542373291","","main_expt","0.4950636705","","0.2608882705","","0.2680739133","","","","","","",""
"249","","bandit","348","915898","0.0-310.0-0.0","34313623","wem/bandit_single","A2NQOD21QCRKG0","gain","6","","74","J","1","","0","0","1","0.4866982898","","false","273","0.1312836042","","main_expt","0.4866982898","","0.2985246063","","0.2287209558","","","","","","",""
"86","","bandit","349","917781","0.0-311.0-0.0","34313623","wem/bandit_single","A2NQOD21QCRKG0","gain","6","","74","J","1","","1","0","0","0.4654226264","","false","274","0.1616535947","","main_expt","0.4654226264","","0.296104213","","0.2659047846","","","","","","",""
"320","","bandit","350","919922","0.0-312.0-0.0","34313623","wem/bandit_single","A2NQOD21QCRKG0","gain","6","","74","J","1","","1","0","0","0.4633702838","","false","275","0.163822666","","main_expt","0.4633702838","","0.2897414639","","0.2303642271","","","","","","",""
"245","","bandit","351","921943","0.0-313.0-0.0","34313623","wem/bandit_single","A2NQOD21QCRKG0","gain","6","","74","J","1","","1","0","0","0.4741710053","","false","276","0.1500588852","","main_expt","0.4741710053","","0.296822441","","0.2631654739","","","","","","",""
"214","","bandit","352","923960","0.0-314.0-0.0","34313623","wem/bandit_single","A2NQOD21QCRKG0","gain","6","","74","J","1","","1","0","0","0.4821206929","","false","277","0.1975700973","","main_expt","0.4821206929","","0.2769528726","","0.2660527836","","","","","","",""
"19","","bandit","353","925752","0.0-315.0-0.0","34313623","wem/bandit_single","A2NQOD21QCRKG0","gain","6","","74","J","1","","1","0","0","0.4704549119","","false","278","0.1355298524","","main_expt","0.4704549119","","0.3356585436","","0.2869547209","","","","","","",""
"1190","","bandit","354","928759","0.0-316.0-0.0","34313623","wem/bandit_single","A2NQOD21QCRKG0","gain","6","","74","J","1","","1","0","0","0.4749598821","","false","279","0.1437345226","","main_expt","0.4749598821","","0.3222384225","","0.3594721793","","","","","","",""
"365","","bandit","355","930913","0.0-317.0-0.0","34313623","wem/bandit_single","A2NQOD21QCRKG0","gain","6","","74","J","1","","0","0","1","0.4385317488","","false","280","0.126787642","","main_expt","0.4385317488","","0.27346357","","0.3903699723","","","","","","",""
"272","","bandit","356","932975","0.0-318.0-0.0","34313623","wem/bandit_single","A2NQOD21QCRKG0","gain","6","","74","J","1","","0","0","1","0.4397970497","","false","281","0.1765789866","","main_expt","0.4397970497","","0.3633072925","","0.4583904318","","","","","","",""
"209","","bandit","357","934985","0.0-319.0-0.0","34313623","wem/bandit_single","A2NQOD21QCRKG0","gain","6","","74","J","1","","0","0","1","0.4485424667","","false","282","0.1659157347","","main_expt","0.4485424667","","0.3269934488","","0.4689346609","","","","","","",""
"199","","bandit","358","936958","0.0-320.0-0.0","34313623","wem/bandit_single","A2NQOD21QCRKG0","gain","6","","72","H","0","img/none_selected.jpg","0","0","1","0.1876778028","","false","283","0.1876778028","","main_expt","0.4460930912","","0.324321327","","0.460541741","","","","","","",""
"60","","bandit","359","938804","0.0-321.0-0.0","34313623","wem/bandit_single","A2NQOD21QCRKG0","gain","6","","72","H","0","img/none_selected.jpg","0","0","1","0.2072959333","","false","284","0.2072959333","","main_expt","0.46041158","","0.2677217275","","0.4485703909","","","","","","",""
"30","","bandit","360","940631","0.0-322.0-0.0","34313623","wem/bandit_single","A2NQOD21QCRKG0","gain","6","","72","H","0","img/none_selected.jpg","0","0","1","0.2171876524","","false","285","0.2171876524","","main_expt","0.4722631388","","0.2832280908","","0.4493749552","","","","","","",""
"41","","bandit","361","942475","0.0-323.0-0.0","34313623","wem/bandit_single","A2NQOD21QCRKG0","gain","6","","74","J","1","","0","0","1","0.4710864859","","false","286","0.224404947","","main_expt","0.4710864859","","0.3338799161","","0.4223312446","","","","","","",""
"197","","bandit","362","944451","0.0-324.0-0.0","34313623","wem/bandit_single","A2NQOD21QCRKG0","gain","6","","74","J","1","","1","0","0","0.4400158941","","false","287","0.2249093708","","main_expt","0.4400158941","","0.3484096991","","0.457140216","","","","","","",""
"271","","bandit","363","946513","0.0-325.0-0.0","34313623","wem/bandit_single","A2NQOD21QCRKG0","gain","6","","74","J","1","","0","0","1","0.4036546776","","false","288","0.2219747159","","main_expt","0.4036546776","","0.3215301514","","0.4411377771","","","","","","",""
"428","","bandit","364","948743","0.0-326.0-0.0","34313623","wem/bandit_single","A2NQOD21QCRKG0","gain","6","","74","J","1","","0","0","1","0.4324218596","","false","289","0.2183007497","","main_expt","0.4324218596","","0.2965974011","","0.4501271696","","","","","","",""
"913","","bandit","365","951450","0.0-327.0-0.0","34313623","wem/bandit_single","A2NQOD21QCRKG0","gain","6","","74","J","1","","1","0","0","0.4536473803","","false","290","0.2481136515","","main_expt","0.4536473803","","0.2926361454","","0.4436507911","","","","","","",""
"837","","bandit","366","954080","0.0-328.0-0.0","34313623","wem/bandit_single","A2NQOD21QCRKG0","gain","6","","74","J","1","","1","0","0","0.4634661847","","false","291","0.2972088317","","main_expt","0.4634661847","","0.243163711","","0.4381939672","","","","","","",""
"797","","bandit","367","956669","0.0-329.0-0.0","34313623","wem/bandit_single","A2NQOD21QCRKG0","gain","6","","74","J","1","","1","0","0","0.4609966616","","false","292","0.2998647236","","main_expt","0.4609966616","","0.2064952975","","0.4101305143","","","","","","",""
"1425","","bandit","368","959890","0.0-330.0-0.0","34313623","wem/bandit_single","A2NQOD21QCRKG0","gain","6","","74","J","1","","0","0","1","0.4648618971","","false","293","0.2861810992","","main_expt","0.4648618971","","0.2099334792","","0.4297915702","","","","","","",""
"55","","bandit","369","961732","0.0-331.0-0.0","34313623","wem/bandit_single","A2NQOD21QCRKG0","gain","6","","74","J","1","","1","0","0","0.4582487824","","false","294","0.345484004","","main_expt","0.4582487824","","0.2507358833","","0.4537219743","","","","","","",""
"3200","","bandit","370","966725","0.0-332.0-0.0","34313623","wem/bandit_single","A2NQOD21QCRKG0","gain","6","","74","J","1","","1","0","0","0.4482247061","","false","295","0.3251772281","","main_expt","0.4482247061","","0.2494268831","","0.4694953972","","","","","","",""
"4688","","bandit","371","973208","0.0-333.0-0.0","34313623","wem/bandit_single","A2NQOD21QCRKG0","gain","6","","74","J","1","","0","0","1","0.42326912","","false","296","0.2953905587","","main_expt","0.42326912","","0.2867080039","","0.4880383038","","","","","","",""
"1329","","bandit","372","976333","0.0-334.0-0.0","34313623","wem/bandit_single","A2NQOD21QCRKG0","gain","6","","74","J","1","","1","0","0","0.4151021773","","false","297","0.2717848064","","main_expt","0.4151021773","","0.2983387387","","0.4916251568","","","","","","",""
"2460","","bandit","373","980599","0.0-335.0-0.0","34313623","wem/bandit_single","A2NQOD21QCRKG0","gain","6","","74","J","1","","0","0","1","0.4270228344","","false","298","0.2682571213","","main_expt","0.4270228344","","0.2982690602","","0.4921476303","","","","","","",""
