"rt","responses","trial_type","trial_index","time_elapsed","internal_node_id","subjID","study","MID","cond","drift","key_press","respCharCode","respKey","respChoiceNum","respChoice","gems","bombs","no_reward","GemPrChosen","BombPrChosen","practice","trial_counter","WinPr_0","LosePr_0","trial_label","WinPr_1","LosePr_1","WinPr_2","LosePr_2","WinPr_3","LosePr_3","Q0","Q1","Q2","gender","age","ethnicity"
"10387","{""Q0"":""A3RL02A3JRAUS4""}","survey-text","0","10401","0.0-0.0","34320404","wem/bandit_single","A3RL02A3JRAUS4","gain","2","","","","","","","","","","","","","","","","","","","","","","","","","","",""
"4688","","text","1","16096","0.0-1.0","34320404","wem/bandit_single","A3RL02A3JRAUS4","gain","2","32","","","","","","","","","","","","","","","","","","","","","","","","","",""
"7786","","text","2","23886","0.0-2.0","34320404","wem/bandit_single","A3RL02A3JRAUS4","gain","2","32","","","","","","","","","","","","","","","","","","","","","","","","","",""
"25318","","text","3","49207","0.0-3.0","34320404","wem/bandit_single","A3RL02A3JRAUS4","gain","2","32","","","","","","","","","","","","","","","","","","","","","","","","","",""
"20077","","text","4","69287","0.0-4.0","34320404","wem/bandit_single","A3RL02A3JRAUS4","gain","2","32","","","","","","","","","","","","","","","","","","","","","","","","","",""
"20433","","text","5","89724","0.0-5.0","34320404","wem/bandit_single","A3RL02A3JRAUS4","gain","2","32","","","","","","","","","","","","","","","","","","","","","","","","","",""
"7311","","text","6","97036","0.0-6.0","34320404","wem/bandit_single","A3RL02A3JRAUS4","gain","2","32","","","","","","","","","","","","","","","","","","","","","","","","","",""
"5415","","text","7","102454","0.0-7.0","34320404","wem/bandit_single","A3RL02A3JRAUS4","gain","2","32","","","","","","","","","","","","","","","","","","","","","","","","","",""
"4035","","text","8","106492","0.0-8.0","34320404","wem/bandit_single","A3RL02A3JRAUS4","gain","2","32","","","","","","","","","","","","","","","","","","","","","","","","","",""
"5104","","text","9","111599","0.0-9.0","34320404","wem/bandit_single","A3RL02A3JRAUS4","gain","2","32","","","","","","","","","","","","","","","","","","","","","","","","","",""
"15302","","text","10","126903","0.0-10.0","34320404","wem/bandit_single","A3RL02A3JRAUS4","gain","2","32","","","","","","","","","","","","","","","","","","","","","","","","","",""
"11003","","text","11","137908","0.0-11.0","34320404","wem/bandit_single","A3RL02A3JRAUS4","gain","2","32","","","","","","","","","","","","","","","","","","","","","","","","","",""
"2731","","bandit","12","142154","0.0-12.0-0.0","34320404","wem/bandit_single","A3RL02A3JRAUS4","gain","2","","74","J","0","img/none_selected_demo.jpg","0","0","1","0","0","true","0","0","0","","","","","","","","","","","","",""
"932","","bandit","13","144863","0.0-13.0-0.0","34320404","wem/bandit_single","A3RL02A3JRAUS4","gain","2","","75","K","0","img/none_selected_demo.jpg","0","0","1","0","0","true","0","0","0","","","","","","","","","","","","",""
"4803","","text","14","149920","0.0-14.0","34320404","wem/bandit_single","A3RL02A3JRAUS4","gain","2","32","","","","","","","","","","","","","","","","","","","","","","","","","",""
"3705","","text","15","153627","0.0-15.0","34320404","wem/bandit_single","A3RL02A3JRAUS4","gain","2","32","","","","","","","","","","","","","","","","","","","","","","","","","",""
"5354","","text","16","158983","0.0-16.0","34320404","wem/bandit_single","A3RL02A3JRAUS4","gain","2","32","","","","","","","","","","","","","","","","","","","","","","","","","",""
"10457","","text","17","169442","0.0-17.0","34320404","wem/bandit_single","A3RL02A3JRAUS4","gain","2","32","","","","","","","","","","","","","","","","","","","","","","","","","",""
"3456","","bandit","18","174406","0.0-18.0-0.0","34320404","wem/bandit_single","A3RL02A3JRAUS4","gain","2","","74","J","0","img/none_selected_demo.jpg","0","0","1","0.8","0","true","0","0.8","0","80_20_practice","0.2","0","","","","","","","","","",""
"405","","bandit","19","176577","0.0-18.0-1.0","34320404","wem/bandit_single","A3RL02A3JRAUS4","gain","2","","75","K","1","","0","0","1","0.2","0","true","0","0.8","0","80_20_practice","0.2","0","","","","","","","","","",""
"81","","bandit","20","178418","0.0-18.0-2.0","34320404","wem/bandit_single","A3RL02A3JRAUS4","gain","2","","74","J","0","img/none_selected_demo.jpg","1","0","0","0.8","0","true","0","0.8","0","80_20_practice","0.2","0","","","","","","","","","",""
"347","","bandit","21","180523","0.0-18.0-3.0","34320404","wem/bandit_single","A3RL02A3JRAUS4","gain","2","","75","K","1","","1","0","0","0.2","0","true","0","0.8","0","80_20_practice","0.2","0","","","","","","","","","",""
"119","","bandit","22","182399","0.0-18.0-4.0","34320404","wem/bandit_single","A3RL02A3JRAUS4","gain","2","","74","J","0","img/none_selected_demo.jpg","1","0","0","0.8","0","true","0","0.8","0","80_20_practice","0.2","0","","","","","","","","","",""
"78","","bandit","23","184234","0.0-18.0-5.0","34320404","wem/bandit_single","A3RL02A3JRAUS4","gain","2","","75","K","1","","0","0","1","0.2","0","true","0","0.8","0","80_20_practice","0.2","0","","","","","","","","","",""
"154","","bandit","24","186148","0.0-18.0-6.0","34320404","wem/bandit_single","A3RL02A3JRAUS4","gain","2","","74","J","0","img/none_selected_demo.jpg","1","0","0","0.8","0","true","0","0.8","0","80_20_practice","0.2","0","","","","","","","","","",""
"56","","bandit","25","187963","0.0-18.0-7.0","34320404","wem/bandit_single","A3RL02A3JRAUS4","gain","2","","75","K","1","","0","0","1","0.2","0","true","0","0.8","0","80_20_practice","0.2","0","","","","","","","","","",""
"1190","","bandit","26","190916","0.0-18.0-8.0","34320404","wem/bandit_single","A3RL02A3JRAUS4","gain","2","","74","J","0","img/none_selected_demo.jpg","1","0","0","0.8","0","true","0","0.8","0","80_20_practice","0.2","0","","","","","","","","","",""
"119","","bandit","27","192792","0.0-18.0-9.0","34320404","wem/bandit_single","A3RL02A3JRAUS4","gain","2","","74","J","0","img/none_selected_demo.jpg","1","0","0","0.8","0","true","0","0.8","0","80_20_practice","0.2","0","","","","","","","","","",""
"34","","bandit","28","194589","0.0-18.0-10.0","34320404","wem/bandit_single","A3RL02A3JRAUS4","gain","2","","74","J","0","img/none_selected_demo.jpg","0","0","1","0.8","0","true","0","0.8","0","80_20_practice","0.2","0","","","","","","","","","",""
"25","","bandit","29","196372","0.0-18.0-11.0","34320404","wem/bandit_single","A3RL02A3JRAUS4","gain","2","","74","J","0","img/none_selected_demo.jpg","1","0","0","0.8","0","true","0","0.8","0","80_20_practice","0.2","0","","","","","","","","","",""
"154","","bandit","30","198283","0.0-18.0-12.0","34320404","wem/bandit_single","A3RL02A3JRAUS4","gain","2","","74","J","0","img/none_selected_demo.jpg","1","0","0","0.8","0","true","0","0.8","0","80_20_practice","0.2","0","","","","","","","","","",""
"94","","bandit","31","200138","0.0-18.0-13.0","34320404","wem/bandit_single","A3RL02A3JRAUS4","gain","2","","74","J","0","img/none_selected_demo.jpg","1","0","0","0.8","0","true","0","0.8","0","80_20_practice","0.2","0","","","","","","","","","",""
"94","","bandit","32","202001","0.0-18.0-14.0","34320404","wem/bandit_single","A3RL02A3JRAUS4","gain","2","","74","J","0","img/none_selected_demo.jpg","1","0","0","0.8","0","true","0","0.8","0","80_20_practice","0.2","0","","","","","","","","","",""
"333","","bandit","33","204101","0.0-18.0-15.0","34320404","wem/bandit_single","A3RL02A3JRAUS4","gain","2","","74","J","0","img/none_selected_demo.jpg","1","0","0","0.8","0","true","0","0.8","0","80_20_practice","0.2","0","","","","","","","","","",""
"61","","bandit","34","205920","0.0-18.0-16.0","34320404","wem/bandit_single","A3RL02A3JRAUS4","gain","2","","74","J","0","img/none_selected_demo.jpg","1","0","0","0.8","0","true","0","0.8","0","80_20_practice","0.2","0","","","","","","","","","",""
"79","","bandit","35","207757","0.0-18.0-17.0","34320404","wem/bandit_single","A3RL02A3JRAUS4","gain","2","","74","J","0","img/none_selected_demo.jpg","1","0","0","0.8","0","true","0","0.8","0","80_20_practice","0.2","0","","","","","","","","","",""
"69","","bandit","36","209590","0.0-18.0-18.0","34320404","wem/bandit_single","A3RL02A3JRAUS4","gain","2","","74","J","0","img/none_selected_demo.jpg","1","0","0","0.8","0","true","0","0.8","0","80_20_practice","0.2","0","","","","","","","","","",""
"59","","bandit","37","211407","0.0-18.0-19.0","34320404","wem/bandit_single","A3RL02A3JRAUS4","gain","2","","74","J","0","img/none_selected_demo.jpg","1","0","0","0.8","0","true","0","0.8","0","80_20_practice","0.2","0","","","","","","","","","",""
"7792","","text","38","219455","0.0-19.0","34320404","wem/bandit_single","A3RL02A3JRAUS4","gain","2","32","","","","","","","","","","","","","","","","","","","","","","","","","",""
"1557","","bandit","39","222523","0.0-20.0-0.0","34320404","wem/bandit_single","A3RL02A3JRAUS4","gain","2","","74","J","0","img/none_selected_demo.jpg","0","0","1","0","0","true","0","0","0","","0","0","","","","","","","","","",""
"19074","","text","40","241875","0.0-21.0","34320404","wem/bandit_single","A3RL02A3JRAUS4","gain","2","32","","","","","","","","","","","","","","","","","","","","","","","","","",""
"4814","","text","41","246695","0.0-22.0","34320404","wem/bandit_single","A3RL02A3JRAUS4","gain","2","32","","","","","","","","","","","","","","","","","","","","","","","","","",""
"5513","","text","42","252211","0.0-23.0","34320404","wem/bandit_single","A3RL02A3JRAUS4","gain","2","32","","","","","","","","","","","","","","","","","","","","","","","","","",""
"4256","","text","43","256470","0.0-24.0","34320404","wem/bandit_single","A3RL02A3JRAUS4","gain","2","32","","","","","","","","","","","","","","","","","","","","","","","","","",""
"11625","","text","44","268099","0.0-25.0","34320404","wem/bandit_single","A3RL02A3JRAUS4","gain","2","32","","","","","","","","","","","","","","","","","","","","","","","","","",""
"4019","","text","45","272120","0.0-26.0","34320404","wem/bandit_single","A3RL02A3JRAUS4","gain","2","32","","","","","","","","","","","","","","","","","","","","","","","","","",""
"4800","","text","46","276923","0.0-27.0","34320404","wem/bandit_single","A3RL02A3JRAUS4","gain","2","32","","","","","","","","","","","","","","","","","","","","","","","","","",""
"4363","","text","47","281288","0.0-28.0","34320404","wem/bandit_single","A3RL02A3JRAUS4","gain","2","32","","","","","","","","","","","","","","","","","","","","","","","","","",""
"4099","","text","48","285389","0.0-29.0","34320404","wem/bandit_single","A3RL02A3JRAUS4","gain","2","32","","","","","","","","","","","","","","","","","","","","","","","","","",""
"2776","","text","49","288168","0.0-30.0","34320404","wem/bandit_single","A3RL02A3JRAUS4","gain","2","32","","","","","","","","","","","","","","","","","","","","","","","","","",""
"11951","","text","50","300122","0.0-31.0","34320404","wem/bandit_single","A3RL02A3JRAUS4","gain","2","32","","","","","","","","","","","","","","","","","","","","","","","","","",""
"2791","","bandit","51","304421","0.0-32.0-0.0","34320404","wem/bandit_single","A3RL02A3JRAUS4","gain","2","","72","H","0","img/none_selected.jpg","1","0","0","0.8","0","true","0","0.8","0","full_practice","0.2","0","0.6","0","0.2","0","","","","","",""
"671","","bandit","52","306854","0.0-32.0-1.0","34320404","wem/bandit_single","A3RL02A3JRAUS4","gain","2","","74","J","1","","1","0","0","0.2","0","true","0","0.8","0","full_practice","0.2","0","0.6","0","0.2","0","","","","","",""
"210","","bandit","53","308834","0.0-32.0-2.0","34320404","wem/bandit_single","A3RL02A3JRAUS4","gain","2","","75","K","2","","1","0","0","0.6","0","true","0","0.8","0","full_practice","0.2","0","0.6","0","0.2","0","","","","","",""
"217","","bandit","54","310816","0.0-32.0-3.0","34320404","wem/bandit_single","A3RL02A3JRAUS4","gain","2","","76","L","3","","0","0","1","0.2","0","true","0","0.8","0","full_practice","0.2","0","0.6","0","0.2","0","","","","","",""
"256","","bandit","55","312831","0.0-32.0-4.0","34320404","wem/bandit_single","A3RL02A3JRAUS4","gain","2","","72","H","0","img/none_selected.jpg","0","0","1","0.8","0","true","0","0.8","0","full_practice","0.2","0","0.6","0","0.2","0","","","","","",""
"247","","bandit","56","314838","0.0-32.0-5.0","34320404","wem/bandit_single","A3RL02A3JRAUS4","gain","2","","74","J","1","","0","0","1","0.2","0","true","0","0.8","0","full_practice","0.2","0","0.6","0","0.2","0","","","","","",""
"179","","bandit","57","316793","0.0-32.0-6.0","34320404","wem/bandit_single","A3RL02A3JRAUS4","gain","2","","75","K","2","","1","0","0","0.6","0","true","0","0.8","0","full_practice","0.2","0","0.6","0","0.2","0","","","","","",""
"349","","bandit","58","318922","0.0-32.0-7.0","34320404","wem/bandit_single","A3RL02A3JRAUS4","gain","2","","76","L","3","","0","0","1","0.2","0","true","0","0.8","0","full_practice","0.2","0","0.6","0","0.2","0","","","","","",""
"471","","bandit","59","321164","0.0-32.0-8.0","34320404","wem/bandit_single","A3RL02A3JRAUS4","gain","2","","72","H","0","img/none_selected.jpg","1","0","0","0.8","0","true","0","0.8","0","full_practice","0.2","0","0.6","0","0.2","0","","","","","",""
"235","","bandit","60","323184","0.0-32.0-9.0","34320404","wem/bandit_single","A3RL02A3JRAUS4","gain","2","","74","J","1","","0","0","1","0.2","0","true","0","0.8","0","full_practice","0.2","0","0.6","0","0.2","0","","","","","",""
"136","","bandit","61","325081","0.0-32.0-10.0","34320404","wem/bandit_single","A3RL02A3JRAUS4","gain","2","","75","K","2","","1","0","0","0.6","0","true","0","0.8","0","full_practice","0.2","0","0.6","0","0.2","0","","","","","",""
"205","","bandit","62","327043","0.0-32.0-11.0","34320404","wem/bandit_single","A3RL02A3JRAUS4","gain","2","","76","L","3","","0","0","1","0.2","0","true","0","0.8","0","full_practice","0.2","0","0.6","0","0.2","0","","","","","",""
"216","","bandit","63","329027","0.0-32.0-12.0","34320404","wem/bandit_single","A3RL02A3JRAUS4","gain","2","","75","K","2","","1","0","0","0.6","0","true","0","0.8","0","full_practice","0.2","0","0.6","0","0.2","0","","","","","",""
"73","","bandit","64","330858","0.0-32.0-13.0","34320404","wem/bandit_single","A3RL02A3JRAUS4","gain","2","","75","K","2","","1","0","0","0.6","0","true","0","0.8","0","full_practice","0.2","0","0.6","0","0.2","0","","","","","",""
"1041","","bandit","65","333672","0.0-32.0-14.0","34320404","wem/bandit_single","A3RL02A3JRAUS4","gain","2","","75","K","2","","1","0","0","0.6","0","true","0","0.8","0","full_practice","0.2","0","0.6","0","0.2","0","","","","","",""
"210","","bandit","66","335642","0.0-32.0-15.0","34320404","wem/bandit_single","A3RL02A3JRAUS4","gain","2","","75","K","2","","1","0","0","0.6","0","true","0","0.8","0","full_practice","0.2","0","0.6","0","0.2","0","","","","","",""
"202","","bandit","67","337603","0.0-32.0-16.0","34320404","wem/bandit_single","A3RL02A3JRAUS4","gain","2","","75","K","2","","1","0","0","0.6","0","true","0","0.8","0","full_practice","0.2","0","0.6","0","0.2","0","","","","","",""
"334","","bandit","68","339695","0.0-32.0-17.0","34320404","wem/bandit_single","A3RL02A3JRAUS4","gain","2","","75","K","2","","0","0","1","0.6","0","true","0","0.8","0","full_practice","0.2","0","0.6","0","0.2","0","","","","","",""
"58","","bandit","69","341517","0.0-32.0-18.0","34320404","wem/bandit_single","A3RL02A3JRAUS4","gain","2","","75","K","2","","1","0","0","0.6","0","true","0","0.8","0","full_practice","0.2","0","0.6","0","0.2","0","","","","","",""
"86","","bandit","70","343362","0.0-32.0-19.0","34320404","wem/bandit_single","A3RL02A3JRAUS4","gain","2","","75","K","2","","0","0","1","0.6","0","true","0","0.8","0","full_practice","0.2","0","0.6","0","0.2","0","","","","","",""
"6041","","text","71","349665","0.0-33.0","34320404","wem/bandit_single","A3RL02A3JRAUS4","gain","2","32","","","","","","","","","","","","","","","","","","","","","","","","","",""
"14838","","text","72","365508","0.0-34.0","34320404","wem/bandit_single","A3RL02A3JRAUS4","gain","2","32","","","","","","","","","","","","","","","","","","","","","","","","","",""
"6703","","text","73","372215","0.0-35.0","34320404","wem/bandit_single","A3RL02A3JRAUS4","gain","2","32","","","","","","","","","","","","","","","","","","","","","","","","","",""
"7508","","text","74","379727","0.0-36.0","34320404","wem/bandit_single","A3RL02A3JRAUS4","gain","2","32","","","","","","","","","","","","","","","","","","","","","","","","","",""
"7062","","text","75","386793","0.0-37.0","34320404","wem/bandit_single","A3RL02A3JRAUS4","gain","2","32","","","","","","","","","","","","","","","","","","","","","","","","","",""
"1244","","bandit","76","389549","0.0-38.0-0.0","34320404","wem/bandit_single","A3RL02A3JRAUS4","gain","2","","72","H","0","img/none_selected.jpg","0","0","1","0.1473353724","","false","1","0.1473353724","","main_expt","0.1196507759","","0.1047922924","","0.03692567881","","","","","","",""
"113","","bandit","77","391426","0.0-39.0-0.0","34320404","wem/bandit_single","A3RL02A3JRAUS4","gain","2","","74","J","1","","0","0","1","0.1434551849","","false","2","0.1471364572","","main_expt","0.1434551849","","0.09232691068","","0.0535834513","","","","","","",""
"57","","bandit","78","393250","0.0-40.0-0.0","34320404","wem/bandit_single","A3RL02A3JRAUS4","gain","2","","75","K","2","","0","0","1","0.07878604621","","false","3","0.1792173289","","main_expt","0.1966750378","","0.07878604621","","0.06455495551","","","","","","",""
"113","","bandit","79","395132","0.0-41.0-0.0","34320404","wem/bandit_single","A3RL02A3JRAUS4","gain","2","","76","L","3","","0","0","1","0.1075220519","","false","4","0.2089457512","","main_expt","0.1731728381","","0.06180226224","","0.1075220519","","","","","","",""
"254","","bandit","80","397159","0.0-42.0-0.0","34320404","wem/bandit_single","A3RL02A3JRAUS4","gain","2","","72","H","0","img/none_selected.jpg","0","0","1","0.2627176439","","false","5","0.2627176439","","main_expt","0.151671232","","0.05657605877","","0.1459974634","","","","","","",""
"74","","bandit","81","399010","0.0-43.0-0.0","34320404","wem/bandit_single","A3RL02A3JRAUS4","gain","2","","74","J","1","","0","0","1","0.2201434377","","false","6","0.2052823447","","main_expt","0.2201434377","","0.03926223851","","0.1119865757","","","","","","",""
"605","","bandit","82","401374","0.0-44.0-0.0","34320404","wem/bandit_single","A3RL02A3JRAUS4","gain","2","","75","K","2","","0","0","1","0.02952185798","","false","7","0.2424381104","","main_expt","0.1924323999","","0.02952185798","","0.1135710889","","","","","","",""
"223","","bandit","83","403377","0.0-45.0-0.0","34320404","wem/bandit_single","A3RL02A3JRAUS4","gain","2","","76","L","3","","0","0","1","0.148696524","","false","8","0.2324683495","","main_expt","0.187431757","","0.01847757052","","0.148696524","","","","","","",""
"474","","bandit","84","405618","0.0-46.0-0.0","34320404","wem/bandit_single","A3RL02A3JRAUS4","gain","2","","72","H","0","img/none_selected.jpg","0","0","1","0.2440295668","","false","9","0.2440295668","","main_expt","0.197470847","","0.02695314055","","0.1181121295","","","","","","",""
"293","","bandit","85","407677","0.0-47.0-0.0","34320404","wem/bandit_single","A3RL02A3JRAUS4","gain","2","","74","J","1","","1","0","0","0.2298270047","","false","10","0.2465422232","","main_expt","0.2298270047","","0.02234311218","","0.1082266346","","","","","","",""
"228","","bandit","86","409679","0.0-48.0-0.0","34320404","wem/bandit_single","A3RL02A3JRAUS4","gain","2","","75","K","2","","1","0","0","0.04960883058","","false","11","0.1529972956","","main_expt","0.2124937163","","0.04960883058","","0.1102162287","","","","","","",""
"150","","bandit","87","411598","0.0-49.0-0.0","34320404","wem/bandit_single","A3RL02A3JRAUS4","gain","2","","76","L","3","","1","0","0","0.1420736562","","false","12","0.1827224572","","main_expt","0.2043121782","","0.06086541187","","0.1420736562","","","","","","",""
"588","","bandit","88","413951","0.0-50.0-0.0","34320404","wem/bandit_single","A3RL02A3JRAUS4","gain","2","","74","J","1","","0","0","1","0.2122729008","","false","13","0.1973099221","","main_expt","0.2122729008","","0.06603274732","","0.1582971975","","","","","","",""
"68","","bandit","89","415788","0.0-51.0-0.0","34320404","wem/bandit_single","A3RL02A3JRAUS4","gain","2","","75","K","2","","0","0","1","0.06952645267","","false","14","0.2002936143","","main_expt","0.1748916548","","0.06952645267","","0.1278364912","","","","","","",""
"741","","bandit","90","418296","0.0-52.0-0.0","34320404","wem/bandit_single","A3RL02A3JRAUS4","gain","2","","76","L","3","","0","0","1","0.1389591295","","false","15","0.2100222876","","main_expt","0.1598041939","","0.06705093019","","0.1389591295","","","","","","",""
"95","","bandit","91","420155","0.0-53.0-0.0","34320404","wem/bandit_single","A3RL02A3JRAUS4","gain","2","","74","J","1","","0","0","1","0.1496559895","","false","16","0.192095419","","main_expt","0.1496559895","","0.08739136862","","0.1087507618","","","","","","",""
"73","","bandit","92","421990","0.0-54.0-0.0","34320404","wem/bandit_single","A3RL02A3JRAUS4","gain","2","","75","K","2","","0","0","1","0.0633177824","","false","17","0.2057363858","","main_expt","0.1855105105","","0.0633177824","","0.1591778588","","","","","","",""
"73","","bandit","93","423829","0.0-55.0-0.0","34320404","wem/bandit_single","A3RL02A3JRAUS4","gain","2","","76","L","3","","0","0","1","0.1612769879","","false","18","0.2142317849","","main_expt","0.180786103","","0.05969087175","","0.1612769879","","","","","","",""
"682","","bandit","94","426278","0.0-56.0-0.0","34320404","wem/bandit_single","A3RL02A3JRAUS4","gain","2","","74","J","1","","0","0","1","0.1867551017","","false","19","0.2416868574","","main_expt","0.1867551017","","0.08316546351","","0.1706614454","","","","","","",""
"134","","bandit","95","428178","0.0-57.0-0.0","34320404","wem/bandit_single","A3RL02A3JRAUS4","gain","2","","75","K","2","","0","0","1","0.08506169859","","false","20","0.2556662882","","main_expt","0.2414580321","","0.08506169859","","0.2173206475","","","","","","",""
"505","","bandit","96","430448","0.0-58.0-0.0","34320404","wem/bandit_single","A3RL02A3JRAUS4","gain","2","","76","L","3","","1","0","0","0.2297715145","","false","21","0.2484624222","","main_expt","0.2552731096","","0.08337624199","","0.2297715145","","","","","","",""
"127","","bandit","97","432336","0.0-59.0-0.0","34320404","wem/bandit_single","A3RL02A3JRAUS4","gain","2","","76","L","3","","0","0","1","0.2893552095","","false","22","0.3180013331","","main_expt","0.2706059063","","0.09400888178","","0.2893552095","","","","","","",""
"76","","bandit","98","434175","0.0-60.0-0.0","34320404","wem/bandit_single","A3RL02A3JRAUS4","gain","2","","75","K","2","","0","0","1","0.08373077729","","false","23","0.3018869565","","main_expt","0.2240124609","","0.08373077729","","0.1756353462","","","","","","",""
"82","","bandit","99","436016","0.0-61.0-0.0","34320404","wem/bandit_single","A3RL02A3JRAUS4","gain","2","","76","L","3","","0","0","1","0.144307289","","false","24","0.3479913718","","main_expt","0.2337623096","","0.07394888686","","0.144307289","","","","","","",""
"736","","bandit","100","438515","0.0-62.0-0.0","34320404","wem/bandit_single","A3RL02A3JRAUS4","gain","2","","72","H","0","img/none_selected.jpg","0","0","1","0.3851600672","","false","25","0.3851600672","","main_expt","0.1992837424","","0.1177231478","","0.1103761204","","","","","","",""
"162","","bandit","101","440439","0.0-63.0-0.0","34320404","wem/bandit_single","A3RL02A3JRAUS4","gain","2","","74","J","1","","0","0","1","0.2273902023","","false","26","0.3771699284","","main_expt","0.2273902023","","0.1137187285","","0.09313295331","","","","","","",""
"196","","bandit","102","442393","0.0-64.0-0.0","34320404","wem/bandit_single","A3RL02A3JRAUS4","gain","2","","75","K","2","","0","0","1","0.1380279251","","false","27","0.3284072512","","main_expt","0.2020281611","","0.1380279251","","0.07841862492","","","","","","",""
"96","","bandit","103","444248","0.0-65.0-0.0","34320404","wem/bandit_single","A3RL02A3JRAUS4","gain","2","","76","L","3","","0","0","1","0.0635621653","","false","28","0.3708797381","","main_expt","0.2121805601","","0.1926536066","","0.0635621653","","","","","","",""
"228","","bandit","104","446240","0.0-66.0-0.0","34320404","wem/bandit_single","A3RL02A3JRAUS4","gain","2","","74","J","1","","0","0","1","0.1986823058","","false","29","0.3630760189","","main_expt","0.1986823058","","0.1919064193","","0.04349452081","","","","","","",""
"143","","bandit","105","448142","0.0-67.0-0.0","34320404","wem/bandit_single","A3RL02A3JRAUS4","gain","2","","75","K","2","","0","0","1","0.1767437005","","false","30","0.3414786107","","main_expt","0.2674628916","","0.1767437005","","0.06175929786","","","","","","",""
"107","","bandit","106","450012","0.0-68.0-0.0","34320404","wem/bandit_single","A3RL02A3JRAUS4","gain","2","","72","H","0","img/none_selected.jpg","0","0","1","0.3536929226","","false","31","0.3536929226","","main_expt","0.2862820789","","0.2417082081","","0.06380111671","","","","","","",""
"110","","bandit","107","451884","0.0-69.0-0.0","34320404","wem/bandit_single","A3RL02A3JRAUS4","gain","2","","76","L","3","","0","0","1","0.08507033619","","false","32","0.3238646006","","main_expt","0.2895619367","","0.2312742115","","0.08507033619","","","","","","",""
"113","","bandit","108","453758","0.0-70.0-0.0","34320404","wem/bandit_single","A3RL02A3JRAUS4","gain","2","","75","K","2","","1","0","0","0.2247834387","","false","33","0.3018803865","","main_expt","0.312502841","","0.2247834387","","0.1242974044","","","","","","",""
"94","","bandit","109","455615","0.0-71.0-0.0","34320404","wem/bandit_single","A3RL02A3JRAUS4","gain","2","","75","K","2","","0","0","1","0.1192543008","","false","34","0.2551449341","","main_expt","0.2830864838","","0.1192543008","","0.158311101","","","","","","",""
"211","","bandit","110","457600","0.0-72.0-0.0","34320404","wem/bandit_single","A3RL02A3JRAUS4","gain","2","","75","K","2","","0","0","1","0.1336327135","","false","35","0.3200580053","","main_expt","0.2489219385","","0.1336327135","","0.1293969191","","","","","","",""
"263","","bandit","111","459620","0.0-73.0-0.0","34320404","wem/bandit_single","A3RL02A3JRAUS4","gain","2","","74","J","1","","1","0","0","0.2090346537","","false","36","0.3241899647","","main_expt","0.2090346537","","0.09851205292","","0.1800853883","","","","","","",""
"655","","bandit","112","462035","0.0-74.0-0.0","34320404","wem/bandit_single","A3RL02A3JRAUS4","gain","2","","74","J","1","","0","0","1","0.210385238","","false","37","0.3029113802","","main_expt","0.210385238","","0.05943694951","","0.1025448258","","","","","","",""
"91","","bandit","113","463890","0.0-75.0-0.0","34320404","wem/bandit_single","A3RL02A3JRAUS4","gain","2","","76","L","3","","0","0","1","0.1604021245","","false","38","0.2958592888","","main_expt","0.162227856","","0.06217728149","","0.1604021245","","","","","","",""
"190","","bandit","114","465841","0.0-76.0-0.0","34320404","wem/bandit_single","A3RL02A3JRAUS4","gain","2","","72","H","0","img/none_selected.jpg","1","0","0","0.2941945884","","false","39","0.2941945884","","main_expt","0.1444893634","","0.08902833973","","0.1336531769","","","","","","",""
"90","","bandit","115","467691","0.0-77.0-0.0","34320404","wem/bandit_single","A3RL02A3JRAUS4","gain","2","","74","J","1","","0","0","1","0.1340169349","","false","40","0.2784490849","","main_expt","0.1340169349","","0.1098655825","","0.1356889635","","","","","","",""
"162","","bandit","116","469618","0.0-78.0-0.0","34320404","wem/bandit_single","A3RL02A3JRAUS4","gain","2","","72","H","0","img/none_selected.jpg","0","0","1","0.2943099773","","false","41","0.2943099773","","main_expt","0.1019114547","","0.125718056","","0.1434276379","","","","","","",""
"139","","bandit","117","471517","0.0-79.0-0.0","34320404","wem/bandit_single","A3RL02A3JRAUS4","gain","2","","76","L","3","","0","0","1","0.1432973755","","false","42","0.2502187242","","main_expt","0.07379386716","","0.07668278466","","0.1432973755","","","","","","",""
"211","","bandit","118","473501","0.0-80.0-0.0","34320404","wem/bandit_single","A3RL02A3JRAUS4","gain","2","","75","K","2","","0","0","1","0.08403116819","","false","43","0.2691097515","","main_expt","0.08186566242","","0.08403116819","","0.1605884153","","","","","","",""
"91","","bandit","119","475379","0.0-81.0-0.0","34320404","wem/bandit_single","A3RL02A3JRAUS4","gain","2","","74","J","1","","0","0","1","0.08692603594","","false","44","0.2601206974","","main_expt","0.08692603594","","0.08258467284","","0.1396132557","","","","","","",""
"143","","bandit","120","477292","0.0-82.0-0.0","34320404","wem/bandit_single","A3RL02A3JRAUS4","gain","2","","74","J","1","","0","0","1","0.1212470101","","false","45","0.3222012474","","main_expt","0.1212470101","","0.07253936928","","0.2250933593","","","","","","",""
"201","","bandit","121","479257","0.0-83.0-0.0","34320404","wem/bandit_single","A3RL02A3JRAUS4","gain","2","","75","K","2","","0","0","1","0.05374479905","","false","46","0.3060845752","","main_expt","0.134661007","","0.05374479905","","0.1826421925","","","","","","",""
"69","","bandit","122","481092","0.0-84.0-0.0","34320404","wem/bandit_single","A3RL02A3JRAUS4","gain","2","","76","L","3","","0","0","1","0.1706758886","","false","47","0.290950603","","main_expt","0.1377890551","","0.06764850751","","0.1706758886","","","","","","",""
"245","","bandit","123","483100","0.0-85.0-0.0","34320404","wem/bandit_single","A3RL02A3JRAUS4","gain","2","","76","L","3","","0","0","1","0.1686178854","","false","48","0.329307254","","main_expt","0.1325860966","","0.05656727153","","0.1686178854","","","","","","",""
"86","","bandit","124","484949","0.0-86.0-0.0","34320404","wem/bandit_single","A3RL02A3JRAUS4","gain","2","","75","K","2","","0","0","1","0.08131597157","","false","49","0.405044281","","main_expt","0.1231750139","","0.08131597157","","0.1822379713","","","","","","",""
"211","","bandit","125","486924","0.0-87.0-0.0","34320404","wem/bandit_single","A3RL02A3JRAUS4","gain","2","","74","J","1","","0","0","1","0.1565964086","","false","50","0.4121919591","","main_expt","0.1565964086","","0.08274267654","","0.2513484478","","","","","","",""
"182","","bandit","126","488885","0.0-88.0-0.0","34320404","wem/bandit_single","A3RL02A3JRAUS4","gain","2","","72","H","0","img/none_selected.jpg","1","0","0","0.4271607293","","false","51","0.4271607293","","main_expt","0.1464659706","","0.1154896937","","0.2812942615","","","","","","",""
"74","","bandit","127","490739","0.0-89.0-0.0","34320404","wem/bandit_single","A3RL02A3JRAUS4","gain","2","","72","H","0","img/none_selected.jpg","1","0","0","0.4249516559","","false","52","0.4249516559","","main_expt","0.1196909414","","0.07649260985","","0.2224049931","","","","","","",""
"116","","bandit","128","492632","0.0-90.0-0.0","34320404","wem/bandit_single","A3RL02A3JRAUS4","gain","2","","72","H","0","img/none_selected.jpg","0","0","1","0.414238899","","false","53","0.414238899","","main_expt","0.1578713891","","0.06211708307","","0.2135714686","","","","","","",""
"870","","bandit","129","495267","0.0-91.0-0.0","34320404","wem/bandit_single","A3RL02A3JRAUS4","gain","2","","72","H","0","img/none_selected.jpg","0","0","1","0.4404827494","","false","54","0.4404827494","","main_expt","0.1420893662","","0.05122165179","","0.2471494284","","","","","","",""
"96","","bandit","130","497155","0.0-92.0-0.0","34320404","wem/bandit_single","A3RL02A3JRAUS4","gain","2","","74","J","1","","0","0","1","0.1255118638","","false","55","0.4258944343","","main_expt","0.1255118638","","0.05779626682","","0.26732004","","","","","","",""
"95","","bandit","131","499022","0.0-93.0-0.0","34320404","wem/bandit_single","A3RL02A3JRAUS4","gain","2","","75","K","2","","0","0","1","0.06578325953","","false","56","0.4058732664","","main_expt","0.1040792381","","0.06578325953","","0.258853447","","","","","","",""
"58","","bandit","132","500847","0.0-94.0-0.0","34320404","wem/bandit_single","A3RL02A3JRAUS4","gain","2","","76","L","3","","1","0","0","0.247757255","","false","57","0.4269212616","","main_expt","0.1058118143","","0.07487929626","","0.247757255","","","","","","",""
"116","","bandit","133","502758","0.0-95.0-0.0","34320404","wem/bandit_single","A3RL02A3JRAUS4","gain","2","","76","L","3","","0","0","1","0.2380046022","","false","58","0.4120073189","","main_expt","0.08107820888","","0.05601765109","","0.2380046022","","","","","","",""
"240","","bandit","134","504789","0.0-96.0-0.0","34320404","wem/bandit_single","A3RL02A3JRAUS4","gain","2","","76","L","3","","0","0","1","0.273239949","","false","59","0.367464959","","main_expt","0.115954585","","0.07158824907","","0.273239949","","","","","","",""
"101","","bandit","135","506655","0.0-97.0-0.0","34320404","wem/bandit_single","A3RL02A3JRAUS4","gain","2","","75","K","2","","0","0","1","0.1021813758","","false","60","0.3113576115","","main_expt","0.190529156","","0.1021813758","","0.314936794","","","","","","",""
"137","","bandit","136","508575","0.0-98.0-0.0","34320404","wem/bandit_single","A3RL02A3JRAUS4","gain","2","","74","J","1","","1","0","0","0.2024767933","","false","61","0.3217665369","","main_expt","0.2024767933","","0.1422244628","","0.3361315769","","","","","","",""
"44","","bandit","137","510381","0.0-99.0-0.0","34320404","wem/bandit_single","A3RL02A3JRAUS4","gain","2","","74","J","1","","0","0","1","0.1478811465","","false","62","0.3396020841","","main_expt","0.1478811465","","0.1543762338","","0.3012470308","","","","","","",""
"374","","bandit","138","512521","0.0-100.0-0.0","34320404","wem/bandit_single","A3RL02A3JRAUS4","gain","2","","72","H","0","img/none_selected.jpg","0","0","1","0.3326008901","","false","63","0.3326008901","","main_expt","0.1472080331","","0.1957871903","","0.3035933772","","","","","","",""
"120","","bandit","139","514415","0.0-101.0-0.0","34320404","wem/bandit_single","A3RL02A3JRAUS4","gain","2","","72","H","0","img/none_selected.jpg","1","0","0","0.2759567044","","false","64","0.2759567044","","main_expt","0.1523556625","","0.1998827037","","0.3061864711","","","","","","",""
"192","","bandit","140","516393","0.0-102.0-0.0","34320404","wem/bandit_single","A3RL02A3JRAUS4","gain","2","","72","H","0","img/none_selected.jpg","0","0","1","0.330340259","","false","65","0.330340259","","main_expt","0.1640586258","","0.2229124218","","0.2795045379","","","","","","",""
"158","","bandit","141","518333","0.0-103.0-0.0","34320404","wem/bandit_single","A3RL02A3JRAUS4","gain","2","","74","J","1","","0","0","1","0.1559289375","","false","66","0.394496842","","main_expt","0.1559289375","","0.2821528041","","0.2624990872","","","","","","",""
"95","","bandit","142","520199","0.0-104.0-0.0","34320404","wem/bandit_single","A3RL02A3JRAUS4","gain","2","","75","K","2","","0","0","1","0.2228434199","","false","67","0.3780229448","","main_expt","0.09042099393","","0.2228434199","","0.2316809648","","","","","","",""
"127","","bandit","143","522089","0.0-105.0-0.0","34320404","wem/bandit_single","A3RL02A3JRAUS4","gain","2","","76","L","3","","0","0","1","0.2266776066","","false","68","0.313258317","","main_expt","0.08874767337","","0.2039549584","","0.2266776066","","","","","","",""
"123","","bandit","144","523992","0.0-106.0-0.0","34320404","wem/bandit_single","A3RL02A3JRAUS4","gain","2","","76","L","3","","0","0","1","0.1734363374","","false","69","0.3466590849","","main_expt","0.09103688118","","0.1998164138","","0.1734363374","","","","","","",""
"59","","bandit","145","525817","0.0-107.0-0.0","34320404","wem/bandit_single","A3RL02A3JRAUS4","gain","2","","75","K","2","","0","0","1","0.1936545157","","false","70","0.3389702644","","main_expt","0.139461016","","0.1936545157","","0.1469163378","","","","","","",""
"138","","bandit","146","527719","0.0-108.0-0.0","34320404","wem/bandit_single","A3RL02A3JRAUS4","gain","2","","74","J","1","","0","0","1","0.1269809057","","false","71","0.3037518088","","main_expt","0.1269809057","","0.1875420319","","0.1903103683","","","","","","",""
"34","","bandit","147","529519","0.0-109.0-0.0","34320404","wem/bandit_single","A3RL02A3JRAUS4","gain","2","","72","H","0","img/none_selected.jpg","0","0","1","0.3007282465","","false","72","0.3007282465","","main_expt","0.1541032278","","0.2275961541","","0.2364630875","","","","","","",""
"70","","bandit","148","531355","0.0-110.0-0.0","34320404","wem/bandit_single","A3RL02A3JRAUS4","gain","2","","72","H","0","img/none_selected.jpg","0","0","1","0.2796446257","","false","73","0.2796446257","","main_expt","0.1618198783","","0.2485431464","","0.2715971604","","","","","","",""
"136","","bandit","149","533296","0.0-111.0-0.0","34320404","wem/bandit_single","A3RL02A3JRAUS4","gain","2","","74","J","1","","0","0","1","0.1428156761","","false","74","0.2729876577","","main_expt","0.1428156761","","0.2394527842","","0.2716254876","","","","","","",""
"114","","bandit","150","535174","0.0-112.0-0.0","34320404","wem/bandit_single","A3RL02A3JRAUS4","gain","2","","75","K","2","","0","0","1","0.2074684787","","false","75","0.2067723694","","main_expt","0.1312504708","","0.2074684787","","0.2998540279","","","","","","",""
"101","","bandit","151","537043","0.0-113.0-0.0","34320404","wem/bandit_single","A3RL02A3JRAUS4","gain","2","","76","L","3","","0","0","1","0.3195890579","","false","76","0.2130899639","","main_expt","0.1002429729","","0.178133335","","0.3195890579","","","","","","",""
"185","","bandit","152","539009","0.0-114.0-0.0","34320404","wem/bandit_single","A3RL02A3JRAUS4","gain","2","","76","L","3","","0","0","1","0.2856322382","","false","77","0.2109525889","","main_expt","0.07543037954","","0.1788248706","","0.2856322382","","","","","","",""
"108","","bandit","153","540891","0.0-115.0-0.0","34320404","wem/bandit_single","A3RL02A3JRAUS4","gain","2","","75","K","2","","0","0","1","0.1530293784","","false","78","0.1884332626","","main_expt","0.1153668935","","0.1530293784","","0.2919105172","","","","","","",""
"43","","bandit","154","542716","0.0-116.0-0.0","34320404","wem/bandit_single","A3RL02A3JRAUS4","gain","2","","74","J","1","","1","0","0","0.07716777456","","false","79","0.1883433777","","main_expt","0.07716777456","","0.1593806387","","0.2567181874","","","","","","",""
"57","","bandit","155","544546","0.0-117.0-0.0","34320404","wem/bandit_single","A3RL02A3JRAUS4","gain","2","","74","J","1","","1","0","0","0.08058819474","","false","80","0.1998795799","","main_expt","0.08058819474","","0.1428411119","","0.3200023444","","","","","","",""
"145","","bandit","156","546455","0.0-118.0-0.0","34320404","wem/bandit_single","A3RL02A3JRAUS4","gain","2","","74","J","1","","1","0","0","0.09856946308","","false","81","0.1651756375","","main_expt","0.09856946308","","0.1982686668","","0.3117755618","","","","","","",""
"73","","bandit","157","548300","0.0-119.0-0.0","34320404","wem/bandit_single","A3RL02A3JRAUS4","gain","2","","74","J","1","","0","0","1","0.1000946235","","false","82","0.2235829688","","main_expt","0.1000946235","","0.2291501313","","0.3379160562","","","","","","",""
"134","","bandit","158","550197","0.0-120.0-0.0","34320404","wem/bandit_single","A3RL02A3JRAUS4","gain","2","","74","J","1","","0","0","1","0.06687408093","","false","83","0.2456561592","","main_expt","0.06687408093","","0.2259362275","","0.3620865136","","","","","","",""
"252","","bandit","159","552215","0.0-121.0-0.0","34320404","wem/bandit_single","A3RL02A3JRAUS4","gain","2","","72","H","0","img/none_selected.jpg","1","0","0","0.2790354554","","false","84","0.2790354554","","main_expt","0.06463964557","","0.1733031115","","0.3904685548","","","","","","",""
"169","","bandit","160","554153","0.0-122.0-0.0","34320404","wem/bandit_single","A3RL02A3JRAUS4","gain","2","","72","H","0","img/none_selected.jpg","0","0","1","0.2389339959","","false","85","0.2389339959","","main_expt","0.09044174456","","0.1577379057","","0.4201611698","","","","","","",""
"94","","bandit","161","556020","0.0-123.0-0.0","34320404","wem/bandit_single","A3RL02A3JRAUS4","gain","2","","72","H","0","img/none_selected.jpg","0","0","1","0.2905830411","","false","86","0.2905830411","","main_expt","0.07242924321","","0.1646880331","","0.4544588035","","","","","","",""
"360","","bandit","162","558148","0.0-124.0-0.0","34320404","wem/bandit_single","A3RL02A3JRAUS4","gain","2","","75","K","2","","0","0","1","0.157008097","","false","87","0.3336128518","","main_expt","0.06356931104","","0.157008097","","0.4444110865","","","","","","",""
"52","","bandit","163","559970","0.0-125.0-0.0","34320404","wem/bandit_single","A3RL02A3JRAUS4","gain","2","","76","L","3","","0","0","1","0.4276611285","","false","88","0.3720796031","","main_expt","0.08819972964","","0.14663069","","0.4276611285","","","","","","",""
"95","","bandit","164","561838","0.0-126.0-0.0","34320404","wem/bandit_single","A3RL02A3JRAUS4","gain","2","","76","L","3","","0","0","1","0.395063318","","false","89","0.3383028484","","main_expt","0.09388884115","","0.1510377787","","0.395063318","","","","","","",""
"205","","bandit","165","563812","0.0-127.0-0.0","34320404","wem/bandit_single","A3RL02A3JRAUS4","gain","2","","75","K","2","","0","0","1","0.1600185234","","false","90","0.3550100304","","main_expt","0.1265583984","","0.1600185234","","0.3790569413","","","","","","",""
"137","","bandit","166","565711","0.0-128.0-0.0","34320404","wem/bandit_single","A3RL02A3JRAUS4","gain","2","","74","J","1","","0","0","1","0.09433033469","","false","91","0.4198742783","","main_expt","0.09433033469","","0.1618321768","","0.3763017738","","","","","","",""
"136","","bandit","167","567615","0.0-129.0-0.0","34320404","wem/bandit_single","A3RL02A3JRAUS4","gain","2","","72","H","0","img/none_selected.jpg","1","0","0","0.4522920775","","false","92","0.4522920775","","main_expt","0.05111462501","","0.1408839615","","0.3829045729","","","","","","",""
"65","","bandit","168","569455","0.0-130.0-0.0","34320404","wem/bandit_single","A3RL02A3JRAUS4","gain","2","","72","H","0","img/none_selected.jpg","0","0","1","0.4572096334","","false","93","0.4572096334","","main_expt","0.05378689714","","0.1675332925","","0.4155552038","","","","","","",""
"169","","bandit","169","571388","0.0-131.0-0.0","34320404","wem/bandit_single","A3RL02A3JRAUS4","gain","2","","72","H","0","img/none_selected.jpg","1","0","0","0.457248447","","false","94","0.457248447","","main_expt","0.04385487208","","0.2154783406","","0.3964247486","","","","","","",""
"88","","bandit","170","573242","0.0-132.0-0.0","34320404","wem/bandit_single","A3RL02A3JRAUS4","gain","2","","72","H","0","img/none_selected.jpg","0","0","1","0.4284600246","","false","95","0.4284600246","","main_expt","0.02374316345","","0.2434825378","","0.4028729744","","","","","","",""
"222","","bandit","171","575239","0.0-133.0-0.0","34320404","wem/bandit_single","A3RL02A3JRAUS4","gain","2","","72","H","0","img/none_selected.jpg","0","0","1","0.4213934208","","false","96","0.4213934208","","main_expt","0.01119532444","","0.300751002","","0.3937220057","","","","","","",""
"136","","bandit","172","577198","0.0-134.0-0.0","34320404","wem/bandit_single","A3RL02A3JRAUS4","gain","2","","74","J","1","","0","0","1","0.01205949719","","false","97","0.4093218277","","main_expt","0.01205949719","","0.2390268827","","0.3951408858","","","","","","",""
"105","","bandit","173","579072","0.0-135.0-0.0","34320404","wem/bandit_single","A3RL02A3JRAUS4","gain","2","","74","J","1","","0","0","1","0.02530753644","","false","98","0.4011771953","","main_expt","0.02530753644","","0.1872158766","","0.3872505806","","","","","","",""
"122","","bandit","174","580968","0.0-136.0-0.0","34320404","wem/bandit_single","A3RL02A3JRAUS4","gain","2","","75","K","2","","0","0","1","0.2281726053","","false","99","0.4319140629","","main_expt","0.02318317113","","0.2281726053","","0.3237376228","","","","","","",""
"43","","bandit","175","582781","0.0-137.0-0.0","34320404","wem/bandit_single","A3RL02A3JRAUS4","gain","2","","76","L","3","","1","0","0","0.3840854176","","false","100","0.4388591553","","main_expt","0.01577819671","","0.2322026393","","0.3840854176","","","","","","",""
"88","","bandit","176","584645","0.0-138.0-0.0","34320404","wem/bandit_single","A3RL02A3JRAUS4","gain","2","","76","L","3","","1","0","0","0.4043087267","","false","101","0.4405661836","","main_expt","0.03767304301","","0.2675158553","","0.4043087267","","","","","","",""
"160","","bandit","177","586586","0.0-139.0-0.0","34320404","wem/bandit_single","A3RL02A3JRAUS4","gain","2","","76","L","3","","0","0","1","0.423372456","","false","102","0.4155134761","","main_expt","0.03003558128","","0.2334450153","","0.423372456","","","","","","",""
"165","","bandit","178","588533","0.0-140.0-0.0","34320404","wem/bandit_single","A3RL02A3JRAUS4","gain","2","","74","J","1","","0","0","1","0.04748945294","","false","103","0.4079284656","","main_expt","0.04748945294","","0.2546104349","","0.4305794097","","","","","","",""
"282","","bandit","179","590588","0.0-141.0-0.0","34320404","wem/bandit_single","A3RL02A3JRAUS4","gain","2","","75","K","2","","0","0","1","0.2657782481","","false","104","0.3827156199","","main_expt","0.06674284653","","0.2657782481","","0.4515631957","","","","","","",""
"255","","bandit","180","592621","0.0-142.0-0.0","34320404","wem/bandit_single","A3RL02A3JRAUS4","gain","2","","72","H","0","img/none_selected.jpg","0","0","1","0.3892206975","","false","105","0.3892206975","","main_expt","0.0806059128","","0.2397797145","","0.454723383","","","","","","",""
"111","","bandit","181","594524","0.0-143.0-0.0","34320404","wem/bandit_single","A3RL02A3JRAUS4","gain","2","","74","J","1","","1","0","0","0.1147522423","","false","106","0.3499671591","","main_expt","0.1147522423","","0.1744994936","","0.4487898282","","","","","","",""
"83","","bandit","182","596379","0.0-144.0-0.0","34320404","wem/bandit_single","A3RL02A3JRAUS4","gain","2","","74","J","1","","0","0","1","0.1225979079","","false","107","0.3378870415","","main_expt","0.1225979079","","0.2004436591","","0.4300484018","","","","","","",""
"48","","bandit","183","598210","0.0-145.0-0.0","34320404","wem/bandit_single","A3RL02A3JRAUS4","gain","2","","76","L","3","","0","0","1","0.4056187414","","false","108","0.3206855754","","main_expt","0.1808232933","","0.1781349215","","0.4056187414","","","","","","",""
"160","","bandit","184","600136","0.0-146.0-0.0","34320404","wem/bandit_single","A3RL02A3JRAUS4","gain","2","","75","K","2","","0","0","1","0.1603989886","","false","109","0.3412252333","","main_expt","0.2004688742","","0.1603989886","","0.4145536126","","","","","","",""
"176","","bandit","185","602099","0.0-147.0-0.0","34320404","wem/bandit_single","A3RL02A3JRAUS4","gain","2","","72","H","0","img/none_selected.jpg","1","0","0","0.3650365033","","false","110","0.3650365033","","main_expt","0.2261403934","","0.1300992081","","0.3897928763","","","","","","",""
"170","","bandit","186","604031","0.0-148.0-0.0","34320404","wem/bandit_single","A3RL02A3JRAUS4","gain","2","","72","H","0","img/none_selected.jpg","1","0","0","0.341048274","","false","111","0.341048274","","main_expt","0.1612973213","","0.1740321776","","0.4150540561","","","","","","",""
"102","","bandit","187","605896","0.0-149.0-0.0","34320404","wem/bandit_single","A3RL02A3JRAUS4","gain","2","","72","H","0","img/none_selected.jpg","0","0","1","0.3254027875","","false","112","0.3254027875","","main_expt","0.1655724556","","0.2444477537","","0.4394636757","","","","","","",""
"51","","bandit","188","607710","0.0-150.0-0.0","34320404","wem/bandit_single","A3RL02A3JRAUS4","gain","2","","75","K","2","","1","0","0","0.2195244909","","false","113","0.308059901","","main_expt","0.1319876284","","0.2195244909","","0.4301961846","","","","","","",""
"148","","bandit","189","609620","0.0-151.0-0.0","34320404","wem/bandit_single","A3RL02A3JRAUS4","gain","2","","75","K","2","","0","0","1","0.2719971232","","false","114","0.3238695313","","main_expt","0.1147934267","","0.2719971232","","0.4497687286","","","","","","",""
"48","","bandit","190","611432","0.0-152.0-0.0","34320404","wem/bandit_single","A3RL02A3JRAUS4","gain","2","","74","J","1","","0","0","1","0.1301750396","","false","115","0.3315084933","","main_expt","0.1301750396","","0.2447677414","","0.4448888627","","","","","","",""
"10","","bandit","191","613207","0.0-153.0-0.0","34320404","wem/bandit_single","A3RL02A3JRAUS4","gain","2","","76","L","3","","0","0","1","0.3905844751","","false","116","0.3234657333","","main_expt","0.130185029","","0.2296513069","","0.3905844751","","","","","","",""
"115","","bandit","192","615088","0.0-154.0-0.0","34320404","wem/bandit_single","A3RL02A3JRAUS4","gain","2","","72","H","0","img/none_selected.jpg","0","0","1","0.300593156","","false","117","0.300593156","","main_expt","0.1548944576","","0.2151266314","","0.424359093","","","","","","",""
"136","","bandit","193","617004","0.0-155.0-0.0","34320404","wem/bandit_single","A3RL02A3JRAUS4","gain","2","","75","K","2","","1","0","0","0.1311834018","","false","118","0.3585138177","","main_expt","0.172903741","","0.1311834018","","0.4121010571","","","","","","",""
"159","","bandit","194","618930","0.0-156.0-0.0","34320404","wem/bandit_single","A3RL02A3JRAUS4","gain","2","","75","K","2","","0","0","1","0.1190099868","","false","119","0.3062020697","","main_expt","0.1707570171","","0.1190099868","","0.4117558181","","","","","","",""
"105","","bandit","195","620838","0.0-157.0-0.0","34320404","wem/bandit_single","A3RL02A3JRAUS4","gain","2","","74","J","1","","0","0","1","0.1870802187","","false","120","0.3312553157","","main_expt","0.1870802187","","0.1117686876","","0.4275669698","","","","","","",""
"139","","bandit","196","622747","0.0-158.0-0.0","34320404","wem/bandit_single","A3RL02A3JRAUS4","gain","2","","76","L","3","","0","0","1","0.4428986123","","false","121","0.3892509988","","main_expt","0.1870161021","","0.1415869423","","0.4428986123","","","","","","",""
"139","","bandit","197","624655","0.0-159.0-0.0","34320404","wem/bandit_single","A3RL02A3JRAUS4","gain","2","","72","H","0","img/none_selected.jpg","1","0","0","0.4330036483","","false","122","0.4330036483","","main_expt","0.1926804843","","0.1398412585","","0.4376246318","","","","","","",""
"128","","bandit","198","626557","0.0-160.0-0.0","34320404","wem/bandit_single","A3RL02A3JRAUS4","gain","2","","72","H","0","img/none_selected.jpg","0","0","1","0.4555957022","","false","123","0.4555957022","","main_expt","0.2057615037","","0.1163210087","","0.4153394585","","","","","","",""
"140","","bandit","199","628470","0.0-161.0-0.0","34320404","wem/bandit_single","A3RL02A3JRAUS4","gain","2","","75","K","2","","0","0","1","0.07344578178","","false","124","0.4565029776","","main_expt","0.2639565913","","0.07344578178","","0.4203389285","","","","","","",""
"137","","bandit","200","630373","0.0-162.0-0.0","34320404","wem/bandit_single","A3RL02A3JRAUS4","gain","2","","74","J","1","","1","0","0","0.3672341475","","false","125","0.4511527373","","main_expt","0.3672341475","","0.08752025541","","0.3710029205","","","","","","",""
"161","","bandit","201","632302","0.0-163.0-0.0","34320404","wem/bandit_single","A3RL02A3JRAUS4","gain","2","","74","J","1","","0","0","1","0.3606148775","","false","126","0.4426171603","","main_expt","0.3606148775","","0.1064058914","","0.3465273485","","","","","","",""
"135","","bandit","202","634203","0.0-164.0-0.0","34320404","wem/bandit_single","A3RL02A3JRAUS4","gain","2","","76","L","3","","0","0","1","0.4106613481","","false","127","0.4259104728","","main_expt","0.4079700646","","0.1103525866","","0.4106613481","","","","","","",""
"112","","bandit","203","636081","0.0-165.0-0.0","34320404","wem/bandit_single","A3RL02A3JRAUS4","gain","2","","72","H","0","img/none_selected.jpg","0","0","1","0.4543754413","","false","128","0.4543754413","","main_expt","0.4204919645","","0.1060480298","","0.4377707947","","","","","","",""
"84","","bandit","204","637946","0.0-166.0-0.0","34320404","wem/bandit_single","A3RL02A3JRAUS4","gain","2","","75","K","2","","1","0","0","0.1332603285","","false","129","0.4587533269","","main_expt","0.4040923387","","0.1332603285","","0.4481781661","","","","","","",""
"97","","bandit","205","639821","0.0-167.0-0.0","34320404","wem/bandit_single","A3RL02A3JRAUS4","gain","2","","75","K","2","","0","0","1","0.09182468565","","false","130","0.4618517855","","main_expt","0.3906791758","","0.09182468565","","0.4301237728","","","","","","",""
"61","","bandit","206","641650","0.0-168.0-0.0","34320404","wem/bandit_single","A3RL02A3JRAUS4","gain","2","","74","J","1","","0","0","1","0.380553204","","false","131","0.4622878414","","main_expt","0.380553204","","0.09388333002","","0.4457858875","","","","","","",""
"192","","bandit","207","643607","0.0-169.0-0.0","34320404","wem/bandit_single","A3RL02A3JRAUS4","gain","2","","74","J","1","","0","0","1","0.4000467043","","false","132","0.4624711794","","main_expt","0.4000467043","","0.07277513685","","0.4732894157","","","","","","",""
"87","","bandit","208","645459","0.0-170.0-0.0","34320404","wem/bandit_single","A3RL02A3JRAUS4","gain","2","","76","L","3","","0","0","1","0.4607838047","","false","133","0.4794526202","","main_expt","0.3929100345","","0.1108266248","","0.4607838047","","","","","","",""
"472","","bandit","209","647701","0.0-171.0-0.0","34320404","wem/bandit_single","A3RL02A3JRAUS4","gain","2","","72","H","0","img/none_selected.jpg","1","0","0","0.481632873","","false","134","0.481632873","","main_expt","0.4009617203","","0.1466671782","","0.4663808264","","","","","","",""
"90","","bandit","210","649555","0.0-172.0-0.0","34320404","wem/bandit_single","A3RL02A3JRAUS4","gain","2","","72","H","0","img/none_selected.jpg","0","0","1","0.4667599148","","false","135","0.4667599148","","main_expt","0.3859426802","","0.1625995743","","0.4625615306","","","","","","",""
"103","","bandit","211","651423","0.0-173.0-0.0","34320404","wem/bandit_single","A3RL02A3JRAUS4","gain","2","","75","K","2","","0","0","1","0.1555673637","","false","136","0.4468402508","","main_expt","0.4089350186","","0.1555673637","","0.4629143089","","","","","","",""
"70","","bandit","212","653255","0.0-174.0-0.0","34320404","wem/bandit_single","A3RL02A3JRAUS4","gain","2","","74","J","1","","0","0","1","0.4009707033","","false","137","0.4331537256","","main_expt","0.4009707033","","0.1395554881","","0.4644074349","","","","","","",""
"38","","bandit","213","655059","0.0-175.0-0.0","34320404","wem/bandit_single","A3RL02A3JRAUS4","gain","2","","76","L","3","","1","0","0","0.4741213624","","false","138","0.4578477473","","main_expt","0.4116224971","","0.1387442451","","0.4741213624","","","","","","",""
"318","","bandit","214","657154","0.0-176.0-0.0","34320404","wem/bandit_single","A3RL02A3JRAUS4","gain","2","","76","L","3","","1","0","0","0.4736492243","","false","139","0.464919911","","main_expt","0.4129411324","","0.1693780048","","0.4736492243","","","","","","",""
"140","","bandit","215","659058","0.0-177.0-0.0","34320404","wem/bandit_single","A3RL02A3JRAUS4","gain","2","","76","L","3","","0","0","1","0.4752570035","","false","140","0.4614371154","","main_expt","0.4494235083","","0.1753437518","","0.4752570035","","","","","","",""
"352","","bandit","216","661184","0.0-178.0-0.0","34320404","wem/bandit_single","A3RL02A3JRAUS4","gain","2","","74","J","1","","0","0","1","0.4453484197","","false","141","0.4747872093","","main_expt","0.4453484197","","0.2288512635","","0.4857055712","","","","","","",""
"44","","bandit","217","662992","0.0-179.0-0.0","34320404","wem/bandit_single","A3RL02A3JRAUS4","gain","2","","75","K","2","","0","0","1","0.2579513082","","false","142","0.4513335087","","main_expt","0.4604546146","","0.2579513082","","0.4792724089","","","","","","",""
"310","","bandit","218","665074","0.0-180.0-0.0","34320404","wem/bandit_single","A3RL02A3JRAUS4","gain","2","","72","H","0","img/none_selected.jpg","0","0","1","0.4198830698","","false","143","0.4198830698","","main_expt","0.4826245684","","0.21432658","","0.48057755","","","","","","",""
"166","","bandit","219","667008","0.0-181.0-0.0","34320404","wem/bandit_single","A3RL02A3JRAUS4","gain","2","","72","H","0","img/none_selected.jpg","0","0","1","0.3673231636","","false","144","0.3673231636","","main_expt","0.4890981767","","0.1938021535","","0.4777600445","","","","","","",""
"244","","bandit","220","669019","0.0-182.0-0.0","34320404","wem/bandit_single","A3RL02A3JRAUS4","gain","2","","76","L","3","","1","0","0","0.4735071841","","false","145","0.3772368795","","main_expt","0.4680822138","","0.206497324","","0.4735071841","","","","","","",""
"145","","bandit","221","670941","0.0-183.0-0.0","34320404","wem/bandit_single","A3RL02A3JRAUS4","gain","2","","76","L","3","","0","0","1","0.4598241197","","false","146","0.3767069828","","main_expt","0.4660155258","","0.1857351915","","0.4598241197","","","","","","",""
"247","","bandit","222","673020","0.0-184.0-0.0","34320404","wem/bandit_single","A3RL02A3JRAUS4","gain","2","","75","K","2","","0","0","1","0.1046475439","","false","147","0.4039806626","","main_expt","0.4723880167","","0.1046475439","","0.4279993213","","","","","","",""
"394","","bandit","223","675201","0.0-185.0-0.0","34320404","wem/bandit_single","A3RL02A3JRAUS4","gain","2","","74","J","1","","0","0","1","0.4692947112","","false","148","0.4178396587","","main_expt","0.4692947112","","0.1098111678","","0.4422782314","","","","","","",""
"77","","bandit","224","677051","0.0-186.0-0.0","34320404","wem/bandit_single","A3RL02A3JRAUS4","gain","2","","76","L","3","","0","0","1","0.4514785706","","false","149","0.3932004216","","main_expt","0.4702562614","","0.1221971929","","0.4514785706","","","","","","",""
"341","","bandit","225","679160","0.0-187.0-0.0","34320404","wem/bandit_single","A3RL02A3JRAUS4","gain","2","","74","J","1","","0","0","1","0.4714094479","","false","150","0.4103897693","","main_expt","0.4714094479","","0.1354034315","","0.4189864991","","","","","","",""
"173","","bandit","226","681112","0.0-188.0-0.0","34320404","wem/bandit_single","A3RL02A3JRAUS4","gain","2","","75","K","2","","0","0","1","0.1041822367","","false","151","0.4122179041","","main_expt","0.4761401221","","0.1041822367","","0.4389233528","","","","","","",""
"327","","bandit","227","683206","0.0-189.0-0.0","34320404","wem/bandit_single","A3RL02A3JRAUS4","gain","2","","72","H","0","img/none_selected.jpg","1","0","0","0.3952463752","","false","152","0.3952463752","","main_expt","0.4697737123","","0.09038071171","","0.4244236929","","","","","","",""
"329","","bandit","228","685304","0.0-190.0-0.0","34320404","wem/bandit_single","A3RL02A3JRAUS4","gain","2","","72","H","0","img/none_selected.jpg","0","0","1","0.3877384472","","false","153","0.3877384472","","main_expt","0.446753433","","0.08460578514","","0.4476471014","","","","","","",""
"322","","bandit","229","687391","0.0-191.0-0.0","34320404","wem/bandit_single","A3RL02A3JRAUS4","gain","2","","74","J","1","","0","0","1","0.4588815304","","false","154","0.3551427127","","main_expt","0.4588815304","","0.06957086972","","0.4505336387","","","","","","",""
"64","","bandit","230","689234","0.0-192.0-0.0","34320404","wem/bandit_single","A3RL02A3JRAUS4","gain","2","","76","L","3","","0","0","1","0.466992112","","false","155","0.3027898514","","main_expt","0.4483664475","","0.07570805595","","0.466992112","","","","","","",""
"220","","bandit","231","691238","0.0-193.0-0.0","34320404","wem/bandit_single","A3RL02A3JRAUS4","gain","2","","72","H","0","img/none_selected.jpg","0","0","1","0.3245978035","","false","156","0.3245978035","","main_expt","0.4383670719","","0.1010055374","","0.4383448919","","","","","","",""
"161","","bandit","232","693188","0.0-194.0-0.0","34320404","wem/bandit_single","A3RL02A3JRAUS4","gain","2","","74","J","1","","0","0","1","0.42990192","","false","157","0.3293821827","","main_expt","0.42990192","","0.09959580587","","0.4181306447","","","","","","",""
"157","","bandit","233","695137","0.0-195.0-0.0","34320404","wem/bandit_single","A3RL02A3JRAUS4","gain","2","","75","K","2","","0","0","1","0.09130540219","","false","158","0.3053991167","","main_expt","0.4112902825","","0.09130540219","","0.4322591637","","","","","","",""
"144","","bandit","234","697077","0.0-196.0-0.0","34320404","wem/bandit_single","A3RL02A3JRAUS4","gain","2","","72","H","0","img/none_selected.jpg","0","0","1","0.3475565739","","false","159","0.3475565739","","main_expt","0.4085113589","","0.07080299429","","0.4129829621","","","","","","",""
"126","","bandit","235","698991","0.0-197.0-0.0","34320404","wem/bandit_single","A3RL02A3JRAUS4","gain","2","","76","L","3","","1","0","0","0.4094933958","","false","160","0.327393219","","main_expt","0.4079314082","","0.05017383151","","0.4094933958","","","","","","",""
"133","","bandit","236","700899","0.0-198.0-0.0","34320404","wem/bandit_single","A3RL02A3JRAUS4","gain","2","","76","L","3","","0","0","1","0.404058003","","false","161","0.303429729","","main_expt","0.3631501835","","0.03820476969","","0.404058003","","","","","","",""
"107","","bandit","237","702783","0.0-199.0-0.0","34320404","wem/bandit_single","A3RL02A3JRAUS4","gain","2","","75","K","2","","0","0","1","0.02512507724","","false","162","0.3079210788","","main_expt","0.3470346279","","0.02512507724","","0.3846726044","","","","","","",""
"443","","bandit","238","705011","0.0-200.0-0.0","34320404","wem/bandit_single","A3RL02A3JRAUS4","gain","2","","74","J","1","","1","0","0","0.372656257","","false","163","0.3004483846","","main_expt","0.372656257","","0.03932379445","","0.4016559577","","","","","","",""
"185","","bandit","239","706966","0.0-201.0-0.0","34320404","wem/bandit_single","A3RL02A3JRAUS4","gain","2","","74","J","1","","1","0","0","0.3802753243","","false","164","0.2886014424","","main_expt","0.3802753243","","0.01829840099","","0.3566256613","","","","","","",""
"226","","bandit","240","708974","0.0-202.0-0.0","34320404","wem/bandit_single","A3RL02A3JRAUS4","gain","2","","74","J","1","","1","0","0","0.3881672334","","false","165","0.2088325088","","main_expt","0.3881672334","","0.02415252971","","0.3509524146","","","","","","",""
"112","","bandit","241","710857","0.0-203.0-0.0","34320404","wem/bandit_single","A3RL02A3JRAUS4","gain","2","","74","J","1","","0","0","1","0.359536632","","false","166","0.2160195985","","main_expt","0.359536632","","0.02185778449","","0.2773632025","","","","","","",""
"158","","bandit","242","712795","0.0-204.0-0.0","34320404","wem/bandit_single","A3RL02A3JRAUS4","gain","2","","75","K","2","","0","0","1","0.02761124673","","false","167","0.1836534764","","main_expt","0.3693034809","","0.02761124673","","0.3022689801","","","","","","",""
"151","","bandit","243","714718","0.0-205.0-0.0","34320404","wem/bandit_single","A3RL02A3JRAUS4","gain","2","","74","J","1","","0","0","1","0.3449050916","","false","168","0.1701024481","","main_expt","0.3449050916","","0.02160611799","","0.2937690027","","","","","","",""
"80","","bandit","244","716587","0.0-206.0-0.0","34320404","wem/bandit_single","A3RL02A3JRAUS4","gain","2","","74","J","1","","1","0","0","0.3515710367","","false","169","0.1896079261","","main_expt","0.3515710367","","0.02113437328","","0.2488586406","","","","","","",""
"216","","bandit","245","718577","0.0-207.0-0.0","34320404","wem/bandit_single","A3RL02A3JRAUS4","gain","2","","74","J","1","","0","0","1","0.3233833909","","false","170","0.2377789273","","main_expt","0.3233833909","","0.01292956957","","0.2112819205","","","","","","",""
"86","","bandit","246","720434","0.0-208.0-0.0","34320404","wem/bandit_single","A3RL02A3JRAUS4","gain","2","","74","J","1","","1","0","0","0.2468086364","","false","171","0.2640247014","","main_expt","0.2468086364","","0.01989811998","","0.2217900108","","","","","","",""
"180","","bandit","247","722380","0.0-209.0-0.0","34320404","wem/bandit_single","A3RL02A3JRAUS4","gain","2","","74","J","1","","0","0","1","0.3408906282","","false","172","0.2055846389","","main_expt","0.3408906282","","0.0296351857","","0.2387596097","","","","","","",""
"265","","bandit","248","724417","0.0-210.0-0.0","34320404","wem/bandit_single","A3RL02A3JRAUS4","gain","2","","75","K","2","","0","0","1","0.03540771295","","false","173","0.2438181894","","main_expt","0.3252944763","","0.03540771295","","0.2602125502","","","","","","",""
"54","","bandit","249","726239","0.0-211.0-0.0","34320404","wem/bandit_single","A3RL02A3JRAUS4","gain","2","","72","H","0","img/none_selected.jpg","1","0","0","0.2733147352","","false","174","0.2733147352","","main_expt","0.3200904142","","0.03725130304","","0.2202846771","","","","","","",""
"164","","bandit","250","728177","0.0-212.0-0.0","34320404","wem/bandit_single","A3RL02A3JRAUS4","gain","2","","72","H","0","img/none_selected.jpg","0","0","1","0.2767671147","","false","175","0.2767671147","","main_expt","0.3622659173","","0.03242602151","","0.233285157","","","","","","",""
"405","","bandit","251","730353","0.0-213.0-0.0","34320404","wem/bandit_single","A3RL02A3JRAUS4","gain","2","","76","L","3","","0","0","1","0.2264555061","","false","176","0.2195478827","","main_expt","0.2937007374","","0.04697917163","","0.2264555061","","","","","","",""
"560","","bandit","252","732681","0.0-214.0-0.0","34320404","wem/bandit_single","A3RL02A3JRAUS4","gain","2","","74","J","1","","0","0","1","0.2513366018","","false","177","0.1515864758","","main_expt","0.2513366018","","0.04124559051","","0.241841845","","","","","","",""
"121","","bandit","253","734580","0.0-215.0-0.0","34320404","wem/bandit_single","A3RL02A3JRAUS4","gain","2","","72","H","0","img/none_selected.jpg","0","0","1","0.1618037694","","false","178","0.1618037694","","main_expt","0.3159509921","","0.06205026603","","0.2423953475","","","","","","",""
"174","","bandit","254","736521","0.0-216.0-0.0","34320404","wem/bandit_single","A3RL02A3JRAUS4","gain","2","","75","K","2","","0","0","1","0.08412795639","","false","179","0.1653326191","","main_expt","0.2899582247","","0.08412795639","","0.2523089652","","","","","","",""
"345","","bandit","255","738639","0.0-217.0-0.0","34320404","wem/bandit_single","A3RL02A3JRAUS4","gain","2","","76","L","3","","0","0","1","0.2223981335","","false","180","0.1751853148","","main_expt","0.3371390753","","0.1304099397","","0.2223981335","","","","","","",""
"191","","bandit","256","740610","0.0-218.0-0.0","34320404","wem/bandit_single","A3RL02A3JRAUS4","gain","2","","74","J","1","","0","0","1","0.3365963609","","false","181","0.211978586","","main_expt","0.3365963609","","0.1801801058","","0.2319473409","","","","","","",""
"129","","bandit","257","742506","0.0-219.0-0.0","34320404","wem/bandit_single","A3RL02A3JRAUS4","gain","2","","72","H","0","img/none_selected.jpg","0","0","1","0.2323199139","","false","182","0.2323199139","","main_expt","0.2643366398","","0.1951504204","","0.2338578761","","","","","","",""
"73","","bandit","258","744347","0.0-220.0-0.0","34320404","wem/bandit_single","A3RL02A3JRAUS4","gain","2","","75","K","2","","0","0","1","0.2330781564","","false","183","0.2252803731","","main_expt","0.2464000872","","0.2330781564","","0.265472663","","","","","","",""
"181","","bandit","259","746304","0.0-221.0-0.0","34320404","wem/bandit_single","A3RL02A3JRAUS4","gain","2","","76","L","3","","1","0","0","0.2826161147","","false","184","0.1614269484","","main_expt","0.3039071009","","0.2711395555","","0.2826161147","","","","","","",""
"499","","bandit","260","748592","0.0-222.0-0.0","34320404","wem/bandit_single","A3RL02A3JRAUS4","gain","2","","76","L","3","","0","0","1","0.2542525597","","false","185","0.1636939604","","main_expt","0.3100879913","","0.2182249031","","0.2542525597","","","","","","",""
"211","","bandit","261","750596","0.0-223.0-0.0","34320404","wem/bandit_single","A3RL02A3JRAUS4","gain","2","","74","J","1","","0","0","1","0.28505789","","false","186","0.1744134641","","main_expt","0.28505789","","0.2609412602","","0.260460085","","","","","","",""
"250","","bandit","262","752631","0.0-224.0-0.0","34320404","wem/bandit_single","A3RL02A3JRAUS4","gain","2","","75","K","2","","0","0","1","0.2242136054","","false","187","0.1955069844","","main_expt","0.2698122055","","0.2242136054","","0.2119714508","","","","","","",""
"578","","bandit","263","754998","0.0-225.0-0.0","34320404","wem/bandit_single","A3RL02A3JRAUS4","gain","2","","72","H","0","img/none_selected.jpg","1","0","0","0.2289740151","","false","188","0.2289740151","","main_expt","0.2270240414","","0.2404864381","","0.1887053186","","","","","","",""
"556","","bandit","264","757331","0.0-226.0-0.0","34320404","wem/bandit_single","A3RL02A3JRAUS4","gain","2","","72","H","0","img/none_selected.jpg","0","0","1","0.2495887903","","false","189","0.2495887903","","main_expt","0.2182158859","","0.2177927796","","0.1944753942","","","","","","",""
"219","","bandit","265","759319","0.0-227.0-0.0","34320404","wem/bandit_single","A3RL02A3JRAUS4","gain","2","","75","K","2","","0","0","1","0.2445379922","","false","190","0.2815424982","","main_expt","0.2445882628","","0.2445379922","","0.2163673671","","","","","","",""
"233","","bandit","266","761329","0.0-228.0-0.0","34320404","wem/bandit_single","A3RL02A3JRAUS4","gain","2","","74","J","1","","0","0","1","0.2733302752","","false","191","0.2401402076","","main_expt","0.2733302752","","0.2910265903","","0.2584180811","","","","","","",""
"292","","bandit","267","763392","0.0-229.0-0.0","34320404","wem/bandit_single","A3RL02A3JRAUS4","gain","2","","76","L","3","","0","0","1","0.2555063139","","false","192","0.2510809658","","main_expt","0.2776932955","","0.3095983682","","0.2555063139","","","","","","",""
"660","","bandit","268","765826","0.0-230.0-0.0","34320404","wem/bandit_single","A3RL02A3JRAUS4","gain","2","","75","K","2","","0","0","1","0.3217156539","","false","193","0.2875405407","","main_expt","0.3335190616","","0.3217156539","","0.2694863875","","","","","","",""
"266","","bandit","269","767858","0.0-231.0-0.0","34320404","wem/bandit_single","A3RL02A3JRAUS4","gain","2","","72","H","0","img/none_selected.jpg","0","0","1","0.2183543786","","false","194","0.2183543786","","main_expt","0.3308991278","","0.278878796","","0.2894821148","","","","","","",""
"512","","bandit","270","770143","0.0-232.0-0.0","34320404","wem/bandit_single","A3RL02A3JRAUS4","gain","2","","74","J","1","","1","0","0","0.3676749275","","false","195","0.2626349305","","main_expt","0.3676749275","","0.2738334973","","0.3028339589","","","","","","",""
"196","","bandit","271","772115","0.0-233.0-0.0","34320404","wem/bandit_single","A3RL02A3JRAUS4","gain","2","","74","J","1","","0","0","1","0.3523241719","","false","196","0.2046446137","","main_expt","0.3523241719","","0.2494818112","","0.3051171059","","","","","","",""
"229","","bandit","272","774110","0.0-234.0-0.0","34320404","wem/bandit_single","A3RL02A3JRAUS4","gain","2","","76","L","3","","0","0","1","0.2901305303","","false","197","0.2122082762","","main_expt","0.3874168703","","0.2620473779","","0.2901305303","","","","","","",""
"163","","bandit","273","776068","0.0-235.0-0.0","34320404","wem/bandit_single","A3RL02A3JRAUS4","gain","2","","74","J","1","","1","0","0","0.4072223947","","false","198","0.1962120249","","main_expt","0.4072223947","","0.3153682745","","0.2403600488","","","","","","",""
"151","","bandit","274","777986","0.0-236.0-0.0","34320404","wem/bandit_single","A3RL02A3JRAUS4","gain","2","","72","H","0","img/none_selected.jpg","1","0","0","0.1840541487","","false","199","0.1840541487","","main_expt","0.4284861426","","0.2424407548","","0.2034733728","","","","","","",""
"422","","bandit","275","780180","0.0-237.0-0.0","34320404","wem/bandit_single","A3RL02A3JRAUS4","gain","2","","74","J","1","","0","0","1","0.4181746593","","false","200","0.1575563837","","main_expt","0.4181746593","","0.2692586032","","0.2193557146","","","","","","",""
"175","","bandit","276","782178","0.0-238.0-0.0","34320404","wem/bandit_single","A3RL02A3JRAUS4","gain","2","","72","H","0","img/none_selected.jpg","0","0","1","0.138860739","","false","201","0.138860739","","main_expt","0.4134190678","","0.2605377594","","0.2412650678","","","","","","",""
"218","","bandit","277","784191","0.0-239.0-0.0","34320404","wem/bandit_single","A3RL02A3JRAUS4","gain","2","","75","K","2","","1","0","0","0.2372211354","","false","202","0.1216759056","","main_expt","0.4255663607","","0.2372211354","","0.2106041824","","","","","","",""
"191","","bandit","278","786157","0.0-240.0-0.0","34320404","wem/bandit_single","A3RL02A3JRAUS4","gain","2","","72","H","0","img/none_selected.jpg","0","0","1","0.1085797693","","false","203","0.1085797693","","main_expt","0.4267176133","","0.20896917","","0.2182463191","","","","","","",""
"350","","bandit","279","788277","0.0-241.0-0.0","34320404","wem/bandit_single","A3RL02A3JRAUS4","gain","2","","76","L","3","","1","0","0","0.2060997213","","false","204","0.08750272662","","main_expt","0.460819217","","0.2277156902","","0.2060997213","","","","","","",""
"70","","bandit","280","790117","0.0-242.0-0.0","34320404","wem/bandit_single","A3RL02A3JRAUS4","gain","2","","74","J","1","","1","0","0","0.4797370756","","false","205","0.1119911725","","main_expt","0.4797370756","","0.2096017385","","0.2179237498","","","","","","",""
"128","","bandit","281","792020","0.0-243.0-0.0","34320404","wem/bandit_single","A3RL02A3JRAUS4","gain","2","","76","L","3","","0","0","1","0.194566176","","false","206","0.105166696","","main_expt","0.4850202511","","0.2293009918","","0.194566176","","","","","","",""
"165","","bandit","282","793964","0.0-244.0-0.0","34320404","wem/bandit_single","A3RL02A3JRAUS4","gain","2","","75","K","2","","0","0","1","0.2613461541","","false","207","0.07428909222","","main_expt","0.4588339162","","0.2613461541","","0.2540459421","","","","","","",""
"114","","bandit","283","795854","0.0-245.0-0.0","34320404","wem/bandit_single","A3RL02A3JRAUS4","gain","2","","72","H","0","img/none_selected.jpg","1","0","0","0.08415887516","","false","208","0.08415887516","","main_expt","0.4704498371","","0.2921374763","","0.2165425212","","","","","","",""
"249","","bandit","284","797872","0.0-246.0-0.0","34320404","wem/bandit_single","A3RL02A3JRAUS4","gain","2","","72","H","0","img/none_selected.jpg","0","0","1","0.05558253146","","false","209","0.05558253146","","main_expt","0.4498430745","","0.2679345114","","0.1808740619","","","","","","",""
"332","","bandit","285","799986","0.0-247.0-0.0","34320404","wem/bandit_single","A3RL02A3JRAUS4","gain","2","","75","K","2","","1","0","0","0.2356021564","","false","210","0.04914985493","","main_expt","0.4463117693","","0.2356021564","","0.2298827717","","","","","","",""
"221","","bandit","286","801977","0.0-248.0-0.0","34320404","wem/bandit_single","A3RL02A3JRAUS4","gain","2","","74","J","1","","1","0","0","0.422163821","","false","211","0.03798033643","","main_expt","0.422163821","","0.2152320876","","0.2533880575","","","","","","",""
"80","","bandit","287","803826","0.0-249.0-0.0","34320404","wem/bandit_single","A3RL02A3JRAUS4","gain","2","","76","L","3","","0","0","1","0.2771241442","","false","212","0.03974322714","","main_expt","0.3852039581","","0.2216595069","","0.2771241442","","","","","","",""
"116","","bandit","288","805707","0.0-250.0-0.0","34320404","wem/bandit_single","A3RL02A3JRAUS4","gain","2","","74","J","1","","1","0","0","0.3822954745","","false","213","0.02384455773","","main_expt","0.3822954745","","0.2150176613","","0.3010302337","","","","","","",""
"156","","bandit","289","807630","0.0-251.0-0.0","34320404","wem/bandit_single","A3RL02A3JRAUS4","gain","2","","75","K","2","","0","0","1","0.1772129937","","false","214","0.03216660231","","main_expt","0.3608549874","","0.1772129937","","0.3409008015","","","","","","",""
"222","","bandit","290","809616","0.0-252.0-0.0","34320404","wem/bandit_single","A3RL02A3JRAUS4","gain","2","","74","J","1","","1","0","0","0.3621739951","","false","215","0.03095464101","","main_expt","0.3621739951","","0.1584975441","","0.3227810677","","","","","","",""
"333","","bandit","291","811711","0.0-253.0-0.0","34320404","wem/bandit_single","A3RL02A3JRAUS4","gain","2","","72","H","0","img/none_selected.jpg","0","0","1","0.04011500866","","false","216","0.04011500866","","main_expt","0.3733564142","","0.1256434713","","0.3636386285","","","","","","",""
"66","","bandit","292","813540","0.0-254.0-0.0","34320404","wem/bandit_single","A3RL02A3JRAUS4","gain","2","","74","J","1","","0","0","1","0.3856473275","","false","217","0.02351309264","","main_expt","0.3856473275","","0.1601534085","","0.3649758886","","","","","","",""
"85","","bandit","293","815393","0.0-255.0-0.0","34320404","wem/bandit_single","A3RL02A3JRAUS4","gain","2","","75","K","2","","0","0","1","0.1514518834","","false","218","0.01650540734","","main_expt","0.3645608201","","0.1514518834","","0.3641131336","","","","","","",""
"91","","bandit","294","817247","0.0-256.0-0.0","34320404","wem/bandit_single","A3RL02A3JRAUS4","gain","2","","76","L","3","","1","0","0","0.341156599","","false","219","0.03577324375","","main_expt","0.3851453746","","0.2415223947","","0.341156599","","","","","","",""
"92","","bandit","295","819107","0.0-257.0-0.0","34320404","wem/bandit_single","A3RL02A3JRAUS4","gain","2","","74","J","1","","0","0","1","0.4075423229","","false","220","0.03655385126","","main_expt","0.4075423229","","0.2248182851","","0.266049218","","","","","","",""
"49","","bandit","296","820937","0.0-258.0-0.0","34320404","wem/bandit_single","A3RL02A3JRAUS4","gain","2","","72","H","0","img/none_selected.jpg","0","0","1","0.03282050992","","false","221","0.03282050992","","main_expt","0.4083347012","","0.2588925836","","0.2359154628","","","","","","",""
"143","","bandit","297","822850","0.0-259.0-0.0","34320404","wem/bandit_single","A3RL02A3JRAUS4","gain","2","","76","L","3","","0","0","1","0.2640726019","","false","222","0.02558717114","","main_expt","0.4083223781","","0.2025188389","","0.2640726019","","","","","","",""
"44","","bandit","298","824672","0.0-260.0-0.0","34320404","wem/bandit_single","A3RL02A3JRAUS4","gain","2","","74","J","1","","1","0","0","0.4240474742","","false","223","0.04788205671","","main_expt","0.4240474742","","0.1609755914","","0.1860418506","","","","","","",""
"151","","bandit","299","826600","0.0-261.0-0.0","34320404","wem/bandit_single","A3RL02A3JRAUS4","gain","2","","74","J","1","","0","0","1","0.4346876605","","false","224","0.05498715651","","main_expt","0.4346876605","","0.2316748255","","0.151875944","","","","","","",""
"158","","bandit","300","828543","0.0-262.0-0.0","34320404","wem/bandit_single","A3RL02A3JRAUS4","gain","2","","76","L","3","","0","0","1","0.1209973656","","false","225","0.056476577","","main_expt","0.4541072866","","0.1605893144","","0.1209973656","","","","","","",""
"155","","bandit","301","830469","0.0-263.0-0.0","34320404","wem/bandit_single","A3RL02A3JRAUS4","gain","2","","75","K","2","","0","0","1","0.1389366963","","false","226","0.06361054401","","main_expt","0.4239515892","","0.1389366963","","0.1503457952","","","","","","",""
"237","","bandit","302","832474","0.0-264.0-0.0","34320404","wem/bandit_single","A3RL02A3JRAUS4","gain","2","","72","H","0","img/none_selected.jpg","0","0","1","0.03819722012","","false","227","0.03819722012","","main_expt","0.4122914309","","0.09987042713","","0.1784166707","","","","","","",""
"342","","bandit","303","834591","0.0-265.0-0.0","34320404","wem/bandit_single","A3RL02A3JRAUS4","gain","2","","75","K","2","","0","0","1","0.1511988136","","false","228","0.03706892342","","main_expt","0.4022765074","","0.1511988136","","0.1729157366","","","","","","",""
"72","","bandit","304","836446","0.0-266.0-0.0","34320404","wem/bandit_single","A3RL02A3JRAUS4","gain","2","","76","L","3","","0","0","1","0.2035050609","","false","229","0.05619366589","","main_expt","0.3991813765","","0.1165125066","","0.2035050609","","","","","","",""
"339","","bandit","305","838559","0.0-267.0-0.0","34320404","wem/bandit_single","A3RL02A3JRAUS4","gain","2","","72","H","0","img/none_selected.jpg","0","0","1","0.02398835026","","false","230","0.02398835026","","main_expt","0.3771825363","","0.09058018373","","0.1677195288","","","","","","",""
"142","","bandit","306","840506","0.0-268.0-0.0","34320404","wem/bandit_single","A3RL02A3JRAUS4","gain","2","","74","J","1","","0","0","1","0.4081115595","","false","231","0.01087418165","","main_expt","0.4081115595","","0.1254599363","","0.1568417205","","","","","","",""
"180","","bandit","307","842487","0.0-269.0-0.0","34320404","wem/bandit_single","A3RL02A3JRAUS4","gain","2","","74","J","1","","0","0","1","0.4227202023","","false","232","0.005667282796","","main_expt","0.4227202023","","0.09699218641","","0.1733774055","","","","","","",""
"300","","bandit","308","844577","0.0-270.0-0.0","34320404","wem/bandit_single","A3RL02A3JRAUS4","gain","2","","76","L","3","","0","0","1","0.2318808439","","false","233","0.00711790457","","main_expt","0.4267606383","","0.07122003092","","0.2318808439","","","","","","",""
"529","","bandit","309","846879","0.0-271.0-0.0","34320404","wem/bandit_single","A3RL02A3JRAUS4","gain","2","","76","L","3","","0","0","1","0.2728484722","","false","234","0.01087448681","","main_expt","0.4076790224","","0.07078025717","","0.2728484722","","","","","","",""
"115","","bandit","310","848799","0.0-272.0-0.0","34320404","wem/bandit_single","A3RL02A3JRAUS4","gain","2","","75","K","2","","0","0","1","0.04546889639","","false","235","0.008183852991","","main_expt","0.3750136452","","0.04546889639","","0.230842538","","","","","","",""
"505","","bandit","311","851077","0.0-273.0-0.0","34320404","wem/bandit_single","A3RL02A3JRAUS4","gain","2","","72","H","0","img/none_selected.jpg","0","0","1","0.00957014591","","false","236","0.00957014591","","main_expt","0.3579900966","","0.07949547843","","0.2565969246","","","","","","",""
"162","","bandit","312","853012","0.0-274.0-0.0","34320404","wem/bandit_single","A3RL02A3JRAUS4","gain","2","","74","J","1","","0","0","1","0.3685919787","","false","237","0.02345003211","","main_expt","0.3685919787","","0.06498208703","","0.2661079812","","","","","","",""
"530","","bandit","313","855310","0.0-275.0-0.0","34320404","wem/bandit_single","A3RL02A3JRAUS4","gain","2","","74","J","1","","0","0","1","0.3220789964","","false","238","0.02056264696","","main_expt","0.3220789964","","0.07283675032","","0.3192940022","","","","","","",""
"569","","bandit","314","857680","0.0-276.0-0.0","34320404","wem/bandit_single","A3RL02A3JRAUS4","gain","2","","75","K","2","","0","0","1","0.08723568047","","false","239","0.02436326326","","main_expt","0.3059519391","","0.08723568047","","0.3150738333","","","","","","",""
"116","","bandit","315","859570","0.0-277.0-0.0","34320404","wem/bandit_single","A3RL02A3JRAUS4","gain","2","","72","H","0","img/none_selected.jpg","0","0","1","0.0242835944","","false","240","0.0242835944","","main_expt","0.3168560559","","0.06404566497","","0.3008600842","","","","","","",""
"214","","bandit","316","861564","0.0-278.0-0.0","34320404","wem/bandit_single","A3RL02A3JRAUS4","gain","2","","76","L","3","","0","0","1","0.2677087501","","false","241","0.02652021178","","main_expt","0.269391424","","0.05187051438","","0.2677087501","","","","","","",""
"353","","bandit","317","863691","0.0-279.0-0.0","34320404","wem/bandit_single","A3RL02A3JRAUS4","gain","2","","76","L","3","","0","0","1","0.2645585527","","false","242","0.0264543433","","main_expt","0.2061132751","","0.04056120823","","0.2645585527","","","","","","",""
"193","","bandit","318","865663","0.0-280.0-0.0","34320404","wem/bandit_single","A3RL02A3JRAUS4","gain","2","","76","L","3","","1","0","0","0.2793098336","","false","243","0.02176476481","","main_expt","0.1996760118","","0.02806248696","","0.2793098336","","","","","","",""
"185","","bandit","319","867636","0.0-281.0-0.0","34320404","wem/bandit_single","A3RL02A3JRAUS4","gain","2","","76","L","3","","0","0","1","0.285685864","","false","244","0.01301534777","","main_expt","0.1719334629","","0.04063524207","","0.285685864","","","","","","",""
"129","","bandit","320","869563","0.0-282.0-0.0","34320404","wem/bandit_single","A3RL02A3JRAUS4","gain","2","","74","J","1","","0","0","1","0.2264626889","","false","245","0.02332936253","","main_expt","0.2264626889","","0.03258124644","","0.2792363563","","","","","","",""
"117","","bandit","321","871467","0.0-283.0-0.0","34320404","wem/bandit_single","A3RL02A3JRAUS4","gain","2","","72","H","0","img/none_selected.jpg","0","0","1","0.02379131239","","false","246","0.02379131239","","main_expt","0.2097999869","","0.034431304","","0.2721020884","","","","","","",""
"409","","bandit","322","873680","0.0-284.0-0.0","34320404","wem/bandit_single","A3RL02A3JRAUS4","gain","2","","75","K","2","","0","0","1","0.0335896152","","false","247","0.02988301985","","main_expt","0.2190078117","","0.0335896152","","0.2784836582","","","","","","",""
"81","","bandit","323","875546","0.0-285.0-0.0","34320404","wem/bandit_single","A3RL02A3JRAUS4","gain","2","","74","J","1","","0","0","1","0.214739415","","false","248","0.04121629219","","main_expt","0.214739415","","0.0373608022","","0.2155360038","","","","","","",""
"177","","bandit","324","877508","0.0-286.0-0.0","34320404","wem/bandit_single","A3RL02A3JRAUS4","gain","2","","72","H","0","img/none_selected.jpg","0","0","1","0.03081548873","","false","249","0.03081548873","","main_expt","0.2361668487","","0.04629433077","","0.2182269439","","","","","","",""
"200","","bandit","325","879489","0.0-287.0-0.0","34320404","wem/bandit_single","A3RL02A3JRAUS4","gain","2","","72","H","0","img/none_selected.jpg","0","0","1","0.02831669856","","false","250","0.02831669856","","main_expt","0.2730147117","","0.04794370872","","0.2794373206","","","","","","",""
"66","","bandit","326","881330","0.0-288.0-0.0","34320404","wem/bandit_single","A3RL02A3JRAUS4","gain","2","","74","J","1","","0","0","1","0.2591269664","","false","251","0.02600870455","","main_expt","0.2591269664","","0.06568157066","","0.2925698281","","","","","","",""
"145","","bandit","327","883244","0.0-289.0-0.0","34320404","wem/bandit_single","A3RL02A3JRAUS4","gain","2","","74","J","1","","0","0","1","0.3091321407","","false","252","0.02705961599","","main_expt","0.3091321407","","0.07567030371","","0.2727886948","","","","","","",""
"100","","bandit","328","885133","0.0-290.0-0.0","34320404","wem/bandit_single","A3RL02A3JRAUS4","gain","2","","75","K","2","","0","0","1","0.06628052114","","false","253","0.01805963102","","main_expt","0.2284010385","","0.06628052114","","0.2470803404","","","","","","",""
"259","","bandit","329","887179","0.0-291.0-0.0","34320404","wem/bandit_single","A3RL02A3JRAUS4","gain","2","","75","K","2","","0","0","1","0.08321976201","","false","254","0.01631706542","","main_expt","0.2452739286","","0.08321976201","","0.3366881304","","","","","","",""
"132","","bandit","330","889095","0.0-292.0-0.0","34320404","wem/bandit_single","A3RL02A3JRAUS4","gain","2","","76","L","3","","0","0","1","0.3781216995","","false","255","0.01966147099","","main_expt","0.2769296881","","0.1379446817","","0.3781216995","","","","","","",""
"360","","bandit","331","891229","0.0-293.0-0.0","34320404","wem/bandit_single","A3RL02A3JRAUS4","gain","2","","76","L","3","","1","0","0","0.3565974786","","false","256","0.02801527349","","main_expt","0.222598086","","0.1104053019","","0.3565974786","","","","","","",""
"122","","bandit","332","893141","0.0-294.0-0.0","34320404","wem/bandit_single","A3RL02A3JRAUS4","gain","2","","76","L","3","","0","0","1","0.3668333327","","false","257","0.02393064904","","main_expt","0.2497605863","","0.110095483","","0.3668333327","","","","","","",""
"154","","bandit","333","895111","0.0-295.0-0.0","34320404","wem/bandit_single","A3RL02A3JRAUS4","gain","2","","76","L","3","","0","0","1","0.3978392262","","false","258","0.01715644076","","main_expt","0.248028097","","0.09250214804","","0.3978392262","","","","","","",""
"543","","bandit","334","897434","0.0-296.0-0.0","34320404","wem/bandit_single","A3RL02A3JRAUS4","gain","2","","76","L","3","","0","0","1","0.3892622443","","false","259","0.01812234738","","main_expt","0.210079309","","0.1288972452","","0.3892622443","","","","","","",""
"494","","bandit","335","899709","0.0-297.0-0.0","34320404","wem/bandit_single","A3RL02A3JRAUS4","gain","2","","74","J","1","","0","0","1","0.1785868889","","false","260","0.01699252537","","main_expt","0.1785868889","","0.127844668","","0.3787635018","","","","","","",""
"60","","bandit","336","901553","0.0-298.0-0.0","34320404","wem/bandit_single","A3RL02A3JRAUS4","gain","2","","72","H","0","img/none_selected.jpg","0","0","1","0.02027773674","","false","261","0.02027773674","","main_expt","0.1855690742","","0.1408125104","","0.4151771386","","","","","","",""
"206","","bandit","337","903532","0.0-299.0-0.0","34320404","wem/bandit_single","A3RL02A3JRAUS4","gain","2","","75","K","2","","1","0","0","0.1423762304","","false","262","0.008159173947","","main_expt","0.2454672077","","0.1423762304","","0.4184001904","","","","","","",""
"202","","bandit","338","905512","0.0-300.0-0.0","34320404","wem/bandit_single","A3RL02A3JRAUS4","gain","2","","75","K","2","","0","0","1","0.1237094287","","false","263","0.00730364875","","main_expt","0.2423041147","","0.1237094287","","0.4397427278","","","","","","",""
"119","","bandit","339","907416","0.0-301.0-0.0","34320404","wem/bandit_single","A3RL02A3JRAUS4","gain","2","","74","J","1","","0","0","1","0.2771483686","","false","264","0.008891010149","","main_expt","0.2771483686","","0.1110826985","","0.4308816061","","","","","","",""
"83","","bandit","340","909273","0.0-302.0-0.0","34320404","wem/bandit_single","A3RL02A3JRAUS4","gain","2","","76","L","3","","0","0","1","0.4310956018","","false","265","0.009434589262","","main_expt","0.2066329382","","0.09816719149","","0.4310956018","","","","","","",""
"100","","bandit","341","911147","0.0-303.0-0.0","34320404","wem/bandit_single","A3RL02A3JRAUS4","gain","2","","72","H","0","img/none_selected.jpg","0","0","1","0.009503255165","","false","266","0.009503255165","","main_expt","0.1954640054","","0.1313615454","","0.4462346174","","","","","","",""
"97","","bandit","342","913022","0.0-304.0-0.0","34320404","wem/bandit_single","A3RL02A3JRAUS4","gain","2","","75","K","2","","0","0","1","0.1039649444","","false","267","0.01294763698","","main_expt","0.132533774","","0.1039649444","","0.4649068607","","","","","","",""
"56","","bandit","343","914849","0.0-305.0-0.0","34320404","wem/bandit_single","A3RL02A3JRAUS4","gain","2","","74","J","1","","1","0","0","0.1212355483","","false","268","0.01002763249","","main_expt","0.1212355483","","0.0758663636","","0.4499385749","","","","","","",""
"102","","bandit","344","916726","0.0-306.0-0.0","34320404","wem/bandit_single","A3RL02A3JRAUS4","gain","2","","74","J","1","","0","0","1","0.1363236216","","false","269","0.009339874814","","main_expt","0.1363236216","","0.08641939852","","0.4702815535","","","","","","",""
"169","","bandit","345","918678","0.0-307.0-0.0","34320404","wem/bandit_single","A3RL02A3JRAUS4","gain","2","","76","L","3","","0","0","1","0.4738293899","","false","270","0.0101894737","","main_expt","0.1061923246","","0.08694739741","","0.4738293899","","","","","","",""
"128","","bandit","346","920588","0.0-308.0-0.0","34320404","wem/bandit_single","A3RL02A3JRAUS4","gain","2","","72","H","0","img/none_selected.jpg","0","0","1","0.0101062795","","false","271","0.0101062795","","main_expt","0.09682021381","","0.07507278363","","0.4552130477","","","","","","",""
"380","","bandit","347","922742","0.0-309.0-0.0","34320404","wem/bandit_single","A3RL02A3JRAUS4","gain","2","","75","K","2","","0","0","1","0.09002305832","","false","272","0.009276773287","","main_expt","0.0728164368","","0.09002305832","","0.4571227508","","","","","","",""
"164","","bandit","348","924699","0.0-310.0-0.0","34320404","wem/bandit_single","A3RL02A3JRAUS4","gain","2","","72","H","0","img/none_selected.jpg","0","0","1","0.0113492324","","false","273","0.0113492324","","main_expt","0.1026255411","","0.07941117108","","0.4262778794","","","","","","",""
"137","","bandit","349","926610","0.0-311.0-0.0","34320404","wem/bandit_single","A3RL02A3JRAUS4","gain","2","","74","J","1","","0","0","1","0.08683802548","","false","274","0.005483919941","","main_expt","0.08683802548","","0.09301171309","","0.4017895895","","","","","","",""
"233","","bandit","350","928622","0.0-312.0-0.0","34320404","wem/bandit_single","A3RL02A3JRAUS4","gain","2","","76","L","3","","0","0","1","0.4017548056","","false","275","0.00462874381","","main_expt","0.08250982893","","0.1012072593","","0.4017548056","","","","","","",""
"984","","bandit","351","931377","0.0-313.0-0.0","34320404","wem/bandit_single","A3RL02A3JRAUS4","gain","2","","74","J","1","","0","0","1","0.06031930624","","false","276","0.009610611089","","main_expt","0.06031930624","","0.1230964009","","0.4072561249","","","","","","",""
"103","","bandit","352","933248","0.0-314.0-0.0","34320404","wem/bandit_single","A3RL02A3JRAUS4","gain","2","","72","H","0","img/none_selected.jpg","0","0","1","0.01319252808","","false","277","0.01319252808","","main_expt","0.07169075363","","0.1320105939","","0.3248287115","","","","","","",""
"266","","bandit","353","935306","0.0-315.0-0.0","34320404","wem/bandit_single","A3RL02A3JRAUS4","gain","2","","75","K","2","","0","0","1","0.100271112","","false","278","0.008560453299","","main_expt","0.119525529","","0.100271112","","0.2954662343","","","","","","",""
"94","","bandit","354","937209","0.0-316.0-0.0","34320404","wem/bandit_single","A3RL02A3JRAUS4","gain","2","","74","J","1","","0","0","1","0.05136608794","","false","279","0.02270234009","","main_expt","0.05136608794","","0.0752783975","","0.3430788315","","","","","","",""
"303","","bandit","355","939293","0.0-317.0-0.0","34320404","wem/bandit_single","A3RL02A3JRAUS4","gain","2","","76","L","3","","0","0","1","0.298888987","","false","280","0.01842994591","","main_expt","0.06692305053","","0.04609407158","","0.298888987","","","","","","",""
"136","","bandit","356","941222","0.0-318.0-0.0","34320404","wem/bandit_single","A3RL02A3JRAUS4","gain","2","","74","J","1","","0","0","1","0.08594942048","","false","281","0.01750385803","","main_expt","0.08594942048","","0.05874754036","","0.317374049","","","","","","",""
"131","","bandit","357","943138","0.0-319.0-0.0","34320404","wem/bandit_single","A3RL02A3JRAUS4","gain","2","","72","H","0","img/none_selected.jpg","0","0","1","0.01075771148","","false","282","0.01075771148","","main_expt","0.08562343316","","0.05911354127","","0.2905756231","","","","","","",""
"122","","bandit","358","945037","0.0-320.0-0.0","34320404","wem/bandit_single","A3RL02A3JRAUS4","gain","2","","75","K","2","","0","0","1","0.0444902615","","false","283","0.009487342711","","main_expt","0.06507866554","","0.0444902615","","0.335540713","","","","","","",""
"144","","bandit","359","946975","0.0-321.0-0.0","34320404","wem/bandit_single","A3RL02A3JRAUS4","gain","2","","76","L","3","","0","0","1","0.3569674754","","false","284","0.01035814212","","main_expt","0.05738126215","","0.03666520406","","0.3569674754","","","","","","",""
"247","","bandit","360","949029","0.0-322.0-0.0","34320404","wem/bandit_single","A3RL02A3JRAUS4","gain","2","","74","J","1","","0","0","1","0.06337296056","","false","285","0.01056818013","","main_expt","0.06337296056","","0.02451873239","","0.4068019922","","","","","","",""
"226","","bandit","361","951035","0.0-323.0-0.0","34320404","wem/bandit_single","A3RL02A3JRAUS4","gain","2","","72","H","0","img/none_selected.jpg","1","0","0","0.007821227136","","false","286","0.007821227136","","main_expt","0.04649068967","","0.02877547985","","0.432978486","","","","","","",""
"287","","bandit","362","953101","0.0-324.0-0.0","34320404","wem/bandit_single","A3RL02A3JRAUS4","gain","2","","72","H","0","img/none_selected.jpg","0","0","1","0.01039042452","","false","287","0.01039042452","","main_expt","0.04946639224","","0.03331393821","","0.4213006965","","","","","","",""
"145","","bandit","363","955018","0.0-325.0-0.0","34320404","wem/bandit_single","A3RL02A3JRAUS4","gain","2","","75","K","2","","0","0","1","0.02363643209","","false","288","0.02141961277","","main_expt","0.03962947871","","0.02363643209","","0.4094413186","","","","","","",""
"160","","bandit","364","956954","0.0-326.0-0.0","34320404","wem/bandit_single","A3RL02A3JRAUS4","gain","2","","76","L","3","","0","0","1","0.3731302572","","false","289","0.02062414181","","main_expt","0.05295486238","","0.0366455232","","0.3731302572","","","","","","",""
"129","","bandit","365","958859","0.0-327.0-0.0","34320404","wem/bandit_single","A3RL02A3JRAUS4","gain","2","","74","J","1","","0","0","1","0.06311332932","","false","290","0.01411690602","","main_expt","0.06311332932","","0.04887184979","","0.4076032329","","","","","","",""
"339","","bandit","366","960981","0.0-328.0-0.0","34320404","wem/bandit_single","A3RL02A3JRAUS4","gain","2","","74","J","1","","0","0","1","0.07741633782","","false","291","0.03188260643","","main_expt","0.07741633782","","0.03783642248","","0.4134699565","","","","","","",""
"336","","bandit","367","963089","0.0-329.0-0.0","34320404","wem/bandit_single","A3RL02A3JRAUS4","gain","2","","75","K","2","","0","0","1","0.07820299584","","false","292","0.03429620073","","main_expt","0.09064252153","","0.07820299584","","0.3827884258","","","","","","",""
"98","","bandit","368","964967","0.0-330.0-0.0","34320404","wem/bandit_single","A3RL02A3JRAUS4","gain","2","","76","L","3","","0","0","1","0.4162015812","","false","293","0.030392347","","main_expt","0.07659126906","","0.07060894185","","0.4162015812","","","","","","",""
"209","","bandit","369","966949","0.0-331.0-0.0","34320404","wem/bandit_single","A3RL02A3JRAUS4","gain","2","","74","J","1","","0","0","1","0.08042624432","","false","294","0.04782046051","","main_expt","0.08042624432","","0.1051632986","","0.447674372","","","","","","",""
"361","","bandit","370","969117","0.0-332.0-0.0","34320404","wem/bandit_single","A3RL02A3JRAUS4","gain","2","","76","L","3","","0","0","1","0.4402126752","","false","295","0.06309063339","","main_expt","0.1216640212","","0.06624019153","","0.4402126752","","","","","","",""
"94","","bandit","371","970982","0.0-333.0-0.0","34320404","wem/bandit_single","A3RL02A3JRAUS4","gain","2","","72","H","0","img/none_selected.jpg","0","0","1","0.09511663338","","false","296","0.09511663338","","main_expt","0.1058257345","","0.07088700909","","0.4378891161","","","","","","",""
"64","","bandit","372","972862","0.0-334.0-0.0","34320404","wem/bandit_single","A3RL02A3JRAUS4","gain","2","","75","K","2","","0","0","1","0.0529580871","","false","297","0.07325770628","","main_expt","0.1101311263","","0.0529580871","","0.468153315","","","","","","",""
"109","","bandit","373","974760","0.0-335.0-0.0","34320404","wem/bandit_single","A3RL02A3JRAUS4","gain","2","","74","J","1","","0","0","1","0.1117004815","","false","298","0.06352452747","","main_expt","0.1117004815","","0.04256970448","","0.4538992283","","","","","","",""
