"rt","responses","trial_type","trial_index","time_elapsed","internal_node_id","subjID","study","MID","cond","drift","key_press","respCharCode","respKey","respChoiceNum","respChoice","gems","bombs","no_reward","GemPrChosen","BombPrChosen","practice","trial_counter","WinPr_0","LosePr_0","trial_label","WinPr_1","LosePr_1","WinPr_2","LosePr_2","WinPr_3","LosePr_3","Q0","Q1","Q2","gender","age","ethnicity"
"7217","{""Q0"":""AGFWV1U4CJXP5""}","survey-text","0","7223","0.0-0.0","34603274","wem/bandit_single","AGFWV1U4CJXP5","gain","8","","","","","","","","","","","","","","","","","","","","","","","","","","",""
"1534","","text","1","9763","0.0-1.0","34603274","wem/bandit_single","AGFWV1U4CJXP5","gain","8","32","","","","","","","","","","","","","","","","","","","","","","","","","",""
"2284","","text","2","12050","0.0-2.0","34603274","wem/bandit_single","AGFWV1U4CJXP5","gain","8","32","","","","","","","","","","","","","","","","","","","","","","","","","",""
"9121","","text","3","21173","0.0-3.0","34603274","wem/bandit_single","AGFWV1U4CJXP5","gain","8","32","","","","","","","","","","","","","","","","","","","","","","","","","",""
"4654","","text","4","25827","0.0-4.0","34603274","wem/bandit_single","AGFWV1U4CJXP5","gain","8","32","","","","","","","","","","","","","","","","","","","","","","","","","",""
"4379","","text","5","30208","0.0-5.0","34603274","wem/bandit_single","AGFWV1U4CJXP5","gain","8","32","","","","","","","","","","","","","","","","","","","","","","","","","",""
"3003","","text","6","33215","0.0-6.0","34603274","wem/bandit_single","AGFWV1U4CJXP5","gain","8","32","","","","","","","","","","","","","","","","","","","","","","","","","",""
"3788","","text","7","37005","0.0-7.0","34603274","wem/bandit_single","AGFWV1U4CJXP5","gain","8","32","","","","","","","","","","","","","","","","","","","","","","","","","",""
"1707","","text","8","38715","0.0-8.0","34603274","wem/bandit_single","AGFWV1U4CJXP5","gain","8","32","","","","","","","","","","","","","","","","","","","","","","","","","",""
"1155","","text","9","39872","0.0-9.0","34603274","wem/bandit_single","AGFWV1U4CJXP5","gain","8","32","","","","","","","","","","","","","","","","","","","","","","","","","",""
"3028","","text","10","42902","0.0-10.0","34603274","wem/bandit_single","AGFWV1U4CJXP5","gain","8","32","","","","","","","","","","","","","","","","","","","","","","","","","",""
"659","","text","11","43563","0.0-11.0","34603274","wem/bandit_single","AGFWV1U4CJXP5","gain","8","32","","","","","","","","","","","","","","","","","","","","","","","","","",""
"1466","","bandit","12","46537","0.0-12.0-0.0","34603274","wem/bandit_single","AGFWV1U4CJXP5","gain","8","","74","J","0","img/none_selected_demo.jpg","0","0","1","0","0","true","0","0","0","","","","","","","","","","","","",""
"826","","bandit","13","49119","0.0-13.0-0.0","34603274","wem/bandit_single","AGFWV1U4CJXP5","gain","8","","75","K","0","img/none_selected_demo.jpg","0","0","1","0","0","true","0","0","0","","","","","","","","","","","","",""
"4542","","text","14","53912","0.0-14.0","34603274","wem/bandit_single","AGFWV1U4CJXP5","gain","8","32","","","","","","","","","","","","","","","","","","","","","","","","","",""
"1460","","text","15","55373","0.0-15.0","34603274","wem/bandit_single","AGFWV1U4CJXP5","gain","8","32","","","","","","","","","","","","","","","","","","","","","","","","","",""
"1621","","text","16","56996","0.0-16.0","34603274","wem/bandit_single","AGFWV1U4CJXP5","gain","8","32","","","","","","","","","","","","","","","","","","","","","","","","","",""
"628","","text","17","57626","0.0-17.0","34603274","wem/bandit_single","AGFWV1U4CJXP5","gain","8","32","","","","","","","","","","","","","","","","","","","","","","","","","",""
"1128","","bandit","18","60259","0.0-18.0-0.0","34603274","wem/bandit_single","AGFWV1U4CJXP5","gain","8","","74","J","0","img/none_selected_demo.jpg","1","0","0","0.8","0","true","0","0.8","0","80_20_practice","0.2","0","","","","","","","","","",""
"874","","bandit","19","62890","0.0-18.0-1.0","34603274","wem/bandit_single","AGFWV1U4CJXP5","gain","8","","75","K","1","","1","0","0","0.2","0","true","0","0.8","0","80_20_practice","0.2","0","","","","","","","","","",""
"1419","","bandit","20","66068","0.0-18.0-2.0","34603274","wem/bandit_single","AGFWV1U4CJXP5","gain","8","","74","J","0","img/none_selected_demo.jpg","0","0","1","0.8","0","true","0","0.8","0","80_20_practice","0.2","0","","","","","","","","","",""
"586","","bandit","21","68409","0.0-18.0-3.0","34603274","wem/bandit_single","AGFWV1U4CJXP5","gain","8","","75","K","1","","1","0","0","0.2","0","true","0","0.8","0","80_20_practice","0.2","0","","","","","","","","","",""
"100","","bandit","22","70268","0.0-18.0-4.0","34603274","wem/bandit_single","AGFWV1U4CJXP5","gain","8","","75","K","1","","0","0","1","0.2","0","true","0","0.8","0","80_20_practice","0.2","0","","","","","","","","","",""
"268","","bandit","23","72293","0.0-18.0-5.0","34603274","wem/bandit_single","AGFWV1U4CJXP5","gain","8","","74","J","0","img/none_selected_demo.jpg","0","0","1","0.8","0","true","0","0.8","0","80_20_practice","0.2","0","","","","","","","","","",""
"209","","bandit","24","74259","0.0-18.0-6.0","34603274","wem/bandit_single","AGFWV1U4CJXP5","gain","8","","74","J","0","img/none_selected_demo.jpg","1","0","0","0.8","0","true","0","0.8","0","80_20_practice","0.2","0","","","","","","","","","",""
"94","","bandit","25","76114","0.0-18.0-7.0","34603274","wem/bandit_single","AGFWV1U4CJXP5","gain","8","","74","J","0","img/none_selected_demo.jpg","1","0","0","0.8","0","true","0","0.8","0","80_20_practice","0.2","0","","","","","","","","","",""
"97","","bandit","26","77967","0.0-18.0-8.0","34603274","wem/bandit_single","AGFWV1U4CJXP5","gain","8","","74","J","0","img/none_selected_demo.jpg","1","0","0","0.8","0","true","0","0.8","0","80_20_practice","0.2","0","","","","","","","","","",""
"354","","bandit","27","80076","0.0-18.0-9.0","34603274","wem/bandit_single","AGFWV1U4CJXP5","gain","8","","74","J","0","img/none_selected_demo.jpg","1","0","0","0.8","0","true","0","0.8","0","80_20_practice","0.2","0","","","","","","","","","",""
"11","","bandit","28","81843","0.0-18.0-10.0","34603274","wem/bandit_single","AGFWV1U4CJXP5","gain","8","","74","J","0","img/none_selected_demo.jpg","1","0","0","0.8","0","true","0","0.8","0","80_20_practice","0.2","0","","","","","","","","","",""
"153","","bandit","29","83752","0.0-18.0-11.0","34603274","wem/bandit_single","AGFWV1U4CJXP5","gain","8","","74","J","0","img/none_selected_demo.jpg","1","0","0","0.8","0","true","0","0.8","0","80_20_practice","0.2","0","","","","","","","","","",""
"2631","","bandit","30","88140","0.0-18.0-12.0","34603274","wem/bandit_single","AGFWV1U4CJXP5","gain","8","","74","J","0","img/none_selected_demo.jpg","1","0","0","0.8","0","true","0","0.8","0","80_20_practice","0.2","0","","","","","","","","","",""
"4154","","bandit","31","94052","0.0-18.0-13.0","34603274","wem/bandit_single","AGFWV1U4CJXP5","gain","8","","74","J","0","img/none_selected_demo.jpg","1","0","0","0.8","0","true","0","0.8","0","80_20_practice","0.2","0","","","","","","","","","",""
"342","","bandit","32","96152","0.0-18.0-14.0","34603274","wem/bandit_single","AGFWV1U4CJXP5","gain","8","","75","K","1","","0","0","1","0.2","0","true","0","0.8","0","80_20_practice","0.2","0","","","","","","","","","",""
"286","","bandit","33","98197","0.0-18.0-15.0","34603274","wem/bandit_single","AGFWV1U4CJXP5","gain","8","","74","J","0","img/none_selected_demo.jpg","1","0","0","0.8","0","true","0","0.8","0","80_20_practice","0.2","0","","","","","","","","","",""
"216","","bandit","34","100168","0.0-18.0-16.0","34603274","wem/bandit_single","AGFWV1U4CJXP5","gain","8","","74","J","0","img/none_selected_demo.jpg","0","0","1","0.8","0","true","0","0.8","0","80_20_practice","0.2","0","","","","","","","","","",""
"490","","bandit","35","102415","0.0-18.0-17.0","34603274","wem/bandit_single","AGFWV1U4CJXP5","gain","8","","75","K","1","","1","0","0","0.2","0","true","0","0.8","0","80_20_practice","0.2","0","","","","","","","","","",""
"324","","bandit","36","104496","0.0-18.0-18.0","34603274","wem/bandit_single","AGFWV1U4CJXP5","gain","8","","75","K","1","","1","0","0","0.2","0","true","0","0.8","0","80_20_practice","0.2","0","","","","","","","","","",""
"428","","bandit","37","106682","0.0-18.0-19.0","34603274","wem/bandit_single","AGFWV1U4CJXP5","gain","8","","75","K","1","","1","0","0","0.2","0","true","0","0.8","0","80_20_practice","0.2","0","","","","","","","","","",""
"16591","","text","38","123524","0.0-19.0","34603274","wem/bandit_single","AGFWV1U4CJXP5","gain","8","32","","","","","","","","","","","","","","","","","","","","","","","","","",""
"1426","","bandit","39","126454","0.0-20.0-0.0","34603274","wem/bandit_single","AGFWV1U4CJXP5","gain","8","","74","J","0","img/none_selected_demo.jpg","0","0","1","0","0","true","0","0","0","","0","0","","","","","","","","","",""
"1626","","text","40","128335","0.0-21.0","34603274","wem/bandit_single","AGFWV1U4CJXP5","gain","8","32","","","","","","","","","","","","","","","","","","","","","","","","","",""
"2564","","text","41","130901","0.0-22.0","34603274","wem/bandit_single","AGFWV1U4CJXP5","gain","8","32","","","","","","","","","","","","","","","","","","","","","","","","","",""
"1667","","text","42","132570","0.0-23.0","34603274","wem/bandit_single","AGFWV1U4CJXP5","gain","8","32","","","","","","","","","","","","","","","","","","","","","","","","","",""
"670","","text","43","133242","0.0-24.0","34603274","wem/bandit_single","AGFWV1U4CJXP5","gain","8","32","","","","","","","","","","","","","","","","","","","","","","","","","",""
"1979","","text","44","135223","0.0-25.0","34603274","wem/bandit_single","AGFWV1U4CJXP5","gain","8","32","","","","","","","","","","","","","","","","","","","","","","","","","",""
"1524","","text","45","136748","0.0-26.0","34603274","wem/bandit_single","AGFWV1U4CJXP5","gain","8","32","","","","","","","","","","","","","","","","","","","","","","","","","",""
"1099","","text","46","137850","0.0-27.0","34603274","wem/bandit_single","AGFWV1U4CJXP5","gain","8","32","","","","","","","","","","","","","","","","","","","","","","","","","",""
"1741","","text","47","139592","0.0-28.0","34603274","wem/bandit_single","AGFWV1U4CJXP5","gain","8","32","","","","","","","","","","","","","","","","","","","","","","","","","",""
"2021","","text","48","141615","0.0-29.0","34603274","wem/bandit_single","AGFWV1U4CJXP5","gain","8","32","","","","","","","","","","","","","","","","","","","","","","","","","",""
"715","","text","49","142332","0.0-30.0","34603274","wem/bandit_single","AGFWV1U4CJXP5","gain","8","32","","","","","","","","","","","","","","","","","","","","","","","","","",""
"1404","","text","50","143739","0.0-31.0","34603274","wem/bandit_single","AGFWV1U4CJXP5","gain","8","32","","","","","","","","","","","","","","","","","","","","","","","","","",""
"494","","bandit","51","145740","0.0-32.0-0.0","34603274","wem/bandit_single","AGFWV1U4CJXP5","gain","8","","74","J","1","","0","0","1","0.2","0","true","0","0.8","0","full_practice","0.2","0","0.6","0","0.2","0","","","","","",""
"488","","bandit","52","147985","0.0-32.0-1.0","34603274","wem/bandit_single","AGFWV1U4CJXP5","gain","8","","75","K","2","","1","0","0","0.6","0","true","0","0.8","0","full_practice","0.2","0","0.6","0","0.2","0","","","","","",""
"191","","bandit","53","149936","0.0-32.0-2.0","34603274","wem/bandit_single","AGFWV1U4CJXP5","gain","8","","75","K","2","","1","0","0","0.6","0","true","0","0.8","0","full_practice","0.2","0","0.6","0","0.2","0","","","","","",""
"166","","bandit","54","151860","0.0-32.0-3.0","34603274","wem/bandit_single","AGFWV1U4CJXP5","gain","8","","75","K","2","","1","0","0","0.6","0","true","0","0.8","0","full_practice","0.2","0","0.6","0","0.2","0","","","","","",""
"107","","bandit","55","153722","0.0-32.0-4.0","34603274","wem/bandit_single","AGFWV1U4CJXP5","gain","8","","75","K","2","","0","0","1","0.6","0","true","0","0.8","0","full_practice","0.2","0","0.6","0","0.2","0","","","","","",""
"296","","bandit","56","155777","0.0-32.0-5.0","34603274","wem/bandit_single","AGFWV1U4CJXP5","gain","8","","76","L","3","","0","0","1","0.2","0","true","0","0.8","0","full_practice","0.2","0","0.6","0","0.2","0","","","","","",""
"699","","bandit","57","158234","0.0-32.0-6.0","34603274","wem/bandit_single","AGFWV1U4CJXP5","gain","8","","76","L","3","","0","0","1","0.2","0","true","0","0.8","0","full_practice","0.2","0","0.6","0","0.2","0","","","","","",""
"196","","bandit","58","160185","0.0-32.0-7.0","34603274","wem/bandit_single","AGFWV1U4CJXP5","gain","8","","72","H","0","img/none_selected.jpg","0","0","1","0.8","0","true","0","0.8","0","full_practice","0.2","0","0.6","0","0.2","0","","","","","",""
"593","","bandit","59","162534","0.0-32.0-8.0","34603274","wem/bandit_single","AGFWV1U4CJXP5","gain","8","","76","L","3","","0","0","1","0.2","0","true","0","0.8","0","full_practice","0.2","0","0.6","0","0.2","0","","","","","",""
"113","","bandit","60","164404","0.0-32.0-9.0","34603274","wem/bandit_single","AGFWV1U4CJXP5","gain","8","","75","K","2","","1","0","0","0.6","0","true","0","0.8","0","full_practice","0.2","0","0.6","0","0.2","0","","","","","",""
"710","","bandit","61","166874","0.0-32.0-10.0","34603274","wem/bandit_single","AGFWV1U4CJXP5","gain","8","","75","K","2","","1","0","0","0.6","0","true","0","0.8","0","full_practice","0.2","0","0.6","0","0.2","0","","","","","",""
"166","","bandit","62","168801","0.0-32.0-11.0","34603274","wem/bandit_single","AGFWV1U4CJXP5","gain","8","","75","K","2","","0","0","1","0.6","0","true","0","0.8","0","full_practice","0.2","0","0.6","0","0.2","0","","","","","",""
"219","","bandit","63","170779","0.0-32.0-12.0","34603274","wem/bandit_single","AGFWV1U4CJXP5","gain","8","","74","J","1","","0","0","1","0.2","0","true","0","0.8","0","full_practice","0.2","0","0.6","0","0.2","0","","","","","",""
"307","","bandit","64","172847","0.0-32.0-13.0","34603274","wem/bandit_single","AGFWV1U4CJXP5","gain","8","","74","J","1","","0","0","1","0.2","0","true","0","0.8","0","full_practice","0.2","0","0.6","0","0.2","0","","","","","",""
"1123","","bandit","65","175730","0.0-32.0-14.0","34603274","wem/bandit_single","AGFWV1U4CJXP5","gain","8","","75","K","2","","0","0","1","0.6","0","true","0","0.8","0","full_practice","0.2","0","0.6","0","0.2","0","","","","","",""
"364","","bandit","66","177855","0.0-32.0-15.0","34603274","wem/bandit_single","AGFWV1U4CJXP5","gain","8","","72","H","0","img/none_selected.jpg","0","0","1","0.8","0","true","0","0.8","0","full_practice","0.2","0","0.6","0","0.2","0","","","","","",""
"470","","bandit","67","180082","0.0-32.0-16.0","34603274","wem/bandit_single","AGFWV1U4CJXP5","gain","8","","76","L","3","","0","0","1","0.2","0","true","0","0.8","0","full_practice","0.2","0","0.6","0","0.2","0","","","","","",""
"186","","bandit","68","182023","0.0-32.0-17.0","34603274","wem/bandit_single","AGFWV1U4CJXP5","gain","8","","76","L","3","","0","0","1","0.2","0","true","0","0.8","0","full_practice","0.2","0","0.6","0","0.2","0","","","","","",""
"736","","bandit","69","184514","0.0-32.0-18.0","34603274","wem/bandit_single","AGFWV1U4CJXP5","gain","8","","75","K","2","","1","0","0","0.6","0","true","0","0.8","0","full_practice","0.2","0","0.6","0","0.2","0","","","","","",""
"543","","bandit","70","186814","0.0-32.0-19.0","34603274","wem/bandit_single","AGFWV1U4CJXP5","gain","8","","75","K","2","","0","0","1","0.6","0","true","0","0.8","0","full_practice","0.2","0","0.6","0","0.2","0","","","","","",""
"3405","","text","71","190477","0.0-33.0","34603274","wem/bandit_single","AGFWV1U4CJXP5","gain","8","32","","","","","","","","","","","","","","","","","","","","","","","","","",""
"5708","","text","72","197188","0.0-34.0","34603274","wem/bandit_single","AGFWV1U4CJXP5","gain","8","32","","","","","","","","","","","","","","","","","","","","","","","","","",""
"1762","","text","73","198953","0.0-35.0","34603274","wem/bandit_single","AGFWV1U4CJXP5","gain","8","32","","","","","","","","","","","","","","","","","","","","","","","","","",""
"933","","text","74","199887","0.0-36.0","34603274","wem/bandit_single","AGFWV1U4CJXP5","gain","8","32","","","","","","","","","","","","","","","","","","","","","","","","","",""
"950","","text","75","200838","0.0-37.0","34603274","wem/bandit_single","AGFWV1U4CJXP5","gain","8","32","","","","","","","","","","","","","","","","","","","","","","","","","",""
"810","","bandit","76","203153","0.0-38.0-0.0","34603274","wem/bandit_single","AGFWV1U4CJXP5","gain","8","","75","K","2","","1","0","0","0.4519399214","","false","1","0.461186604","","main_expt","0.2726752288","","0.4519399214","","0.2895646149","","","","","","",""
"328","","bandit","77","205239","0.0-39.0-0.0","34603274","wem/bandit_single","AGFWV1U4CJXP5","gain","8","","75","K","2","","1","0","0","0.4414774062","","false","2","0.4745384616","","main_expt","0.2373300031","","0.4414774062","","0.3162770887","","","","","","",""
"165","","bandit","78","207165","0.0-40.0-0.0","34603274","wem/bandit_single","AGFWV1U4CJXP5","gain","8","","75","K","2","","0","0","1","0.4248782664","","false","3","0.476270309","","main_expt","0.2268539811","","0.4248782664","","0.3445892231","","","","","","",""
"830","","bandit","79","209757","0.0-41.0-0.0","34603274","wem/bandit_single","AGFWV1U4CJXP5","gain","8","","75","K","2","","1","0","0","0.3797460064","","false","4","0.4750198572","","main_expt","0.2312911009","","0.3797460064","","0.318720175","","","","","","",""
"134","","bandit","80","211649","0.0-42.0-0.0","34603274","wem/bandit_single","AGFWV1U4CJXP5","gain","8","","75","K","2","","1","0","0","0.3747955817","","false","5","0.4711191004","","main_expt","0.1875260819","","0.3747955817","","0.2768356494","","","","","","",""
"228","","bandit","81","213635","0.0-43.0-0.0","34603274","wem/bandit_single","AGFWV1U4CJXP5","gain","8","","75","K","2","","1","0","0","0.3434652127","","false","6","0.4561500297","","main_expt","0.190272436","","0.3434652127","","0.2660169375","","","","","","",""
"340","","bandit","82","215734","0.0-44.0-0.0","34603274","wem/bandit_single","AGFWV1U4CJXP5","gain","8","","75","K","2","","0","0","1","0.3450192323","","false","7","0.4549462182","","main_expt","0.1912500229","","0.3450192323","","0.3364590491","","","","","","",""
"261","","bandit","83","217756","0.0-45.0-0.0","34603274","wem/bandit_single","AGFWV1U4CJXP5","gain","8","","72","H","0","img/none_selected.jpg","0","0","1","0.4738433377","","false","8","0.4738433377","","main_expt","0.2317086102","","0.3319287687","","0.2814314702","","","","","","",""
"327","","bandit","84","219841","0.0-46.0-0.0","34603274","wem/bandit_single","AGFWV1U4CJXP5","gain","8","","72","H","0","img/none_selected.jpg","1","0","0","0.4719526371","","false","9","0.4719526371","","main_expt","0.2732709622","","0.3592879842","","0.172204453","","","","","","",""
"464","","bandit","85","222062","0.0-47.0-0.0","34603274","wem/bandit_single","AGFWV1U4CJXP5","gain","8","","72","H","0","img/none_selected.jpg","1","0","0","0.4102917743","","false","10","0.4102917743","","main_expt","0.2369361721","","0.4119036765","","0.1714760066","","","","","","",""
"322","","bandit","86","224143","0.0-48.0-0.0","34603274","wem/bandit_single","AGFWV1U4CJXP5","gain","8","","72","H","0","img/none_selected.jpg","1","0","0","0.4247485268","","false","11","0.4247485268","","main_expt","0.2428480584","","0.440335537","","0.1477319919","","","","","","",""
"159","","bandit","87","226060","0.0-49.0-0.0","34603274","wem/bandit_single","AGFWV1U4CJXP5","gain","8","","72","H","0","img/none_selected.jpg","0","0","1","0.3805001106","","false","12","0.3805001106","","main_expt","0.3127978045","","0.4198069009","","0.1195530135","","","","","","",""
"334","","bandit","88","228152","0.0-50.0-0.0","34603274","wem/bandit_single","AGFWV1U4CJXP5","gain","8","","76","L","3","","0","0","1","0.1097065617","","false","13","0.3922463094","","main_expt","0.3411181312","","0.4095272681","","0.1097065617","","","","","","",""
"377","","bandit","89","230286","0.0-51.0-0.0","34603274","wem/bandit_single","AGFWV1U4CJXP5","gain","8","","76","L","3","","1","0","0","0.1146709003","","false","14","0.3385893542","","main_expt","0.3547490374","","0.4393311008","","0.1146709003","","","","","","",""
"522","","bandit","90","232565","0.0-52.0-0.0","34603274","wem/bandit_single","AGFWV1U4CJXP5","gain","8","","76","L","3","","0","0","1","0.105598426","","false","15","0.2580729479","","main_expt","0.3447780093","","0.4232641195","","0.105598426","","","","","","",""
"626","","bandit","91","234950","0.0-53.0-0.0","34603274","wem/bandit_single","AGFWV1U4CJXP5","gain","8","","74","J","1","","0","0","1","0.3451486401","","false","16","0.3126944558","","main_expt","0.3451486401","","0.408879381","","0.1085338479","","","","","","",""
"525","","bandit","92","237232","0.0-54.0-0.0","34603274","wem/bandit_single","AGFWV1U4CJXP5","gain","8","","74","J","1","","1","0","0","0.3788599072","","false","17","0.3693960878","","main_expt","0.3788599072","","0.376774317","","0.1267686316","","","","","","",""
"534","","bandit","93","239522","0.0-55.0-0.0","34603274","wem/bandit_single","AGFWV1U4CJXP5","gain","8","","74","J","1","","0","0","1","0.3977159439","","false","18","0.3881723811","","main_expt","0.3977159439","","0.4245824949","","0.2161611973","","","","","","",""
"977","","bandit","94","242255","0.0-56.0-0.0","34603274","wem/bandit_single","AGFWV1U4CJXP5","gain","8","","74","J","1","","0","0","1","0.3885232362","","false","19","0.3762380044","","main_expt","0.3885232362","","0.4391895307","","0.2028493804","","","","","","",""
"1315","","bandit","95","245329","0.0-57.0-0.0","34603274","wem/bandit_single","AGFWV1U4CJXP5","gain","8","","75","K","2","","0","0","1","0.4621127774","","false","20","0.3842023068","","main_expt","0.3985462001","","0.4621127774","","0.2258994585","","","","","","",""
"380","","bandit","96","247467","0.0-58.0-0.0","34603274","wem/bandit_single","AGFWV1U4CJXP5","gain","8","","75","K","2","","0","0","1","0.4621164646","","false","21","0.3509270449","","main_expt","0.349749023","","0.4621164646","","0.1591174119","","","","","","",""
"1423","","bandit","97","250648","0.0-59.0-0.0","34603274","wem/bandit_single","AGFWV1U4CJXP5","gain","8","","76","L","3","","0","0","1","0.1526874152","","false","22","0.3777441782","","main_expt","0.3437713834","","0.4347396303","","0.1526874152","","","","","","",""
"5197","","bandit","98","257601","0.0-60.0-0.0","34603274","wem/bandit_single","AGFWV1U4CJXP5","gain","8","","75","K","2","","0","0","1","0.43496863","","false","23","0.3799964268","","main_expt","0.3608333873","","0.43496863","","0.1461335862","","","","","","",""
"2740","","bandit","99","262097","0.0-61.0-0.0","34603274","wem/bandit_single","AGFWV1U4CJXP5","gain","8","","75","K","2","","1","0","0","0.43684491","","false","24","0.4097073291","","main_expt","0.3832767268","","0.43684491","","0.194032511","","","","","","",""
"318","","bandit","100","264176","0.0-62.0-0.0","34603274","wem/bandit_single","AGFWV1U4CJXP5","gain","8","","75","K","2","","0","0","1","0.3785768995","","false","25","0.4196977393","","main_expt","0.3839685871","","0.3785768995","","0.1913779305","","","","","","",""
"1347","","bandit","101","267285","0.0-63.0-0.0","34603274","wem/bandit_single","AGFWV1U4CJXP5","gain","8","","74","J","1","","0","0","1","0.3871157951","","false","26","0.3798545817","","main_expt","0.3871157951","","0.3754964585","","0.2830828826","","","","","","",""
"42","","bandit","102","269085","0.0-64.0-0.0","34603274","wem/bandit_single","AGFWV1U4CJXP5","gain","8","","75","K","2","","1","0","0","0.3964499655","","false","27","0.3531061786","","main_expt","0.4093540125","","0.3964499655","","0.3268824087","","","","","","",""
"599","","bandit","103","271448","0.0-65.0-0.0","34603274","wem/bandit_single","AGFWV1U4CJXP5","gain","8","","75","K","2","","1","0","0","0.4243602908","","false","28","0.3327392046","","main_expt","0.3781829904","","0.4243602908","","0.3092871108","","","","","","",""
"418","","bandit","104","273622","0.0-66.0-0.0","34603274","wem/bandit_single","AGFWV1U4CJXP5","gain","8","","75","K","2","","0","0","1","0.4296462108","","false","29","0.2799969064","","main_expt","0.3633234486","","0.4296462108","","0.299803321","","","","","","",""
"893","","bandit","105","276275","0.0-67.0-0.0","34603274","wem/bandit_single","AGFWV1U4CJXP5","gain","8","","76","L","3","","1","0","0","0.3318792252","","false","30","0.225268033","","main_expt","0.395486831","","0.4442153724","","0.3318792252","","","","","","",""
"1788","","bandit","106","279824","0.0-68.0-0.0","34603274","wem/bandit_single","AGFWV1U4CJXP5","gain","8","","72","H","0","img/none_selected.jpg","0","0","1","0.2195205817","","false","31","0.2195205817","","main_expt","0.353932484","","0.4425075274","","0.3274080626","","","","","","",""
"479","","bandit","107","282065","0.0-69.0-0.0","34603274","wem/bandit_single","AGFWV1U4CJXP5","gain","8","","76","L","3","","1","0","0","0.3233555863","","false","32","0.2569702332","","main_expt","0.3902442546","","0.4038806219","","0.3233555863","","","","","","",""
"675","","bandit","108","284497","0.0-70.0-0.0","34603274","wem/bandit_single","AGFWV1U4CJXP5","gain","8","","75","K","2","","0","0","1","0.4283701542","","false","33","0.2914027765","","main_expt","0.3727342875","","0.4283701542","","0.3836123675","","","","","","",""
"289","","bandit","109","286544","0.0-71.0-0.0","34603274","wem/bandit_single","AGFWV1U4CJXP5","gain","8","","76","L","3","","1","0","0","0.4200589335","","false","34","0.2667004126","","main_expt","0.3940120807","","0.4332078231","","0.4200589335","","","","","","",""
"412","","bandit","110","288715","0.0-72.0-0.0","34603274","wem/bandit_single","AGFWV1U4CJXP5","gain","8","","74","J","1","","0","0","1","0.3682756201","","false","35","0.3112773703","","main_expt","0.3682756201","","0.3861361583","","0.4280145355","","","","","","",""
"592","","bandit","111","291064","0.0-73.0-0.0","34603274","wem/bandit_single","AGFWV1U4CJXP5","gain","8","","75","K","2","","0","0","1","0.3176889815","","false","36","0.3158013471","","main_expt","0.4136743311","","0.3176889815","","0.3696194815","","","","","","",""
"1422","","bandit","112","294245","0.0-74.0-0.0","34603274","wem/bandit_single","AGFWV1U4CJXP5","gain","8","","76","L","3","","0","0","1","0.3567242832","","false","37","0.3348696363","","main_expt","0.449594317","","0.3333355096","","0.3567242832","","","","","","",""
"377","","bandit","113","296377","0.0-75.0-0.0","34603274","wem/bandit_single","AGFWV1U4CJXP5","gain","8","","75","K","2","","0","0","1","0.3613286773","","false","38","0.2967031697","","main_expt","0.4427192246","","0.3613286773","","0.3139752797","","","","","","",""
"440","","bandit","114","298577","0.0-76.0-0.0","34603274","wem/bandit_single","AGFWV1U4CJXP5","gain","8","","74","J","1","","1","0","0","0.4375360897","","false","39","0.2816090282","","main_expt","0.4375360897","","0.3354588101","","0.2884672813","","","","","","",""
"1376","","bandit","115","301714","0.0-77.0-0.0","34603274","wem/bandit_single","AGFWV1U4CJXP5","gain","8","","74","J","1","","0","0","1","0.452648821","","false","40","0.2900329111","","main_expt","0.452648821","","0.4044898685","","0.3253538103","","","","","","",""
"455","","bandit","116","303927","0.0-78.0-0.0","34603274","wem/bandit_single","AGFWV1U4CJXP5","gain","8","","74","J","1","","1","0","0","0.4689255384","","false","41","0.3160732104","","main_expt","0.4689255384","","0.3615903795","","0.2782289032","","","","","","",""
"2006","","bandit","117","307693","0.0-79.0-0.0","34603274","wem/bandit_single","AGFWV1U4CJXP5","gain","8","","75","K","2","","1","0","0","0.3239257876","","false","42","0.370849222","","main_expt","0.470096522","","0.3239257876","","0.2378060085","","","","","","",""
"20","","bandit","118","309474","0.0-80.0-0.0","34603274","wem/bandit_single","AGFWV1U4CJXP5","gain","8","","76","L","3","","0","0","1","0.2250536993","","false","43","0.385301305","","main_expt","0.4349244256","","0.2907144625","","0.2250536993","","","","","","",""
"937","","bandit","119","312167","0.0-81.0-0.0","34603274","wem/bandit_single","AGFWV1U4CJXP5","gain","8","","74","J","1","","0","0","1","0.4316966947","","false","44","0.416838688","","main_expt","0.4316966947","","0.2937558929","","0.2132249492","","","","","","",""
"694","","bandit","120","314618","0.0-82.0-0.0","34603274","wem/bandit_single","AGFWV1U4CJXP5","gain","8","","75","K","2","","0","0","1","0.3667346614","","false","45","0.3927526088","","main_expt","0.4526201082","","0.3667346614","","0.2669052982","","","","","","",""
"975","","bandit","121","317353","0.0-83.0-0.0","34603274","wem/bandit_single","AGFWV1U4CJXP5","gain","8","","75","K","2","","0","0","1","0.4084803937","","false","46","0.3789336214","","main_expt","0.4696962879","","0.4084803937","","0.259601005","","","","","","",""
"498","","bandit","122","319611","0.0-84.0-0.0","34603274","wem/bandit_single","AGFWV1U4CJXP5","gain","8","","74","J","1","","0","0","1","0.4591824552","","false","47","0.3994803113","","main_expt","0.4591824552","","0.3956447052","","0.2442503122","","","","","","",""
"14","","bandit","123","321388","0.0-85.0-0.0","34603274","wem/bandit_single","AGFWV1U4CJXP5","gain","8","","76","L","3","","0","0","1","0.2427668164","","false","48","0.3570668153","","main_expt","0.4548607847","","0.3859230678","","0.2427668164","","","","","","",""
"152","","bandit","124","323302","0.0-86.0-0.0","34603274","wem/bandit_single","AGFWV1U4CJXP5","gain","8","","74","J","1","","1","0","0","0.4625410341","","false","49","0.3500417472","","main_expt","0.4625410341","","0.394993817","","0.218731525","","","","","","",""
"192","","bandit","125","325260","0.0-87.0-0.0","34603274","wem/bandit_single","AGFWV1U4CJXP5","gain","8","","75","K","2","","0","0","1","0.4358915385","","false","50","0.3110114061","","main_expt","0.4620574215","","0.4358915385","","0.2187604329","","","","","","",""
"298","","bandit","126","327320","0.0-88.0-0.0","34603274","wem/bandit_single","AGFWV1U4CJXP5","gain","8","","75","K","2","","0","0","1","0.4437026926","","false","51","0.3165374422","","main_expt","0.4573118055","","0.4437026926","","0.2764450854","","","","","","",""
"684","","bandit","127","329766","0.0-89.0-0.0","34603274","wem/bandit_single","AGFWV1U4CJXP5","gain","8","","76","L","3","","1","0","0","0.2735561336","","false","52","0.3212783944","","main_expt","0.4577170033","","0.4357441266","","0.2735561336","","","","","","",""
"1081","","bandit","128","332607","0.0-90.0-0.0","34603274","wem/bandit_single","AGFWV1U4CJXP5","gain","8","","75","K","2","","1","0","0","0.3926545571","","false","53","0.3079714244","","main_expt","0.4599667981","","0.3926545571","","0.2558353256","","","","","","",""
"923","","bandit","129","335288","0.0-91.0-0.0","34603274","wem/bandit_single","AGFWV1U4CJXP5","gain","8","","75","K","2","","0","0","1","0.3841940555","","false","54","0.3538619638","","main_expt","0.4598989899","","0.3841940555","","0.2856473895","","","","","","",""
"312","","bandit","130","337360","0.0-92.0-0.0","34603274","wem/bandit_single","AGFWV1U4CJXP5","gain","8","","76","L","3","","1","0","0","0.3110799389","","false","55","0.3390258849","","main_expt","0.4371040197","","0.3733442546","","0.3110799389","","","","","","",""
"614","","bandit","131","339737","0.0-93.0-0.0","34603274","wem/bandit_single","AGFWV1U4CJXP5","gain","8","","75","K","2","","1","0","0","0.3500738246","","false","56","0.3282580673","","main_expt","0.3889704242","","0.3500738246","","0.2862995849","","","","","","",""
"736","","bandit","132","342238","0.0-94.0-0.0","34603274","wem/bandit_single","AGFWV1U4CJXP5","gain","8","","75","K","2","","0","0","1","0.3265916347","","false","57","0.3014999451","","main_expt","0.4089883961","","0.3265916347","","0.3029349154","","","","","","",""
"2148","","bandit","133","346144","0.0-95.0-0.0","34603274","wem/bandit_single","AGFWV1U4CJXP5","gain","8","","74","J","1","","0","0","1","0.3682078294","","false","58","0.2895525025","","main_expt","0.3682078294","","0.3203483638","","0.282602966","","","","","","",""
"2129","","bandit","134","350033","0.0-96.0-0.0","34603274","wem/bandit_single","AGFWV1U4CJXP5","gain","8","","75","K","2","","1","0","0","0.258324817","","false","59","0.2538740387","","main_expt","0.426053772","","0.258324817","","0.3271218703","","","","","","",""
"315","","bandit","135","352110","0.0-97.0-0.0","34603274","wem/bandit_single","AGFWV1U4CJXP5","gain","8","","75","K","2","","1","0","0","0.2527557167","","false","60","0.2509640494","","main_expt","0.4175969639","","0.2527557167","","0.2978757068","","","","","","",""
"974","","bandit","136","354843","0.0-98.0-0.0","34603274","wem/bandit_single","AGFWV1U4CJXP5","gain","8","","75","K","2","","0","0","1","0.2925705146","","false","61","0.1930295055","","main_expt","0.4124946444","","0.2925705146","","0.1922553384","","","","","","",""
"827","","bandit","137","357429","0.0-99.0-0.0","34603274","wem/bandit_single","AGFWV1U4CJXP5","gain","8","","74","J","1","","1","0","0","0.4077217862","","false","62","0.1259826115","","main_expt","0.4077217862","","0.310648962","","0.1408400783","","","","","","",""
"24","","bandit","138","359212","0.0-100.0-0.0","34603274","wem/bandit_single","AGFWV1U4CJXP5","gain","8","","75","K","2","","1","0","0","0.3175489896","","false","63","0.1388804293","","main_expt","0.4258821936","","0.3175489896","","0.1779610645","","","","","","",""
"289","","bandit","139","361258","0.0-101.0-0.0","34603274","wem/bandit_single","AGFWV1U4CJXP5","gain","8","","75","K","2","","0","0","1","0.2756852574","","false","64","0.1412297375","","main_expt","0.4314195329","","0.2756852574","","0.1733040919","","","","","","",""
"556","","bandit","140","363573","0.0-102.0-0.0","34603274","wem/bandit_single","AGFWV1U4CJXP5","gain","8","","74","J","1","","0","0","1","0.4174082156","","false","65","0.07856201072","","main_expt","0.4174082156","","0.2798966648","","0.1669650696","","","","","","",""
"27","","bandit","141","365359","0.0-103.0-0.0","34603274","wem/bandit_single","AGFWV1U4CJXP5","gain","8","","76","L","3","","0","0","1","0.1439674443","","false","66","0.04493535693","","main_expt","0.4396479182","","0.2440426105","","0.1439674443","","","","","","",""
"1930","","bandit","142","369050","0.0-104.0-0.0","34603274","wem/bandit_single","AGFWV1U4CJXP5","gain","8","","75","K","2","","0","0","1","0.2630461485","","false","67","0.06268984171","","main_expt","0.4080198752","","0.2630461485","","0.1892066175","","","","","","",""
"360","","bandit","143","371167","0.0-105.0-0.0","34603274","wem/bandit_single","AGFWV1U4CJXP5","gain","8","","74","J","1","","1","0","0","0.4137299856","","false","68","0.0976634122","","main_expt","0.4137299856","","0.2456224984","","0.1994174399","","","","","","",""
"640","","bandit","144","373566","0.0-106.0-0.0","34603274","wem/bandit_single","AGFWV1U4CJXP5","gain","8","","74","J","1","","1","0","0","0.3938947582","","false","69","0.1303859095","","main_expt","0.3938947582","","0.328759159","","0.1624567358","","","","","","",""
"427","","bandit","145","375753","0.0-107.0-0.0","34603274","wem/bandit_single","AGFWV1U4CJXP5","gain","8","","74","J","1","","1","0","0","0.3876621225","","false","70","0.09159795462","","main_expt","0.3876621225","","0.3063762308","","0.203142037","","","","","","",""
"360","","bandit","146","377875","0.0-108.0-0.0","34603274","wem/bandit_single","AGFWV1U4CJXP5","gain","8","","74","J","1","","1","0","0","0.3788053019","","false","71","0.07422050438","","main_expt","0.3788053019","","0.3509026903","","0.218187973","","","","","","",""
"420","","bandit","147","380057","0.0-109.0-0.0","34603274","wem/bandit_single","AGFWV1U4CJXP5","gain","8","","74","J","1","","0","0","1","0.3632611749","","false","72","0.05420033029","","main_expt","0.3632611749","","0.3695940198","","0.2357875668","","","","","","",""
"339","","bandit","148","382157","0.0-110.0-0.0","34603274","wem/bandit_single","AGFWV1U4CJXP5","gain","8","","75","K","2","","0","0","1","0.3532210052","","false","73","0.04794676006","","main_expt","0.3121818875","","0.3532210052","","0.1951490082","","","","","","",""
"143","","bandit","149","384059","0.0-111.0-0.0","34603274","wem/bandit_single","AGFWV1U4CJXP5","gain","8","","75","K","2","","0","0","1","0.3780170277","","false","74","0.03645121522","","main_expt","0.3385624816","","0.3780170277","","0.208621177","","","","","","",""
"528","","bandit","150","386347","0.0-112.0-0.0","34603274","wem/bandit_single","AGFWV1U4CJXP5","gain","8","","72","H","0","img/none_selected.jpg","0","0","1","0.04346784694","","false","75","0.04346784694","","main_expt","0.3393964734","","0.3141643986","","0.2016482668","","","","","","",""
"717","","bandit","151","388822","0.0-113.0-0.0","34603274","wem/bandit_single","AGFWV1U4CJXP5","gain","8","","76","L","3","","0","0","1","0.2495615647","","false","76","0.05697420644","","main_expt","0.3489067358","","0.3520496016","","0.2495615647","","","","","","",""
"100","","bandit","152","390682","0.0-114.0-0.0","34603274","wem/bandit_single","AGFWV1U4CJXP5","gain","8","","75","K","2","","1","0","0","0.2628688268","","false","77","0.05831686642","","main_expt","0.3502211764","","0.2628688268","","0.2225386599","","","","","","",""
"253","","bandit","153","392695","0.0-115.0-0.0","34603274","wem/bandit_single","AGFWV1U4CJXP5","gain","8","","75","K","2","","0","0","1","0.2856335909","","false","78","0.0396837938","","main_expt","0.2979424841","","0.2856335909","","0.2525784454","","","","","","",""
"483","","bandit","154","394938","0.0-116.0-0.0","34603274","wem/bandit_single","AGFWV1U4CJXP5","gain","8","","74","J","1","","0","0","1","0.2779986596","","false","79","0.03651397352","","main_expt","0.2779986596","","0.3052483479","","0.2691825077","","","","","","",""
"105","","bandit","155","396805","0.0-117.0-0.0","34603274","wem/bandit_single","AGFWV1U4CJXP5","gain","8","","75","K","2","","0","0","1","0.2809417262","","false","80","0.0570793957","","main_expt","0.2681941829","","0.2809417262","","0.2749696362","","","","","","",""
"605","","bandit","156","399168","0.0-118.0-0.0","34603274","wem/bandit_single","AGFWV1U4CJXP5","gain","8","","76","L","3","","0","0","1","0.291945729","","false","81","0.05597964966","","main_expt","0.2536714586","","0.2639407754","","0.291945729","","","","","","",""
"209","","bandit","157","401141","0.0-119.0-0.0","34603274","wem/bandit_single","AGFWV1U4CJXP5","gain","8","","76","L","3","","1","0","0","0.2804178179","","false","82","0.0589745046","","main_expt","0.1904528106","","0.3352417475","","0.2804178179","","","","","","",""
"649","","bandit","158","403555","0.0-120.0-0.0","34603274","wem/bandit_single","AGFWV1U4CJXP5","gain","8","","75","K","2","","0","0","1","0.3246721101","","false","83","0.04461225985","","main_expt","0.2497062266","","0.3246721101","","0.2253075454","","","","","","",""
"521","","bandit","159","405839","0.0-121.0-0.0","34603274","wem/bandit_single","AGFWV1U4CJXP5","gain","8","","74","J","1","","1","0","0","0.2960017758","","false","84","0.04600221485","","main_expt","0.2960017758","","0.3082112656","","0.2475548924","","","","","","",""
"481","","bandit","160","408082","0.0-122.0-0.0","34603274","wem/bandit_single","AGFWV1U4CJXP5","gain","8","","74","J","1","","0","0","1","0.2677312645","","false","85","0.04782026086","","main_expt","0.2677312645","","0.2733186338","","0.2443994903","","","","","","",""
"1068","","bandit","161","410912","0.0-123.0-0.0","34603274","wem/bandit_single","AGFWV1U4CJXP5","gain","8","","76","L","3","","1","0","0","0.2112262296","","false","86","0.05551660222","","main_expt","0.2764415163","","0.2595222796","","0.2112262296","","","","","","",""
"372","","bandit","162","413045","0.0-124.0-0.0","34603274","wem/bandit_single","AGFWV1U4CJXP5","gain","8","","76","L","3","","0","0","1","0.2188998383","","false","87","0.04708869331","","main_expt","0.324022149","","0.2256999028","","0.2188998383","","","","","","",""
"396","","bandit","163","415201","0.0-125.0-0.0","34603274","wem/bandit_single","AGFWV1U4CJXP5","gain","8","","75","K","2","","0","0","1","0.1990670624","","false","88","0.02844544313","","main_expt","0.3109963835","","0.1990670624","","0.2197891412","","","","","","",""
"445","","bandit","164","417409","0.0-126.0-0.0","34603274","wem/bandit_single","AGFWV1U4CJXP5","gain","8","","75","K","2","","0","0","1","0.2125628639","","false","89","0.02947982339","","main_expt","0.324941543","","0.2125628639","","0.1264972534","","","","","","",""
"16","","bandit","165","419187","0.0-127.0-0.0","34603274","wem/bandit_single","AGFWV1U4CJXP5","gain","8","","75","K","2","","0","0","1","0.2335475446","","false","90","0.01544371513","","main_expt","0.3309337967","","0.2335475446","","0.09492746395","","","","","","",""
"925","","bandit","166","421874","0.0-128.0-0.0","34603274","wem/bandit_single","AGFWV1U4CJXP5","gain","8","","76","L","3","","0","0","1","0.0779798764","","false","91","0.02662688154","","main_expt","0.2419508287","","0.2803997126","","0.0779798764","","","","","","",""
"815","","bandit","167","424446","0.0-129.0-0.0","34603274","wem/bandit_single","AGFWV1U4CJXP5","gain","8","","74","J","1","","0","0","1","0.2040869203","","false","92","0.03471523835","","main_expt","0.2040869203","","0.2771315147","","0.1178574791","","","","","","",""
"680","","bandit","168","426891","0.0-130.0-0.0","34603274","wem/bandit_single","AGFWV1U4CJXP5","gain","8","","75","K","2","","0","0","1","0.3069544445","","false","93","0.0252433293","","main_expt","0.1936143615","","0.3069544445","","0.1199697814","","","","","","",""
"30","","bandit","169","428684","0.0-131.0-0.0","34603274","wem/bandit_single","AGFWV1U4CJXP5","gain","8","","75","K","2","","0","0","1","0.2585327286","","false","94","0.02873343753","","main_expt","0.2296452841","","0.2585327286","","0.1351842626","","","","","","",""
"416","","bandit","170","430863","0.0-132.0-0.0","34603274","wem/bandit_single","AGFWV1U4CJXP5","gain","8","","75","K","2","","0","0","1","0.2043747222","","false","95","0.03754278977","","main_expt","0.3009770616","","0.2043747222","","0.1229387465","","","","","","",""
"96","","bandit","171","432722","0.0-133.0-0.0","34603274","wem/bandit_single","AGFWV1U4CJXP5","gain","8","","74","J","1","","1","0","0","0.3664634414","","false","96","0.02045008397","","main_expt","0.3664634414","","0.2149370614","","0.1341504272","","","","","","",""
"3","","bandit","172","434487","0.0-134.0-0.0","34603274","wem/bandit_single","AGFWV1U4CJXP5","gain","8","","74","J","1","","0","0","1","0.3476641925","","false","97","0.01282395838","","main_expt","0.3476641925","","0.1294523689","","0.08646330057","","","","","","",""
"27","","bandit","173","436277","0.0-135.0-0.0","34603274","wem/bandit_single","AGFWV1U4CJXP5","gain","8","","75","K","2","","0","0","1","0.1653870254","","false","98","0.02206163243","","main_expt","0.3885632826","","0.1653870254","","0.07731746448","","","","","","",""
"259","","bandit","174","438299","0.0-136.0-0.0","34603274","wem/bandit_single","AGFWV1U4CJXP5","gain","8","","76","L","3","","0","0","1","0.05048608161","","false","99","0.03016500256","","main_expt","0.3222143249","","0.187235433","","0.05048608161","","","","","","",""
"418","","bandit","175","440479","0.0-137.0-0.0","34603274","wem/bandit_single","AGFWV1U4CJXP5","gain","8","","74","J","1","","1","0","0","0.3386714995","","false","100","0.03237578522","","main_expt","0.3386714995","","0.1583251777","","0.03970728334","","","","","","",""
"83","","bandit","176","442324","0.0-138.0-0.0","34603274","wem/bandit_single","AGFWV1U4CJXP5","gain","8","","74","J","1","","1","0","0","0.3131396166","","false","101","0.03241037075","","main_expt","0.3131396166","","0.1337381207","","0.02108340439","","","","","","",""
"111","","bandit","177","444199","0.0-139.0-0.0","34603274","wem/bandit_single","AGFWV1U4CJXP5","gain","8","","76","L","3","","0","0","1","0.05244648731","","false","102","0.06000215667","","main_expt","0.3417288757","","0.1163639012","","0.05244648731","","","","","","",""
"804","","bandit","178","446765","0.0-140.0-0.0","34603274","wem/bandit_single","AGFWV1U4CJXP5","gain","8","","75","K","2","","0","0","1","0.1118657557","","false","103","0.08726741307","","main_expt","0.3582654759","","0.1118657557","","0.04574159302","","","","","","",""
"484","","bandit","179","449008","0.0-141.0-0.0","34603274","wem/bandit_single","AGFWV1U4CJXP5","gain","8","","75","K","2","","0","0","1","0.1501499683","","false","104","0.1067467257","","main_expt","0.3409136392","","0.1501499683","","0.05033190662","","","","","","",""
"370","","bandit","180","451139","0.0-142.0-0.0","34603274","wem/bandit_single","AGFWV1U4CJXP5","gain","8","","74","J","1","","0","0","1","0.3532992837","","false","105","0.1004566838","","main_expt","0.3532992837","","0.1354733374","","0.1076128494","","","","","","",""
"296","","bandit","181","453193","0.0-143.0-0.0","34603274","wem/bandit_single","AGFWV1U4CJXP5","gain","8","","75","K","2","","0","0","1","0.1727398631","","false","106","0.1055318719","","main_expt","0.335683565","","0.1727398631","","0.06740855405","","","","","","",""
"450","","bandit","182","455404","0.0-144.0-0.0","34603274","wem/bandit_single","AGFWV1U4CJXP5","gain","8","","74","J","1","","1","0","0","0.3924059951","","false","107","0.1236328269","","main_expt","0.3924059951","","0.1474174257","","0.06658027063","","","","","","",""
"813","","bandit","183","457983","0.0-145.0-0.0","34603274","wem/bandit_single","AGFWV1U4CJXP5","gain","8","","75","K","2","","0","0","1","0.1683059408","","false","108","0.1301170461","","main_expt","0.3626054341","","0.1683059408","","0.0777756245","","","","","","",""
"226","","bandit","184","459973","0.0-146.0-0.0","34603274","wem/bandit_single","AGFWV1U4CJXP5","gain","8","","74","J","1","","1","0","0","0.3806857721","","false","109","0.1507941036","","main_expt","0.3806857721","","0.1972223025","","0.1117823495","","","","","","",""
"394","","bandit","185","462129","0.0-147.0-0.0","34603274","wem/bandit_single","AGFWV1U4CJXP5","gain","8","","76","L","3","","0","0","1","0.08710900622","","false","110","0.1647590848","","main_expt","0.3452619283","","0.2085186414","","0.08710900622","","","","","","",""
"392","","bandit","186","464286","0.0-148.0-0.0","34603274","wem/bandit_single","AGFWV1U4CJXP5","gain","8","","75","K","2","","0","0","1","0.1811180602","","false","111","0.1574612326","","main_expt","0.3653509784","","0.1811180602","","0.107183683","","","","","","",""
"415","","bandit","187","466468","0.0-149.0-0.0","34603274","wem/bandit_single","AGFWV1U4CJXP5","gain","8","","74","J","1","","0","0","1","0.3435522482","","false","112","0.1406493921","","main_expt","0.3435522482","","0.222295219","","0.1099425133","","","","","","",""
"685","","bandit","188","468910","0.0-150.0-0.0","34603274","wem/bandit_single","AGFWV1U4CJXP5","gain","8","","75","K","2","","0","0","1","0.254178783","","false","113","0.1367300214","","main_expt","0.3424956272","","0.254178783","","0.1457634924","","","","","","",""
"517","","bandit","189","471188","0.0-151.0-0.0","34603274","wem/bandit_single","AGFWV1U4CJXP5","gain","8","","75","K","2","","1","0","0","0.2315882939","","false","114","0.1534665218","","main_expt","0.3353894863","","0.2315882939","","0.09824844824","","","","","","",""
"402","","bandit","190","473352","0.0-152.0-0.0","34603274","wem/bandit_single","AGFWV1U4CJXP5","gain","8","","76","L","3","","0","0","1","0.07202874502","","false","115","0.1890238391","","main_expt","0.3965113255","","0.2079629003","","0.07202874502","","","","","","",""
"585","","bandit","191","475697","0.0-153.0-0.0","34603274","wem/bandit_single","AGFWV1U4CJXP5","gain","8","","75","K","2","","0","0","1","0.2117584369","","false","116","0.1480670238","","main_expt","0.3889101716","","0.2117584369","","0.08386797302","","","","","","",""
"204","","bandit","192","477669","0.0-154.0-0.0","34603274","wem/bandit_single","AGFWV1U4CJXP5","gain","8","","74","J","1","","0","0","1","0.412290601","","false","117","0.1450369027","","main_expt","0.412290601","","0.1897465023","","0.1223406282","","","","","","",""
"463","","bandit","193","479896","0.0-155.0-0.0","34603274","wem/bandit_single","AGFWV1U4CJXP5","gain","8","","75","K","2","","0","0","1","0.2162179109","","false","118","0.1525061225","","main_expt","0.4090296977","","0.2162179109","","0.1131974311","","","","","","",""
"217","","bandit","194","481877","0.0-156.0-0.0","34603274","wem/bandit_single","AGFWV1U4CJXP5","gain","8","","75","K","2","","0","0","1","0.1954464435","","false","119","0.1327940691","","main_expt","0.3900906375","","0.1954464435","","0.1214903214","","","","","","",""
"403","","bandit","195","484042","0.0-157.0-0.0","34603274","wem/bandit_single","AGFWV1U4CJXP5","gain","8","","72","H","0","img/none_selected.jpg","0","0","1","0.1517026744","","false","120","0.1517026744","","main_expt","0.3722828095","","0.2433439763","","0.1379734046","","","","","","",""
"761","","bandit","196","486566","0.0-158.0-0.0","34603274","wem/bandit_single","AGFWV1U4CJXP5","gain","8","","74","J","1","","0","0","1","0.3593952677","","false","121","0.09770447215","","main_expt","0.3593952677","","0.2093375247","","0.1537473387","","","","","","",""
"493","","bandit","197","488817","0.0-159.0-0.0","34603274","wem/bandit_single","AGFWV1U4CJXP5","gain","8","","75","K","2","","1","0","0","0.2030857612","","false","122","0.1084092314","","main_expt","0.3670381393","","0.2030857612","","0.1654199468","","","","","","",""
"588","","bandit","198","491164","0.0-160.0-0.0","34603274","wem/bandit_single","AGFWV1U4CJXP5","gain","8","","75","K","2","","0","0","1","0.1810532848","","false","123","0.1828660492","","main_expt","0.3587286137","","0.1810532848","","0.1908187881","","","","","","",""
"464","","bandit","199","493390","0.0-161.0-0.0","34603274","wem/bandit_single","AGFWV1U4CJXP5","gain","8","","75","K","2","","0","0","1","0.1582229448","","false","124","0.1743556658","","main_expt","0.3492740793","","0.1582229448","","0.2229551501","","","","","","",""
"431","","bandit","200","495578","0.0-162.0-0.0","34603274","wem/bandit_single","AGFWV1U4CJXP5","gain","8","","75","K","2","","0","0","1","0.1223239468","","false","125","0.2091647646","","main_expt","0.3031262708","","0.1223239468","","0.2354127912","","","","","","",""
"92","","bandit","201","497429","0.0-163.0-0.0","34603274","wem/bandit_single","AGFWV1U4CJXP5","gain","8","","74","J","1","","0","0","1","0.3272336491","","false","126","0.2089783764","","main_expt","0.3272336491","","0.08912034734","","0.25119817","","","","","","",""
"222","","bandit","202","499410","0.0-164.0-0.0","34603274","wem/bandit_single","AGFWV1U4CJXP5","gain","8","","75","K","2","","0","0","1","0.05948163","","false","127","0.21334071","","main_expt","0.3153677968","","0.05948163","","0.2312690923","","","","","","",""
"996","","bandit","203","502166","0.0-165.0-0.0","34603274","wem/bandit_single","AGFWV1U4CJXP5","gain","8","","75","K","2","","0","0","1","0.06525821595","","false","128","0.1916283041","","main_expt","0.3317710332","","0.06525821595","","0.2741150261","","","","","","",""
"578","","bandit","204","504506","0.0-166.0-0.0","34603274","wem/bandit_single","AGFWV1U4CJXP5","gain","8","","75","K","2","","0","0","1","0.04677418535","","false","129","0.1810604207","","main_expt","0.3818586719","","0.04677418535","","0.2804264122","","","","","","",""
"1711","","bandit","205","507975","0.0-167.0-0.0","34603274","wem/bandit_single","AGFWV1U4CJXP5","gain","8","","75","K","2","","0","0","1","0.04931785787","","false","130","0.1492319935","","main_expt","0.3778611376","","0.04931785787","","0.2746384559","","","","","","",""
"270","","bandit","206","510009","0.0-168.0-0.0","34603274","wem/bandit_single","AGFWV1U4CJXP5","gain","8","","76","L","3","","0","0","1","0.3052944487","","false","131","0.129351286","","main_expt","0.3745485054","","0.03231589458","","0.3052944487","","","","","","",""
"743","","bandit","207","512510","0.0-169.0-0.0","34603274","wem/bandit_single","AGFWV1U4CJXP5","gain","8","","75","K","2","","0","0","1","0.0374336399","","false","132","0.1020216346","","main_expt","0.3901944836","","0.0374336399","","0.2871604017","","","","","","",""
"133","","bandit","208","514406","0.0-170.0-0.0","34603274","wem/bandit_single","AGFWV1U4CJXP5","gain","8","","75","K","2","","0","0","1","0.04583961862","","false","133","0.1100395313","","main_expt","0.3245875462","","0.04583961862","","0.2262434135","","","","","","",""
"403","","bandit","209","516568","0.0-171.0-0.0","34603274","wem/bandit_single","AGFWV1U4CJXP5","gain","8","","76","L","3","","0","0","1","0.2020687113","","false","134","0.1078381017","","main_expt","0.2794858075","","0.04150300199","","0.2020687113","","","","","","",""
"620","","bandit","210","518947","0.0-172.0-0.0","34603274","wem/bandit_single","AGFWV1U4CJXP5","gain","8","","74","J","1","","0","0","1","0.2867414221","","false","135","0.1093486249","","main_expt","0.2867414221","","0.04663842542","","0.2168620662","","","","","","",""
"569","","bandit","211","521282","0.0-173.0-0.0","34603274","wem/bandit_single","AGFWV1U4CJXP5","gain","8","","74","J","1","","0","0","1","0.2388941587","","false","136","0.1246456113","","main_expt","0.2388941587","","0.06291357963","","0.151139006","","","","","","",""
"1223","","bandit","212","524268","0.0-174.0-0.0","34603274","wem/bandit_single","AGFWV1U4CJXP5","gain","8","","72","H","0","img/none_selected.jpg","0","0","1","0.1167447495","","false","137","0.1167447495","","main_expt","0.2301747732","","0.0848669819","","0.1452995234","","","","","","",""
"805","","bandit","213","526836","0.0-175.0-0.0","34603274","wem/bandit_single","AGFWV1U4CJXP5","gain","8","","76","L","3","","0","0","1","0.1599176777","","false","138","0.1357570265","","main_expt","0.2344721482","","0.1250360552","","0.1599176777","","","","","","",""
"837","","bandit","214","529437","0.0-176.0-0.0","34603274","wem/bandit_single","AGFWV1U4CJXP5","gain","8","","75","K","2","","0","0","1","0.122190115","","false","139","0.1616689495","","main_expt","0.2351335283","","0.122190115","","0.1704699841","","","","","","",""
"530","","bandit","215","531729","0.0-177.0-0.0","34603274","wem/bandit_single","AGFWV1U4CJXP5","gain","8","","74","J","1","","0","0","1","0.2876903143","","false","140","0.1979747013","","main_expt","0.2876903143","","0.08666030548","","0.1142956015","","","","","","",""
"846","","bandit","216","534341","0.0-178.0-0.0","34603274","wem/bandit_single","AGFWV1U4CJXP5","gain","8","","74","J","1","","0","0","1","0.2865732071","","false","141","0.1708965128","","main_expt","0.2865732071","","0.09967801986","","0.1206890816","","","","","","",""
"383","","bandit","217","536485","0.0-179.0-0.0","34603274","wem/bandit_single","AGFWV1U4CJXP5","gain","8","","75","K","2","","0","0","1","0.1125289611","","false","142","0.204481367","","main_expt","0.248943806","","0.1125289611","","0.1324259923","","","","","","",""
"630","","bandit","218","538879","0.0-180.0-0.0","34603274","wem/bandit_single","AGFWV1U4CJXP5","gain","8","","75","K","2","","1","0","0","0.1467602081","","false","143","0.1861099789","","main_expt","0.2839045407","","0.1467602081","","0.09892217097","","","","","","",""
"553","","bandit","219","541196","0.0-181.0-0.0","34603274","wem/bandit_single","AGFWV1U4CJXP5","gain","8","","75","K","2","","0","0","1","0.1467522766","","false","144","0.1956465744","","main_expt","0.3150250783","","0.1467522766","","0.1577744197","","","","","","",""
"64","","bandit","220","543022","0.0-182.0-0.0","34603274","wem/bandit_single","AGFWV1U4CJXP5","gain","8","","74","J","1","","1","0","0","0.3090395899","","false","145","0.2622876922","","main_expt","0.3090395899","","0.118212248","","0.1392006829","","","","","","",""
"479","","bandit","221","545266","0.0-183.0-0.0","34603274","wem/bandit_single","AGFWV1U4CJXP5","gain","8","","74","J","1","","0","0","1","0.3122039877","","false","146","0.304745079","","main_expt","0.3122039877","","0.1089879874","","0.1262993523","","","","","","",""
"239","","bandit","222","547265","0.0-184.0-0.0","34603274","wem/bandit_single","AGFWV1U4CJXP5","gain","8","","74","J","1","","0","0","1","0.2959619691","","false","147","0.2888799162","","main_expt","0.2959619691","","0.1200469816","","0.1970652478","","","","","","",""
"413","","bandit","223","549437","0.0-185.0-0.0","34603274","wem/bandit_single","AGFWV1U4CJXP5","gain","8","","75","K","2","","0","0","1","0.1276189258","","false","148","0.2290209364","","main_expt","0.2395536641","","0.1276189258","","0.2502259542","","","","","","",""
"168","","bandit","224","551363","0.0-186.0-0.0","34603274","wem/bandit_single","AGFWV1U4CJXP5","gain","8","","75","K","2","","0","0","1","0.1280703092","","false","149","0.1626908122","","main_expt","0.2650868272","","0.1280703092","","0.264890558","","","","","","",""
"824","","bandit","225","553952","0.0-187.0-0.0","34603274","wem/bandit_single","AGFWV1U4CJXP5","gain","8","","76","L","3","","0","0","1","0.2458403893","","false","150","0.1958031623","","main_expt","0.2986082654","","0.1260403861","","0.2458403893","","","","","","",""
"1222","","bandit","226","556941","0.0-188.0-0.0","34603274","wem/bandit_single","AGFWV1U4CJXP5","gain","8","","75","K","2","","0","0","1","0.1472493067","","false","151","0.2110526716","","main_expt","0.2843767109","","0.1472493067","","0.3021038309","","","","","","",""
"191","","bandit","227","558898","0.0-189.0-0.0","34603274","wem/bandit_single","AGFWV1U4CJXP5","gain","8","","74","J","1","","1","0","0","0.2910803031","","false","152","0.239542308","","main_expt","0.2910803031","","0.1256460397","","0.2863751765","","","","","","",""
"21","","bandit","228","560679","0.0-190.0-0.0","34603274","wem/bandit_single","AGFWV1U4CJXP5","gain","8","","75","K","2","","0","0","1","0.1567097088","","false","153","0.2781725502","","main_expt","0.2910028656","","0.1567097088","","0.250244768","","","","","","",""
"1249","","bandit","229","563692","0.0-191.0-0.0","34603274","wem/bandit_single","AGFWV1U4CJXP5","gain","8","","75","K","2","","0","0","1","0.1473662378","","false","154","0.228047793","","main_expt","0.2845613835","","0.1473662378","","0.2127808211","","","","","","",""
"394","","bandit","230","565850","0.0-192.0-0.0","34603274","wem/bandit_single","AGFWV1U4CJXP5","gain","8","","75","K","2","","0","0","1","0.1466549972","","false","155","0.2683949018","","main_expt","0.2707345723","","0.1466549972","","0.205053704","","","","","","",""
"939","","bandit","231","568553","0.0-193.0-0.0","34603274","wem/bandit_single","AGFWV1U4CJXP5","gain","8","","76","L","3","","0","0","1","0.1648482415","","false","156","0.3192141369","","main_expt","0.3156720475","","0.1127453184","","0.1648482415","","","","","","",""
"193","","bandit","232","570507","0.0-194.0-0.0","34603274","wem/bandit_single","AGFWV1U4CJXP5","gain","8","","76","L","3","","0","0","1","0.1888047422","","false","157","0.3402823895","","main_expt","0.3101066834","","0.1577506677","","0.1888047422","","","","","","",""
"641","","bandit","233","572917","0.0-195.0-0.0","34603274","wem/bandit_single","AGFWV1U4CJXP5","gain","8","","74","J","1","","0","0","1","0.3236654942","","false","158","0.2944958958","","main_expt","0.3236654942","","0.177177298","","0.1759444775","","","","","","",""
"561","","bandit","234","575242","0.0-196.0-0.0","34603274","wem/bandit_single","AGFWV1U4CJXP5","gain","8","","75","K","2","","0","0","1","0.1693510486","","false","159","0.3007248388","","main_expt","0.2735657487","","0.1693510486","","0.2066832709","","","","","","",""
"647","","bandit","235","577653","0.0-197.0-0.0","34603274","wem/bandit_single","AGFWV1U4CJXP5","gain","8","","75","K","2","","0","0","1","0.1230292859","","false","160","0.3179332055","","main_expt","0.2384912546","","0.1230292859","","0.2570817279","","","","","","",""
"128","","bandit","236","579546","0.0-198.0-0.0","34603274","wem/bandit_single","AGFWV1U4CJXP5","gain","8","","74","J","1","","1","0","0","0.2615252743","","false","161","0.2506164635","","main_expt","0.2615252743","","0.07903667538","","0.2244749933","","","","","","",""
"1191","","bandit","237","582495","0.0-199.0-0.0","34603274","wem/bandit_single","AGFWV1U4CJXP5","gain","8","","74","J","1","","0","0","1","0.2187643747","","false","162","0.2858836385","","main_expt","0.2187643747","","0.1136507332","","0.23263707","","","","","","",""
"746","","bandit","238","585014","0.0-200.0-0.0","34603274","wem/bandit_single","AGFWV1U4CJXP5","gain","8","","75","K","2","","0","0","1","0.1137116213","","false","163","0.2848163613","","main_expt","0.1909081127","","0.1137116213","","0.2287127565","","","","","","",""
"339","","bandit","239","587123","0.0-201.0-0.0","34603274","wem/bandit_single","AGFWV1U4CJXP5","gain","8","","76","L","3","","0","0","1","0.2303253206","","false","164","0.2688566635","","main_expt","0.1808716434","","0.1254102563","","0.2303253206","","","","","","",""
"719","","bandit","240","589605","0.0-202.0-0.0","34603274","wem/bandit_single","AGFWV1U4CJXP5","gain","8","","74","J","1","","0","0","1","0.2118073572","","false","165","0.2921202554","","main_expt","0.2118073572","","0.1216805934","","0.2771057403","","","","","","",""
"538","","bandit","241","591906","0.0-203.0-0.0","34603274","wem/bandit_single","AGFWV1U4CJXP5","gain","8","","75","K","2","","0","0","1","0.1291529517","","false","166","0.3143591269","","main_expt","0.2410554973","","0.1291529517","","0.2371810998","","","","","","",""
"450","","bandit","242","594123","0.0-204.0-0.0","34603274","wem/bandit_single","AGFWV1U4CJXP5","gain","8","","75","K","2","","1","0","0","0.1535345887","","false","167","0.2892924204","","main_expt","0.2574005288","","0.1535345887","","0.2349122652","","","","","","",""
"82","","bandit","243","595968","0.0-205.0-0.0","34603274","wem/bandit_single","AGFWV1U4CJXP5","gain","8","","74","J","1","","0","0","1","0.2729884233","","false","168","0.2786305655","","main_expt","0.2729884233","","0.1435034989","","0.1959020284","","","","","","",""
"150","","bandit","244","597881","0.0-206.0-0.0","34603274","wem/bandit_single","AGFWV1U4CJXP5","gain","8","","75","K","2","","0","0","1","0.1957458285","","false","169","0.246803054","","main_expt","0.2625821735","","0.1957458285","","0.1899859579","","","","","","",""
"67","","bandit","245","599710","0.0-207.0-0.0","34603274","wem/bandit_single","AGFWV1U4CJXP5","gain","8","","75","K","2","","0","0","1","0.1308867566","","false","170","0.2375021307","","main_expt","0.3100542845","","0.1308867566","","0.2213833812","","","","","","",""
"724","","bandit","246","602200","0.0-208.0-0.0","34603274","wem/bandit_single","AGFWV1U4CJXP5","gain","8","","74","J","1","","1","0","0","0.3083945368","","false","171","0.2965678991","","main_expt","0.3083945368","","0.1422271972","","0.1589997081","","","","","","",""
"420","","bandit","247","604385","0.0-209.0-0.0","34603274","wem/bandit_single","AGFWV1U4CJXP5","gain","8","","75","K","2","","0","0","1","0.1541925874","","false","172","0.2696718616","","main_expt","0.3929186772","","0.1541925874","","0.1669714507","","","","","","",""
"548","","bandit","248","606697","0.0-210.0-0.0","34603274","wem/bandit_single","AGFWV1U4CJXP5","gain","8","","76","L","3","","0","0","1","0.1699847696","","false","173","0.2576521005","","main_expt","0.4107736206","","0.1416394444","","0.1699847696","","","","","","",""
"148","","bandit","249","608609","0.0-211.0-0.0","34603274","wem/bandit_single","AGFWV1U4CJXP5","gain","8","","75","K","2","","0","0","1","0.1207830423","","false","174","0.2839516933","","main_expt","0.4267170337","","0.1207830423","","0.202136981","","","","","","",""
"776","","bandit","250","611146","0.0-212.0-0.0","34603274","wem/bandit_single","AGFWV1U4CJXP5","gain","8","","75","K","2","","0","0","1","0.1636312712","","false","175","0.2932452363","","main_expt","0.420504823","","0.1636312712","","0.1863880777","","","","","","",""
"153","","bandit","251","613061","0.0-213.0-0.0","34603274","wem/bandit_single","AGFWV1U4CJXP5","gain","8","","76","L","3","","0","0","1","0.1426909825","","false","176","0.3118313574","","main_expt","0.3956962169","","0.186569684","","0.1426909825","","","","","","",""
"211","","bandit","252","615037","0.0-214.0-0.0","34603274","wem/bandit_single","AGFWV1U4CJXP5","gain","8","","75","K","2","","0","0","1","0.1089038478","","false","177","0.3378695823","","main_expt","0.3834761318","","0.1089038478","","0.1335645184","","","","","","",""
"126","","bandit","253","616924","0.0-215.0-0.0","34603274","wem/bandit_single","AGFWV1U4CJXP5","gain","8","","75","K","2","","0","0","1","0.08465244813","","false","178","0.3234122319","","main_expt","0.4167112469","","0.08465244813","","0.09719791569","","","","","","",""
"114","","bandit","254","618799","0.0-216.0-0.0","34603274","wem/bandit_single","AGFWV1U4CJXP5","gain","8","","76","L","3","","0","0","1","0.07123289457","","false","179","0.3281528324","","main_expt","0.4370197561","","0.1015747644","","0.07123289457","","","","","","",""
"113","","bandit","255","620672","0.0-217.0-0.0","34603274","wem/bandit_single","AGFWV1U4CJXP5","gain","8","","76","L","3","","0","0","1","0.05555663239","","false","180","0.340497037","","main_expt","0.3776598584","","0.1277953302","","0.05555663239","","","","","","",""
"365","","bandit","256","622797","0.0-218.0-0.0","34603274","wem/bandit_single","AGFWV1U4CJXP5","gain","8","","75","K","2","","0","0","1","0.1854921141","","false","181","0.3007371283","","main_expt","0.3636519722","","0.1854921141","","0.04396828199","","","","","","",""
"284","","bandit","257","624843","0.0-219.0-0.0","34603274","wem/bandit_single","AGFWV1U4CJXP5","gain","8","","75","K","2","","0","0","1","0.2273529654","","false","182","0.3190136055","","main_expt","0.3246411676","","0.2273529654","","0.02691259782","","","","","","",""
"252","","bandit","258","626859","0.0-220.0-0.0","34603274","wem/bandit_single","AGFWV1U4CJXP5","gain","8","","75","K","2","","0","0","1","0.2600234541","","false","183","0.322323442","","main_expt","0.3187018958","","0.2600234541","","0.04807599522","","","","","","",""
"678","","bandit","259","629300","0.0-221.0-0.0","34603274","wem/bandit_single","AGFWV1U4CJXP5","gain","8","","74","J","1","","0","0","1","0.3497063737","","false","184","0.3086696071","","main_expt","0.3497063737","","0.2689652485","","0.05076165442","","","","","","",""
"440","","bandit","260","631500","0.0-222.0-0.0","34603274","wem/bandit_single","AGFWV1U4CJXP5","gain","8","","75","K","2","","0","0","1","0.2646203852","","false","185","0.3146814862","","main_expt","0.3334532315","","0.2646203852","","0.1128087831","","","","","","",""
"414","","bandit","261","633675","0.0-223.0-0.0","34603274","wem/bandit_single","AGFWV1U4CJXP5","gain","8","","75","K","2","","0","0","1","0.2038557162","","false","186","0.3353274036","","main_expt","0.3511592443","","0.2038557162","","0.1592260056","","","","","","",""
"487","","bandit","262","635919","0.0-224.0-0.0","34603274","wem/bandit_single","AGFWV1U4CJXP5","gain","8","","76","L","3","","0","0","1","0.2195828404","","false","187","0.331036234","","main_expt","0.3758503369","","0.2643634763","","0.2195828404","","","","","","",""
"1381","","bandit","263","639059","0.0-225.0-0.0","34603274","wem/bandit_single","AGFWV1U4CJXP5","gain","8","","75","K","2","","1","0","0","0.2137054787","","false","188","0.3061178756","","main_expt","0.3951098987","","0.2137054787","","0.214856838","","","","","","",""
"186","","bandit","264","641011","0.0-226.0-0.0","34603274","wem/bandit_single","AGFWV1U4CJXP5","gain","8","","75","K","2","","0","0","1","0.2349639762","","false","189","0.3455914038","","main_expt","0.3766733461","","0.2349639762","","0.2103369464","","","","","","",""
"3","","bandit","265","642779","0.0-227.0-0.0","34603274","wem/bandit_single","AGFWV1U4CJXP5","gain","8","","75","K","2","","1","0","0","0.2067261929","","false","190","0.3734842368","","main_expt","0.3974997784","","0.2067261929","","0.1932940482","","","","","","",""
"100","","bandit","266","644645","0.0-228.0-0.0","34603274","wem/bandit_single","AGFWV1U4CJXP5","gain","8","","75","K","2","","0","0","1","0.275245882","","false","191","0.3648323685","","main_expt","0.4174686418","","0.275245882","","0.2285646161","","","","","","",""
"490","","bandit","267","646900","0.0-229.0-0.0","34603274","wem/bandit_single","AGFWV1U4CJXP5","gain","8","","76","L","3","","0","0","1","0.2589031043","","false","192","0.3339781981","","main_expt","0.3963748123","","0.306220044","","0.2589031043","","","","","","",""
"243","","bandit","268","648903","0.0-230.0-0.0","34603274","wem/bandit_single","AGFWV1U4CJXP5","gain","8","","76","L","3","","1","0","0","0.2195537535","","false","193","0.3342714415","","main_expt","0.3921748604","","0.3035773814","","0.2195537535","","","","","","",""
"639","","bandit","269","651310","0.0-231.0-0.0","34603274","wem/bandit_single","AGFWV1U4CJXP5","gain","8","","72","H","0","img/none_selected.jpg","0","0","1","0.3241295504","","false","194","0.3241295504","","main_expt","0.3580841109","","0.2510827831","","0.2027550427","","","","","","",""
"150","","bandit","270","653224","0.0-232.0-0.0","34603274","wem/bandit_single","AGFWV1U4CJXP5","gain","8","","76","L","3","","0","0","1","0.1862287394","","false","195","0.3116310431","","main_expt","0.3508589263","","0.2455858858","","0.1862287394","","","","","","",""
"323","","bandit","271","655306","0.0-233.0-0.0","34603274","wem/bandit_single","AGFWV1U4CJXP5","gain","8","","75","K","2","","0","0","1","0.2514601016","","false","196","0.3757707762","","main_expt","0.3580593089","","0.2514601016","","0.1892299528","","","","","","",""
"183","","bandit","272","657252","0.0-234.0-0.0","34603274","wem/bandit_single","AGFWV1U4CJXP5","gain","8","","74","J","1","","0","0","1","0.325214339","","false","197","0.3510132286","","main_expt","0.325214339","","0.2735270373","","0.2217707201","","","","","","",""
"274","","bandit","273","659292","0.0-235.0-0.0","34603274","wem/bandit_single","AGFWV1U4CJXP5","gain","8","","75","K","2","","1","0","0","0.1856542716","","false","198","0.3775824693","","main_expt","0.3214736551","","0.1856542716","","0.2622368769","","","","","","",""
"862","","bandit","274","661916","0.0-236.0-0.0","34603274","wem/bandit_single","AGFWV1U4CJXP5","gain","8","","75","K","2","","0","0","1","0.1439471636","","false","199","0.3591355879","","main_expt","0.3134841864","","0.1439471636","","0.2566369559","","","","","","",""
"3467","","bandit","275","667141","0.0-237.0-0.0","34603274","wem/bandit_single","AGFWV1U4CJXP5","gain","8","","75","K","2","","0","0","1","0.1920673188","","false","200","0.4329566742","","main_expt","0.3484934822","","0.1920673188","","0.2405232655","","","","","","",""
"47","","bandit","276","668948","0.0-238.0-0.0","34603274","wem/bandit_single","AGFWV1U4CJXP5","gain","8","","75","K","2","","0","0","1","0.2139557707","","false","201","0.4316294991","","main_expt","0.3509587021","","0.2139557707","","0.191632201","","","","","","",""
"405","","bandit","277","671117","0.0-239.0-0.0","34603274","wem/bandit_single","AGFWV1U4CJXP5","gain","8","","76","L","3","","0","0","1","0.1860277461","","false","202","0.4446061493","","main_expt","0.3472711197","","0.2411081829","","0.1860277461","","","","","","",""
"426","","bandit","278","673307","0.0-240.0-0.0","34603274","wem/bandit_single","AGFWV1U4CJXP5","gain","8","","75","K","2","","0","0","1","0.2229679022","","false","203","0.4350640844","","main_expt","0.3501901851","","0.2229679022","","0.1959395152","","","","","","",""
"86","","bandit","279","675157","0.0-241.0-0.0","34603274","wem/bandit_single","AGFWV1U4CJXP5","gain","8","","74","J","1","","0","0","1","0.4021923856","","false","204","0.4511953558","","main_expt","0.4021923856","","0.2094072873","","0.1909798814","","","","","","",""
"209","","bandit","280","677129","0.0-242.0-0.0","34603274","wem/bandit_single","AGFWV1U4CJXP5","gain","8","","75","K","2","","0","0","1","0.2061243076","","false","205","0.4444608137","","main_expt","0.4103624794","","0.2061243076","","0.1952925147","","","","","","",""
"108","","bandit","281","679000","0.0-243.0-0.0","34603274","wem/bandit_single","AGFWV1U4CJXP5","gain","8","","75","K","2","","1","0","0","0.1830656651","","false","206","0.4174874576","","main_expt","0.3884407208","","0.1830656651","","0.2333477628","","","","","","",""
"273","","bandit","282","681040","0.0-244.0-0.0","34603274","wem/bandit_single","AGFWV1U4CJXP5","gain","8","","75","K","2","","0","0","1","0.1806213093","","false","207","0.4473837798","","main_expt","0.4205181933","","0.1806213093","","0.2366383375","","","","","","",""
"255","","bandit","283","683063","0.0-245.0-0.0","34603274","wem/bandit_single","AGFWV1U4CJXP5","gain","8","","76","L","3","","1","0","0","0.2588239296","","false","208","0.4423282801","","main_expt","0.39705837","","0.1547428587","","0.2588239296","","","","","","",""
"458","","bandit","284","685288","0.0-246.0-0.0","34603274","wem/bandit_single","AGFWV1U4CJXP5","gain","8","","75","K","2","","1","0","0","0.1633509089","","false","209","0.4495798672","","main_expt","0.3763678409","","0.1633509089","","0.2109346514","","","","","","",""
"341","","bandit","285","687395","0.0-247.0-0.0","34603274","wem/bandit_single","AGFWV1U4CJXP5","gain","8","","76","L","3","","1","0","0","0.2352346414","","false","210","0.4604116181","","main_expt","0.329669689","","0.194224154","","0.2352346414","","","","","","",""
"130","","bandit","286","689288","0.0-248.0-0.0","34603274","wem/bandit_single","AGFWV1U4CJXP5","gain","8","","75","K","2","","1","0","0","0.1428536625","","false","211","0.4515605979","","main_expt","0.3234151823","","0.1428536625","","0.1919095989","","","","","","",""
"81","","bandit","287","691127","0.0-249.0-0.0","34603274","wem/bandit_single","AGFWV1U4CJXP5","gain","8","","75","K","2","","0","0","1","0.1876263767","","false","212","0.3796359761","","main_expt","0.346289724","","0.1876263767","","0.2511997366","","","","","","",""
"138","","bandit","288","693024","0.0-250.0-0.0","34603274","wem/bandit_single","AGFWV1U4CJXP5","gain","8","","74","J","1","","0","0","1","0.3579646626","","false","213","0.4098311692","","main_expt","0.3579646626","","0.1767426991","","0.2247602752","","","","","","",""
"109","","bandit","289","694901","0.0-251.0-0.0","34603274","wem/bandit_single","AGFWV1U4CJXP5","gain","8","","75","K","2","","0","0","1","0.1997003326","","false","214","0.3758430492","","main_expt","0.3871938136","","0.1997003326","","0.2078026042","","","","","","",""
"193","","bandit","290","696862","0.0-252.0-0.0","34603274","wem/bandit_single","AGFWV1U4CJXP5","gain","8","","76","L","3","","0","0","1","0.2000367883","","false","215","0.3391734167","","main_expt","0.4072701047","","0.1753208105","","0.2000367883","","","","","","",""
"96","","bandit","291","698725","0.0-253.0-0.0","34603274","wem/bandit_single","AGFWV1U4CJXP5","gain","8","","72","H","0","img/none_selected.jpg","1","0","0","0.3292806148","","false","216","0.3292806148","","main_expt","0.4139997029","","0.1526073348","","0.1850279066","","","","","","",""
"216","","bandit","292","700710","0.0-254.0-0.0","34603274","wem/bandit_single","AGFWV1U4CJXP5","gain","8","","76","L","3","","0","0","1","0.1862329662","","false","217","0.3672552775","","main_expt","0.4058129166","","0.1885901152","","0.1862329662","","","","","","",""
"710","","bandit","293","703187","0.0-255.0-0.0","34603274","wem/bandit_single","AGFWV1U4CJXP5","gain","8","","76","L","3","","0","0","1","0.2076422808","","false","218","0.3540988412","","main_expt","0.3831507141","","0.2068683321","","0.2076422808","","","","","","",""
"355","","bandit","294","705301","0.0-256.0-0.0","34603274","wem/bandit_single","AGFWV1U4CJXP5","gain","8","","76","L","3","","0","0","1","0.1693095695","","false","219","0.3705907093","","main_expt","0.3975704748","","0.1830460615","","0.1693095695","","","","","","",""
"142","","bandit","295","707210","0.0-257.0-0.0","34603274","wem/bandit_single","AGFWV1U4CJXP5","gain","8","","75","K","2","","1","0","0","0.1510464272","","false","220","0.4071767116","","main_expt","0.420208779","","0.1510464272","","0.1643321708","","","","","","",""
"187","","bandit","296","709164","0.0-258.0-0.0","34603274","wem/bandit_single","AGFWV1U4CJXP5","gain","8","","75","K","2","","0","0","1","0.1195154075","","false","221","0.4000591573","","main_expt","0.4277126104","","0.1195154075","","0.1755642267","","","","","","",""
"72","","bandit","297","711005","0.0-259.0-0.0","34603274","wem/bandit_single","AGFWV1U4CJXP5","gain","8","","74","J","1","","0","0","1","0.4098861052","","false","222","0.4257242725","","main_expt","0.4098861052","","0.1322821073","","0.2047466037","","","","","","",""
"255","","bandit","298","713027","0.0-260.0-0.0","34603274","wem/bandit_single","AGFWV1U4CJXP5","gain","8","","76","L","3","","0","0","1","0.1261696039","","false","223","0.4084538547","","main_expt","0.3865692481","","0.1634864242","","0.1261696039","","","","","","",""
"318","","bandit","299","715108","0.0-261.0-0.0","34603274","wem/bandit_single","AGFWV1U4CJXP5","gain","8","","75","K","2","","0","0","1","0.1927622759","","false","224","0.3756333804","","main_expt","0.3942994903","","0.1927622759","","0.1671605087","","","","","","",""
"345","","bandit","300","717211","0.0-262.0-0.0","34603274","wem/bandit_single","AGFWV1U4CJXP5","gain","8","","72","H","0","img/none_selected.jpg","0","0","1","0.3977261909","","false","225","0.3977261909","","main_expt","0.3444994861","","0.1949177646","","0.1498322393","","","","","","",""
"14","","bandit","301","718986","0.0-263.0-0.0","34603274","wem/bandit_single","AGFWV1U4CJXP5","gain","8","","74","J","1","","0","0","1","0.4042132592","","false","226","0.3876796808","","main_expt","0.4042132592","","0.1675301724","","0.106170416","","","","","","",""
"65","","bandit","302","720816","0.0-264.0-0.0","34603274","wem/bandit_single","AGFWV1U4CJXP5","gain","8","","76","L","3","","0","0","1","0.0897934899","","false","227","0.3213858912","","main_expt","0.3906229402","","0.163375113","","0.0897934899","","","","","","",""
"49","","bandit","303","722628","0.0-265.0-0.0","34603274","wem/bandit_single","AGFWV1U4CJXP5","gain","8","","75","K","2","","0","0","1","0.195474145","","false","228","0.3331191915","","main_expt","0.3417164876","","0.195474145","","0.09443294629","","","","","","",""
"406","","bandit","304","724796","0.0-266.0-0.0","34603274","wem/bandit_single","AGFWV1U4CJXP5","gain","8","","75","K","2","","0","0","1","0.2410354958","","false","229","0.308496805","","main_expt","0.3222205624","","0.2410354958","","0.0848669953","","","","","","",""
"471","","bandit","305","727038","0.0-267.0-0.0","34603274","wem/bandit_single","AGFWV1U4CJXP5","gain","8","","74","J","1","","0","0","1","0.3442672336","","false","230","0.2734654059","","main_expt","0.3442672336","","0.2567648542","","0.0701458292","","","","","","",""
"10","","bandit","306","728815","0.0-268.0-0.0","34603274","wem/bandit_single","AGFWV1U4CJXP5","gain","8","","76","L","3","","0","0","1","0.1251282835","","false","231","0.292212981","","main_expt","0.3164459362","","0.2304241664","","0.1251282835","","","","","","",""
"26","","bandit","307","730600","0.0-269.0-0.0","34603274","wem/bandit_single","AGFWV1U4CJXP5","gain","8","","75","K","2","","1","0","0","0.2264886823","","false","232","0.2516656152","","main_expt","0.3396906789","","0.2264886823","","0.1124912266","","","","","","",""
"83","","bandit","308","732453","0.0-270.0-0.0","34603274","wem/bandit_single","AGFWV1U4CJXP5","gain","8","","75","K","2","","0","0","1","0.1892320941","","false","233","0.2563877418","","main_expt","0.3008540409","","0.1892320941","","0.1535494164","","","","","","",""
"278","","bandit","309","734491","0.0-271.0-0.0","34603274","wem/bandit_single","AGFWV1U4CJXP5","gain","8","","72","H","0","img/none_selected.jpg","0","0","1","0.283882603","","false","234","0.283882603","","main_expt","0.2767988229","","0.1556895318","","0.1389628654","","","","","","",""
"55","","bandit","310","736308","0.0-272.0-0.0","34603274","wem/bandit_single","AGFWV1U4CJXP5","gain","8","","75","K","2","","0","0","1","0.1976044491","","false","235","0.2758852766","","main_expt","0.2507781603","","0.1976044491","","0.1680793718","","","","","","",""
"187","","bandit","311","738256","0.0-273.0-0.0","34603274","wem/bandit_single","AGFWV1U4CJXP5","gain","8","","76","L","3","","0","0","1","0.2037097706","","false","236","0.2434452049","","main_expt","0.3091667607","","0.1468950029","","0.2037097706","","","","","","",""
"413","","bandit","312","740432","0.0-274.0-0.0","34603274","wem/bandit_single","AGFWV1U4CJXP5","gain","8","","75","K","2","","0","0","1","0.1365515699","","false","237","0.2405517979","","main_expt","0.2883211118","","0.1365515699","","0.1897176974","","","","","","",""
"225","","bandit","313","742425","0.0-275.0-0.0","34603274","wem/bandit_single","AGFWV1U4CJXP5","gain","8","","75","K","2","","0","0","1","0.1527077476","","false","238","0.2260832521","","main_expt","0.2756444762","","0.1527077476","","0.2317710791","","","","","","",""
"822","","bandit","314","745266","0.0-276.0-0.0","34603274","wem/bandit_single","AGFWV1U4CJXP5","gain","8","","75","K","2","","0","0","1","0.1315224722","","false","239","0.2061693665","","main_expt","0.3061346513","","0.1315224722","","0.2206906913","","","","","","",""
"3184","","bandit","315","750952","0.0-277.0-0.0","34603274","wem/bandit_single","AGFWV1U4CJXP5","gain","8","","75","K","2","","0","0","1","0.1398926963","","false","240","0.2203195159","","main_expt","0.3274201615","","0.1398926963","","0.2155283076","","","","","","",""
"117","","bandit","316","752836","0.0-278.0-0.0","34603274","wem/bandit_single","AGFWV1U4CJXP5","gain","8","","74","J","1","","0","0","1","0.2838770346","","false","241","0.2230507071","","main_expt","0.2838770346","","0.1698873683","","0.2386015387","","","","","","",""
"451","","bandit","317","755055","0.0-279.0-0.0","34603274","wem/bandit_single","AGFWV1U4CJXP5","gain","8","","75","K","2","","0","0","1","0.1693915972","","false","242","0.1834748297","","main_expt","0.261873528","","0.1693915972","","0.2178179326","","","","","","",""
"240","","bandit","318","757065","0.0-280.0-0.0","34603274","wem/bandit_single","AGFWV1U4CJXP5","gain","8","","74","J","1","","0","0","1","0.2346518895","","false","243","0.1450766806","","main_expt","0.2346518895","","0.2011280514","","0.2209910316","","","","","","",""
"399","","bandit","319","759233","0.0-281.0-0.0","34603274","wem/bandit_single","AGFWV1U4CJXP5","gain","8","","75","K","2","","0","0","1","0.283074141","","false","244","0.1407015906","","main_expt","0.2253303202","","0.283074141","","0.2202366047","","","","","","",""
"268","","bandit","320","761261","0.0-282.0-0.0","34603274","wem/bandit_single","AGFWV1U4CJXP5","gain","8","","76","L","3","","1","0","0","0.2369425358","","false","245","0.1386250556","","main_expt","0.2379184421","","0.2960363525","","0.2369425358","","","","","","",""
"122","","bandit","321","763148","0.0-283.0-0.0","34603274","wem/bandit_single","AGFWV1U4CJXP5","gain","8","","76","L","3","","0","0","1","0.2437218948","","false","246","0.1561911267","","main_expt","0.1704118475","","0.2985154159","","0.2437218948","","","","","","",""
"1046","","bandit","322","765955","0.0-284.0-0.0","34603274","wem/bandit_single","AGFWV1U4CJXP5","gain","8","","74","J","1","","1","0","0","0.1520093858","","false","247","0.251644506","","main_expt","0.1520093858","","0.3159682012","","0.2573167276","","","","","","",""
"197","","bandit","323","767912","0.0-285.0-0.0","34603274","wem/bandit_single","AGFWV1U4CJXP5","gain","8","","75","K","2","","0","0","1","0.2937445921","","false","248","0.2541276422","","main_expt","0.1246217458","","0.2937445921","","0.255349996","","","","","","",""
"211","","bandit","324","769891","0.0-286.0-0.0","34603274","wem/bandit_single","AGFWV1U4CJXP5","gain","8","","76","L","3","","0","0","1","0.2866877344","","false","249","0.1924412691","","main_expt","0.1525969556","","0.2794909668","","0.2866877344","","","","","","",""
"182","","bandit","325","771835","0.0-287.0-0.0","34603274","wem/bandit_single","AGFWV1U4CJXP5","gain","8","","74","J","1","","0","0","1","0.1500628479","","false","250","0.1397358892","","main_expt","0.1500628479","","0.2327966623","","0.2330780591","","","","","","",""
"5","","bandit","326","773605","0.0-288.0-0.0","34603274","wem/bandit_single","AGFWV1U4CJXP5","gain","8","","76","L","3","","0","0","1","0.2580196572","","false","251","0.1362233376","","main_expt","0.1141396938","","0.2595602212","","0.2580196572","","","","","","",""
"667","","bandit","327","776036","0.0-289.0-0.0","34603274","wem/bandit_single","AGFWV1U4CJXP5","gain","8","","72","H","0","img/none_selected.jpg","0","0","1","0.1796418735","","false","252","0.1796418735","","main_expt","0.1476089834","","0.2715763176","","0.2003146692","","","","","","",""
"400","","bandit","328","778202","0.0-290.0-0.0","34603274","wem/bandit_single","AGFWV1U4CJXP5","gain","8","","75","K","2","","0","0","1","0.3146654463","","false","253","0.1833608075","","main_expt","0.175183139","","0.3146654463","","0.1651092288","","","","","","",""
"907","","bandit","329","780874","0.0-291.0-0.0","34603274","wem/bandit_single","AGFWV1U4CJXP5","gain","8","","75","K","2","","0","0","1","0.3037610447","","false","254","0.1983034343","","main_expt","0.1916323123","","0.3037610447","","0.1413675546","","","","","","",""
"370","","bandit","330","783007","0.0-292.0-0.0","34603274","wem/bandit_single","AGFWV1U4CJXP5","gain","8","","75","K","2","","0","0","1","0.287825992","","false","255","0.2286544637","","main_expt","0.1888714334","","0.287825992","","0.1801919014","","","","","","",""
"1","","bandit","331","784772","0.0-293.0-0.0","34603274","wem/bandit_single","AGFWV1U4CJXP5","gain","8","","75","K","2","","1","0","0","0.2673332977","","false","256","0.2502735072","","main_expt","0.2338577058","","0.2673332977","","0.1883387327","","","","","","",""
"152","","bandit","332","786688","0.0-294.0-0.0","34603274","wem/bandit_single","AGFWV1U4CJXP5","gain","8","","76","L","3","","1","0","0","0.1757220287","","false","257","0.2657937058","","main_expt","0.2235288738","","0.2867614738","","0.1757220287","","","","","","",""
"142","","bandit","333","788590","0.0-295.0-0.0","34603274","wem/bandit_single","AGFWV1U4CJXP5","gain","8","","74","J","1","","1","0","0","0.2256298632","","false","258","0.2326681124","","main_expt","0.2256298632","","0.2432485896","","0.1817694486","","","","","","",""
"237","","bandit","334","790594","0.0-296.0-0.0","34603274","wem/bandit_single","AGFWV1U4CJXP5","gain","8","","75","K","2","","0","0","1","0.2433124215","","false","259","0.2128848171","","main_expt","0.229367941","","0.2433124215","","0.1938363466","","","","","","",""
"581","","bandit","335","792936","0.0-297.0-0.0","34603274","wem/bandit_single","AGFWV1U4CJXP5","gain","8","","72","H","0","img/none_selected.jpg","0","0","1","0.261065439","","false","260","0.261065439","","main_expt","0.2585863351","","0.202057327","","0.2129025296","","","","","","",""
"592","","bandit","336","795289","0.0-298.0-0.0","34603274","wem/bandit_single","AGFWV1U4CJXP5","gain","8","","75","K","2","","0","0","1","0.163702413","","false","261","0.2693274395","","main_expt","0.2748644017","","0.163702413","","0.1931457884","","","","","","",""
"1191","","bandit","337","798249","0.0-299.0-0.0","34603274","wem/bandit_single","AGFWV1U4CJXP5","gain","8","","75","K","2","","0","0","1","0.1317961998","","false","262","0.3386888623","","main_expt","0.288340978","","0.1317961998","","0.183306516","","","","","","",""
"36","","bandit","338","800051","0.0-300.0-0.0","34603274","wem/bandit_single","AGFWV1U4CJXP5","gain","8","","75","K","2","","0","0","1","0.09680570831","","false","263","0.3645909238","","main_expt","0.3151532186","","0.09680570831","","0.1293037787","","","","","","",""
"107","","bandit","339","801926","0.0-301.0-0.0","34603274","wem/bandit_single","AGFWV1U4CJXP5","gain","8","","76","L","3","","0","0","1","0.1386072774","","false","264","0.3437159196","","main_expt","0.2931268787","","0.08846786375","","0.1386072774","","","","","","",""
"1450","","bandit","340","805138","0.0-302.0-0.0","34603274","wem/bandit_single","AGFWV1U4CJXP5","gain","8","","75","K","2","","0","0","1","0.08556864258","","false","265","0.3644358952","","main_expt","0.3131275506","","0.08556864258","","0.1511252148","","","","","","",""
"244","","bandit","341","807145","0.0-303.0-0.0","34603274","wem/bandit_single","AGFWV1U4CJXP5","gain","8","","76","L","3","","0","0","1","0.2186772706","","false","266","0.3904852039","","main_expt","0.336523231","","0.0706515048","","0.2186772706","","","","","","",""
"30","","bandit","342","808939","0.0-304.0-0.0","34603274","wem/bandit_single","AGFWV1U4CJXP5","gain","8","","74","J","1","","0","0","1","0.2850369317","","false","267","0.3896615427","","main_expt","0.2850369317","","0.0747424838","","0.2625163009","","","","","","",""
"233","","bandit","343","810935","0.0-305.0-0.0","34603274","wem/bandit_single","AGFWV1U4CJXP5","gain","8","","75","K","2","","0","0","1","0.112617448","","false","268","0.4017278216","","main_expt","0.3163307124","","0.112617448","","0.3140442454","","","","","","",""
"1870","","bandit","344","814573","0.0-306.0-0.0","34603274","wem/bandit_single","AGFWV1U4CJXP5","gain","8","","75","K","2","","0","0","1","0.1406639307","","false","269","0.370996795","","main_expt","0.2956683275","","0.1406639307","","0.3069084364","","","","","","",""
"528","","bandit","345","816869","0.0-307.0-0.0","34603274","wem/bandit_single","AGFWV1U4CJXP5","gain","8","","75","K","2","","0","0","1","0.1398727949","","false","270","0.4255483526","","main_expt","0.3574655381","","0.1398727949","","0.2814908846","","","","","","",""
"656","","bandit","346","819288","0.0-308.0-0.0","34603274","wem/bandit_single","AGFWV1U4CJXP5","gain","8","","75","K","2","","0","0","1","0.1430486157","","false","271","0.3948114384","","main_expt","0.3969117111","","0.1430486157","","0.3060786573","","","","","","",""
"380","","bandit","347","821432","0.0-309.0-0.0","34603274","wem/bandit_single","AGFWV1U4CJXP5","gain","8","","75","K","2","","0","0","1","0.1872928851","","false","272","0.3713372483","","main_expt","0.3938657786","","0.1872928851","","0.3555003363","","","","","","",""
"333","","bandit","348","823525","0.0-310.0-0.0","34603274","wem/bandit_single","AGFWV1U4CJXP5","gain","8","","75","K","2","","0","0","1","0.1769074474","","false","273","0.3650537767","","main_expt","0.3903330825","","0.1769074474","","0.3980140183","","","","","","",""
"354","","bandit","349","825638","0.0-311.0-0.0","34603274","wem/bandit_single","AGFWV1U4CJXP5","gain","8","","72","H","0","img/none_selected.jpg","0","0","1","0.3414565802","","false","274","0.3414565802","","main_expt","0.4236793781","","0.1820324592","","0.4077181827","","","","","","",""
"217","","bandit","350","827618","0.0-312.0-0.0","34603274","wem/bandit_single","AGFWV1U4CJXP5","gain","8","","72","H","0","img/none_selected.jpg","0","0","1","0.3027622838","","false","275","0.3027622838","","main_expt","0.4320968281","","0.1923133529","","0.4142369189","","","","","","",""
"512","","bandit","351","829900","0.0-313.0-0.0","34603274","wem/bandit_single","AGFWV1U4CJXP5","gain","8","","76","L","3","","0","0","1","0.4250096067","","false","276","0.3125082267","","main_expt","0.4017915655","","0.1917589367","","0.4250096067","","","","","","",""
"71","","bandit","352","831733","0.0-314.0-0.0","34603274","wem/bandit_single","AGFWV1U4CJXP5","gain","8","","76","L","3","","1","0","0","0.4378988515","","false","277","0.348890663","","main_expt","0.3548215972","","0.1667093518","","0.4378988515","","","","","","",""
"193","","bandit","353","833689","0.0-315.0-0.0","34603274","wem/bandit_single","AGFWV1U4CJXP5","gain","8","","75","K","2","","1","0","0","0.1695638059","","false","278","0.3341457036","","main_expt","0.3683165275","","0.1695638059","","0.4323676568","","","","","","",""
"668","","bandit","354","836126","0.0-316.0-0.0","34603274","wem/bandit_single","AGFWV1U4CJXP5","gain","8","","75","K","2","","0","0","1","0.1696283439","","false","279","0.2341959149","","main_expt","0.3750953637","","0.1696283439","","0.4391545144","","","","","","",""
"484","","bandit","355","838374","0.0-317.0-0.0","34603274","wem/bandit_single","AGFWV1U4CJXP5","gain","8","","75","K","2","","0","0","1","0.09227733008","","false","280","0.1839622844","","main_expt","0.3557095414","","0.09227733008","","0.4467207207","","","","","","",""
"783","","bandit","356","840923","0.0-318.0-0.0","34603274","wem/bandit_single","AGFWV1U4CJXP5","gain","8","","75","K","2","","0","0","1","0.08059064446","","false","281","0.1303375237","","main_expt","0.374333358","","0.08059064446","","0.3922333676","","","","","","",""
"176","","bandit","357","842863","0.0-319.0-0.0","34603274","wem/bandit_single","AGFWV1U4CJXP5","gain","8","","75","K","2","","0","0","1","0.06236597977","","false","282","0.07449941097","","main_expt","0.3786855632","","0.06236597977","","0.4243132136","","","","","","",""
"1029","","bandit","358","845656","0.0-320.0-0.0","34603274","wem/bandit_single","AGFWV1U4CJXP5","gain","8","","76","L","3","","1","0","0","0.4187362854","","false","283","0.08783129911","","main_expt","0.437514669","","0.07782340279","","0.4187362854","","","","","","",""
"352","","bandit","359","847769","0.0-321.0-0.0","34603274","wem/bandit_single","AGFWV1U4CJXP5","gain","8","","76","L","3","","0","0","1","0.422543139","","false","284","0.08228152097","","main_expt","0.410198323","","0.07564660971","","0.422543139","","","","","","",""
"517","","bandit","360","850058","0.0-322.0-0.0","34603274","wem/bandit_single","AGFWV1U4CJXP5","gain","8","","74","J","1","","0","0","1","0.3777139522","","false","285","0.09246744832","","main_expt","0.3777139522","","0.08237135124","","0.434302279","","","","","","",""
"198","","bandit","361","852028","0.0-323.0-0.0","34603274","wem/bandit_single","AGFWV1U4CJXP5","gain","8","","75","K","2","","0","0","1","0.05670298638","","false","286","0.08394792075","","main_expt","0.3841171753","","0.05670298638","","0.4094725029","","","","","","",""
"320","","bandit","362","854116","0.0-324.0-0.0","34603274","wem/bandit_single","AGFWV1U4CJXP5","gain","8","","75","K","2","","0","0","1","0.06647452785","","false","287","0.1021913287","","main_expt","0.3641862554","","0.06647452785","","0.3778080042","","","","","","",""
"469","","bandit","363","856350","0.0-325.0-0.0","34603274","wem/bandit_single","AGFWV1U4CJXP5","gain","8","","75","K","2","","0","0","1","0.04859701272","","false","288","0.1188664616","","main_expt","0.3192590496","","0.04859701272","","0.3671495563","","","","","","",""
"167","","bandit","364","858282","0.0-326.0-0.0","34603274","wem/bandit_single","AGFWV1U4CJXP5","gain","8","","74","J","1","","1","0","0","0.3384054944","","false","289","0.1050513492","","main_expt","0.3384054944","","0.04246321062","","0.3622055636","","","","","","",""
"375","","bandit","365","860418","0.0-327.0-0.0","34603274","wem/bandit_single","AGFWV1U4CJXP5","gain","8","","75","K","2","","1","0","0","0.08307379137","","false","290","0.1304324694","","main_expt","0.329366118","","0.08307379137","","0.3616647964","","","","","","",""
"200","","bandit","366","862389","0.0-328.0-0.0","34603274","wem/bandit_single","AGFWV1U4CJXP5","gain","8","","75","K","2","","0","0","1","0.09664054691","","false","291","0.09707891459","","main_expt","0.38061917","","0.09664054691","","0.3521760992","","","","","","",""
"269","","bandit","367","864427","0.0-329.0-0.0","34603274","wem/bandit_single","AGFWV1U4CJXP5","gain","8","","74","J","1","","1","0","0","0.3703624541","","false","292","0.1166693976","","main_expt","0.3703624541","","0.1089287446","","0.3062989856","","","","","","",""
"553","","bandit","368","866748","0.0-330.0-0.0","34603274","wem/bandit_single","AGFWV1U4CJXP5","gain","8","","75","K","2","","0","0","1","0.1426967363","","false","293","0.1448282665","","main_expt","0.3554666564","","0.1426967363","","0.2594623792","","","","","","",""
"179","","bandit","369","868693","0.0-331.0-0.0","34603274","wem/bandit_single","AGFWV1U4CJXP5","gain","8","","76","L","3","","0","0","1","0.2666401727","","false","294","0.1486412875","","main_expt","0.3976604504","","0.08295656842","","0.2666401727","","","","","","",""
"106","","bandit","370","870562","0.0-332.0-0.0","34603274","wem/bandit_single","AGFWV1U4CJXP5","gain","8","","74","J","1","","0","0","1","0.3567340825","","false","295","0.1266024918","","main_expt","0.3567340825","","0.07441347029","","0.2160621863","","","","","","",""
"245","","bandit","371","872573","0.0-333.0-0.0","34603274","wem/bandit_single","AGFWV1U4CJXP5","gain","8","","76","L","3","","0","0","1","0.1924669582","","false","296","0.1499702932","","main_expt","0.3802278382","","0.08167080543","","0.1924669582","","","","","","",""
"748","","bandit","372","875090","0.0-334.0-0.0","34603274","wem/bandit_single","AGFWV1U4CJXP5","gain","8","","75","K","2","","1","0","0","0.06721412472","","false","297","0.1124444021","","main_expt","0.3764104085","","0.06721412472","","0.2572135825","","","","","","",""
"233","","bandit","373","877090","0.0-335.0-0.0","34603274","wem/bandit_single","AGFWV1U4CJXP5","gain","8","","76","L","3","","0","0","1","0.2660288188","","false","298","0.122133656","","main_expt","0.3801851674","","0.1106754059","","0.2660288188","","","","","","",""
"107","","bandit","374","878974","0.0-336.0-0.0","34603274","wem/bandit_single","AGFWV1U4CJXP5","gain","8","","75","K","2","","0","0","1","0.146580741","","false","299","0.1064281731","","main_expt","0.37372938","","0.146580741","","0.2708303459","","","","","","",""
"413","","bandit","375","881150","0.0-337.0-0.0","34603274","wem/bandit_single","AGFWV1U4CJXP5","gain","8","","74","J","1","","0","0","1","0.3709854059","","false","300","0.125842667","","main_expt","0.3709854059","","0.1256846985","","0.1994240472","","","","","","",""
"556","","bandit","376","883471","0.0-338.0-0.0","34603274","wem/bandit_single","AGFWV1U4CJXP5","gain","8","","75","K","2","","0","0","1","0.1336853102","","false","301","0.1285904212","","main_expt","0.3880870626","","0.1336853102","","0.1651355876","","","","","","",""
"591","","bandit","377","885825","0.0-339.0-0.0","34603274","wem/bandit_single","AGFWV1U4CJXP5","gain","8","","75","K","2","","0","0","1","0.09031246233","","false","302","0.114934442","","main_expt","0.3724002202","","0.09031246233","","0.1759020612","","","","","","",""
"460","","bandit","378","888057","0.0-340.0-0.0","34603274","wem/bandit_single","AGFWV1U4CJXP5","gain","8","","74","J","1","","0","0","1","0.3936455326","","false","303","0.1709921294","","main_expt","0.3936455326","","0.1154217962","","0.1492525119","","","","","","",""
"192","","bandit","379","890022","0.0-341.0-0.0","34603274","wem/bandit_single","AGFWV1U4CJXP5","gain","8","","75","K","2","","0","0","1","0.101962042","","false","304","0.2067215958","","main_expt","0.4226011603","","0.101962042","","0.1752387259","","","","","","",""
