"rt","responses","trial_type","trial_index","time_elapsed","internal_node_id","subjID","study","MID","cond","drift","key_press","respCharCode","respKey","respChoiceNum","respChoice","gems","bombs","no_reward","GemPrChosen","BombPrChosen","practice","trial_counter","WinPr_0","LosePr_0","trial_label","WinPr_1","LosePr_1","WinPr_2","LosePr_2","WinPr_3","LosePr_3","Q0","Q1","Q2","gender","age","ethnicity"
"20188","{""Q0"":""AFUX7IUQOE0NA""}","survey-text","0","20197","0.0-0.0","35560085","wem/bandit_single","AFUX7IUQOE0NA","pain","5","","","","","","","","","","","","","","","","","","","","","","","","","","",""
"1776","","text","1","22977","0.0-1.0","35560085","wem/bandit_single","AFUX7IUQOE0NA","pain","5","32","","","","","","","","","","","","","","","","","","","","","","","","","",""
"9190","","text","2","32171","0.0-2.0","35560085","wem/bandit_single","AFUX7IUQOE0NA","pain","5","32","","","","","","","","","","","","","","","","","","","","","","","","","",""
"30662","","text","3","62835","0.0-3.0","35560085","wem/bandit_single","AFUX7IUQOE0NA","pain","5","32","","","","","","","","","","","","","","","","","","","","","","","","","",""
"12614","","text","4","75450","0.0-4.0","35560085","wem/bandit_single","AFUX7IUQOE0NA","pain","5","32","","","","","","","","","","","","","","","","","","","","","","","","","",""
"16566","","text","5","92018","0.0-5.0","35560085","wem/bandit_single","AFUX7IUQOE0NA","pain","5","32","","","","","","","","","","","","","","","","","","","","","","","","","",""
"6924","","text","6","98943","0.0-6.0","35560085","wem/bandit_single","AFUX7IUQOE0NA","pain","5","32","","","","","","","","","","","","","","","","","","","","","","","","","",""
"5567","","text","7","104512","0.0-7.0","35560085","wem/bandit_single","AFUX7IUQOE0NA","pain","5","32","","","","","","","","","","","","","","","","","","","","","","","","","",""
"6031","","text","8","110544","0.0-8.0","35560085","wem/bandit_single","AFUX7IUQOE0NA","pain","5","32","","","","","","","","","","","","","","","","","","","","","","","","","",""
"5353","","text","9","115897","0.0-9.0","35560085","wem/bandit_single","AFUX7IUQOE0NA","pain","5","32","","","","","","","","","","","","","","","","","","","","","","","","","",""
"9453","","text","10","125351","0.0-10.0","35560085","wem/bandit_single","AFUX7IUQOE0NA","pain","5","32","","","","","","","","","","","","","","","","","","","","","","","","","",""
"5718","","text","11","131071","0.0-11.0","35560085","wem/bandit_single","AFUX7IUQOE0NA","pain","5","32","","","","","","","","","","","","","","","","","","","","","","","","","",""
"1250","","bandit","12","133831","0.0-12.0-0.0","35560085","wem/bandit_single","AFUX7IUQOE0NA","pain","5","","74","J","0","img/none_selected_demo.jpg","0","0","1","0","0","true","0","0","0","","","","","","","","","","","","",""
"674","","bandit","13","136262","0.0-13.0-0.0","35560085","wem/bandit_single","AFUX7IUQOE0NA","pain","5","","75","K","0","img/none_selected_demo.jpg","0","0","1","0","0","true","0","0","0","","","","","","","","","","","","",""
"4439","","text","14","140954","0.0-14.0","35560085","wem/bandit_single","AFUX7IUQOE0NA","pain","5","32","","","","","","","","","","","","","","","","","","","","","","","","","",""
"1676","","text","15","142631","0.0-15.0","35560085","wem/bandit_single","AFUX7IUQOE0NA","pain","5","32","","","","","","","","","","","","","","","","","","","","","","","","","",""
"5358","","text","16","147991","0.0-16.0","35560085","wem/bandit_single","AFUX7IUQOE0NA","pain","5","32","","","","","","","","","","","","","","","","","","","","","","","","","",""
"6986","","text","17","154978","0.0-17.0","35560085","wem/bandit_single","AFUX7IUQOE0NA","pain","5","32","","","","","","","","","","","","","","","","","","","","","","","","","",""
"1202","","bandit","18","157686","0.0-18.0-0.0","35560085","wem/bandit_single","AFUX7IUQOE0NA","pain","5","","74","J","0","img/none_selected_demo.jpg","0","1","0","0","0.8","true","0","0","0.8","80_20_practice","0","0.2","","","","","","","","","",""
"628","","bandit","19","160069","0.0-18.0-1.0","35560085","wem/bandit_single","AFUX7IUQOE0NA","pain","5","","74","J","0","img/none_selected_demo.jpg","0","1","0","0","0.8","true","0","0","0.8","80_20_practice","0","0.2","","","","","","","","","",""
"490","","bandit","20","162317","0.0-18.0-2.0","35560085","wem/bandit_single","AFUX7IUQOE0NA","pain","5","","75","K","1","","0","0","1","0","0.2","true","0","0","0.8","80_20_practice","0","0.2","","","","","","","","","",""
"211","","bandit","21","164286","0.0-18.0-3.0","35560085","wem/bandit_single","AFUX7IUQOE0NA","pain","5","","75","K","1","","0","0","1","0","0.2","true","0","0","0.8","80_20_practice","0","0.2","","","","","","","","","",""
"67","","bandit","22","166110","0.0-18.0-4.0","35560085","wem/bandit_single","AFUX7IUQOE0NA","pain","5","","74","J","0","img/none_selected_demo.jpg","0","1","0","0","0.8","true","0","0","0.8","80_20_practice","0","0.2","","","","","","","","","",""
"372","","bandit","23","168240","0.0-18.0-5.0","35560085","wem/bandit_single","AFUX7IUQOE0NA","pain","5","","74","J","0","img/none_selected_demo.jpg","0","1","0","0","0.8","true","0","0","0.8","80_20_practice","0","0.2","","","","","","","","","",""
"177","","bandit","24","170173","0.0-18.0-6.0","35560085","wem/bandit_single","AFUX7IUQOE0NA","pain","5","","74","J","0","img/none_selected_demo.jpg","0","1","0","0","0.8","true","0","0","0.8","80_20_practice","0","0.2","","","","","","","","","",""
"420","","bandit","25","172349","0.0-18.0-7.0","35560085","wem/bandit_single","AFUX7IUQOE0NA","pain","5","","74","J","0","img/none_selected_demo.jpg","0","1","0","0","0.8","true","0","0","0.8","80_20_practice","0","0.2","","","","","","","","","",""
"3","","bandit","26","174108","0.0-18.0-8.0","35560085","wem/bandit_single","AFUX7IUQOE0NA","pain","5","","74","J","0","img/none_selected_demo.jpg","0","1","0","0","0.8","true","0","0","0.8","80_20_practice","0","0.2","","","","","","","","","",""
"574","","bandit","27","176438","0.0-18.0-9.0","35560085","wem/bandit_single","AFUX7IUQOE0NA","pain","5","","74","J","0","img/none_selected_demo.jpg","0","1","0","0","0.8","true","0","0","0.8","80_20_practice","0","0.2","","","","","","","","","",""
"342","","bandit","28","178536","0.0-18.0-10.0","35560085","wem/bandit_single","AFUX7IUQOE0NA","pain","5","","74","J","0","img/none_selected_demo.jpg","0","0","1","0","0.8","true","0","0","0.8","80_20_practice","0","0.2","","","","","","","","","",""
"488","","bandit","29","180781","0.0-18.0-11.0","35560085","wem/bandit_single","AFUX7IUQOE0NA","pain","5","","75","K","1","","0","0","1","0","0.2","true","0","0","0.8","80_20_practice","0","0.2","","","","","","","","","",""
"1011","","bandit","30","183549","0.0-18.0-12.0","35560085","wem/bandit_single","AFUX7IUQOE0NA","pain","5","","75","K","1","","0","0","1","0","0.2","true","0","0","0.8","80_20_practice","0","0.2","","","","","","","","","",""
"123","","bandit","31","185430","0.0-18.0-13.0","35560085","wem/bandit_single","AFUX7IUQOE0NA","pain","5","","75","K","1","","0","0","1","0","0.2","true","0","0","0.8","80_20_practice","0","0.2","","","","","","","","","",""
"99","","bandit","32","187285","0.0-18.0-14.0","35560085","wem/bandit_single","AFUX7IUQOE0NA","pain","5","","75","K","1","","0","0","1","0","0.2","true","0","0","0.8","80_20_practice","0","0.2","","","","","","","","","",""
"118","","bandit","33","189158","0.0-18.0-15.0","35560085","wem/bandit_single","AFUX7IUQOE0NA","pain","5","","75","K","1","","0","0","1","0","0.2","true","0","0","0.8","80_20_practice","0","0.2","","","","","","","","","",""
"74","","bandit","34","190988","0.0-18.0-16.0","35560085","wem/bandit_single","AFUX7IUQOE0NA","pain","5","","75","K","1","","0","1","0","0","0.2","true","0","0","0.8","80_20_practice","0","0.2","","","","","","","","","",""
"1877","","bandit","35","194621","0.0-18.0-17.0","35560085","wem/bandit_single","AFUX7IUQOE0NA","pain","5","","74","J","0","img/none_selected_demo.jpg","0","1","0","0","0.8","true","0","0","0.8","80_20_practice","0","0.2","","","","","","","","","",""
"587","","bandit","36","196965","0.0-18.0-18.0","35560085","wem/bandit_single","AFUX7IUQOE0NA","pain","5","","75","K","1","","0","0","1","0","0.2","true","0","0","0.8","80_20_practice","0","0.2","","","","","","","","","",""
"1197","","bandit","37","199919","0.0-18.0-19.0","35560085","wem/bandit_single","AFUX7IUQOE0NA","pain","5","","75","K","1","","0","0","1","0","0.2","true","0","0","0.8","80_20_practice","0","0.2","","","","","","","","","",""
"10317","","text","38","210490","0.0-19.0","35560085","wem/bandit_single","AFUX7IUQOE0NA","pain","5","32","","","","","","","","","","","","","","","","","","","","","","","","","",""
"2801","","bandit","39","214798","0.0-20.0-0.0","35560085","wem/bandit_single","AFUX7IUQOE0NA","pain","5","","75","K","1","","0","0","1","0","0","true","0","0","0","","0","0","","","","","","","","","",""
"13645","","text","40","228697","0.0-21.0","35560085","wem/bandit_single","AFUX7IUQOE0NA","pain","5","32","","","","","","","","","","","","","","","","","","","","","","","","","",""
"4083","","text","41","232783","0.0-22.0","35560085","wem/bandit_single","AFUX7IUQOE0NA","pain","5","32","","","","","","","","","","","","","","","","","","","","","","","","","",""
"2437","","text","42","235222","0.0-23.0","35560085","wem/bandit_single","AFUX7IUQOE0NA","pain","5","32","","","","","","","","","","","","","","","","","","","","","","","","","",""
"2886","","text","43","238110","0.0-24.0","35560085","wem/bandit_single","AFUX7IUQOE0NA","pain","5","32","","","","","","","","","","","","","","","","","","","","","","","","","",""
"10312","","text","44","248425","0.0-25.0","35560085","wem/bandit_single","AFUX7IUQOE0NA","pain","5","32","","","","","","","","","","","","","","","","","","","","","","","","","",""
"4187","","text","45","252614","0.0-26.0","35560085","wem/bandit_single","AFUX7IUQOE0NA","pain","5","32","","","","","","","","","","","","","","","","","","","","","","","","","",""
"4725","","text","46","257342","0.0-27.0","35560085","wem/bandit_single","AFUX7IUQOE0NA","pain","5","32","","","","","","","","","","","","","","","","","","","","","","","","","",""
"4248","","text","47","261592","0.0-28.0","35560085","wem/bandit_single","AFUX7IUQOE0NA","pain","5","32","","","","","","","","","","","","","","","","","","","","","","","","","",""
"4332","","text","48","265926","0.0-29.0","35560085","wem/bandit_single","AFUX7IUQOE0NA","pain","5","32","","","","","","","","","","","","","","","","","","","","","","","","","",""
"2214","","text","49","268142","0.0-30.0","35560085","wem/bandit_single","AFUX7IUQOE0NA","pain","5","32","","","","","","","","","","","","","","","","","","","","","","","","","",""
"3648","","text","50","271793","0.0-31.0","35560085","wem/bandit_single","AFUX7IUQOE0NA","pain","5","32","","","","","","","","","","","","","","","","","","","","","","","","","",""
"810","","bandit","51","274108","0.0-32.0-0.0","35560085","wem/bandit_single","AFUX7IUQOE0NA","pain","5","","72","H","0","img/none_selected.jpg","0","0","1","0","0.8","true","0","0","0.8","full_practice","0","0.2","0","0.6","0","0.2","","","","","",""
"42","","bandit","52","275907","0.0-32.0-1.0","35560085","wem/bandit_single","AFUX7IUQOE0NA","pain","5","","74","J","1","","0","1","0","0","0.2","true","0","0","0.8","full_practice","0","0.2","0","0.6","0","0.2","","","","","",""
"10","","bandit","53","277675","0.0-32.0-2.0","35560085","wem/bandit_single","AFUX7IUQOE0NA","pain","5","","75","K","2","","0","1","0","0","0.6","true","0","0","0.8","full_practice","0","0.2","0","0.6","0","0.2","","","","","",""
"59","","bandit","54","279491","0.0-32.0-3.0","35560085","wem/bandit_single","AFUX7IUQOE0NA","pain","5","","76","L","3","","0","0","1","0","0.2","true","0","0","0.8","full_practice","0","0.2","0","0.6","0","0.2","","","","","",""
"99","","bandit","55","281349","0.0-32.0-4.0","35560085","wem/bandit_single","AFUX7IUQOE0NA","pain","5","","74","J","1","","0","0","1","0","0.2","true","0","0","0.8","full_practice","0","0.2","0","0.6","0","0.2","","","","","",""
"27","","bandit","56","283133","0.0-32.0-5.0","35560085","wem/bandit_single","AFUX7IUQOE0NA","pain","5","","72","H","0","img/none_selected.jpg","0","1","0","0","0.8","true","0","0","0.8","full_practice","0","0.2","0","0.6","0","0.2","","","","","",""
"795","","bandit","57","285684","0.0-32.0-6.0","35560085","wem/bandit_single","AFUX7IUQOE0NA","pain","5","","72","H","0","img/none_selected.jpg","0","1","0","0","0.8","true","0","0","0.8","full_practice","0","0.2","0","0.6","0","0.2","","","","","",""
"82","","bandit","58","287525","0.0-32.0-7.0","35560085","wem/bandit_single","AFUX7IUQOE0NA","pain","5","","75","K","2","","0","0","1","0","0.6","true","0","0","0.8","full_practice","0","0.2","0","0.6","0","0.2","","","","","",""
"346","","bandit","59","289629","0.0-32.0-8.0","35560085","wem/bandit_single","AFUX7IUQOE0NA","pain","5","","76","L","3","","0","0","1","0","0.2","true","0","0","0.8","full_practice","0","0.2","0","0.6","0","0.2","","","","","",""
"24","","bandit","60","291412","0.0-32.0-9.0","35560085","wem/bandit_single","AFUX7IUQOE0NA","pain","5","","76","L","3","","0","0","1","0","0.2","true","0","0","0.8","full_practice","0","0.2","0","0.6","0","0.2","","","","","",""
"89","","bandit","61","293263","0.0-32.0-10.0","35560085","wem/bandit_single","AFUX7IUQOE0NA","pain","5","","75","K","2","","0","1","0","0","0.6","true","0","0","0.8","full_practice","0","0.2","0","0.6","0","0.2","","","","","",""
"57","","bandit","62","295078","0.0-32.0-11.0","35560085","wem/bandit_single","AFUX7IUQOE0NA","pain","5","","72","H","0","img/none_selected.jpg","0","1","0","0","0.8","true","0","0","0.8","full_practice","0","0.2","0","0.6","0","0.2","","","","","",""
"64","","bandit","63","296900","0.0-32.0-12.0","35560085","wem/bandit_single","AFUX7IUQOE0NA","pain","5","","74","J","1","","0","0","1","0","0.2","true","0","0","0.8","full_practice","0","0.2","0","0.6","0","0.2","","","","","",""
"106","","bandit","64","298765","0.0-32.0-13.0","35560085","wem/bandit_single","AFUX7IUQOE0NA","pain","5","","75","K","2","","0","1","0","0","0.6","true","0","0","0.8","full_practice","0","0.2","0","0.6","0","0.2","","","","","",""
"2","","bandit","65","300524","0.0-32.0-14.0","35560085","wem/bandit_single","AFUX7IUQOE0NA","pain","5","","75","K","2","","0","1","0","0","0.6","true","0","0","0.8","full_practice","0","0.2","0","0.6","0","0.2","","","","","",""
"707","","bandit","66","302989","0.0-32.0-15.0","35560085","wem/bandit_single","AFUX7IUQOE0NA","pain","5","","75","K","2","","0","1","0","0","0.6","true","0","0","0.8","full_practice","0","0.2","0","0.6","0","0.2","","","","","",""
"10","","bandit","67","304756","0.0-32.0-16.0","35560085","wem/bandit_single","AFUX7IUQOE0NA","pain","5","","72","H","0","img/none_selected.jpg","0","1","0","0","0.8","true","0","0","0.8","full_practice","0","0.2","0","0.6","0","0.2","","","","","",""
"362","","bandit","68","306875","0.0-32.0-17.0","35560085","wem/bandit_single","AFUX7IUQOE0NA","pain","5","","72","H","0","img/none_selected.jpg","0","0","1","0","0.8","true","0","0","0.8","full_practice","0","0.2","0","0.6","0","0.2","","","","","",""
"26","","bandit","69","308659","0.0-32.0-18.0","35560085","wem/bandit_single","AFUX7IUQOE0NA","pain","5","","72","H","0","img/none_selected.jpg","0","1","0","0","0.8","true","0","0","0.8","full_practice","0","0.2","0","0.6","0","0.2","","","","","",""
"51","","bandit","70","310468","0.0-32.0-19.0","35560085","wem/bandit_single","AFUX7IUQOE0NA","pain","5","","72","H","0","img/none_selected.jpg","0","1","0","0","0.8","true","0","0","0.8","full_practice","0","0.2","0","0.6","0","0.2","","","","","",""
"87674","","text","71","398400","0.0-33.0","35560085","wem/bandit_single","AFUX7IUQOE0NA","pain","5","32","","","","","","","","","","","","","","","","","","","","","","","","","",""
"13691","","text","72","413096","0.0-34.0","35560085","wem/bandit_single","AFUX7IUQOE0NA","pain","5","32","","","","","","","","","","","","","","","","","","","","","","","","","",""
"6226","","text","73","419325","0.0-35.0","35560085","wem/bandit_single","AFUX7IUQOE0NA","pain","5","32","","","","","","","","","","","","","","","","","","","","","","","","","",""
"6944","","text","74","426272","0.0-36.0","35560085","wem/bandit_single","AFUX7IUQOE0NA","pain","5","32","","","","","","","","","","","","","","","","","","","","","","","","","",""
"7154","","text","75","433429","0.0-37.0","35560085","wem/bandit_single","AFUX7IUQOE0NA","pain","5","32","","","","","","","","","","","","","","","","","","","","","","","","","",""
"1547","","bandit","76","436483","0.0-38.0-0.0","35560085","wem/bandit_single","AFUX7IUQOE0NA","pain","5","","72","H","0","img/none_selected.jpg","0","0","1","","0.1478184891","false","1","","0.1478184891","main_expt","","0.3811303016","","0.04962883862","","0.4657241486","","","","","",""
"1803","","bandit","77","440043","0.0-39.0-0.0","35560085","wem/bandit_single","AFUX7IUQOE0NA","pain","5","","74","J","1","","0","1","0","","0.350111504","false","2","","0.2081060842","main_expt","","0.350111504","","0.03569255153","","0.4660849779","","","","","",""
"178","","bandit","78","441980","0.0-40.0-0.0","35560085","wem/bandit_single","AFUX7IUQOE0NA","pain","5","","74","J","1","","0","1","0","","0.3436486883","false","3","","0.1722167697","main_expt","","0.3436486883","","0.02901958263","","0.4687539887","","","","","",""
"345","","bandit","79","444083","0.0-41.0-0.0","35560085","wem/bandit_single","AFUX7IUQOE0NA","pain","5","","74","J","1","","0","0","1","","0.3419997506","false","4","","0.1424145416","main_expt","","0.3419997506","","0.04894390993","","0.48401473","","","","","",""
"65","","bandit","80","445907","0.0-42.0-0.0","35560085","wem/bandit_single","AFUX7IUQOE0NA","pain","5","","75","K","2","","0","0","1","","0.04206610475","false","5","","0.1446667298","main_expt","","0.3692180445","","0.04206610475","","0.4755123677","","","","","",""
"107","","bandit","81","447772","0.0-43.0-0.0","35560085","wem/bandit_single","AFUX7IUQOE0NA","pain","5","","76","L","3","","0","1","0","","0.4802482158","false","6","","0.1447199692","main_expt","","0.3602257359","","0.04292771587","","0.4802482158","","","","","",""
"107","","bandit","82","449638","0.0-44.0-0.0","35560085","wem/bandit_single","AFUX7IUQOE0NA","pain","5","","76","L","3","","0","1","0","","0.4780438684","false","7","","0.1001258446","main_expt","","0.3568498895","","0.06035830385","","0.4780438684","","","","","",""
"504","","bandit","83","451899","0.0-45.0-0.0","35560085","wem/bandit_single","AFUX7IUQOE0NA","pain","5","","76","L","3","","0","0","1","","0.4575173044","false","8","","0.1244671667","main_expt","","0.294604339","","0.09727842944","","0.4575173044","","","","","",""
"89","","bandit","84","453746","0.0-46.0-0.0","35560085","wem/bandit_single","AFUX7IUQOE0NA","pain","5","","76","L","3","","0","1","0","","0.4525933246","false","9","","0.1293804987","main_expt","","0.3802768622","","0.07952196982","","0.4525933246","","","","","",""
"83","","bandit","85","455587","0.0-47.0-0.0","35560085","wem/bandit_single","AFUX7IUQOE0NA","pain","5","","76","L","3","","0","1","0","","0.4476408152","false","10","","0.1606810952","main_expt","","0.3530595227","","0.1049852556","","0.4476408152","","","","","",""
"176","","bandit","86","457523","0.0-48.0-0.0","35560085","wem/bandit_single","AFUX7IUQOE0NA","pain","5","","76","L","3","","0","1","0","","0.4484644352","false","11","","0.1585385462","main_expt","","0.358648576","","0.1118692116","","0.4484644352","","","","","",""
"57","","bandit","87","459339","0.0-49.0-0.0","35560085","wem/bandit_single","AFUX7IUQOE0NA","pain","5","","76","L","3","","0","1","0","","0.4466341879","false","12","","0.1492634201","main_expt","","0.3382469396","","0.1270372311","","0.4466341879","","","","","",""
"81","","bandit","88","461179","0.0-50.0-0.0","35560085","wem/bandit_single","AFUX7IUQOE0NA","pain","5","","76","L","3","","0","0","1","","0.4642511008","false","13","","0.1106465011","main_expt","","0.3092021245","","0.1278892577","","0.4642511008","","","","","",""
"113","","bandit","89","463050","0.0-51.0-0.0","35560085","wem/bandit_single","AFUX7IUQOE0NA","pain","5","","76","L","3","","0","0","1","","0.4615970843","false","14","","0.1232346967","main_expt","","0.3532484784","","0.1024725346","","0.4615970843","","","","","",""
"458","","bandit","90","465266","0.0-52.0-0.0","35560085","wem/bandit_single","AFUX7IUQOE0NA","pain","5","","74","J","1","","0","1","0","","0.3371384495","false","15","","0.1323340596","main_expt","","0.3371384495","","0.1234109619","","0.4692442536","","","","","",""
"211","","bandit","91","467235","0.0-53.0-0.0","35560085","wem/bandit_single","AFUX7IUQOE0NA","pain","5","","74","J","1","","0","1","0","","0.3282622062","false","16","","0.1410223318","main_expt","","0.3282622062","","0.1360550169","","0.4755425263","","","","","",""
"569","","bandit","92","469562","0.0-54.0-0.0","35560085","wem/bandit_single","AFUX7IUQOE0NA","pain","5","","74","J","1","","0","0","1","","0.3032164303","false","17","","0.1498636582","main_expt","","0.3032164303","","0.1070219664","","0.4828633911","","","","","",""
"589","","bandit","93","471909","0.0-55.0-0.0","35560085","wem/bandit_single","AFUX7IUQOE0NA","pain","5","","74","J","1","","0","0","1","","0.2834034058","false","18","","0.1132842199","main_expt","","0.2834034058","","0.09318331203","","0.4784959143","","","","","",""
"101","","bandit","94","473771","0.0-56.0-0.0","35560085","wem/bandit_single","AFUX7IUQOE0NA","pain","5","","75","K","2","","0","0","1","","0.08644374764","false","19","","0.08554013857","main_expt","","0.376157017","","0.08644374764","","0.4645747316","","","","","",""
"153","","bandit","95","475683","0.0-57.0-0.0","35560085","wem/bandit_single","AFUX7IUQOE0NA","pain","5","","72","H","0","img/none_selected.jpg","0","1","0","","0.1176407844","false","20","","0.1176407844","main_expt","","0.3718288413","","0.1066513301","","0.4441513352","","","","","",""
"265","","bandit","96","477707","0.0-58.0-0.0","35560085","wem/bandit_single","AFUX7IUQOE0NA","pain","5","","72","H","0","img/none_selected.jpg","0","0","1","","0.09701455477","false","21","","0.09701455477","main_expt","","0.3755251961","","0.1143532382","","0.4281495132","","","","","",""
"175","","bandit","97","479644","0.0-59.0-0.0","35560085","wem/bandit_single","AFUX7IUQOE0NA","pain","5","","72","H","0","img/none_selected.jpg","0","0","1","","0.08683592795","false","22","","0.08683592795","main_expt","","0.3536603278","","0.111858438","","0.4374563715","","","","","",""
"137","","bandit","98","481538","0.0-60.0-0.0","35560085","wem/bandit_single","AFUX7IUQOE0NA","pain","5","","75","K","2","","0","0","1","","0.09088087914","false","23","","0.1062952262","main_expt","","0.3908816919","","0.09088087914","","0.4408316507","","","","","",""
"252","","bandit","99","483546","0.0-61.0-0.0","35560085","wem/bandit_single","AFUX7IUQOE0NA","pain","5","","74","J","1","","0","1","0","","0.3639752867","false","24","","0.1320295984","main_expt","","0.3639752867","","0.1045917755","","0.4249736282","","","","","",""
"521","","bandit","100","485827","0.0-62.0-0.0","35560085","wem/bandit_single","AFUX7IUQOE0NA","pain","5","","74","J","1","","0","0","1","","0.3569796848","false","25","","0.18562956","main_expt","","0.3569796848","","0.107118439","","0.4542404639","","","","","",""
"145","","bandit","101","487730","0.0-63.0-0.0","35560085","wem/bandit_single","AFUX7IUQOE0NA","pain","5","","74","J","1","","0","1","0","","0.3466804264","false","26","","0.1589772959","main_expt","","0.3466804264","","0.08847958778","","0.4707756245","","","","","",""
"547","","bandit","102","490034","0.0-64.0-0.0","35560085","wem/bandit_single","AFUX7IUQOE0NA","pain","5","","74","J","1","","0","1","0","","0.3487144915","false","27","","0.1361305173","main_expt","","0.3487144915","","0.105958259","","0.4492807888","","","","","",""
"24","","bandit","103","491819","0.0-65.0-0.0","35560085","wem/bandit_single","AFUX7IUQOE0NA","pain","5","","74","J","1","","0","0","1","","0.31872733","false","28","","0.1517112547","main_expt","","0.31872733","","0.09976229861","","0.4630254912","","","","","",""
"873","","bandit","104","494450","0.0-66.0-0.0","35560085","wem/bandit_single","AFUX7IUQOE0NA","pain","5","","74","J","1","","0","1","0","","0.3351256986","false","29","","0.1207272987","main_expt","","0.3351256986","","0.1117783291","","0.4582460064","","","","","",""
"50","","bandit","105","496258","0.0-67.0-0.0","35560085","wem/bandit_single","AFUX7IUQOE0NA","pain","5","","74","J","1","","0","0","1","","0.3165147827","false","30","","0.06619286558","main_expt","","0.3165147827","","0.104708879","","0.44398484","","","","","",""
"2","","bandit","106","498021","0.0-68.0-0.0","35560085","wem/bandit_single","AFUX7IUQOE0NA","pain","5","","74","J","1","","0","1","0","","0.3587164307","false","31","","0.08172424971","main_expt","","0.3587164307","","0.1168740313","","0.4662875842","","","","","",""
"40","","bandit","107","499818","0.0-69.0-0.0","35560085","wem/bandit_single","AFUX7IUQOE0NA","pain","5","","74","J","1","","0","0","1","","0.384091524","false","32","","0.1118972321","main_expt","","0.384091524","","0.1193100679","","0.4823207571","","","","","",""
"19","","bandit","108","501595","0.0-70.0-0.0","35560085","wem/bandit_single","AFUX7IUQOE0NA","pain","5","","74","J","1","","0","1","0","","0.3410562849","false","33","","0.07764728595","main_expt","","0.3410562849","","0.1160378653","","0.4887640326","","","","","",""
"65","","bandit","109","503419","0.0-71.0-0.0","35560085","wem/bandit_single","AFUX7IUQOE0NA","pain","5","","74","J","1","","0","0","1","","0.3772037995","false","34","","0.1021677232","main_expt","","0.3772037995","","0.1240203414","","0.4871413525","","","","","",""
"35","","bandit","110","505212","0.0-72.0-0.0","35560085","wem/bandit_single","AFUX7IUQOE0NA","pain","5","","74","J","1","","0","0","1","","0.3601610849","false","35","","0.09263198197","main_expt","","0.3601610849","","0.1568527985","","0.472467875","","","","","",""
"1024","","bandit","111","507995","0.0-73.0-0.0","35560085","wem/bandit_single","AFUX7IUQOE0NA","pain","5","","75","K","2","","0","0","1","","0.1887398002","false","36","","0.1395706987","main_expt","","0.3199141994","","0.1887398002","","0.4801988656","","","","","",""
"176","","bandit","112","509930","0.0-74.0-0.0","35560085","wem/bandit_single","AFUX7IUQOE0NA","pain","5","","76","L","3","","0","0","1","","0.4658101737","false","37","","0.1166343238","main_expt","","0.3022128767","","0.1567271146","","0.4658101737","","","","","",""
"505","","bandit","113","512195","0.0-75.0-0.0","35560085","wem/bandit_single","AFUX7IUQOE0NA","pain","5","","72","H","0","img/none_selected.jpg","0","0","1","","0.1344783462","false","38","","0.1344783462","main_expt","","0.220841548","","0.1213003185","","0.4725237643","","","","","",""
"90","","bandit","114","514042","0.0-76.0-0.0","35560085","wem/bandit_single","AFUX7IUQOE0NA","pain","5","","75","K","2","","0","0","1","","0.1129188575","false","39","","0.1132701409","main_expt","","0.2273815274","","0.1129188575","","0.4863678522","","","","","",""
"97","","bandit","115","515898","0.0-77.0-0.0","35560085","wem/bandit_single","AFUX7IUQOE0NA","pain","5","","76","L","3","","0","0","1","","0.4756100127","false","40","","0.1269330716","main_expt","","0.2216047912","","0.1490040727","","0.4756100127","","","","","",""
"26","","bandit","116","517682","0.0-78.0-0.0","35560085","wem/bandit_single","AFUX7IUQOE0NA","pain","5","","72","H","0","img/none_selected.jpg","0","0","1","","0.1043764639","false","41","","0.1043764639","main_expt","","0.1790357129","","0.20555416","","0.4644843691","","","","","",""
"169","","bandit","117","519610","0.0-79.0-0.0","35560085","wem/bandit_single","AFUX7IUQOE0NA","pain","5","","74","J","1","","0","0","1","","0.1124402831","false","42","","0.123259557","main_expt","","0.1124402831","","0.2458082757","","0.4595487669","","","","","",""
"282","","bandit","118","521651","0.0-80.0-0.0","35560085","wem/bandit_single","AFUX7IUQOE0NA","pain","5","","76","L","3","","0","1","0","","0.4598563523","false","43","","0.1523094635","main_expt","","0.1309909921","","0.1980967925","","0.4598563523","","","","","",""
"89","","bandit","119","523499","0.0-81.0-0.0","35560085","wem/bandit_single","AFUX7IUQOE0NA","pain","5","","76","L","3","","0","0","1","","0.4444935065","false","44","","0.1438901127","main_expt","","0.1620245532","","0.2011817551","","0.4444935065","","","","","",""
"15","","bandit","120","525274","0.0-82.0-0.0","35560085","wem/bandit_single","AFUX7IUQOE0NA","pain","5","","76","L","3","","0","0","1","","0.4201454787","false","45","","0.1381896233","main_expt","","0.1962154431","","0.1908172103","","0.4201454787","","","","","",""
"434","","bandit","121","527467","0.0-83.0-0.0","35560085","wem/bandit_single","AFUX7IUQOE0NA","pain","5","","75","K","2","","0","0","1","","0.1682898959","false","46","","0.08118013389","main_expt","","0.1548021256","","0.1682898959","","0.4420567968","","","","","",""
"521","","bandit","122","529746","0.0-84.0-0.0","35560085","wem/bandit_single","AFUX7IUQOE0NA","pain","5","","75","K","2","","0","0","1","","0.114950809","false","47","","0.08279503272","main_expt","","0.155425446","","0.114950809","","0.4454115659","","","","","",""
"73","","bandit","123","531579","0.0-85.0-0.0","35560085","wem/bandit_single","AFUX7IUQOE0NA","pain","5","","72","H","0","img/none_selected.jpg","0","0","1","","0.09757227309","false","48","","0.09757227309","main_expt","","0.2368850053","","0.1231508501","","0.4409121906","","","","","",""
"17","","bandit","124","533355","0.0-86.0-0.0","35560085","wem/bandit_single","AFUX7IUQOE0NA","pain","5","","74","J","1","","0","0","1","","0.1712995484","false","49","","0.1407466139","main_expt","","0.1712995484","","0.1264715503","","0.4640555105","","","","","",""
"224","","bandit","125","535339","0.0-87.0-0.0","35560085","wem/bandit_single","AFUX7IUQOE0NA","pain","5","","75","K","2","","0","0","1","","0.1119267987","false","50","","0.1128896644","main_expt","","0.2371897999","","0.1119267987","","0.4619625264","","","","","",""
"203","","bandit","126","537301","0.0-88.0-0.0","35560085","wem/bandit_single","AFUX7IUQOE0NA","pain","5","","76","L","3","","0","0","1","","0.4686499241","false","51","","0.1292206793","main_expt","","0.2520952739","","0.1192285775","","0.4686499241","","","","","",""
"477","","bandit","127","539539","0.0-89.0-0.0","35560085","wem/bandit_single","AFUX7IUQOE0NA","pain","5","","72","H","0","img/none_selected.jpg","0","1","0","","0.117204758","false","52","","0.117204758","main_expt","","0.2201249325","","0.1536714506","","0.4721244997","","","","","",""
"241","","bandit","128","541538","0.0-90.0-0.0","35560085","wem/bandit_single","AFUX7IUQOE0NA","pain","5","","72","H","0","img/none_selected.jpg","0","0","1","","0.1180232867","false","53","","0.1180232867","main_expt","","0.2019083534","","0.1817289366","","0.4776765754","","","","","",""
"17","","bandit","129","543314","0.0-91.0-0.0","35560085","wem/bandit_single","AFUX7IUQOE0NA","pain","5","","72","H","0","img/none_selected.jpg","0","0","1","","0.09503139185","false","54","","0.09503139185","main_expt","","0.2133100918","","0.1664376657","","0.4788042678","","","","","",""
"441","","bandit","130","545515","0.0-92.0-0.0","35560085","wem/bandit_single","AFUX7IUQOE0NA","pain","5","","74","J","1","","0","0","1","","0.2210295122","false","55","","0.1238025275","main_expt","","0.2210295122","","0.1219288973","","0.4852168201","","","","","",""
"387","","bandit","131","547661","0.0-93.0-0.0","35560085","wem/bandit_single","AFUX7IUQOE0NA","pain","5","","74","J","1","","0","0","1","","0.1728424853","false","56","","0.1544257673","main_expt","","0.1728424853","","0.1392062569","","0.4860946669","","","","","",""
"174","","bandit","132","549595","0.0-94.0-0.0","35560085","wem/bandit_single","AFUX7IUQOE0NA","pain","5","","75","K","2","","0","0","1","","0.2060247316","false","57","","0.1492478473","main_expt","","0.2301797189","","0.2060247316","","0.4859962979","","","","","",""
"311","","bandit","133","551667","0.0-95.0-0.0","35560085","wem/bandit_single","AFUX7IUQOE0NA","pain","5","","75","K","2","","0","0","1","","0.1723567799","false","58","","0.1392181034","main_expt","","0.2820892606","","0.1723567799","","0.4751013025","","","","","",""
"80","","bandit","134","553506","0.0-96.0-0.0","35560085","wem/bandit_single","AFUX7IUQOE0NA","pain","5","","76","L","3","","0","0","1","","0.4816883425","false","59","","0.1854998728","main_expt","","0.308641684","","0.16345501","","0.4816883425","","","","","",""
"38","","bandit","135","555307","0.0-97.0-0.0","35560085","wem/bandit_single","AFUX7IUQOE0NA","pain","5","","72","H","0","img/none_selected.jpg","0","0","1","","0.1306651225","false","60","","0.1306651225","main_expt","","0.3012287428","","0.1552759559","","0.4846541976","","","","","",""
"1","","bandit","136","557067","0.0-98.0-0.0","35560085","wem/bandit_single","AFUX7IUQOE0NA","pain","5","","74","J","1","","0","0","1","","0.263166603","false","61","","0.1567024934","main_expt","","0.263166603","","0.1652193455","","0.4848840061","","","","","",""
"407","","bandit","137","559234","0.0-99.0-0.0","35560085","wem/bandit_single","AFUX7IUQOE0NA","pain","5","","75","K","2","","0","1","0","","0.1813222976","false","62","","0.1622246099","main_expt","","0.2428038775","","0.1813222976","","0.4856292504","","","","","",""
"81","","bandit","138","561074","0.0-100.0-0.0","35560085","wem/bandit_single","AFUX7IUQOE0NA","pain","5","","75","K","2","","0","0","1","","0.1727004114","false","63","","0.2196770705","main_expt","","0.2843805899","","0.1727004114","","0.4865153319","","","","","",""
"144","","bandit","139","562979","0.0-101.0-0.0","35560085","wem/bandit_single","AFUX7IUQOE0NA","pain","5","","75","K","2","","0","0","1","","0.2105999223","false","64","","0.218319606","main_expt","","0.2895992306","","0.2105999223","","0.4874146034","","","","","",""
"33","","bandit","140","564770","0.0-102.0-0.0","35560085","wem/bandit_single","AFUX7IUQOE0NA","pain","5","","75","K","2","","0","1","0","","0.240225816","false","65","","0.2278721313","main_expt","","0.3847688","","0.240225816","","0.4781609215","","","","","",""
"8","","bandit","141","566538","0.0-103.0-0.0","35560085","wem/bandit_single","AFUX7IUQOE0NA","pain","5","","75","K","2","","0","1","0","","0.2924754864","false","66","","0.1599393353","main_expt","","0.4083751038","","0.2924754864","","0.4848714892","","","","","",""
"34","","bandit","142","568330","0.0-104.0-0.0","35560085","wem/bandit_single","AFUX7IUQOE0NA","pain","5","","75","K","2","","0","0","1","","0.2363072125","false","67","","0.1647045883","main_expt","","0.4036944211","","0.2363072125","","0.4872204599","","","","","",""
"551","","bandit","143","570643","0.0-105.0-0.0","35560085","wem/bandit_single","AFUX7IUQOE0NA","pain","5","","75","K","2","","0","0","1","","0.264359064","false","68","","0.1442333851","main_expt","","0.3910329043","","0.264359064","","0.4749956953","","","","","",""
"9","","bandit","144","572410","0.0-106.0-0.0","35560085","wem/bandit_single","AFUX7IUQOE0NA","pain","5","","75","K","2","","0","0","1","","0.2755227552","false","69","","0.1757685765","main_expt","","0.3438989047","","0.2755227552","","0.4776093432","","","","","",""
"440","","bandit","145","574609","0.0-107.0-0.0","35560085","wem/bandit_single","AFUX7IUQOE0NA","pain","5","","76","L","3","","0","1","0","","0.4550183311","false","70","","0.1995177274","main_expt","","0.3282106587","","0.2978365432","","0.4550183311","","","","","",""
"577","","bandit","146","576946","0.0-108.0-0.0","35560085","wem/bandit_single","AFUX7IUQOE0NA","pain","5","","76","L","3","","0","1","0","","0.4466984445","false","71","","0.2429348876","main_expt","","0.3085852942","","0.2788476436","","0.4466984445","","","","","",""
"48","","bandit","147","578754","0.0-109.0-0.0","35560085","wem/bandit_single","AFUX7IUQOE0NA","pain","5","","76","L","3","","0","1","0","","0.453817204","false","72","","0.2134703404","main_expt","","0.317066931","","0.2983184618","","0.453817204","","","","","",""
"35","","bandit","148","580548","0.0-110.0-0.0","35560085","wem/bandit_single","AFUX7IUQOE0NA","pain","5","","76","L","3","","0","0","1","","0.4421557619","false","73","","0.2779115064","main_expt","","0.3118309255","","0.3235064893","","0.4421557619","","","","","",""
"486","","bandit","149","582795","0.0-111.0-0.0","35560085","wem/bandit_single","AFUX7IUQOE0NA","pain","5","","76","L","3","","0","0","1","","0.4340536998","false","74","","0.2696493969","main_expt","","0.3442292265","","0.2605282151","","0.4340536998","","","","","",""
"440","","bandit","150","584996","0.0-112.0-0.0","35560085","wem/bandit_single","AFUX7IUQOE0NA","pain","5","","76","L","3","","0","0","1","","0.4148912722","false","75","","0.2929582525","main_expt","","0.3392290825","","0.3081503464","","0.4148912722","","","","","",""
"214","","bandit","151","586970","0.0-113.0-0.0","35560085","wem/bandit_single","AFUX7IUQOE0NA","pain","5","","76","L","3","","0","1","0","","0.4049452856","false","76","","0.2925997362","main_expt","","0.3019050266","","0.3793773342","","0.4049452856","","","","","",""
"400","","bandit","152","589129","0.0-114.0-0.0","35560085","wem/bandit_single","AFUX7IUQOE0NA","pain","5","","76","L","3","","0","1","0","","0.3804311168","false","77","","0.2402419665","main_expt","","0.3346778491","","0.4108459626","","0.3804311168","","","","","",""
"34","","bandit","153","590924","0.0-115.0-0.0","35560085","wem/bandit_single","AFUX7IUQOE0NA","pain","5","","76","L","3","","0","1","0","","0.4076768351","false","78","","0.2662288132","main_expt","","0.2858281516","","0.432197644","","0.4076768351","","","","","",""
"53","","bandit","154","592737","0.0-116.0-0.0","35560085","wem/bandit_single","AFUX7IUQOE0NA","pain","5","","76","L","3","","0","0","1","","0.4322729224","false","79","","0.2946750364","main_expt","","0.2601805687","","0.4681634707","","0.4322729224","","","","","",""
"8","","bandit","155","594505","0.0-117.0-0.0","35560085","wem/bandit_single","AFUX7IUQOE0NA","pain","5","","76","L","3","","0","1","0","","0.4344903628","false","80","","0.3142603933","main_expt","","0.2494540003","","0.4487514359","","0.4344903628","","","","","",""
"626","","bandit","156","596891","0.0-118.0-0.0","35560085","wem/bandit_single","AFUX7IUQOE0NA","pain","5","","76","L","3","","0","1","0","","0.4128510282","false","81","","0.3045476359","main_expt","","0.2029748002","","0.4278748425","","0.4128510282","","","","","",""
"136","","bandit","157","598786","0.0-119.0-0.0","35560085","wem/bandit_single","AFUX7IUQOE0NA","pain","5","","76","L","3","","0","1","0","","0.3473788204","false","82","","0.2481672469","main_expt","","0.1459008349","","0.3873338363","","0.3473788204","","","","","",""
"387","","bandit","158","600932","0.0-120.0-0.0","35560085","wem/bandit_single","AFUX7IUQOE0NA","pain","5","","76","L","3","","0","0","1","","0.3964685929","false","83","","0.2366474468","main_expt","","0.1792892234","","0.3676955993","","0.3964685929","","","","","",""
"21","","bandit","159","602715","0.0-121.0-0.0","35560085","wem/bandit_single","AFUX7IUQOE0NA","pain","5","","76","L","3","","0","0","1","","0.4058457219","false","84","","0.2327145127","main_expt","","0.1384159538","","0.3494013457","","0.4058457219","","","","","",""
"535","","bandit","160","605011","0.0-122.0-0.0","35560085","wem/bandit_single","AFUX7IUQOE0NA","pain","5","","76","L","3","","0","0","1","","0.419702676","false","85","","0.2276425053","main_expt","","0.1569521301","","0.3484693071","","0.419702676","","","","","",""
"342","","bandit","161","607113","0.0-123.0-0.0","35560085","wem/bandit_single","AFUX7IUQOE0NA","pain","5","","75","K","2","","0","1","0","","0.3738623358","false","86","","0.1932648708","main_expt","","0.2111509195","","0.3738623358","","0.3584641731","","","","","",""
"64","","bandit","162","608937","0.0-124.0-0.0","35560085","wem/bandit_single","AFUX7IUQOE0NA","pain","5","","75","K","2","","0","1","0","","0.3635865115","false","87","","0.1554886006","main_expt","","0.1855749087","","0.3635865115","","0.3362954576","","","","","",""
"32","","bandit","163","610729","0.0-125.0-0.0","35560085","wem/bandit_single","AFUX7IUQOE0NA","pain","5","","75","K","2","","0","0","1","","0.28993028","false","88","","0.1288388744","main_expt","","0.1260067519","","0.28993028","","0.3495778317","","","","","",""
"352","","bandit","164","612844","0.0-126.0-0.0","35560085","wem/bandit_single","AFUX7IUQOE0NA","pain","5","","75","K","2","","0","1","0","","0.2529053562","false","89","","0.1672252434","main_expt","","0.1930097593","","0.2529053562","","0.3337998134","","","","","",""
"885","","bandit","165","615492","0.0-127.0-0.0","35560085","wem/bandit_single","AFUX7IUQOE0NA","pain","5","","75","K","2","","0","1","0","","0.2239223254","false","90","","0.1379373657","main_expt","","0.2016869017","","0.2239223254","","0.3254710898","","","","","",""
"4","","bandit","166","617259","0.0-128.0-0.0","35560085","wem/bandit_single","AFUX7IUQOE0NA","pain","5","","75","K","2","","0","0","1","","0.1874521573","false","91","","0.1296834551","main_expt","","0.2283296651","","0.1874521573","","0.3248617863","","","","","",""
"336","","bandit","167","619354","0.0-129.0-0.0","35560085","wem/bandit_single","AFUX7IUQOE0NA","pain","5","","75","K","2","","0","1","0","","0.1464907128","false","92","","0.1601432093","main_expt","","0.2253008126","","0.1464907128","","0.3290731597","","","","","",""
"119","","bandit","168","621234","0.0-130.0-0.0","35560085","wem/bandit_single","AFUX7IUQOE0NA","pain","5","","75","K","2","","0","0","1","","0.1817498408","false","93","","0.1976873148","main_expt","","0.1826671142","","0.1817498408","","0.2947126164","","","","","",""
"320","","bandit","169","623313","0.0-131.0-0.0","35560085","wem/bandit_single","AFUX7IUQOE0NA","pain","5","","75","K","2","","0","0","1","","0.1967130988","false","94","","0.2296862911","main_expt","","0.1650727581","","0.1967130988","","0.2762739163","","","","","",""
"72","","bandit","170","625146","0.0-132.0-0.0","35560085","wem/bandit_single","AFUX7IUQOE0NA","pain","5","","74","J","1","","0","0","1","","0.1971582392","false","95","","0.1990842867","main_expt","","0.1971582392","","0.2294656294","","0.3184689772","","","","","",""
"152","","bandit","171","627057","0.0-133.0-0.0","35560085","wem/bandit_single","AFUX7IUQOE0NA","pain","5","","72","H","0","img/none_selected.jpg","0","1","0","","0.258496532","false","96","","0.258496532","main_expt","","0.1791402521","","0.2966343553","","0.281027734","","","","","",""
"632","","bandit","172","629450","0.0-134.0-0.0","35560085","wem/bandit_single","AFUX7IUQOE0NA","pain","5","","72","H","0","img/none_selected.jpg","0","0","1","","0.2766566169","false","97","","0.2766566169","main_expt","","0.1516442175","","0.3346257274","","0.2474299406","","","","","",""
"1","","bandit","173","631212","0.0-135.0-0.0","35560085","wem/bandit_single","AFUX7IUQOE0NA","pain","5","","72","H","0","img/none_selected.jpg","0","0","1","","0.2377114848","false","98","","0.2377114848","main_expt","","0.2200018313","","0.3139493976","","0.2217126022","","","","","",""
"262","","bandit","174","633234","0.0-136.0-0.0","35560085","wem/bandit_single","AFUX7IUQOE0NA","pain","5","","74","J","1","","0","0","1","","0.2752547205","false","99","","0.3124158187","main_expt","","0.2752547205","","0.2478490566","","0.2677278576","","","","","",""
"254","","bandit","175","635250","0.0-137.0-0.0","35560085","wem/bandit_single","AFUX7IUQOE0NA","pain","5","","74","J","1","","0","0","1","","0.252850905","false","100","","0.2059987679","main_expt","","0.252850905","","0.2602221343","","0.3271916833","","","","","",""
"367","","bandit","176","637378","0.0-138.0-0.0","35560085","wem/bandit_single","AFUX7IUQOE0NA","pain","5","","76","L","3","","0","1","0","","0.3066156257","false","101","","0.1758265216","main_expt","","0.1867047362","","0.2584762291","","0.3066156257","","","","","",""
"1","","bandit","177","639138","0.0-139.0-0.0","35560085","wem/bandit_single","AFUX7IUQOE0NA","pain","5","","76","L","3","","0","0","1","","0.3260250896","false","102","","0.2262322791","main_expt","","0.1175578895","","0.282093771","","0.3260250896","","","","","",""
"54","","bandit","178","640954","0.0-140.0-0.0","35560085","wem/bandit_single","AFUX7IUQOE0NA","pain","5","","76","L","3","","0","0","1","","0.3731136732","false","103","","0.2018281434","main_expt","","0.09132094505","","0.2725256196","","0.3731136732","","","","","",""
"242","","bandit","179","642957","0.0-141.0-0.0","35560085","wem/bandit_single","AFUX7IUQOE0NA","pain","5","","75","K","2","","0","1","0","","0.2243623384","false","104","","0.1447482012","main_expt","","0.1422553795","","0.2243623384","","0.3941656488","","","","","",""
"4","","bandit","180","644722","0.0-142.0-0.0","35560085","wem/bandit_single","AFUX7IUQOE0NA","pain","5","","75","K","2","","0","0","1","","0.2403200944","false","105","","0.2104813725","main_expt","","0.1390697773","","0.2403200944","","0.4030151573","","","","","",""
"46","","bandit","181","646530","0.0-143.0-0.0","35560085","wem/bandit_single","AFUX7IUQOE0NA","pain","5","","75","K","2","","0","0","1","","0.2332798071","false","106","","0.2492378957","main_expt","","0.1155807694","","0.2332798071","","0.3715193073","","","","","",""
"39","","bandit","182","648331","0.0-144.0-0.0","35560085","wem/bandit_single","AFUX7IUQOE0NA","pain","5","","74","J","1","","0","0","1","","0.105728532","false","107","","0.217404121","main_expt","","0.105728532","","0.181620067","","0.3837270358","","","","","",""
"166","","bandit","183","650258","0.0-145.0-0.0","35560085","wem/bandit_single","AFUX7IUQOE0NA","pain","5","","72","H","0","img/none_selected.jpg","0","0","1","","0.2142202377","false","108","","0.2142202377","main_expt","","0.08831090648","","0.2173069915","","0.3908875135","","","","","",""
"119","","bandit","184","652138","0.0-146.0-0.0","35560085","wem/bandit_single","AFUX7IUQOE0NA","pain","5","","76","L","3","","0","0","1","","0.3774052568","false","109","","0.2683226389","main_expt","","0.1043724426","","0.226697077","","0.3774052568","","","","","",""
"43","","bandit","185","653941","0.0-147.0-0.0","35560085","wem/bandit_single","AFUX7IUQOE0NA","pain","5","","75","K","2","","0","0","1","","0.2695419639","false","110","","0.2619142817","main_expt","","0.07530108238","","0.2695419639","","0.3601275089","","","","","",""
"12","","bandit","186","655714","0.0-148.0-0.0","35560085","wem/bandit_single","AFUX7IUQOE0NA","pain","5","","74","J","1","","0","0","1","","0.05159845725","false","111","","0.2754039507","main_expt","","0.05159845725","","0.2635727161","","0.3880855357","","","","","",""
"399","","bandit","187","657873","0.0-149.0-0.0","35560085","wem/bandit_single","AFUX7IUQOE0NA","pain","5","","72","H","0","img/none_selected.jpg","0","0","1","","0.2721436228","false","112","","0.2721436228","main_expt","","0.08116028731","","0.3202716687","","0.3864248384","","","","","",""
"48","","bandit","188","659681","0.0-150.0-0.0","35560085","wem/bandit_single","AFUX7IUQOE0NA","pain","5","","72","H","0","img/none_selected.jpg","0","0","1","","0.2598768298","false","113","","0.2598768298","main_expt","","0.08538759299","","0.3546461764","","0.339569604","","","","","",""
"0","","bandit","189","661442","0.0-151.0-0.0","35560085","wem/bandit_single","AFUX7IUQOE0NA","pain","5","","74","J","1","","0","0","1","","0.106551095","false","114","","0.2271708717","main_expt","","0.106551095","","0.3339806629","","0.3612744832","","","","","",""
"357","","bandit","190","663561","0.0-152.0-0.0","35560085","wem/bandit_single","AFUX7IUQOE0NA","pain","5","","75","K","2","","0","1","0","","0.3175163572","false","115","","0.2382373761","main_expt","","0.1120532439","","0.3175163572","","0.3616298021","","","","","",""
"478","","bandit","191","665802","0.0-153.0-0.0","35560085","wem/bandit_single","AFUX7IUQOE0NA","pain","5","","75","K","2","","0","0","1","","0.3626291523","false","116","","0.2092397162","main_expt","","0.07206247825","","0.3626291523","","0.3886586702","","","","","",""
"71","","bandit","192","667633","0.0-154.0-0.0","35560085","wem/bandit_single","AFUX7IUQOE0NA","pain","5","","75","K","2","","0","0","1","","0.4005972513","false","117","","0.1790603663","main_expt","","0.05990892348","","0.4005972513","","0.3837198657","","","","","",""
"288","","bandit","193","669682","0.0-155.0-0.0","35560085","wem/bandit_single","AFUX7IUQOE0NA","pain","5","","76","L","3","","0","1","0","","0.3831944796","false","118","","0.2515048449","main_expt","","0.07349038746","","0.3994725347","","0.3831944796","","","","","",""
"54","","bandit","194","671497","0.0-156.0-0.0","35560085","wem/bandit_single","AFUX7IUQOE0NA","pain","5","","76","L","3","","0","0","1","","0.3200080389","false","119","","0.2591845625","main_expt","","0.0880416307","","0.3690387214","","0.3200080389","","","","","",""
"32","","bandit","195","673290","0.0-157.0-0.0","35560085","wem/bandit_single","AFUX7IUQOE0NA","pain","5","","76","L","3","","0","1","0","","0.3498825307","false","120","","0.2719994365","main_expt","","0.08832912692","","0.3553033444","","0.3498825307","","","","","",""
"39","","bandit","196","675090","0.0-158.0-0.0","35560085","wem/bandit_single","AFUX7IUQOE0NA","pain","5","","76","L","3","","0","0","1","","0.3150568547","false","121","","0.2511552987","main_expt","","0.08322673311","","0.3558993888","","0.3150568547","","","","","",""
"25","","bandit","197","676875","0.0-159.0-0.0","35560085","wem/bandit_single","AFUX7IUQOE0NA","pain","5","","76","L","3","","0","0","1","","0.332296042","false","122","","0.246059836","main_expt","","0.1027924146","","0.3539125929","","0.332296042","","","","","",""
"160","","bandit","198","678793","0.0-160.0-0.0","35560085","wem/bandit_single","AFUX7IUQOE0NA","pain","5","","76","L","3","","0","0","1","","0.3023892254","false","123","","0.201637063","main_expt","","0.1112730508","","0.2756210624","","0.3023892254","","","","","",""
"310","","bandit","199","680866","0.0-161.0-0.0","35560085","wem/bandit_single","AFUX7IUQOE0NA","pain","5","","75","K","2","","0","1","0","","0.2924451827","false","124","","0.2424225803","main_expt","","0.1401536705","","0.2924451827","","0.2971441903","","","","","",""
"54","","bandit","200","682682","0.0-162.0-0.0","35560085","wem/bandit_single","AFUX7IUQOE0NA","pain","5","","75","K","2","","0","0","1","","0.3283550958","false","125","","0.2663511033","main_expt","","0.170676821","","0.3283550958","","0.2989687221","","","","","",""
"103","","bandit","201","684546","0.0-163.0-0.0","35560085","wem/bandit_single","AFUX7IUQOE0NA","pain","5","","75","K","2","","0","1","0","","0.3561713316","false","126","","0.2214557307","main_expt","","0.2239131839","","0.3561713316","","0.3470717071","","","","","",""
"143","","bandit","202","686450","0.0-164.0-0.0","35560085","wem/bandit_single","AFUX7IUQOE0NA","pain","5","","75","K","2","","0","0","1","","0.3093512765","false","127","","0.2274120533","main_expt","","0.1828765327","","0.3093512765","","0.3399927284","","","","","",""
"6","","bandit","203","688218","0.0-165.0-0.0","35560085","wem/bandit_single","AFUX7IUQOE0NA","pain","5","","75","K","2","","0","0","1","","0.3682433617","false","128","","0.2035603578","main_expt","","0.2182936746","","0.3682433617","","0.3039142281","","","","","",""
"327","","bandit","204","690306","0.0-166.0-0.0","35560085","wem/bandit_single","AFUX7IUQOE0NA","pain","5","","75","K","2","","0","0","1","","0.3485983391","false","129","","0.1571118888","main_expt","","0.2206976306","","0.3485983391","","0.331948561","","","","","",""
"438","","bandit","205","692506","0.0-167.0-0.0","35560085","wem/bandit_single","AFUX7IUQOE0NA","pain","5","","74","J","1","","0","0","1","","0.1657145536","false","130","","0.08617346002","main_expt","","0.1657145536","","0.3907345736","","0.3512730473","","","","","",""
"93","","bandit","206","694361","0.0-168.0-0.0","35560085","wem/bandit_single","AFUX7IUQOE0NA","pain","5","","72","H","0","img/none_selected.jpg","0","0","1","","0.1196539686","false","131","","0.1196539686","main_expt","","0.2555784817","","0.3697977754","","0.3617370935","","","","","",""
"30","","bandit","207","696153","0.0-169.0-0.0","35560085","wem/bandit_single","AFUX7IUQOE0NA","pain","5","","76","L","3","","0","0","1","","0.3520165756","false","132","","0.1111227042","main_expt","","0.287060772","","0.3916621277","","0.3520165756","","","","","",""
"352","","bandit","208","698265","0.0-170.0-0.0","35560085","wem/bandit_single","AFUX7IUQOE0NA","pain","5","","75","K","2","","0","0","1","","0.3437671512","false","133","","0.1223368092","main_expt","","0.238965149","","0.3437671512","","0.3863989014","","","","","",""
"23","","bandit","209","700050","0.0-171.0-0.0","35560085","wem/bandit_single","AFUX7IUQOE0NA","pain","5","","74","J","1","","0","1","0","","0.2457001749","false","134","","0.1001486166","main_expt","","0.2457001749","","0.3636108046","","0.3391859262","","","","","",""
"294","","bandit","210","702105","0.0-172.0-0.0","35560085","wem/bandit_single","AFUX7IUQOE0NA","pain","5","","74","J","1","","0","0","1","","0.2499382958","false","135","","0.1179747861","main_expt","","0.2499382958","","0.3251377881","","0.3700101905","","","","","",""
"270","","bandit","211","704137","0.0-173.0-0.0","35560085","wem/bandit_single","AFUX7IUQOE0NA","pain","5","","74","J","1","","0","1","0","","0.2553087313","false","136","","0.1167775935","main_expt","","0.2553087313","","0.3838305716","","0.3002558999","","","","","",""
"494","","bandit","212","706394","0.0-174.0-0.0","35560085","wem/bandit_single","AFUX7IUQOE0NA","pain","5","","74","J","1","","0","1","0","","0.2517181947","false","137","","0.1459170178","main_expt","","0.2517181947","","0.374624825","","0.3242357935","","","","","",""
"103","","bandit","213","708257","0.0-175.0-0.0","35560085","wem/bandit_single","AFUX7IUQOE0NA","pain","5","","74","J","1","","0","0","1","","0.2531469116","false","138","","0.1403776257","main_expt","","0.2531469116","","0.36903936","","0.3413485239","","","","","",""
"38","","bandit","214","710058","0.0-176.0-0.0","35560085","wem/bandit_single","AFUX7IUQOE0NA","pain","5","","74","J","1","","0","1","0","","0.2810662396","false","139","","0.1647502834","main_expt","","0.2810662396","","0.3757762965","","0.3172825342","","","","","",""
"125","","bandit","215","711946","0.0-177.0-0.0","35560085","wem/bandit_single","AFUX7IUQOE0NA","pain","5","","74","J","1","","0","0","1","","0.2226737135","false","140","","0.2135508935","main_expt","","0.2226737135","","0.3240643918","","0.3683668128","","","","","",""
"541","","bandit","216","714249","0.0-178.0-0.0","35560085","wem/bandit_single","AFUX7IUQOE0NA","pain","5","","74","J","1","","0","0","1","","0.2330331678","false","141","","0.2286669107","main_expt","","0.2330331678","","0.342151626","","0.2976824498","","","","","",""
"478","","bandit","217","716488","0.0-179.0-0.0","35560085","wem/bandit_single","AFUX7IUQOE0NA","pain","5","","74","J","1","","0","0","1","","0.1833347363","false","142","","0.1870561284","main_expt","","0.1833347363","","0.3576151309","","0.3424177608","","","","","",""
"150","","bandit","218","718404","0.0-180.0-0.0","35560085","wem/bandit_single","AFUX7IUQOE0NA","pain","5","","72","H","0","img/none_selected.jpg","0","0","1","","0.220851353","false","143","","0.220851353","main_expt","","0.2063127673","","0.3075624404","","0.3367953268","","","","","",""
"748","","bandit","219","720913","0.0-181.0-0.0","35560085","wem/bandit_single","AFUX7IUQOE0NA","pain","5","","72","H","0","img/none_selected.jpg","0","0","1","","0.1581776843","false","144","","0.1581776843","main_expt","","0.24054226","","0.3666812205","","0.3446852995","","","","","",""
"145","","bandit","220","722818","0.0-182.0-0.0","35560085","wem/bandit_single","AFUX7IUQOE0NA","pain","5","","76","L","3","","0","0","1","","0.3569090532","false","145","","0.1562309797","main_expt","","0.3397881996","","0.373264243","","0.3569090532","","","","","",""
"21","","bandit","221","724602","0.0-183.0-0.0","35560085","wem/bandit_single","AFUX7IUQOE0NA","pain","5","","74","J","1","","0","0","1","","0.334771558","false","146","","0.201277092","main_expt","","0.334771558","","0.3588440804","","0.3546691234","","","","","",""
"348","","bandit","222","726714","0.0-184.0-0.0","35560085","wem/bandit_single","AFUX7IUQOE0NA","pain","5","","76","L","3","","0","0","1","","0.3346193534","false","147","","0.2014254916","main_expt","","0.3135854179","","0.3848898601","","0.3346193534","","","","","",""
"304","","bandit","223","728780","0.0-185.0-0.0","35560085","wem/bandit_single","AFUX7IUQOE0NA","pain","5","","72","H","0","img/none_selected.jpg","0","0","1","","0.1783642851","false","148","","0.1783642851","main_expt","","0.2601716543","","0.4049875018","","0.3481099765","","","","","",""
"178","","bandit","224","730721","0.0-186.0-0.0","35560085","wem/bandit_single","AFUX7IUQOE0NA","pain","5","","75","K","2","","0","0","1","","0.3644303146","false","149","","0.2394621943","main_expt","","0.2449203511","","0.3644303146","","0.3473239498","","","","","",""
"278","","bandit","225","732761","0.0-187.0-0.0","35560085","wem/bandit_single","AFUX7IUQOE0NA","pain","5","","76","L","3","","0","0","1","","0.3457177179","false","150","","0.2009439561","main_expt","","0.2679682766","","0.3820895465","","0.3457177179","","","","","",""
"317","","bandit","226","734841","0.0-188.0-0.0","35560085","wem/bandit_single","AFUX7IUQOE0NA","pain","5","","74","J","1","","0","0","1","","0.2811524043","false","151","","0.1783838281","main_expt","","0.2811524043","","0.3715335383","","0.3131990842","","","","","",""
"420","","bandit","227","737026","0.0-189.0-0.0","35560085","wem/bandit_single","AFUX7IUQOE0NA","pain","5","","74","J","1","","0","0","1","","0.2320671432","false","152","","0.2357029213","main_expt","","0.2320671432","","0.3270427106","","0.2632978047","","","","","",""
"119","","bandit","228","738907","0.0-190.0-0.0","35560085","wem/bandit_single","AFUX7IUQOE0NA","pain","5","","76","L","3","","0","1","0","","0.2782579121","false","153","","0.1701289497","main_expt","","0.2655606304","","0.3117301263","","0.2782579121","","","","","",""
"26","","bandit","229","740698","0.0-191.0-0.0","35560085","wem/bandit_single","AFUX7IUQOE0NA","pain","5","","76","L","3","","0","0","1","","0.2212449789","false","154","","0.1613436629","main_expt","","0.3485425359","","0.2860829053","","0.2212449789","","","","","",""
"301","","bandit","230","742761","0.0-192.0-0.0","35560085","wem/bandit_single","AFUX7IUQOE0NA","pain","5","","76","L","3","","0","0","1","","0.1944586175","false","155","","0.1419994917","main_expt","","0.3302543019","","0.2412247214","","0.1944586175","","","","","",""
"333","","bandit","231","744856","0.0-193.0-0.0","35560085","wem/bandit_single","AFUX7IUQOE0NA","pain","5","","76","L","3","","0","0","1","","0.2035424954","false","156","","0.2076402971","main_expt","","0.2696600886","","0.2505935016","","0.2035424954","","","","","",""
"318","","bandit","232","746936","0.0-194.0-0.0","35560085","wem/bandit_single","AFUX7IUQOE0NA","pain","5","","72","H","0","img/none_selected.jpg","0","0","1","","0.2253974945","false","157","","0.2253974945","main_expt","","0.3095791192","","0.2677381881","","0.2039725598","","","","","",""
"503","","bandit","233","749202","0.0-195.0-0.0","35560085","wem/bandit_single","AFUX7IUQOE0NA","pain","5","","72","H","0","img/none_selected.jpg","0","1","0","","0.3173726248","false","158","","0.3173726248","main_expt","","0.3427908005","","0.228073272","","0.1610126092","","","","","",""
"61","","bandit","234","751025","0.0-196.0-0.0","35560085","wem/bandit_single","AFUX7IUQOE0NA","pain","5","","72","H","0","img/none_selected.jpg","0","0","1","","0.2929560982","false","159","","0.2929560982","main_expt","","0.3459652535","","0.2181731157","","0.2244023171","","","","","",""
"622","","bandit","235","753410","0.0-197.0-0.0","35560085","wem/bandit_single","AFUX7IUQOE0NA","pain","5","","72","H","0","img/none_selected.jpg","0","1","0","","0.2599130114","false","160","","0.2599130114","main_expt","","0.3277363444","","0.2483475363","","0.2550463449","","","","","",""
"12","","bandit","236","755186","0.0-198.0-0.0","35560085","wem/bandit_single","AFUX7IUQOE0NA","pain","5","","72","H","0","img/none_selected.jpg","0","1","0","","0.3006759107","false","161","","0.3006759107","main_expt","","0.3043896987","","0.2287268475","","0.1988840894","","","","","",""
"772","","bandit","237","757722","0.0-199.0-0.0","35560085","wem/bandit_single","AFUX7IUQOE0NA","pain","5","","72","H","0","img/none_selected.jpg","0","0","1","","0.3359074288","false","162","","0.3359074288","main_expt","","0.3013302692","","0.2118340618","","0.3208820199","","","","","",""
"292","","bandit","238","759778","0.0-200.0-0.0","35560085","wem/bandit_single","AFUX7IUQOE0NA","pain","5","","72","H","0","img/none_selected.jpg","0","1","0","","0.3248254093","false","163","","0.3248254093","main_expt","","0.3359404133","","0.2467500447","","0.3416291965","","","","","",""
"572","","bandit","239","762113","0.0-201.0-0.0","35560085","wem/bandit_single","AFUX7IUQOE0NA","pain","5","","72","H","0","img/none_selected.jpg","0","0","1","","0.2480447101","false","164","","0.2480447101","main_expt","","0.3449747326","","0.2745506496","","0.3531125991","","","","","",""
"397","","bandit","240","764272","0.0-202.0-0.0","35560085","wem/bandit_single","AFUX7IUQOE0NA","pain","5","","72","H","0","img/none_selected.jpg","0","0","1","","0.2291527929","false","165","","0.2291527929","main_expt","","0.3388680014","","0.2893970703","","0.3329293945","","","","","",""
"127","","bandit","241","766161","0.0-203.0-0.0","35560085","wem/bandit_single","AFUX7IUQOE0NA","pain","5","","74","J","1","","0","0","1","","0.3565097084","false","166","","0.2408823094","main_expt","","0.3565097084","","0.326956194","","0.368824295","","","","","",""
"373","","bandit","242","768296","0.0-204.0-0.0","35560085","wem/bandit_single","AFUX7IUQOE0NA","pain","5","","75","K","2","","0","0","1","","0.2562538154","false","167","","0.1852653973","main_expt","","0.3807311224","","0.2562538154","","0.3528049135","","","","","",""
"343","","bandit","243","770404","0.0-205.0-0.0","35560085","wem/bandit_single","AFUX7IUQOE0NA","pain","5","","76","L","3","","0","0","1","","0.3530437727","false","168","","0.1123614246","main_expt","","0.4157533759","","0.259707785","","0.3530437727","","","","","",""
"74","","bandit","244","772242","0.0-206.0-0.0","35560085","wem/bandit_single","AFUX7IUQOE0NA","pain","5","","75","K","2","","0","0","1","","0.305903145","false","169","","0.1289140747","main_expt","","0.3990846218","","0.305903145","","0.3619584092","","","","","",""
"444","","bandit","245","774449","0.0-207.0-0.0","35560085","wem/bandit_single","AFUX7IUQOE0NA","pain","5","","76","L","3","","0","1","0","","0.3851568221","false","170","","0.1082073398","main_expt","","0.3840903594","","0.2780458482","","0.3851568221","","","","","",""
"477","","bandit","246","776688","0.0-208.0-0.0","35560085","wem/bandit_single","AFUX7IUQOE0NA","pain","5","","76","L","3","","0","0","1","","0.369821393","false","171","","0.09560917383","main_expt","","0.4279034191","","0.2754425626","","0.369821393","","","","","",""
"213","","bandit","247","778664","0.0-209.0-0.0","35560085","wem/bandit_single","AFUX7IUQOE0NA","pain","5","","76","L","3","","0","1","0","","0.3238500873","false","172","","0.09002122866","main_expt","","0.4277210969","","0.2801866594","","0.3238500873","","","","","",""
"935","","bandit","248","781364","0.0-210.0-0.0","35560085","wem/bandit_single","AFUX7IUQOE0NA","pain","5","","76","L","3","","0","0","1","","0.371178543","false","173","","0.06359212806","main_expt","","0.4177409887","","0.2903169923","","0.371178543","","","","","",""
"475","","bandit","249","783601","0.0-211.0-0.0","35560085","wem/bandit_single","AFUX7IUQOE0NA","pain","5","","76","L","3","","0","0","1","","0.364968973","false","174","","0.07897407323","main_expt","","0.4149019111","","0.3135769273","","0.364968973","","","","","",""
"110","","bandit","250","785473","0.0-212.0-0.0","35560085","wem/bandit_single","AFUX7IUQOE0NA","pain","5","","74","J","1","","0","1","0","","0.3890834012","false","175","","0.05374651045","main_expt","","0.3890834012","","0.3205535054","","0.4172857806","","","","","",""
"261","","bandit","251","787498","0.0-213.0-0.0","35560085","wem/bandit_single","AFUX7IUQOE0NA","pain","5","","74","J","1","","0","1","0","","0.3775492635","false","176","","0.05298342689","main_expt","","0.3775492635","","0.3548310205","","0.3931137538","","","","","",""
"52","","bandit","252","789314","0.0-214.0-0.0","35560085","wem/bandit_single","AFUX7IUQOE0NA","pain","5","","72","H","0","img/none_selected.jpg","0","0","1","","0.04117570961","false","177","","0.04117570961","main_expt","","0.2763311933","","0.3374760958","","0.4118750583","","","","","",""
"174","","bandit","253","791248","0.0-215.0-0.0","35560085","wem/bandit_single","AFUX7IUQOE0NA","pain","5","","74","J","1","","0","1","0","","0.2117274321","false","178","","0.0682688674","main_expt","","0.2117274321","","0.3045899674","","0.4019835374","","","","","",""
"57","","bandit","254","793064","0.0-216.0-0.0","35560085","wem/bandit_single","AFUX7IUQOE0NA","pain","5","","74","J","1","","0","1","0","","0.2071796451","false","179","","0.0699035784","main_expt","","0.2071796451","","0.2701203387","","0.3943962464","","","","","",""
"22","","bandit","255","794850","0.0-217.0-0.0","35560085","wem/bandit_single","AFUX7IUQOE0NA","pain","5","","74","J","1","","0","0","1","","0.2237333922","false","180","","0.08066818268","main_expt","","0.2237333922","","0.3010541938","","0.3879360396","","","","","",""
"147","","bandit","256","796761","0.0-218.0-0.0","35560085","wem/bandit_single","AFUX7IUQOE0NA","pain","5","","74","J","1","","0","0","1","","0.1462221579","false","181","","0.06418194011","main_expt","","0.1462221579","","0.2685782119","","0.3516035239","","","","","",""
"93","","bandit","257","798617","0.0-219.0-0.0","35560085","wem/bandit_single","AFUX7IUQOE0NA","pain","5","","74","J","1","","0","0","1","","0.1745001591","false","182","","0.05948248489","main_expt","","0.1745001591","","0.2333395507","","0.3544849886","","","","","",""
"327","","bandit","258","800705","0.0-220.0-0.0","35560085","wem/bandit_single","AFUX7IUQOE0NA","pain","5","","75","K","2","","0","0","1","","0.1817222791","false","183","","0.04249263759","main_expt","","0.1840457003","","0.1817222791","","0.3239224462","","","","","",""
"372","","bandit","259","802841","0.0-221.0-0.0","35560085","wem/bandit_single","AFUX7IUQOE0NA","pain","5","","76","L","3","","0","1","0","","0.3437575642","false","184","","0.05174265856","main_expt","","0.1684271963","","0.1946528514","","0.3437575642","","","","","",""
"61","","bandit","260","804666","0.0-222.0-0.0","35560085","wem/bandit_single","AFUX7IUQOE0NA","pain","5","","76","L","3","","0","1","0","","0.3584643827","false","185","","0.04700335152","main_expt","","0.1820742113","","0.1998780622","","0.3584643827","","","","","",""
"67","","bandit","261","806498","0.0-223.0-0.0","35560085","wem/bandit_single","AFUX7IUQOE0NA","pain","5","","76","L","3","","0","0","1","","0.3968797112","false","186","","0.0651928762","main_expt","","0.2156320388","","0.2674223733","","0.3968797112","","","","","",""
"652","","bandit","262","808913","0.0-224.0-0.0","35560085","wem/bandit_single","AFUX7IUQOE0NA","pain","5","","76","L","3","","0","1","0","","0.3851297664","false","187","","0.1006801651","main_expt","","0.2805416817","","0.2625155344","","0.3851297664","","","","","",""
"222","","bandit","263","810896","0.0-225.0-0.0","35560085","wem/bandit_single","AFUX7IUQOE0NA","pain","5","","76","L","3","","0","1","0","","0.3861445831","false","188","","0.1650650448","main_expt","","0.255869765","","0.2428845682","","0.3861445831","","","","","",""
"63","","bandit","264","812723","0.0-226.0-0.0","35560085","wem/bandit_single","AFUX7IUQOE0NA","pain","5","","76","L","3","","0","0","1","","0.3904601473","false","189","","0.1545550266","main_expt","","0.1757761595","","0.2017656849","","0.3904601473","","","","","",""
"372","","bandit","265","814857","0.0-227.0-0.0","35560085","wem/bandit_single","AFUX7IUQOE0NA","pain","5","","76","L","3","","0","1","0","","0.430863334","false","190","","0.187471884","main_expt","","0.1346649685","","0.2163316772","","0.430863334","","","","","",""
"20","","bandit","266","816641","0.0-228.0-0.0","35560085","wem/bandit_single","AFUX7IUQOE0NA","pain","5","","76","L","3","","0","0","1","","0.4113524325","false","191","","0.1611513775","main_expt","","0.1132332922","","0.2055350187","","0.4113524325","","","","","",""
"389","","bandit","267","818792","0.0-229.0-0.0","35560085","wem/bandit_single","AFUX7IUQOE0NA","pain","5","","76","L","3","","0","1","0","","0.4039805352","false","192","","0.1777959463","main_expt","","0.1208943264","","0.1895719249","","0.4039805352","","","","","",""
"292","","bandit","268","820849","0.0-230.0-0.0","35560085","wem/bandit_single","AFUX7IUQOE0NA","pain","5","","76","L","3","","0","1","0","","0.4245567291","false","193","","0.1871499601","main_expt","","0.1939792015","","0.1748526562","","0.4245567291","","","","","",""
"53","","bandit","269","822664","0.0-231.0-0.0","35560085","wem/bandit_single","AFUX7IUQOE0NA","pain","5","","76","L","3","","0","1","0","","0.3947968319","false","194","","0.1876497678","main_expt","","0.16637132","","0.1474168317","","0.3947968319","","","","","",""
"50","","bandit","270","824473","0.0-232.0-0.0","35560085","wem/bandit_single","AFUX7IUQOE0NA","pain","5","","76","L","3","","0","0","1","","0.4142863389","false","195","","0.1091892437","main_expt","","0.1730885183","","0.192031623","","0.4142863389","","","","","",""
"621","","bandit","271","826857","0.0-233.0-0.0","35560085","wem/bandit_single","AFUX7IUQOE0NA","pain","5","","76","L","3","","0","0","1","","0.4233691667","false","196","","0.1617114059","main_expt","","0.215114198","","0.2058404012","","0.4233691667","","","","","",""
"60","","bandit","272","828681","0.0-234.0-0.0","35560085","wem/bandit_single","AFUX7IUQOE0NA","pain","5","","75","K","2","","0","0","1","","0.2424759238","false","197","","0.1704243662","main_expt","","0.2080771369","","0.2424759238","","0.3910113043","","","","","",""
"662","","bandit","273","831105","0.0-235.0-0.0","35560085","wem/bandit_single","AFUX7IUQOE0NA","pain","5","","74","J","1","","0","0","1","","0.2349601263","false","198","","0.1547158464","main_expt","","0.2349601263","","0.2209877853","","0.4036427912","","","","","",""
"500","","bandit","274","833369","0.0-236.0-0.0","35560085","wem/bandit_single","AFUX7IUQOE0NA","pain","5","","72","H","0","img/none_selected.jpg","0","0","1","","0.1871633293","false","199","","0.1871633293","main_expt","","0.2603506135","","0.2167038869","","0.4211573591","","","","","",""
"87","","bandit","275","835219","0.0-237.0-0.0","35560085","wem/bandit_single","AFUX7IUQOE0NA","pain","5","","74","J","1","","0","0","1","","0.3238520586","false","200","","0.2044595191","main_expt","","0.3238520586","","0.1923465651","","0.4279321675","","","","","",""
"90","","bandit","276","837073","0.0-238.0-0.0","35560085","wem/bandit_single","AFUX7IUQOE0NA","pain","5","","75","K","2","","0","0","1","","0.2292217674","false","201","","0.2260370877","main_expt","","0.3006478669","","0.2292217674","","0.4164542871","","","","","",""
"405","","bandit","277","839240","0.0-239.0-0.0","35560085","wem/bandit_single","AFUX7IUQOE0NA","pain","5","","72","H","0","img/none_selected.jpg","0","0","1","","0.2543806879","false","202","","0.2543806879","main_expt","","0.2728804465","","0.2458551357","","0.4304584766","","","","","",""
"172","","bandit","278","841177","0.0-240.0-0.0","35560085","wem/bandit_single","AFUX7IUQOE0NA","pain","5","","76","L","3","","0","0","1","","0.4301844238","false","203","","0.248330882","main_expt","","0.3070028205","","0.2388066436","","0.4301844238","","","","","",""
"61","","bandit","279","843001","0.0-241.0-0.0","35560085","wem/bandit_single","AFUX7IUQOE0NA","pain","5","","74","J","1","","0","1","0","","0.2937269753","false","204","","0.272777159","main_expt","","0.2937269753","","0.2087278664","","0.3900297032","","","","","",""
"583","","bandit","280","845347","0.0-242.0-0.0","35560085","wem/bandit_single","AFUX7IUQOE0NA","pain","5","","74","J","1","","0","1","0","","0.2378968556","false","205","","0.3434557908","main_expt","","0.2378968556","","0.1498191458","","0.3928583167","","","","","",""
"179","","bandit","281","847289","0.0-243.0-0.0","35560085","wem/bandit_single","AFUX7IUQOE0NA","pain","5","","74","J","1","","0","0","1","","0.2621799838","false","206","","0.3670462125","main_expt","","0.2621799838","","0.1173401749","","0.4066069638","","","","","",""
"124","","bandit","282","849177","0.0-244.0-0.0","35560085","wem/bandit_single","AFUX7IUQOE0NA","pain","5","","74","J","1","","0","0","1","","0.2751860601","false","207","","0.3762900352","main_expt","","0.2751860601","","0.131911627","","0.3973448409","","","","","",""
"28","","bandit","283","850969","0.0-245.0-0.0","35560085","wem/bandit_single","AFUX7IUQOE0NA","pain","5","","74","J","1","","0","0","1","","0.2449975294","false","208","","0.3619644859","main_expt","","0.2449975294","","0.121614138","","0.4149937731","","","","","",""
"532","","bandit","284","853264","0.0-246.0-0.0","35560085","wem/bandit_single","AFUX7IUQOE0NA","pain","5","","75","K","2","","0","0","1","","0.1301565943","false","209","","0.3487947413","main_expt","","0.2260792918","","0.1301565943","","0.4174336027","","","","","",""
"427","","bandit","285","855451","0.0-247.0-0.0","35560085","wem/bandit_single","AFUX7IUQOE0NA","pain","5","","75","K","2","","0","0","1","","0.09603783024","false","210","","0.3019817091","main_expt","","0.2506868781","","0.09603783024","","0.3969791934","","","","","",""
"130","","bandit","286","857345","0.0-248.0-0.0","35560085","wem/bandit_single","AFUX7IUQOE0NA","pain","5","","72","H","0","img/none_selected.jpg","0","0","1","","0.3322841588","false","211","","0.3322841588","main_expt","","0.2364470615","","0.09853312819","","0.4109689779","","","","","",""
"77","","bandit","287","859185","0.0-249.0-0.0","35560085","wem/bandit_single","AFUX7IUQOE0NA","pain","5","","76","L","3","","0","1","0","","0.3870841375","false","212","","0.3257981887","main_expt","","0.2097336517","","0.08497623984","","0.3870841375","","","","","",""
"52","","bandit","288","861000","0.0-250.0-0.0","35560085","wem/bandit_single","AFUX7IUQOE0NA","pain","5","","76","L","3","","0","0","1","","0.3702451026","false","213","","0.299150427","main_expt","","0.223293056","","0.0690536233","","0.3702451026","","","","","",""
"488","","bandit","289","863249","0.0-251.0-0.0","35560085","wem/bandit_single","AFUX7IUQOE0NA","pain","5","","76","L","3","","0","0","1","","0.4052473305","false","214","","0.2841516905","main_expt","","0.2797804449","","0.05607702273","","0.4052473305","","","","","",""
"348","","bandit","290","865361","0.0-252.0-0.0","35560085","wem/bandit_single","AFUX7IUQOE0NA","pain","5","","75","K","2","","0","0","1","","0.0612243178","false","215","","0.2421432752","main_expt","","0.3307304153","","0.0612243178","","0.4003088938","","","","","",""
"60","","bandit","291","867185","0.0-253.0-0.0","35560085","wem/bandit_single","AFUX7IUQOE0NA","pain","5","","74","J","1","","0","1","0","","0.3341057131","false","216","","0.1705338946","main_expt","","0.3341057131","","0.03010565971","","0.4087675299","","","","","",""
"484","","bandit","292","869432","0.0-254.0-0.0","35560085","wem/bandit_single","AFUX7IUQOE0NA","pain","5","","74","J","1","","0","0","1","","0.3086359365","false","217","","0.219014384","main_expt","","0.3086359365","","0.05034411961","","0.3947963157","","","","","",""
"349","","bandit","293","871544","0.0-255.0-0.0","35560085","wem/bandit_single","AFUX7IUQOE0NA","pain","5","","74","J","1","","0","0","1","","0.370061562","false","218","","0.2135739311","main_expt","","0.370061562","","0.03278593655","","0.4200256015","","","","","",""
"101","","bandit","294","873407","0.0-256.0-0.0","35560085","wem/bandit_single","AFUX7IUQOE0NA","pain","5","","72","H","0","img/none_selected.jpg","0","0","1","","0.1719688778","false","219","","0.1719688778","main_expt","","0.3425962001","","0.02968551415","","0.3845181055","","","","","",""
"765","","bandit","295","875937","0.0-257.0-0.0","35560085","wem/bandit_single","AFUX7IUQOE0NA","pain","5","","72","H","0","img/none_selected.jpg","0","0","1","","0.1017501311","false","220","","0.1017501311","main_expt","","0.3200162658","","0.03392365282","","0.3200105211","","","","","",""
"308","","bandit","296","878009","0.0-258.0-0.0","35560085","wem/bandit_single","AFUX7IUQOE0NA","pain","5","","75","K","2","","0","0","1","","0.03139192041","false","221","","0.1121412156","main_expt","","0.3209906652","","0.03139192041","","0.297673658","","","","","",""
"68","","bandit","297","879841","0.0-259.0-0.0","35560085","wem/bandit_single","AFUX7IUQOE0NA","pain","5","","74","J","1","","0","0","1","","0.3013890172","false","222","","0.1091313961","main_expt","","0.3013890172","","0.02842311261","","0.2963768597","","","","","",""
"12","","bandit","298","881617","0.0-260.0-0.0","35560085","wem/bandit_single","AFUX7IUQOE0NA","pain","5","","76","L","3","","0","0","1","","0.2927297303","false","223","","0.09983876589","main_expt","","0.2614115174","","0.0287580325","","0.2927297303","","","","","",""
"76","","bandit","299","883457","0.0-261.0-0.0","35560085","wem/bandit_single","AFUX7IUQOE0NA","pain","5","","72","H","0","img/none_selected.jpg","0","0","1","","0.1018501693","false","224","","0.1018501693","main_expt","","0.2490141009","","0.02300930076","","0.2751498343","","","","","",""
"37","","bandit","300","885255","0.0-262.0-0.0","35560085","wem/bandit_single","AFUX7IUQOE0NA","pain","5","","76","L","3","","0","0","1","","0.2377617529","false","225","","0.1222407881","main_expt","","0.263459589","","0.02989568437","","0.2377617529","","","","","",""
"429","","bandit","301","887448","0.0-263.0-0.0","35560085","wem/bandit_single","AFUX7IUQOE0NA","pain","5","","74","J","1","","0","0","1","","0.2828917593","false","226","","0.1332846515","main_expt","","0.2828917593","","0.04233903912","","0.2137681397","","","","","",""
"484","","bandit","302","889696","0.0-264.0-0.0","35560085","wem/bandit_single","AFUX7IUQOE0NA","pain","5","","75","K","2","","0","0","1","","0.0317259717","false","227","","0.1606351014","main_expt","","0.2635957152","","0.0317259717","","0.1830623781","","","","","",""
"605","","bandit","303","892064","0.0-265.0-0.0","35560085","wem/bandit_single","AFUX7IUQOE0NA","pain","5","","72","H","0","img/none_selected.jpg","0","0","1","","0.1292420082","false","228","","0.1292420082","main_expt","","0.259674247","","0.04253553249","","0.1665925442","","","","","",""
"283","","bandit","304","894113","0.0-266.0-0.0","35560085","wem/bandit_single","AFUX7IUQOE0NA","pain","5","","74","J","1","","0","0","1","","0.2737318667","false","229","","0.1281284096","main_expt","","0.2737318667","","0.06761640147","","0.2136718414","","","","","",""
"155","","bandit","305","896033","0.0-267.0-0.0","35560085","wem/bandit_single","AFUX7IUQOE0NA","pain","5","","75","K","2","","0","0","1","","0.08572380951","false","230","","0.0791291566","main_expt","","0.3195589589","","0.08572380951","","0.2435987791","","","","","",""
"116","","bandit","306","897913","0.0-268.0-0.0","35560085","wem/bandit_single","AFUX7IUQOE0NA","pain","5","","76","L","3","","0","1","0","","0.2566168121","false","231","","0.10920453","main_expt","","0.3304270948","","0.07272236896","","0.2566168121","","","","","",""
"62","","bandit","307","899739","0.0-269.0-0.0","35560085","wem/bandit_single","AFUX7IUQOE0NA","pain","5","","76","L","3","","0","0","1","","0.2152843379","false","232","","0.167261158","main_expt","","0.2806951239","","0.0735724775","","0.2152843379","","","","","",""
"8","","bandit","308","901513","0.0-270.0-0.0","35560085","wem/bandit_single","AFUX7IUQOE0NA","pain","5","","76","L","3","","0","0","1","","0.2361400262","false","233","","0.1078973024","main_expt","","0.3115261247","","0.06465645962","","0.2361400262","","","","","",""
"179","","bandit","309","903456","0.0-271.0-0.0","35560085","wem/bandit_single","AFUX7IUQOE0NA","pain","5","","74","J","1","","0","0","1","","0.3001083946","false","234","","0.2366146445","main_expt","","0.3001083946","","0.04279198238","","0.2575526348","","","","","",""
"221","","bandit","310","905440","0.0-272.0-0.0","35560085","wem/bandit_single","AFUX7IUQOE0NA","pain","5","","72","H","0","img/none_selected.jpg","0","0","1","","0.2393051992","false","235","","0.2393051992","main_expt","","0.2768541542","","0.06672803397","","0.2828430508","","","","","",""
"61","","bandit","311","907264","0.0-273.0-0.0","35560085","wem/bandit_single","AFUX7IUQOE0NA","pain","5","","75","K","2","","0","0","1","","0.07100342573","false","236","","0.2976693115","main_expt","","0.332362789","","0.07100342573","","0.2860482958","","","","","",""
"444","","bandit","312","909472","0.0-274.0-0.0","35560085","wem/bandit_single","AFUX7IUQOE0NA","pain","5","","76","L","3","","0","1","0","","0.2783023894","false","237","","0.2674299269","main_expt","","0.3408832027","","0.03680589181","","0.2783023894","","","","","",""
"72","","bandit","313","911307","0.0-275.0-0.0","35560085","wem/bandit_single","AFUX7IUQOE0NA","pain","5","","76","L","3","","0","0","1","","0.2644861187","false","238","","0.2647207175","main_expt","","0.362117859","","0.02733344458","","0.2644861187","","","","","",""
"66","","bandit","314","913137","0.0-276.0-0.0","35560085","wem/bandit_single","AFUX7IUQOE0NA","pain","5","","76","L","3","","0","0","1","","0.3186717024","false","239","","0.1936342125","main_expt","","0.3574250999","","0.01831396817","","0.3186717024","","","","","",""
"28","","bandit","315","914928","0.0-277.0-0.0","35560085","wem/bandit_single","AFUX7IUQOE0NA","pain","5","","72","H","0","img/none_selected.jpg","0","0","1","","0.2382432393","false","240","","0.2382432393","main_expt","","0.290436356","","0.01383764992","","0.3360375491","","","","","",""
"108","","bandit","316","916800","0.0-278.0-0.0","35560085","wem/bandit_single","AFUX7IUQOE0NA","pain","5","","75","K","2","","0","0","1","","0.0277662638","false","241","","0.2984572788","main_expt","","0.3414967811","","0.0277662638","","0.3386213473","","","","","",""
"220","","bandit","317","918785","0.0-279.0-0.0","35560085","wem/bandit_single","AFUX7IUQOE0NA","pain","5","","74","J","1","","0","0","1","","0.3778608287","false","242","","0.2927867707","main_expt","","0.3778608287","","0.04064120638","","0.3523037021","","","","","",""
"156","","bandit","318","920705","0.0-280.0-0.0","35560085","wem/bandit_single","AFUX7IUQOE0NA","pain","5","","76","L","3","","0","0","1","","0.360543067","false","243","","0.2870713985","main_expt","","0.3552630766","","0.04640587852","","0.360543067","","","","","",""
"124","","bandit","319","922592","0.0-281.0-0.0","35560085","wem/bandit_single","AFUX7IUQOE0NA","pain","5","","72","H","0","img/none_selected.jpg","0","0","1","","0.2882437102","false","244","","0.2882437102","main_expt","","0.3538674815","","0.06567084485","","0.3728786331","","","","","",""
"347","","bandit","320","924704","0.0-282.0-0.0","35560085","wem/bandit_single","AFUX7IUQOE0NA","pain","5","","74","J","1","","0","0","1","","0.3592745223","false","245","","0.3125457984","main_expt","","0.3592745223","","0.1069305933","","0.3736501537","","","","","",""
"341","","bandit","321","926808","0.0-283.0-0.0","35560085","wem/bandit_single","AFUX7IUQOE0NA","pain","5","","75","K","2","","0","0","1","","0.07318543846","false","246","","0.2949331023","main_expt","","0.3784559109","","0.07318543846","","0.3880614915","","","","","",""
"580","","bandit","322","929153","0.0-284.0-0.0","35560085","wem/bandit_single","AFUX7IUQOE0NA","pain","5","","72","H","0","img/none_selected.jpg","0","0","1","","0.3557375168","false","247","","0.3557375168","main_expt","","0.3871101473","","0.06866628372","","0.3906355486","","","","","",""
"124","","bandit","323","931040","0.0-285.0-0.0","35560085","wem/bandit_single","AFUX7IUQOE0NA","pain","5","","76","L","3","","0","0","1","","0.3713177951","false","248","","0.3190142928","main_expt","","0.366594806","","0.06101724449","","0.3713177951","","","","","",""
"365","","bandit","324","933172","0.0-286.0-0.0","35560085","wem/bandit_single","AFUX7IUQOE0NA","pain","5","","74","J","1","","0","1","0","","0.35265903","false","249","","0.2946857214","main_expt","","0.35265903","","0.07132197128","","0.2887643678","","","","","",""
"302","","bandit","325","935241","0.0-287.0-0.0","35560085","wem/bandit_single","AFUX7IUQOE0NA","pain","5","","74","J","1","","0","1","0","","0.3725690128","false","250","","0.285145352","main_expt","","0.3725690128","","0.04991986053","","0.3503459773","","","","","",""
"98","","bandit","326","937103","0.0-288.0-0.0","35560085","wem/bandit_single","AFUX7IUQOE0NA","pain","5","","74","J","1","","0","1","0","","0.3516217444","false","251","","0.2572530626","main_expt","","0.3516217444","","0.087584861","","0.3900307368","","","","","",""
"67","","bandit","327","938936","0.0-289.0-0.0","35560085","wem/bandit_single","AFUX7IUQOE0NA","pain","5","","74","J","1","","0","1","0","","0.3478664427","false","252","","0.206609756","main_expt","","0.3478664427","","0.1089760904","","0.3998204568","","","","","",""
"131","","bandit","328","940832","0.0-290.0-0.0","35560085","wem/bandit_single","AFUX7IUQOE0NA","pain","5","","74","J","1","","0","1","0","","0.2845216812","false","253","","0.2526850855","main_expt","","0.2845216812","","0.1389783028","","0.4062214202","","","","","",""
"18","","bandit","329","942616","0.0-291.0-0.0","35560085","wem/bandit_single","AFUX7IUQOE0NA","pain","5","","74","J","1","","0","0","1","","0.3395138109","false","254","","0.2143143283","main_expt","","0.3395138109","","0.1438582992","","0.434330363","","","","","",""
"186","","bandit","330","944567","0.0-292.0-0.0","35560085","wem/bandit_single","AFUX7IUQOE0NA","pain","5","","74","J","1","","0","0","1","","0.284072963","false","255","","0.2330346229","main_expt","","0.284072963","","0.1341592381","","0.463361135","","","","","",""
"46","","bandit","331","946376","0.0-293.0-0.0","35560085","wem/bandit_single","AFUX7IUQOE0NA","pain","5","","74","J","1","","0","0","1","","0.2791977035","false","256","","0.1707848091","main_expt","","0.2791977035","","0.1539827047","","0.4513325925","","","","","",""
"91","","bandit","332","948232","0.0-294.0-0.0","35560085","wem/bandit_single","AFUX7IUQOE0NA","pain","5","","75","K","2","","0","0","1","","0.1067893116","false","257","","0.204762461","main_expt","","0.2827618753","","0.1067893116","","0.4493477618","","","","","",""
"163","","bandit","333","950160","0.0-295.0-0.0","35560085","wem/bandit_single","AFUX7IUQOE0NA","pain","5","","76","L","3","","0","0","1","","0.4586876348","false","258","","0.1678630312","main_expt","","0.2367173663","","0.05021154971","","0.4586876348","","","","","",""
"211","","bandit","334","952136","0.0-296.0-0.0","35560085","wem/bandit_single","AFUX7IUQOE0NA","pain","5","","72","H","0","img/none_selected.jpg","0","0","1","","0.1739170557","false","259","","0.1739170557","main_expt","","0.2715647874","","0.04357518244","","0.45931789","","","","","",""
"140","","bandit","335","954041","0.0-297.0-0.0","35560085","wem/bandit_single","AFUX7IUQOE0NA","pain","5","","74","J","1","","0","1","0","","0.2310951927","false","260","","0.1848885371","main_expt","","0.2310951927","","0.05606835832","","0.4583289396","","","","","",""
"1","","bandit","336","955807","0.0-298.0-0.0","35560085","wem/bandit_single","AFUX7IUQOE0NA","pain","5","","74","J","1","","0","0","1","","0.2297288133","false","261","","0.2258440324","main_expt","","0.2297288133","","0.05035703518","","0.4470277171","","","","","",""
"6","","bandit","337","957576","0.0-299.0-0.0","35560085","wem/bandit_single","AFUX7IUQOE0NA","pain","5","","74","J","1","","0","0","1","","0.2072969611","false","262","","0.2167220908","main_expt","","0.2072969611","","0.04352905051","","0.457772586","","","","","",""
"34","","bandit","338","959375","0.0-300.0-0.0","35560085","wem/bandit_single","AFUX7IUQOE0NA","pain","5","","72","H","0","img/none_selected.jpg","0","0","1","","0.2118780444","false","263","","0.2118780444","main_expt","","0.2427077321","","0.0373968872","","0.417694616","","","","","",""
"395","","bandit","339","961535","0.0-301.0-0.0","35560085","wem/bandit_single","AFUX7IUQOE0NA","pain","5","","75","K","2","","0","0","1","","0.04440415955","false","264","","0.1870566281","main_expt","","0.3052561595","","0.04440415955","","0.4214939516","","","","","",""
"19","","bandit","340","963320","0.0-302.0-0.0","35560085","wem/bandit_single","AFUX7IUQOE0NA","pain","5","","76","L","3","","0","1","0","","0.413465883","false","265","","0.1706127143","main_expt","","0.3000319327","","0.0139225964","","0.413465883","","","","","",""
"53","","bandit","341","965138","0.0-303.0-0.0","35560085","wem/bandit_single","AFUX7IUQOE0NA","pain","5","","76","L","3","","0","0","1","","0.4116424673","false","266","","0.1693140566","main_expt","","0.3134404232","","0.01259799349","","0.4116424673","","","","","",""
"25","","bandit","342","966928","0.0-304.0-0.0","35560085","wem/bandit_single","AFUX7IUQOE0NA","pain","5","","76","L","3","","0","0","1","","0.3863145418","false","267","","0.1753800763","main_expt","","0.3066387991","","0.00740451457","","0.3863145418","","","","","",""
"196","","bandit","343","968888","0.0-305.0-0.0","35560085","wem/bandit_single","AFUX7IUQOE0NA","pain","5","","75","K","2","","0","0","1","","0.004693585052","false","268","","0.1918786918","main_expt","","0.3058482798","","0.004693585052","","0.4265221664","","","","","",""
"250","","bandit","344","970904","0.0-306.0-0.0","35560085","wem/bandit_single","AFUX7IUQOE0NA","pain","5","","74","J","1","","0","0","1","","0.2523051309","false","269","","0.1999989265","main_expt","","0.2523051309","","0.004824061053","","0.4515898034","","","","","",""
"378","","bandit","345","973048","0.0-307.0-0.0","35560085","wem/bandit_single","AFUX7IUQOE0NA","pain","5","","72","H","0","img/none_selected.jpg","0","1","0","","0.2211747839","false","270","","0.2211747839","main_expt","","0.2663701485","","0.006174480496","","0.4467147125","","","","","",""
"724","","bandit","346","975538","0.0-308.0-0.0","35560085","wem/bandit_single","AFUX7IUQOE0NA","pain","5","","72","H","0","img/none_selected.jpg","0","0","1","","0.2404792593","false","271","","0.2404792593","main_expt","","0.2485798686","","0.00832103917","","0.4582909467","","","","","",""
"104","","bandit","347","977407","0.0-309.0-0.0","35560085","wem/bandit_single","AFUX7IUQOE0NA","pain","5","","72","H","0","img/none_selected.jpg","0","0","1","","0.2558589782","false","272","","0.2558589782","main_expt","","0.2345495347","","0.00728594366","","0.4709209778","","","","","",""
"403","","bandit","348","979575","0.0-310.0-0.0","35560085","wem/bandit_single","AFUX7IUQOE0NA","pain","5","","74","J","1","","0","0","1","","0.2137032991","false","273","","0.1700432942","main_expt","","0.2137032991","","0.01114453755","","0.4660917397","","","","","",""
"90","","bandit","349","981432","0.0-311.0-0.0","35560085","wem/bandit_single","AFUX7IUQOE0NA","pain","5","","75","K","2","","0","0","1","","0.01390500062","false","274","","0.2452429789","main_expt","","0.2108512091","","0.01390500062","","0.4639522763","","","","","",""
"329","","bandit","350","983528","0.0-312.0-0.0","35560085","wem/bandit_single","AFUX7IUQOE0NA","pain","5","","76","L","3","","0","1","0","","0.4559735555","false","275","","0.2540496776","main_expt","","0.1817434844","","0.01307999715","","0.4559735555","","","","","",""
"98","","bandit","351","985392","0.0-313.0-0.0","35560085","wem/bandit_single","AFUX7IUQOE0NA","pain","5","","76","L","3","","0","0","1","","0.4246507461","false","276","","0.2816965905","main_expt","","0.2037179719","","0.01650166306","","0.4246507461","","","","","",""
"43","","bandit","352","987200","0.0-314.0-0.0","35560085","wem/bandit_single","AFUX7IUQOE0NA","pain","5","","72","H","0","img/none_selected.jpg","0","0","1","","0.2757967379","false","277","","0.2757967379","main_expt","","0.211691867","","0.02228120093","","0.4061878557","","","","","",""
"32","","bandit","353","988998","0.0-315.0-0.0","35560085","wem/bandit_single","AFUX7IUQOE0NA","pain","5","","76","L","3","","0","0","1","","0.4185559707","false","278","","0.3233086266","main_expt","","0.1725584367","","0.01609054627","","0.4185559707","","","","","",""
"490","","bandit","354","991255","0.0-316.0-0.0","35560085","wem/bandit_single","AFUX7IUQOE0NA","pain","5","","72","H","0","img/none_selected.jpg","0","0","1","","0.3447853064","false","279","","0.3447853064","main_expt","","0.1976152383","","0.03276024715","","0.4048416859","","","","","",""
"218","","bandit","355","993240","0.0-317.0-0.0","35560085","wem/bandit_single","AFUX7IUQOE0NA","pain","5","","75","K","2","","0","0","1","","0.045813934","false","280","","0.2944080033","main_expt","","0.2245419331","","0.045813934","","0.3930733378","","","","","",""
"57","","bandit","356","995063","0.0-318.0-0.0","35560085","wem/bandit_single","AFUX7IUQOE0NA","pain","5","","74","J","1","","0","0","1","","0.2649095144","false","281","","0.3455536282","main_expt","","0.2649095144","","0.07680660156","","0.3722539572","","","","","",""
"12","","bandit","357","996839","0.0-319.0-0.0","35560085","wem/bandit_single","AFUX7IUQOE0NA","pain","5","","75","K","2","","0","0","1","","0.08989395926","false","282","","0.3002636441","main_expt","","0.2440542309","","0.08989395926","","0.392640689","","","","","",""
"12","","bandit","358","998619","0.0-320.0-0.0","35560085","wem/bandit_single","AFUX7IUQOE0NA","pain","5","","76","L","3","","0","0","1","","0.3657249804","false","283","","0.2433385189","main_expt","","0.3074658718","","0.1096048843","","0.3657249804","","","","","",""
"111","","bandit","359","1000496","0.0-321.0-0.0","35560085","wem/bandit_single","AFUX7IUQOE0NA","pain","5","","72","H","0","img/none_selected.jpg","0","0","1","","0.2108667552","false","284","","0.2108667552","main_expt","","0.3224089974","","0.1082817284","","0.3625644972","","","","","",""
"25","","bandit","360","1002288","0.0-322.0-0.0","35560085","wem/bandit_single","AFUX7IUQOE0NA","pain","5","","74","J","1","","0","0","1","","0.3022873968","false","285","","0.2340218901","main_expt","","0.3022873968","","0.1629804938","","0.3054288932","","","","","",""
"130","","bandit","361","1004184","0.0-323.0-0.0","35560085","wem/bandit_single","AFUX7IUQOE0NA","pain","5","","75","K","2","","0","1","0","","0.1852598429","false","286","","0.2499238339","main_expt","","0.2889410052","","0.1852598429","","0.3391155559","","","","","",""
"145","","bandit","362","1006097","0.0-324.0-0.0","35560085","wem/bandit_single","AFUX7IUQOE0NA","pain","5","","75","K","2","","0","1","0","","0.2065414002","false","287","","0.2334780882","main_expt","","0.3151816804","","0.2065414002","","0.3328791194","","","","","",""
"607","","bandit","363","1008471","0.0-325.0-0.0","35560085","wem/bandit_single","AFUX7IUQOE0NA","pain","5","","75","K","2","","0","0","1","","0.1811366591","false","288","","0.2784320663","main_expt","","0.3489654206","","0.1811366591","","0.3011075564","","","","","",""
"121","","bandit","364","1010358","0.0-326.0-0.0","35560085","wem/bandit_single","AFUX7IUQOE0NA","pain","5","","75","K","2","","0","0","1","","0.1202209304","false","289","","0.2751214951","main_expt","","0.3673528387","","0.1202209304","","0.3326814497","","","","","",""
"82","","bandit","365","1012207","0.0-327.0-0.0","35560085","wem/bandit_single","AFUX7IUQOE0NA","pain","5","","75","K","2","","0","0","1","","0.1453470377","false","290","","0.304381699","main_expt","","0.3156989172","","0.1453470377","","0.3289320066","","","","","",""
"34","","bandit","366","1014007","0.0-328.0-0.0","35560085","wem/bandit_single","AFUX7IUQOE0NA","pain","5","","74","J","1","","0","0","1","","0.3731423443","false","291","","0.2447169523","main_expt","","0.3731423443","","0.1477070836","","0.3074380044","","","","","",""
"106","","bandit","367","1015880","0.0-329.0-0.0","35560085","wem/bandit_single","AFUX7IUQOE0NA","pain","5","","72","H","0","img/none_selected.jpg","0","0","1","","0.2422140582","false","292","","0.2422140582","main_expt","","0.3819638953","","0.1442574827","","0.247625386","","","","","",""
"393","","bandit","368","1018040","0.0-330.0-0.0","35560085","wem/bandit_single","AFUX7IUQOE0NA","pain","5","","76","L","3","","0","0","1","","0.2438381571","false","293","","0.1480972705","main_expt","","0.3709780048","","0.1219757373","","0.2438381571","","","","","",""
"216","","bandit","369","1020024","0.0-331.0-0.0","35560085","wem/bandit_single","AFUX7IUQOE0NA","pain","5","","74","J","1","","0","1","0","","0.4013541824","false","294","","0.1338078997","main_expt","","0.4013541824","","0.149249144","","0.2772308066","","","","","",""
"834","","bandit","370","1022624","0.0-332.0-0.0","35560085","wem/bandit_single","AFUX7IUQOE0NA","pain","5","","74","J","1","","0","0","1","","0.4203470877","false","295","","0.1452417655","main_expt","","0.4203470877","","0.1066825056","","0.2386370059","","","","","",""
"65","","bandit","371","1024456","0.0-333.0-0.0","35560085","wem/bandit_single","AFUX7IUQOE0NA","pain","5","","74","J","1","","0","0","1","","0.4006598815","false","296","","0.12995508","main_expt","","0.4006598815","","0.06692503618","","0.2322267342","","","","","",""
"357","","bandit","372","1026584","0.0-334.0-0.0","35560085","wem/bandit_single","AFUX7IUQOE0NA","pain","5","","75","K","2","","0","0","1","","0.08806334149","false","297","","0.1079814357","main_expt","","0.4189250697","","0.08806334149","","0.2930795043","","","","","",""
"384","","bandit","373","1028734","0.0-335.0-0.0","35560085","wem/bandit_single","AFUX7IUQOE0NA","pain","5","","72","H","0","img/none_selected.jpg","0","0","1","","0.08396844466","false","298","","0.08396844466","main_expt","","0.4204303011","","0.0708541643","","0.3168190842","","","","","",""
"148","","bandit","374","1030649","0.0-336.0-0.0","35560085","wem/bandit_single","AFUX7IUQOE0NA","pain","5","","76","L","3","","0","0","1","","0.3251331367","false","299","","0.08942466987","main_expt","","0.3955170021","","0.07807128628","","0.3251331367","","","","","",""
"16","","bandit","375","1032432","0.0-337.0-0.0","35560085","wem/bandit_single","AFUX7IUQOE0NA","pain","5","","72","H","0","img/none_selected.jpg","0","0","1","","0.09399158568","false","300","","0.09399158568","main_expt","","0.3580479124","","0.09051803512","","0.3253714703","","","","","",""
"25","","bandit","376","1034224","0.0-338.0-0.0","35560085","wem/bandit_single","AFUX7IUQOE0NA","pain","5","","75","K","2","","0","0","1","","0.06690684845","false","301","","0.1057054846","main_expt","","0.3709648371","","0.06690684845","","0.2996689164","","","","","",""
"273","","bandit","377","1036264","0.0-339.0-0.0","35560085","wem/bandit_single","AFUX7IUQOE0NA","pain","5","","74","J","1","","0","0","1","","0.3914081417","false","302","","0.1134589886","main_expt","","0.3914081417","","0.07840474682","","0.3519183471","","","","","",""
