"rt","responses","trial_type","trial_index","time_elapsed","internal_node_id","subjID","study","MID","cond","drift","key_press","respCharCode","respKey","respChoiceNum","respChoice","gems","bombs","no_reward","GemPrChosen","BombPrChosen","practice","trial_counter","WinPr_0","LosePr_0","trial_label","WinPr_1","LosePr_1","WinPr_2","LosePr_2","WinPr_3","LosePr_3","Q0","Q1","Q2","gender","age","ethnicity"
"24884","{""Q0"":""A5NHP0N1XC09K""}","survey-text","0","24913","0.0-0.0","35921505","wem/bandit_single","A5NHP0N1XC09K","pain","2","","","","","","","","","","","","","","","","","","","","","","","","","","",""
"2492","","text","1","28419","0.0-1.0","35921505","wem/bandit_single","A5NHP0N1XC09K","pain","2","32","","","","","","","","","","","","","","","","","","","","","","","","","",""
"20495","","text","2","48919","0.0-2.0","35921505","wem/bandit_single","A5NHP0N1XC09K","pain","2","32","","","","","","","","","","","","","","","","","","","","","","","","","",""
"21447","","text","3","70371","0.0-3.0","35921505","wem/bandit_single","A5NHP0N1XC09K","pain","2","32","","","","","","","","","","","","","","","","","","","","","","","","","",""
"15783","","text","4","86159","0.0-4.0","35921505","wem/bandit_single","A5NHP0N1XC09K","pain","2","32","","","","","","","","","","","","","","","","","","","","","","","","","",""
"8464","","text","5","94629","0.0-5.0","35921505","wem/bandit_single","A5NHP0N1XC09K","pain","2","32","","","","","","","","","","","","","","","","","","","","","","","","","",""
"13051","","text","6","107683","0.0-6.0","35921505","wem/bandit_single","A5NHP0N1XC09K","pain","2","32","","","","","","","","","","","","","","","","","","","","","","","","","",""
"8546","","text","7","116237","0.0-7.0","35921505","wem/bandit_single","A5NHP0N1XC09K","pain","2","32","","","","","","","","","","","","","","","","","","","","","","","","","",""
"4655","","text","8","120897","0.0-8.0","35921505","wem/bandit_single","A5NHP0N1XC09K","pain","2","32","","","","","","","","","","","","","","","","","","","","","","","","","",""
"2392","","text","9","123292","0.0-9.0","35921505","wem/bandit_single","A5NHP0N1XC09K","pain","2","32","","","","","","","","","","","","","","","","","","","","","","","","","",""
"3088","","text","10","126387","0.0-10.0","35921505","wem/bandit_single","A5NHP0N1XC09K","pain","2","32","","","","","","","","","","","","","","","","","","","","","","","","","",""
"12058","","text","11","138449","0.0-11.0","35921505","wem/bandit_single","A5NHP0N1XC09K","pain","2","32","","","","","","","","","","","","","","","","","","","","","","","","","",""
"2659","","bandit","12","142642","0.0-12.0-0.0","35921505","wem/bandit_single","A5NHP0N1XC09K","pain","2","","74","J","0","img/none_selected_demo.jpg","0","0","1","0","0","true","0","0","0","","","","","","","","","","","","",""
"1036","","bandit","13","145443","0.0-13.0-0.0","35921505","wem/bandit_single","A5NHP0N1XC09K","pain","2","","75","K","0","img/none_selected_demo.jpg","0","0","1","0","0","true","0","0","0","","","","","","","","","","","","",""
"2342","","text","14","148039","0.0-14.0","35921505","wem/bandit_single","A5NHP0N1XC09K","pain","2","32","","","","","","","","","","","","","","","","","","","","","","","","","",""
"1937","","text","15","149980","0.0-15.0","35921505","wem/bandit_single","A5NHP0N1XC09K","pain","2","32","","","","","","","","","","","","","","","","","","","","","","","","","",""
"3682","","text","16","153667","0.0-16.0","35921505","wem/bandit_single","A5NHP0N1XC09K","pain","2","32","","","","","","","","","","","","","","","","","","","","","","","","","",""
"4327","","text","17","157997","0.0-17.0","35921505","wem/bandit_single","A5NHP0N1XC09K","pain","2","32","","","","","","","","","","","","","","","","","","","","","","","","","",""
"3348","","bandit","18","162860","0.0-18.0-0.0","35921505","wem/bandit_single","A5NHP0N1XC09K","pain","2","","74","J","0","img/none_selected_demo.jpg","0","1","0","0","0.8","true","0","0","0.8","80_20_practice","0","0.2","","","","","","","","","",""
"290","","bandit","19","164916","0.0-18.0-1.0","35921505","wem/bandit_single","A5NHP0N1XC09K","pain","2","","75","K","1","","0","1","0","0","0.2","true","0","0","0.8","80_20_practice","0","0.2","","","","","","","","","",""
"176","","bandit","20","166854","0.0-18.0-2.0","35921505","wem/bandit_single","A5NHP0N1XC09K","pain","2","","75","K","1","","0","0","1","0","0.2","true","0","0","0.8","80_20_practice","0","0.2","","","","","","","","","",""
"1241","","bandit","21","169880","0.0-18.0-3.0","35921505","wem/bandit_single","A5NHP0N1XC09K","pain","2","","74","J","0","img/none_selected_demo.jpg","0","1","0","0","0.8","true","0","0","0.8","80_20_practice","0","0.2","","","","","","","","","",""
"151","","bandit","22","171792","0.0-18.0-4.0","35921505","wem/bandit_single","A5NHP0N1XC09K","pain","2","","74","J","0","img/none_selected_demo.jpg","0","1","0","0","0.8","true","0","0","0.8","80_20_practice","0","0.2","","","","","","","","","",""
"555","","bandit","23","174112","0.0-18.0-5.0","35921505","wem/bandit_single","A5NHP0N1XC09K","pain","2","","74","J","0","img/none_selected_demo.jpg","0","0","1","0","0.8","true","0","0","0.8","80_20_practice","0","0.2","","","","","","","","","",""
"723","","bandit","24","176599","0.0-18.0-6.0","35921505","wem/bandit_single","A5NHP0N1XC09K","pain","2","","74","J","0","img/none_selected_demo.jpg","0","1","0","0","0.8","true","0","0","0.8","80_20_practice","0","0.2","","","","","","","","","",""
"1641","","bandit","25","180001","0.0-18.0-7.0","35921505","wem/bandit_single","A5NHP0N1XC09K","pain","2","","74","J","0","img/none_selected_demo.jpg","0","1","0","0","0.8","true","0","0","0.8","80_20_practice","0","0.2","","","","","","","","","",""
"79","","bandit","26","181841","0.0-18.0-8.0","35921505","wem/bandit_single","A5NHP0N1XC09K","pain","2","","74","J","0","img/none_selected_demo.jpg","0","1","0","0","0.8","true","0","0","0.8","80_20_practice","0","0.2","","","","","","","","","",""
"189","","bandit","27","183795","0.0-18.0-9.0","35921505","wem/bandit_single","A5NHP0N1XC09K","pain","2","","75","K","1","","0","0","1","0","0.2","true","0","0","0.8","80_20_practice","0","0.2","","","","","","","","","",""
"900","","bandit","28","186462","0.0-18.0-10.0","35921505","wem/bandit_single","A5NHP0N1XC09K","pain","2","","75","K","1","","0","0","1","0","0.2","true","0","0","0.8","80_20_practice","0","0.2","","","","","","","","","",""
"84","","bandit","29","188391","0.0-18.0-11.0","35921505","wem/bandit_single","A5NHP0N1XC09K","pain","2","","74","J","0","img/none_selected_demo.jpg","0","0","1","0","0.8","true","0","0","0.8","80_20_practice","0","0.2","","","","","","","","","",""
"45","","bandit","30","190229","0.0-18.0-12.0","35921505","wem/bandit_single","A5NHP0N1XC09K","pain","2","","74","J","0","img/none_selected_demo.jpg","0","0","1","0","0.8","true","0","0","0.8","80_20_practice","0","0.2","","","","","","","","","",""
"120","","bandit","31","192112","0.0-18.0-13.0","35921505","wem/bandit_single","A5NHP0N1XC09K","pain","2","","74","J","0","img/none_selected_demo.jpg","0","1","0","0","0.8","true","0","0","0.8","80_20_practice","0","0.2","","","","","","","","","",""
"374","","bandit","32","194248","0.0-18.0-14.0","35921505","wem/bandit_single","A5NHP0N1XC09K","pain","2","","74","J","0","img/none_selected_demo.jpg","0","1","0","0","0.8","true","0","0","0.8","80_20_practice","0","0.2","","","","","","","","","",""
"234","","bandit","33","196248","0.0-18.0-15.0","35921505","wem/bandit_single","A5NHP0N1XC09K","pain","2","","74","J","0","img/none_selected_demo.jpg","0","1","0","0","0.8","true","0","0","0.8","80_20_practice","0","0.2","","","","","","","","","",""
"302","","bandit","34","198328","0.0-18.0-16.0","35921505","wem/bandit_single","A5NHP0N1XC09K","pain","2","","74","J","0","img/none_selected_demo.jpg","0","1","0","0","0.8","true","0","0","0.8","80_20_practice","0","0.2","","","","","","","","","",""
"154","","bandit","35","200244","0.0-18.0-17.0","35921505","wem/bandit_single","A5NHP0N1XC09K","pain","2","","74","J","0","img/none_selected_demo.jpg","0","1","0","0","0.8","true","0","0","0.8","80_20_practice","0","0.2","","","","","","","","","",""
"64","","bandit","36","202077","0.0-18.0-18.0","35921505","wem/bandit_single","A5NHP0N1XC09K","pain","2","","74","J","0","img/none_selected_demo.jpg","0","1","0","0","0.8","true","0","0","0.8","80_20_practice","0","0.2","","","","","","","","","",""
"832","","bandit","37","204687","0.0-18.0-19.0","35921505","wem/bandit_single","A5NHP0N1XC09K","pain","2","","74","J","0","img/none_selected_demo.jpg","0","1","0","0","0.8","true","0","0","0.8","80_20_practice","0","0.2","","","","","","","","","",""
"5402","","text","38","210348","0.0-19.0","35921505","wem/bandit_single","A5NHP0N1XC09K","pain","2","32","","","","","","","","","","","","","","","","","","","","","","","","","",""
"2109","","bandit","39","213969","0.0-20.0-0.0","35921505","wem/bandit_single","A5NHP0N1XC09K","pain","2","","74","J","0","img/none_selected_demo.jpg","0","0","1","0","0","true","0","0","0","","0","0","","","","","","","","","",""
"4327","","text","40","218555","0.0-21.0","35921505","wem/bandit_single","A5NHP0N1XC09K","pain","2","32","","","","","","","","","","","","","","","","","","","","","","","","","",""
"2021","","text","41","220580","0.0-22.0","35921505","wem/bandit_single","A5NHP0N1XC09K","pain","2","32","","","","","","","","","","","","","","","","","","","","","","","","","",""
"3169","","text","42","223757","0.0-23.0","35921505","wem/bandit_single","A5NHP0N1XC09K","pain","2","32","","","","","","","","","","","","","","","","","","","","","","","","","",""
"3241","","text","43","227003","0.0-24.0","35921505","wem/bandit_single","A5NHP0N1XC09K","pain","2","32","","","","","","","","","","","","","","","","","","","","","","","","","",""
"16021","","text","44","243030","0.0-25.0","35921505","wem/bandit_single","A5NHP0N1XC09K","pain","2","32","","","","","","","","","","","","","","","","","","","","","","","","","",""
"3091","","text","45","246130","0.0-26.0","35921505","wem/bandit_single","A5NHP0N1XC09K","pain","2","32","","","","","","","","","","","","","","","","","","","","","","","","","",""
"3705","","text","46","249841","0.0-27.0","35921505","wem/bandit_single","A5NHP0N1XC09K","pain","2","32","","","","","","","","","","","","","","","","","","","","","","","","","",""
"2550","","text","47","252398","0.0-28.0","35921505","wem/bandit_single","A5NHP0N1XC09K","pain","2","32","","","","","","","","","","","","","","","","","","","","","","","","","",""
"3151","","text","48","255555","0.0-29.0","35921505","wem/bandit_single","A5NHP0N1XC09K","pain","2","32","","","","","","","","","","","","","","","","","","","","","","","","","",""
"1990","","text","49","257550","0.0-30.0","35921505","wem/bandit_single","A5NHP0N1XC09K","pain","2","32","","","","","","","","","","","","","","","","","","","","","","","","","",""
"17399","","text","50","274955","0.0-31.0","35921505","wem/bandit_single","A5NHP0N1XC09K","pain","2","32","","","","","","","","","","","","","","","","","","","","","","","","","",""
"1088","","bandit","51","277558","0.0-32.0-0.0","35921505","wem/bandit_single","A5NHP0N1XC09K","pain","2","","72","H","0","img/none_selected.jpg","0","1","0","0","0.8","true","0","0","0.8","full_practice","0","0.2","0","0.6","0","0.2","","","","","",""
"484","","bandit","52","279807","0.0-32.0-1.0","35921505","wem/bandit_single","A5NHP0N1XC09K","pain","2","","75","K","2","","0","1","0","0","0.6","true","0","0","0.8","full_practice","0","0.2","0","0.6","0","0.2","","","","","",""
"285","","bandit","53","281857","0.0-32.0-2.0","35921505","wem/bandit_single","A5NHP0N1XC09K","pain","2","","76","L","3","","0","0","1","0","0.2","true","0","0","0.8","full_practice","0","0.2","0","0.6","0","0.2","","","","","",""
"231","","bandit","54","283851","0.0-32.0-3.0","35921505","wem/bandit_single","A5NHP0N1XC09K","pain","2","","75","K","2","","0","1","0","0","0.6","true","0","0","0.8","full_practice","0","0.2","0","0.6","0","0.2","","","","","",""
"15","","bandit","55","285636","0.0-32.0-4.0","35921505","wem/bandit_single","A5NHP0N1XC09K","pain","2","","75","K","2","","0","0","1","0","0.6","true","0","0","0.8","full_practice","0","0.2","0","0.6","0","0.2","","","","","",""
"627","","bandit","56","288060","0.0-32.0-5.0","35921505","wem/bandit_single","A5NHP0N1XC09K","pain","2","","72","H","0","img/none_selected.jpg","0","1","0","0","0.8","true","0","0","0.8","full_practice","0","0.2","0","0.6","0","0.2","","","","","",""
"316","","bandit","57","290173","0.0-32.0-6.0","35921505","wem/bandit_single","A5NHP0N1XC09K","pain","2","","72","H","0","img/none_selected.jpg","0","1","0","0","0.8","true","0","0","0.8","full_practice","0","0.2","0","0.6","0","0.2","","","","","",""
"94","","bandit","58","292037","0.0-32.0-7.0","35921505","wem/bandit_single","A5NHP0N1XC09K","pain","2","","74","J","1","","0","0","1","0","0.2","true","0","0","0.8","full_practice","0","0.2","0","0.6","0","0.2","","","","","",""
"58","","bandit","59","293860","0.0-32.0-8.0","35921505","wem/bandit_single","A5NHP0N1XC09K","pain","2","","72","H","0","img/none_selected.jpg","0","0","1","0","0.8","true","0","0","0.8","full_practice","0","0.2","0","0.6","0","0.2","","","","","",""
"130","","bandit","60","295756","0.0-32.0-9.0","35921505","wem/bandit_single","A5NHP0N1XC09K","pain","2","","75","K","2","","0","1","0","0","0.6","true","0","0","0.8","full_practice","0","0.2","0","0.6","0","0.2","","","","","",""
"84","","bandit","61","297603","0.0-32.0-10.0","35921505","wem/bandit_single","A5NHP0N1XC09K","pain","2","","75","K","2","","0","1","0","0","0.6","true","0","0","0.8","full_practice","0","0.2","0","0.6","0","0.2","","","","","",""
"518","","bandit","62","299885","0.0-32.0-11.0","35921505","wem/bandit_single","A5NHP0N1XC09K","pain","2","","75","K","2","","0","1","0","0","0.6","true","0","0","0.8","full_practice","0","0.2","0","0.6","0","0.2","","","","","",""
"358","","bandit","63","302011","0.0-32.0-12.0","35921505","wem/bandit_single","A5NHP0N1XC09K","pain","2","","75","K","2","","0","1","0","0","0.6","true","0","0","0.8","full_practice","0","0.2","0","0.6","0","0.2","","","","","",""
"35230","","bandit","64","339006","0.0-32.0-13.0","35921505","wem/bandit_single","A5NHP0N1XC09K","pain","2","","74","J","1","","0","0","1","0","0.2","true","0","0","0.8","full_practice","0","0.2","0","0.6","0","0.2","","","","","",""
"18","","bandit","65","340795","0.0-32.0-14.0","35921505","wem/bandit_single","A5NHP0N1XC09K","pain","2","","76","L","3","","0","0","1","0","0.2","true","0","0","0.8","full_practice","0","0.2","0","0.6","0","0.2","","","","","",""
"222","","bandit","66","342783","0.0-32.0-15.0","35921505","wem/bandit_single","A5NHP0N1XC09K","pain","2","","75","K","2","","0","0","1","0","0.6","true","0","0","0.8","full_practice","0","0.2","0","0.6","0","0.2","","","","","",""
"1135","","bandit","67","345689","0.0-32.0-16.0","35921505","wem/bandit_single","A5NHP0N1XC09K","pain","2","","75","K","2","","0","1","0","0","0.6","true","0","0","0.8","full_practice","0","0.2","0","0.6","0","0.2","","","","","",""
"790","","bandit","68","348246","0.0-32.0-17.0","35921505","wem/bandit_single","A5NHP0N1XC09K","pain","2","","76","L","3","","0","0","1","0","0.2","true","0","0","0.8","full_practice","0","0.2","0","0.6","0","0.2","","","","","",""
"2861","","bandit","69","352873","0.0-32.0-18.0","35921505","wem/bandit_single","A5NHP0N1XC09K","pain","2","","72","H","0","img/none_selected.jpg","0","1","0","0","0.8","true","0","0","0.8","full_practice","0","0.2","0","0.6","0","0.2","","","","","",""
"115","","bandit","70","354752","0.0-32.0-19.0","35921505","wem/bandit_single","A5NHP0N1XC09K","pain","2","","74","J","1","","0","1","0","0","0.2","true","0","0","0.8","full_practice","0","0.2","0","0.6","0","0.2","","","","","",""
"2847","","text","71","357870","0.0-33.0","35921505","wem/bandit_single","A5NHP0N1XC09K","pain","2","32","","","","","","","","","","","","","","","","","","","","","","","","","",""
"7555","","text","72","366436","0.0-34.0","35921505","wem/bandit_single","A5NHP0N1XC09K","pain","2","32","","","","","","","","","","","","","","","","","","","","","","","","","",""
"5096","","text","73","371541","0.0-35.0","35921505","wem/bandit_single","A5NHP0N1XC09K","pain","2","32","","","","","","","","","","","","","","","","","","","","","","","","","",""
"8508","","text","74","380055","0.0-36.0","35921505","wem/bandit_single","A5NHP0N1XC09K","pain","2","32","","","","","","","","","","","","","","","","","","","","","","","","","",""
"7692","","text","75","387755","0.0-37.0","35921505","wem/bandit_single","A5NHP0N1XC09K","pain","2","32","","","","","","","","","","","","","","","","","","","","","","","","","",""
"5024","","bandit","76","394298","0.0-38.0-0.0","35921505","wem/bandit_single","A5NHP0N1XC09K","pain","2","","72","H","0","img/none_selected.jpg","0","0","1","","0.1473353724","false","1","","0.1473353724","main_expt","","0.1047922924","","0.1196507759","","0.03692567881","","","","","",""
"5","","bandit","77","396071","0.0-39.0-0.0","35921505","wem/bandit_single","A5NHP0N1XC09K","pain","2","","74","J","1","","0","0","1","","0.09232691068","false","2","","0.1471364572","main_expt","","0.09232691068","","0.1434551849","","0.0535834513","","","","","",""
"65","","bandit","78","397928","0.0-40.0-0.0","35921505","wem/bandit_single","A5NHP0N1XC09K","pain","2","","75","K","2","","0","0","1","","0.1966750378","false","3","","0.1792173289","main_expt","","0.07878604621","","0.1966750378","","0.06455495551","","","","","",""
"33","","bandit","79","399758","0.0-41.0-0.0","35921505","wem/bandit_single","A5NHP0N1XC09K","pain","2","","76","L","3","","0","0","1","","0.1075220519","false","4","","0.2089457512","main_expt","","0.06180226224","","0.1731728381","","0.1075220519","","","","","",""
"195","","bandit","80","401720","0.0-42.0-0.0","35921505","wem/bandit_single","A5NHP0N1XC09K","pain","2","","75","K","2","","0","0","1","","0.151671232","false","5","","0.2627176439","main_expt","","0.05657605877","","0.151671232","","0.1459974634","","","","","",""
"100","","bandit","81","403585","0.0-43.0-0.0","35921505","wem/bandit_single","A5NHP0N1XC09K","pain","2","","74","J","1","","0","0","1","","0.03926223851","false","6","","0.2052823447","main_expt","","0.03926223851","","0.2201434377","","0.1119865757","","","","","",""
"512","","bandit","82","405863","0.0-44.0-0.0","35921505","wem/bandit_single","A5NHP0N1XC09K","pain","2","","72","H","0","img/none_selected.jpg","0","0","1","","0.2424381104","false","7","","0.2424381104","main_expt","","0.02952185798","","0.1924323999","","0.1135710889","","","","","",""
"599","","bandit","83","408228","0.0-45.0-0.0","35921505","wem/bandit_single","A5NHP0N1XC09K","pain","2","","72","H","0","img/none_selected.jpg","0","0","1","","0.2324683495","false","8","","0.2324683495","main_expt","","0.01847757052","","0.187431757","","0.148696524","","","","","",""
"216","","bandit","84","410209","0.0-46.0-0.0","35921505","wem/bandit_single","A5NHP0N1XC09K","pain","2","","72","H","0","img/none_selected.jpg","0","0","1","","0.2440295668","false","9","","0.2440295668","main_expt","","0.02695314055","","0.197470847","","0.1181121295","","","","","",""
"262","","bandit","85","412238","0.0-47.0-0.0","35921505","wem/bandit_single","A5NHP0N1XC09K","pain","2","","72","H","0","img/none_selected.jpg","0","1","0","","0.2465422232","false","10","","0.2465422232","main_expt","","0.02234311218","","0.2298270047","","0.1082266346","","","","","",""
"200","","bandit","86","414205","0.0-48.0-0.0","35921505","wem/bandit_single","A5NHP0N1XC09K","pain","2","","74","J","1","","0","0","1","","0.04960883058","false","11","","0.1529972956","main_expt","","0.04960883058","","0.2124937163","","0.1102162287","","","","","",""
"70","","bandit","87","416040","0.0-49.0-0.0","35921505","wem/bandit_single","A5NHP0N1XC09K","pain","2","","75","K","2","","0","0","1","","0.2043121782","false","12","","0.1827224572","main_expt","","0.06086541187","","0.2043121782","","0.1420736562","","","","","",""
"304","","bandit","88","418119","0.0-50.0-0.0","35921505","wem/bandit_single","A5NHP0N1XC09K","pain","2","","74","J","1","","0","0","1","","0.06603274732","false","13","","0.1973099221","main_expt","","0.06603274732","","0.2122729008","","0.1582971975","","","","","",""
"472","","bandit","89","420360","0.0-51.0-0.0","35921505","wem/bandit_single","A5NHP0N1XC09K","pain","2","","76","L","3","","0","0","1","","0.1278364912","false","14","","0.2002936143","main_expt","","0.06952645267","","0.1748916548","","0.1278364912","","","","","",""
"251","","bandit","90","422379","0.0-52.0-0.0","35921505","wem/bandit_single","A5NHP0N1XC09K","pain","2","","76","L","3","","0","0","1","","0.1389591295","false","15","","0.2100222876","main_expt","","0.06705093019","","0.1598041939","","0.1389591295","","","","","",""
"53","","bandit","91","424202","0.0-53.0-0.0","35921505","wem/bandit_single","A5NHP0N1XC09K","pain","2","","76","L","3","","0","0","1","","0.1087507618","false","16","","0.192095419","main_expt","","0.08739136862","","0.1496559895","","0.1087507618","","","","","",""
"119","","bandit","92","426095","0.0-54.0-0.0","35921505","wem/bandit_single","A5NHP0N1XC09K","pain","2","","76","L","3","","0","0","1","","0.1591778588","false","17","","0.2057363858","main_expt","","0.0633177824","","0.1855105105","","0.1591778588","","","","","",""
"991","","bandit","93","428860","0.0-55.0-0.0","35921505","wem/bandit_single","A5NHP0N1XC09K","pain","2","","72","H","0","img/none_selected.jpg","0","0","1","","0.2142317849","false","18","","0.2142317849","main_expt","","0.05969087175","","0.180786103","","0.1612769879","","","","","",""
"280","","bandit","94","430904","0.0-56.0-0.0","35921505","wem/bandit_single","A5NHP0N1XC09K","pain","2","","72","H","0","img/none_selected.jpg","0","1","0","","0.2416868574","false","19","","0.2416868574","main_expt","","0.08316546351","","0.1867551017","","0.1706614454","","","","","",""
"321","","bandit","95","432991","0.0-57.0-0.0","35921505","wem/bandit_single","A5NHP0N1XC09K","pain","2","","72","H","0","img/none_selected.jpg","0","0","1","","0.2556662882","false","20","","0.2556662882","main_expt","","0.08506169859","","0.2414580321","","0.2173206475","","","","","",""
"159","","bandit","96","434913","0.0-58.0-0.0","35921505","wem/bandit_single","A5NHP0N1XC09K","pain","2","","72","H","0","img/none_selected.jpg","0","0","1","","0.2484624222","false","21","","0.2484624222","main_expt","","0.08337624199","","0.2552731096","","0.2297715145","","","","","",""
"120","","bandit","97","436799","0.0-59.0-0.0","35921505","wem/bandit_single","A5NHP0N1XC09K","pain","2","","72","H","0","img/none_selected.jpg","0","1","0","","0.3180013331","false","22","","0.3180013331","main_expt","","0.09400888178","","0.2706059063","","0.2893552095","","","","","",""
"38","","bandit","98","438601","0.0-60.0-0.0","35921505","wem/bandit_single","A5NHP0N1XC09K","pain","2","","72","H","0","img/none_selected.jpg","0","0","1","","0.3018869565","false","23","","0.3018869565","main_expt","","0.08373077729","","0.2240124609","","0.1756353462","","","","","",""
"211","","bandit","99","440585","0.0-61.0-0.0","35921505","wem/bandit_single","A5NHP0N1XC09K","pain","2","","72","H","0","img/none_selected.jpg","0","0","1","","0.3479913718","false","24","","0.3479913718","main_expt","","0.07394888686","","0.2337623096","","0.144307289","","","","","",""
"166","","bandit","100","442520","0.0-62.0-0.0","35921505","wem/bandit_single","A5NHP0N1XC09K","pain","2","","72","H","0","img/none_selected.jpg","0","0","1","","0.3851600672","false","25","","0.3851600672","main_expt","","0.1177231478","","0.1992837424","","0.1103761204","","","","","",""
"207","","bandit","101","444495","0.0-63.0-0.0","35921505","wem/bandit_single","A5NHP0N1XC09K","pain","2","","72","H","0","img/none_selected.jpg","0","1","0","","0.3771699284","false","26","","0.3771699284","main_expt","","0.1137187285","","0.2273902023","","0.09313295331","","","","","",""
"287","","bandit","102","446551","0.0-64.0-0.0","35921505","wem/bandit_single","A5NHP0N1XC09K","pain","2","","72","H","0","img/none_selected.jpg","0","1","0","","0.3284072512","false","27","","0.3284072512","main_expt","","0.1380279251","","0.2020281611","","0.07841862492","","","","","",""
"257","","bandit","103","448588","0.0-65.0-0.0","35921505","wem/bandit_single","A5NHP0N1XC09K","pain","2","","72","H","0","img/none_selected.jpg","0","0","1","","0.3708797381","false","28","","0.3708797381","main_expt","","0.1926536066","","0.2121805601","","0.0635621653","","","","","",""
"204","","bandit","104","450557","0.0-66.0-0.0","35921505","wem/bandit_single","A5NHP0N1XC09K","pain","2","","72","H","0","img/none_selected.jpg","0","1","0","","0.3630760189","false","29","","0.3630760189","main_expt","","0.1919064193","","0.1986823058","","0.04349452081","","","","","",""
"165","","bandit","105","452497","0.0-67.0-0.0","35921505","wem/bandit_single","A5NHP0N1XC09K","pain","2","","74","J","1","","0","1","0","","0.1767437005","false","30","","0.3414786107","main_expt","","0.1767437005","","0.2674628916","","0.06175929786","","","","","",""
"157","","bandit","106","454418","0.0-68.0-0.0","35921505","wem/bandit_single","A5NHP0N1XC09K","pain","2","","76","L","3","","0","0","1","","0.06380111671","false","31","","0.3536929226","main_expt","","0.2417082081","","0.2862820789","","0.06380111671","","","","","",""
"129","","bandit","107","456351","0.0-69.0-0.0","35921505","wem/bandit_single","A5NHP0N1XC09K","pain","2","","75","K","2","","0","0","1","","0.2895619367","false","32","","0.3238646006","main_expt","","0.2312742115","","0.2895619367","","0.08507033619","","","","","",""
"141","","bandit","108","458258","0.0-70.0-0.0","35921505","wem/bandit_single","A5NHP0N1XC09K","pain","2","","76","L","3","","0","0","1","","0.1242974044","false","33","","0.3018803865","main_expt","","0.2247834387","","0.312502841","","0.1242974044","","","","","",""
"93","","bandit","109","460118","0.0-71.0-0.0","35921505","wem/bandit_single","A5NHP0N1XC09K","pain","2","","75","K","2","","0","0","1","","0.2830864838","false","34","","0.2551449341","main_expt","","0.1192543008","","0.2830864838","","0.158311101","","","","","",""
"218","","bandit","110","462104","0.0-72.0-0.0","35921505","wem/bandit_single","A5NHP0N1XC09K","pain","2","","74","J","1","","0","0","1","","0.1336327135","false","35","","0.3200580053","main_expt","","0.1336327135","","0.2489219385","","0.1293969191","","","","","",""
"26","","bandit","111","463902","0.0-73.0-0.0","35921505","wem/bandit_single","A5NHP0N1XC09K","pain","2","","74","J","1","","0","0","1","","0.09851205292","false","36","","0.3241899647","main_expt","","0.09851205292","","0.2090346537","","0.1800853883","","","","","",""
"694","","bandit","112","466366","0.0-74.0-0.0","35921505","wem/bandit_single","A5NHP0N1XC09K","pain","2","","72","H","0","img/none_selected.jpg","0","1","0","","0.3029113802","false","37","","0.3029113802","main_expt","","0.05943694951","","0.210385238","","0.1025448258","","","","","",""
"97","","bandit","113","468230","0.0-75.0-0.0","35921505","wem/bandit_single","A5NHP0N1XC09K","pain","2","","72","H","0","img/none_selected.jpg","0","0","1","","0.2958592888","false","38","","0.2958592888","main_expt","","0.06217728149","","0.162227856","","0.1604021245","","","","","",""
"79","","bandit","114","470080","0.0-76.0-0.0","35921505","wem/bandit_single","A5NHP0N1XC09K","pain","2","","72","H","0","img/none_selected.jpg","0","1","0","","0.2941945884","false","39","","0.2941945884","main_expt","","0.08902833973","","0.1444893634","","0.1336531769","","","","","",""
"69","","bandit","115","471925","0.0-77.0-0.0","35921505","wem/bandit_single","A5NHP0N1XC09K","pain","2","","72","H","0","img/none_selected.jpg","0","0","1","","0.2784490849","false","40","","0.2784490849","main_expt","","0.1098655825","","0.1340169349","","0.1356889635","","","","","",""
"19","","bandit","116","473781","0.0-78.0-0.0","35921505","wem/bandit_single","A5NHP0N1XC09K","pain","2","","72","H","0","img/none_selected.jpg","0","0","1","","0.2943099773","false","41","","0.2943099773","main_expt","","0.125718056","","0.1019114547","","0.1434276379","","","","","",""
"189","","bandit","117","475743","0.0-79.0-0.0","35921505","wem/bandit_single","A5NHP0N1XC09K","pain","2","","72","H","0","img/none_selected.jpg","0","0","1","","0.2502187242","false","42","","0.2502187242","main_expt","","0.07668278466","","0.07379386716","","0.1432973755","","","","","",""
"37","","bandit","118","477553","0.0-80.0-0.0","35921505","wem/bandit_single","A5NHP0N1XC09K","pain","2","","72","H","0","img/none_selected.jpg","0","0","1","","0.2691097515","false","43","","0.2691097515","main_expt","","0.08403116819","","0.08186566242","","0.1605884153","","","","","",""
"37","","bandit","119","479358","0.0-81.0-0.0","35921505","wem/bandit_single","A5NHP0N1XC09K","pain","2","","72","H","0","img/none_selected.jpg","0","0","1","","0.2601206974","false","44","","0.2601206974","main_expt","","0.08258467284","","0.08692603594","","0.1396132557","","","","","",""
"128","","bandit","120","481256","0.0-82.0-0.0","35921505","wem/bandit_single","A5NHP0N1XC09K","pain","2","","72","H","0","img/none_selected.jpg","0","1","0","","0.3222012474","false","45","","0.3222012474","main_expt","","0.07253936928","","0.1212470101","","0.2250933593","","","","","",""
"51","","bandit","121","483073","0.0-83.0-0.0","35921505","wem/bandit_single","A5NHP0N1XC09K","pain","2","","72","H","0","img/none_selected.jpg","0","0","1","","0.3060845752","false","46","","0.3060845752","main_expt","","0.05374479905","","0.134661007","","0.1826421925","","","","","",""
"56","","bandit","122","484912","0.0-84.0-0.0","35921505","wem/bandit_single","A5NHP0N1XC09K","pain","2","","72","H","0","img/none_selected.jpg","0","1","0","","0.290950603","false","47","","0.290950603","main_expt","","0.06764850751","","0.1377890551","","0.1706758886","","","","","",""
"103","","bandit","123","486782","0.0-85.0-0.0","35921505","wem/bandit_single","A5NHP0N1XC09K","pain","2","","72","H","0","img/none_selected.jpg","0","1","0","","0.329307254","false","48","","0.329307254","main_expt","","0.05656727153","","0.1325860966","","0.1686178854","","","","","",""
"107","","bandit","124","488660","0.0-86.0-0.0","35921505","wem/bandit_single","A5NHP0N1XC09K","pain","2","","72","H","0","img/none_selected.jpg","0","1","0","","0.405044281","false","49","","0.405044281","main_expt","","0.08131597157","","0.1231750139","","0.1822379713","","","","","",""
"72","","bandit","125","490508","0.0-87.0-0.0","35921505","wem/bandit_single","A5NHP0N1XC09K","pain","2","","72","H","0","img/none_selected.jpg","0","0","1","","0.4121919591","false","50","","0.4121919591","main_expt","","0.08274267654","","0.1565964086","","0.2513484478","","","","","",""
"13","","bandit","126","492295","0.0-88.0-0.0","35921505","wem/bandit_single","A5NHP0N1XC09K","pain","2","","72","H","0","img/none_selected.jpg","0","1","0","","0.4271607293","false","51","","0.4271607293","main_expt","","0.1154896937","","0.1464659706","","0.2812942615","","","","","",""
"24","","bandit","127","494087","0.0-89.0-0.0","35921505","wem/bandit_single","A5NHP0N1XC09K","pain","2","","72","H","0","img/none_selected.jpg","0","0","1","","0.4249516559","false","52","","0.4249516559","main_expt","","0.07649260985","","0.1196909414","","0.2224049931","","","","","",""
"252","","bandit","128","496109","0.0-90.0-0.0","35921505","wem/bandit_single","A5NHP0N1XC09K","pain","2","","72","H","0","img/none_selected.jpg","0","1","0","","0.414238899","false","53","","0.414238899","main_expt","","0.06211708307","","0.1578713891","","0.2135714686","","","","","",""
"58","","bandit","129","497939","0.0-91.0-0.0","35921505","wem/bandit_single","A5NHP0N1XC09K","pain","2","","72","H","0","img/none_selected.jpg","0","1","0","","0.4404827494","false","54","","0.4404827494","main_expt","","0.05122165179","","0.1420893662","","0.2471494284","","","","","",""
"2","","bandit","130","499718","0.0-92.0-0.0","35921505","wem/bandit_single","A5NHP0N1XC09K","pain","2","","72","H","0","img/none_selected.jpg","0","1","0","","0.4258944343","false","55","","0.4258944343","main_expt","","0.05779626682","","0.1255118638","","0.26732004","","","","","",""
"216","","bandit","131","501711","0.0-93.0-0.0","35921505","wem/bandit_single","A5NHP0N1XC09K","pain","2","","72","H","0","img/none_selected.jpg","0","1","0","","0.4058732664","false","56","","0.4058732664","main_expt","","0.06578325953","","0.1040792381","","0.258853447","","","","","",""
"199","","bandit","132","503685","0.0-94.0-0.0","35921505","wem/bandit_single","A5NHP0N1XC09K","pain","2","","72","H","0","img/none_selected.jpg","0","0","1","","0.4269212616","false","57","","0.4269212616","main_expt","","0.07487929626","","0.1058118143","","0.247757255","","","","","",""
"163","","bandit","133","505616","0.0-95.0-0.0","35921505","wem/bandit_single","A5NHP0N1XC09K","pain","2","","72","H","0","img/none_selected.jpg","0","0","1","","0.4120073189","false","58","","0.4120073189","main_expt","","0.05601765109","","0.08107820888","","0.2380046022","","","","","",""
"134","","bandit","134","507521","0.0-96.0-0.0","35921505","wem/bandit_single","A5NHP0N1XC09K","pain","2","","72","H","0","img/none_selected.jpg","0","1","0","","0.367464959","false","59","","0.367464959","main_expt","","0.07158824907","","0.115954585","","0.273239949","","","","","",""
"215","","bandit","135","509507","0.0-97.0-0.0","35921505","wem/bandit_single","A5NHP0N1XC09K","pain","2","","72","H","0","img/none_selected.jpg","0","1","0","","0.3113576115","false","60","","0.3113576115","main_expt","","0.1021813758","","0.190529156","","0.314936794","","","","","",""
"3","","bandit","136","511278","0.0-98.0-0.0","35921505","wem/bandit_single","A5NHP0N1XC09K","pain","2","","72","H","0","img/none_selected.jpg","0","1","0","","0.3217665369","false","61","","0.3217665369","main_expt","","0.1422244628","","0.2024767933","","0.3361315769","","","","","",""
"238","","bandit","137","513286","0.0-99.0-0.0","35921505","wem/bandit_single","A5NHP0N1XC09K","pain","2","","72","H","0","img/none_selected.jpg","0","0","1","","0.3396020841","false","62","","0.3396020841","main_expt","","0.1543762338","","0.1478811465","","0.3012470308","","","","","",""
"249","","bandit","138","515305","0.0-100.0-0.0","35921505","wem/bandit_single","A5NHP0N1XC09K","pain","2","","72","H","0","img/none_selected.jpg","0","0","1","","0.3326008901","false","63","","0.3326008901","main_expt","","0.1957871903","","0.1472080331","","0.3035933772","","","","","",""
"239","","bandit","139","517447","0.0-101.0-0.0","35921505","wem/bandit_single","A5NHP0N1XC09K","pain","2","","72","H","0","img/none_selected.jpg","0","1","0","","0.2759567044","false","64","","0.2759567044","main_expt","","0.1998827037","","0.1523556625","","0.3061864711","","","","","",""
"177","","bandit","140","519402","0.0-102.0-0.0","35921505","wem/bandit_single","A5NHP0N1XC09K","pain","2","","72","H","0","img/none_selected.jpg","0","1","0","","0.330340259","false","65","","0.330340259","main_expt","","0.2229124218","","0.1640586258","","0.2795045379","","","","","",""
"94","","bandit","141","521270","0.0-103.0-0.0","35921505","wem/bandit_single","A5NHP0N1XC09K","pain","2","","72","H","0","img/none_selected.jpg","0","0","1","","0.394496842","false","66","","0.394496842","main_expt","","0.2821528041","","0.1559289375","","0.2624990872","","","","","",""
"21","","bandit","142","523059","0.0-104.0-0.0","35921505","wem/bandit_single","A5NHP0N1XC09K","pain","2","","72","H","0","img/none_selected.jpg","0","0","1","","0.3780229448","false","67","","0.3780229448","main_expt","","0.2228434199","","0.09042099393","","0.2316809648","","","","","",""
"209","","bandit","143","525069","0.0-105.0-0.0","35921505","wem/bandit_single","A5NHP0N1XC09K","pain","2","","72","H","0","img/none_selected.jpg","0","0","1","","0.313258317","false","68","","0.313258317","main_expt","","0.2039549584","","0.08874767337","","0.2266776066","","","","","",""
"182","","bandit","144","527048","0.0-106.0-0.0","35921505","wem/bandit_single","A5NHP0N1XC09K","pain","2","","72","H","0","img/none_selected.jpg","0","1","0","","0.3466590849","false","69","","0.3466590849","main_expt","","0.1998164138","","0.09103688118","","0.1734363374","","","","","",""
"156","","bandit","145","528972","0.0-107.0-0.0","35921505","wem/bandit_single","A5NHP0N1XC09K","pain","2","","72","H","0","img/none_selected.jpg","0","0","1","","0.3389702644","false","70","","0.3389702644","main_expt","","0.1936545157","","0.139461016","","0.1469163378","","","","","",""
"209","","bandit","146","530953","0.0-108.0-0.0","35921505","wem/bandit_single","A5NHP0N1XC09K","pain","2","","72","H","0","img/none_selected.jpg","0","0","1","","0.3037518088","false","71","","0.3037518088","main_expt","","0.1875420319","","0.1269809057","","0.1903103683","","","","","",""
"132","","bandit","147","532854","0.0-109.0-0.0","35921505","wem/bandit_single","A5NHP0N1XC09K","pain","2","","74","J","1","","0","0","1","","0.2275961541","false","72","","0.3007282465","main_expt","","0.2275961541","","0.1541032278","","0.2364630875","","","","","",""
"227","","bandit","148","534853","0.0-110.0-0.0","35921505","wem/bandit_single","A5NHP0N1XC09K","pain","2","","75","K","2","","0","0","1","","0.1618198783","false","73","","0.2796446257","main_expt","","0.2485431464","","0.1618198783","","0.2715971604","","","","","",""
"230","","bandit","149","536860","0.0-111.0-0.0","35921505","wem/bandit_single","A5NHP0N1XC09K","pain","2","","76","L","3","","0","0","1","","0.2716254876","false","74","","0.2729876577","main_expt","","0.2394527842","","0.1428156761","","0.2716254876","","","","","",""
"147","","bandit","150","538781","0.0-112.0-0.0","35921505","wem/bandit_single","A5NHP0N1XC09K","pain","2","","75","K","2","","0","1","0","","0.1312504708","false","75","","0.2067723694","main_expt","","0.2074684787","","0.1312504708","","0.2998540279","","","","","",""
"32","","bandit","151","540588","0.0-113.0-0.0","35921505","wem/bandit_single","A5NHP0N1XC09K","pain","2","","74","J","1","","0","0","1","","0.178133335","false","76","","0.2130899639","main_expt","","0.178133335","","0.1002429729","","0.3195890579","","","","","",""
"225","","bandit","152","542582","0.0-114.0-0.0","35921505","wem/bandit_single","A5NHP0N1XC09K","pain","2","","75","K","2","","0","0","1","","0.07543037954","false","77","","0.2109525889","main_expt","","0.1788248706","","0.07543037954","","0.2856322382","","","","","",""
"203","","bandit","153","544553","0.0-115.0-0.0","35921505","wem/bandit_single","A5NHP0N1XC09K","pain","2","","75","K","2","","0","0","1","","0.1153668935","false","78","","0.1884332626","main_expt","","0.1530293784","","0.1153668935","","0.2919105172","","","","","",""
"100","","bandit","154","546423","0.0-116.0-0.0","35921505","wem/bandit_single","A5NHP0N1XC09K","pain","2","","72","H","0","img/none_selected.jpg","0","0","1","","0.1883433777","false","79","","0.1883433777","main_expt","","0.1593806387","","0.07716777456","","0.2567181874","","","","","",""
"180","","bandit","155","548412","0.0-117.0-0.0","35921505","wem/bandit_single","A5NHP0N1XC09K","pain","2","","72","H","0","img/none_selected.jpg","0","0","1","","0.1998795799","false","80","","0.1998795799","main_expt","","0.1428411119","","0.08058819474","","0.3200023444","","","","","",""
"234","","bandit","156","550418","0.0-118.0-0.0","35921505","wem/bandit_single","A5NHP0N1XC09K","pain","2","","72","H","0","img/none_selected.jpg","0","0","1","","0.1651756375","false","81","","0.1651756375","main_expt","","0.1982686668","","0.09856946308","","0.3117755618","","","","","",""
"193","","bandit","157","552387","0.0-119.0-0.0","35921505","wem/bandit_single","A5NHP0N1XC09K","pain","2","","72","H","0","img/none_selected.jpg","0","0","1","","0.2235829688","false","82","","0.2235829688","main_expt","","0.2291501313","","0.1000946235","","0.3379160562","","","","","",""
"239","","bandit","158","554399","0.0-120.0-0.0","35921505","wem/bandit_single","A5NHP0N1XC09K","pain","2","","74","J","1","","0","0","1","","0.2259362275","false","83","","0.2456561592","main_expt","","0.2259362275","","0.06687408093","","0.3620865136","","","","","",""
"177","","bandit","159","556354","0.0-121.0-0.0","35921505","wem/bandit_single","A5NHP0N1XC09K","pain","2","","75","K","2","","0","0","1","","0.06463964557","false","84","","0.2790354554","main_expt","","0.1733031115","","0.06463964557","","0.3904685548","","","","","",""
"67","","bandit","160","558191","0.0-122.0-0.0","35921505","wem/bandit_single","A5NHP0N1XC09K","pain","2","","75","K","2","","0","0","1","","0.09044174456","false","85","","0.2389339959","main_expt","","0.1577379057","","0.09044174456","","0.4201611698","","","","","",""
"109","","bandit","161","560067","0.0-123.0-0.0","35921505","wem/bandit_single","A5NHP0N1XC09K","pain","2","","76","L","3","","0","0","1","","0.4544588035","false","86","","0.2905830411","main_expt","","0.1646880331","","0.07242924321","","0.4544588035","","","","","",""
"202","","bandit","162","562065","0.0-124.0-0.0","35921505","wem/bandit_single","A5NHP0N1XC09K","pain","2","","76","L","3","","0","1","0","","0.4444110865","false","87","","0.3336128518","main_expt","","0.157008097","","0.06356931104","","0.4444110865","","","","","",""
"148","","bandit","163","564037","0.0-125.0-0.0","35921505","wem/bandit_single","A5NHP0N1XC09K","pain","2","","76","L","3","","0","1","0","","0.4276611285","false","88","","0.3720796031","main_expt","","0.14663069","","0.08819972964","","0.4276611285","","","","","",""
"6","","bandit","164","565811","0.0-126.0-0.0","35921505","wem/bandit_single","A5NHP0N1XC09K","pain","2","","76","L","3","","0","0","1","","0.395063318","false","89","","0.3383028484","main_expt","","0.1510377787","","0.09388884115","","0.395063318","","","","","",""
"215","","bandit","165","567799","0.0-127.0-0.0","35921505","wem/bandit_single","A5NHP0N1XC09K","pain","2","","76","L","3","","0","0","1","","0.3790569413","false","90","","0.3550100304","main_expt","","0.1600185234","","0.1265583984","","0.3790569413","","","","","",""
"224","","bandit","166","569792","0.0-128.0-0.0","35921505","wem/bandit_single","A5NHP0N1XC09K","pain","2","","76","L","3","","0","0","1","","0.3763017738","false","91","","0.4198742783","main_expt","","0.1618321768","","0.09433033469","","0.3763017738","","","","","",""
"62","","bandit","167","571625","0.0-129.0-0.0","35921505","wem/bandit_single","A5NHP0N1XC09K","pain","2","","76","L","3","","0","0","1","","0.3829045729","false","92","","0.4522920775","main_expt","","0.1408839615","","0.05111462501","","0.3829045729","","","","","",""
"88","","bandit","168","573483","0.0-130.0-0.0","35921505","wem/bandit_single","A5NHP0N1XC09K","pain","2","","72","H","0","img/none_selected.jpg","0","0","1","","0.4572096334","false","93","","0.4572096334","main_expt","","0.1675332925","","0.05378689714","","0.4155552038","","","","","",""
"3","","bandit","169","575257","0.0-131.0-0.0","35921505","wem/bandit_single","A5NHP0N1XC09K","pain","2","","72","H","0","img/none_selected.jpg","0","1","0","","0.457248447","false","94","","0.457248447","main_expt","","0.2154783406","","0.04385487208","","0.3964247486","","","","","",""
"52","","bandit","170","577081","0.0-132.0-0.0","35921505","wem/bandit_single","A5NHP0N1XC09K","pain","2","","76","L","3","","0","0","1","","0.4028729744","false","95","","0.4284600246","main_expt","","0.2434825378","","0.02374316345","","0.4028729744","","","","","",""
"90","","bandit","171","578948","0.0-133.0-0.0","35921505","wem/bandit_single","A5NHP0N1XC09K","pain","2","","72","H","0","img/none_selected.jpg","0","0","1","","0.4213934208","false","96","","0.4213934208","main_expt","","0.300751002","","0.01119532444","","0.3937220057","","","","","",""
"66","","bandit","172","580782","0.0-134.0-0.0","35921505","wem/bandit_single","A5NHP0N1XC09K","pain","2","","76","L","3","","0","1","0","","0.3951408858","false","97","","0.4093218277","main_expt","","0.2390268827","","0.01205949719","","0.3951408858","","","","","",""
"92","","bandit","173","582674","0.0-135.0-0.0","35921505","wem/bandit_single","A5NHP0N1XC09K","pain","2","","72","H","0","img/none_selected.jpg","0","0","1","","0.4011771953","false","98","","0.4011771953","main_expt","","0.1872158766","","0.02530753644","","0.3872505806","","","","","",""
"122","","bandit","174","584566","0.0-136.0-0.0","35921505","wem/bandit_single","A5NHP0N1XC09K","pain","2","","76","L","3","","0","1","0","","0.3237376228","false","99","","0.4319140629","main_expt","","0.2281726053","","0.02318317113","","0.3237376228","","","","","",""
"124","","bandit","175","586459","0.0-137.0-0.0","35921505","wem/bandit_single","A5NHP0N1XC09K","pain","2","","72","H","0","img/none_selected.jpg","0","0","1","","0.4388591553","false","100","","0.4388591553","main_expt","","0.2322026393","","0.01577819671","","0.3840854176","","","","","",""
"154","","bandit","176","588407","0.0-138.0-0.0","35921505","wem/bandit_single","A5NHP0N1XC09K","pain","2","","76","L","3","","0","0","1","","0.4043087267","false","101","","0.4405661836","main_expt","","0.2675158553","","0.03767304301","","0.4043087267","","","","","",""
"78","","bandit","177","590257","0.0-139.0-0.0","35921505","wem/bandit_single","A5NHP0N1XC09K","pain","2","","76","L","3","","0","1","0","","0.423372456","false","102","","0.4155134761","main_expt","","0.2334450153","","0.03003558128","","0.423372456","","","","","",""
"140","","bandit","178","592164","0.0-140.0-0.0","35921505","wem/bandit_single","A5NHP0N1XC09K","pain","2","","72","H","0","img/none_selected.jpg","0","0","1","","0.4079284656","false","103","","0.4079284656","main_expt","","0.2546104349","","0.04748945294","","0.4305794097","","","","","",""
"137","","bandit","179","594071","0.0-141.0-0.0","35921505","wem/bandit_single","A5NHP0N1XC09K","pain","2","","72","H","0","img/none_selected.jpg","0","0","1","","0.3827156199","false","104","","0.3827156199","main_expt","","0.2657782481","","0.06674284653","","0.4515631957","","","","","",""
"165","","bandit","180","596018","0.0-142.0-0.0","35921505","wem/bandit_single","A5NHP0N1XC09K","pain","2","","72","H","0","img/none_selected.jpg","0","0","1","","0.3892206975","false","105","","0.3892206975","main_expt","","0.2397797145","","0.0806059128","","0.454723383","","","","","",""
"193","","bandit","181","597981","0.0-143.0-0.0","35921505","wem/bandit_single","A5NHP0N1XC09K","pain","2","","76","L","3","","0","0","1","","0.4487898282","false","106","","0.3499671591","main_expt","","0.1744994936","","0.1147522423","","0.4487898282","","","","","",""
"130","","bandit","182","599879","0.0-144.0-0.0","35921505","wem/bandit_single","A5NHP0N1XC09K","pain","2","","76","L","3","","0","0","1","","0.4300484018","false","107","","0.3378870415","main_expt","","0.2004436591","","0.1225979079","","0.4300484018","","","","","",""
"94","","bandit","183","601741","0.0-145.0-0.0","35921505","wem/bandit_single","A5NHP0N1XC09K","pain","2","","76","L","3","","0","0","1","","0.4056187414","false","108","","0.3206855754","main_expt","","0.1781349215","","0.1808232933","","0.4056187414","","","","","",""
"5","","bandit","184","603518","0.0-146.0-0.0","35921505","wem/bandit_single","A5NHP0N1XC09K","pain","2","","76","L","3","","0","1","0","","0.4145536126","false","109","","0.3412252333","main_expt","","0.1603989886","","0.2004688742","","0.4145536126","","","","","",""
"5","","bandit","185","605290","0.0-147.0-0.0","35921505","wem/bandit_single","A5NHP0N1XC09K","pain","2","","76","L","3","","0","0","1","","0.3897928763","false","110","","0.3650365033","main_expt","","0.1300992081","","0.2261403934","","0.3897928763","","","","","",""
"120","","bandit","186","607181","0.0-148.0-0.0","35921505","wem/bandit_single","A5NHP0N1XC09K","pain","2","","76","L","3","","0","1","0","","0.4150540561","false","111","","0.341048274","main_expt","","0.1740321776","","0.1612973213","","0.4150540561","","","","","",""
"166","","bandit","187","609126","0.0-149.0-0.0","35921505","wem/bandit_single","A5NHP0N1XC09K","pain","2","","76","L","3","","0","0","1","","0.4394636757","false","112","","0.3254027875","main_expt","","0.2444477537","","0.1655724556","","0.4394636757","","","","","",""
"19","","bandit","188","610915","0.0-150.0-0.0","35921505","wem/bandit_single","A5NHP0N1XC09K","pain","2","","76","L","3","","0","0","1","","0.4301961846","false","113","","0.308059901","main_expt","","0.2195244909","","0.1319876284","","0.4301961846","","","","","",""
"173","","bandit","189","612861","0.0-151.0-0.0","35921505","wem/bandit_single","A5NHP0N1XC09K","pain","2","","76","L","3","","0","1","0","","0.4497687286","false","114","","0.3238695313","main_expt","","0.2719971232","","0.1147934267","","0.4497687286","","","","","",""
"11","","bandit","190","614677","0.0-152.0-0.0","35921505","wem/bandit_single","A5NHP0N1XC09K","pain","2","","76","L","3","","0","0","1","","0.4448888627","false","115","","0.3315084933","main_expt","","0.2447677414","","0.1301750396","","0.4448888627","","","","","",""
"115","","bandit","191","616559","0.0-153.0-0.0","35921505","wem/bandit_single","A5NHP0N1XC09K","pain","2","","76","L","3","","0","1","0","","0.3905844751","false","116","","0.3234657333","main_expt","","0.2296513069","","0.130185029","","0.3905844751","","","","","",""
"143","","bandit","192","618472","0.0-154.0-0.0","35921505","wem/bandit_single","A5NHP0N1XC09K","pain","2","","76","L","3","","0","0","1","","0.424359093","false","117","","0.300593156","main_expt","","0.2151266314","","0.1548944576","","0.424359093","","","","","",""
"37","","bandit","193","620280","0.0-155.0-0.0","35921505","wem/bandit_single","A5NHP0N1XC09K","pain","2","","76","L","3","","0","0","1","","0.4121010571","false","118","","0.3585138177","main_expt","","0.1311834018","","0.172903741","","0.4121010571","","","","","",""
"152","","bandit","194","622202","0.0-156.0-0.0","35921505","wem/bandit_single","A5NHP0N1XC09K","pain","2","","76","L","3","","0","0","1","","0.4117558181","false","119","","0.3062020697","main_expt","","0.1190099868","","0.1707570171","","0.4117558181","","","","","",""
"124","","bandit","195","624098","0.0-157.0-0.0","35921505","wem/bandit_single","A5NHP0N1XC09K","pain","2","","76","L","3","","0","1","0","","0.4275669698","false","120","","0.3312553157","main_expt","","0.1117686876","","0.1870802187","","0.4275669698","","","","","",""
"116","","bandit","196","625991","0.0-158.0-0.0","35921505","wem/bandit_single","A5NHP0N1XC09K","pain","2","","76","L","3","","0","0","1","","0.4428986123","false","121","","0.3892509988","main_expt","","0.1415869423","","0.1870161021","","0.4428986123","","","","","",""
"113","","bandit","197","627873","0.0-159.0-0.0","35921505","wem/bandit_single","A5NHP0N1XC09K","pain","2","","76","L","3","","0","0","1","","0.4376246318","false","122","","0.4330036483","main_expt","","0.1398412585","","0.1926804843","","0.4376246318","","","","","",""
"126","","bandit","198","629787","0.0-160.0-0.0","35921505","wem/bandit_single","A5NHP0N1XC09K","pain","2","","76","L","3","","0","0","1","","0.4153394585","false","123","","0.4555957022","main_expt","","0.1163210087","","0.2057615037","","0.4153394585","","","","","",""
"163","","bandit","199","631719","0.0-161.0-0.0","35921505","wem/bandit_single","A5NHP0N1XC09K","pain","2","","76","L","3","","0","0","1","","0.4203389285","false","124","","0.4565029776","main_expt","","0.07344578178","","0.2639565913","","0.4203389285","","","","","",""
"183","","bandit","200","633696","0.0-162.0-0.0","35921505","wem/bandit_single","A5NHP0N1XC09K","pain","2","","76","L","3","","0","0","1","","0.3710029205","false","125","","0.4511527373","main_expt","","0.08752025541","","0.3672341475","","0.3710029205","","","","","",""
"184","","bandit","201","635659","0.0-163.0-0.0","35921505","wem/bandit_single","A5NHP0N1XC09K","pain","2","","76","L","3","","0","1","0","","0.3465273485","false","126","","0.4426171603","main_expt","","0.1064058914","","0.3606148775","","0.3465273485","","","","","",""
"166","","bandit","202","637593","0.0-164.0-0.0","35921505","wem/bandit_single","A5NHP0N1XC09K","pain","2","","76","L","3","","0","1","0","","0.4106613481","false","127","","0.4259104728","main_expt","","0.1103525866","","0.4079700646","","0.4106613481","","","","","",""
"54","","bandit","203","639421","0.0-165.0-0.0","35921505","wem/bandit_single","A5NHP0N1XC09K","pain","2","","76","L","3","","0","0","1","","0.4377707947","false","128","","0.4543754413","main_expt","","0.1060480298","","0.4204919645","","0.4377707947","","","","","",""
"116","","bandit","204","641311","0.0-166.0-0.0","35921505","wem/bandit_single","A5NHP0N1XC09K","pain","2","","76","L","3","","0","1","0","","0.4481781661","false","129","","0.4587533269","main_expt","","0.1332603285","","0.4040923387","","0.4481781661","","","","","",""
"144","","bandit","205","643233","0.0-167.0-0.0","35921505","wem/bandit_single","A5NHP0N1XC09K","pain","2","","76","L","3","","0","0","1","","0.4301237728","false","130","","0.4618517855","main_expt","","0.09182468565","","0.3906791758","","0.4301237728","","","","","",""
"5","","bandit","206","645012","0.0-168.0-0.0","35921505","wem/bandit_single","A5NHP0N1XC09K","pain","2","","76","L","3","","0","0","1","","0.4457858875","false","131","","0.4622878414","main_expt","","0.09388333002","","0.380553204","","0.4457858875","","","","","",""
"191","","bandit","207","646981","0.0-169.0-0.0","35921505","wem/bandit_single","A5NHP0N1XC09K","pain","2","","76","L","3","","0","0","1","","0.4732894157","false","132","","0.4624711794","main_expt","","0.07277513685","","0.4000467043","","0.4732894157","","","","","",""
"161","","bandit","208","648912","0.0-170.0-0.0","35921505","wem/bandit_single","A5NHP0N1XC09K","pain","2","","76","L","3","","0","0","1","","0.4607838047","false","133","","0.4794526202","main_expt","","0.1108266248","","0.3929100345","","0.4607838047","","","","","",""
"108","","bandit","209","650790","0.0-171.0-0.0","35921505","wem/bandit_single","A5NHP0N1XC09K","pain","2","","72","H","0","img/none_selected.jpg","0","1","0","","0.481632873","false","134","","0.481632873","main_expt","","0.1466671782","","0.4009617203","","0.4663808264","","","","","",""
"116","","bandit","210","652683","0.0-172.0-0.0","35921505","wem/bandit_single","A5NHP0N1XC09K","pain","2","","72","H","0","img/none_selected.jpg","0","1","0","","0.4667599148","false","135","","0.4667599148","main_expt","","0.1625995743","","0.3859426802","","0.4625615306","","","","","",""
"33","","bandit","211","654493","0.0-173.0-0.0","35921505","wem/bandit_single","A5NHP0N1XC09K","pain","2","","72","H","0","img/none_selected.jpg","0","0","1","","0.4468402508","false","136","","0.4468402508","main_expt","","0.1555673637","","0.4089350186","","0.4629143089","","","","","",""
"43","","bandit","212","656311","0.0-174.0-0.0","35921505","wem/bandit_single","A5NHP0N1XC09K","pain","2","","72","H","0","img/none_selected.jpg","0","0","1","","0.4331537256","false","137","","0.4331537256","main_expt","","0.1395554881","","0.4009707033","","0.4644074349","","","","","",""
"89","","bandit","213","658178","0.0-175.0-0.0","35921505","wem/bandit_single","A5NHP0N1XC09K","pain","2","","72","H","0","img/none_selected.jpg","0","0","1","","0.4578477473","false","138","","0.4578477473","main_expt","","0.1387442451","","0.4116224971","","0.4741213624","","","","","",""
"98","","bandit","214","660048","0.0-176.0-0.0","35921505","wem/bandit_single","A5NHP0N1XC09K","pain","2","","72","H","0","img/none_selected.jpg","0","1","0","","0.464919911","false","139","","0.464919911","main_expt","","0.1693780048","","0.4129411324","","0.4736492243","","","","","",""
"106","","bandit","215","661926","0.0-177.0-0.0","35921505","wem/bandit_single","A5NHP0N1XC09K","pain","2","","72","H","0","img/none_selected.jpg","0","1","0","","0.4614371154","false","140","","0.4614371154","main_expt","","0.1753437518","","0.4494235083","","0.4752570035","","","","","",""
"4","","bandit","216","663734","0.0-178.0-0.0","35921505","wem/bandit_single","A5NHP0N1XC09K","pain","2","","72","H","0","img/none_selected.jpg","0","1","0","","0.4747872093","false","141","","0.4747872093","main_expt","","0.2288512635","","0.4453484197","","0.4857055712","","","","","",""
"130","","bandit","217","665638","0.0-179.0-0.0","35921505","wem/bandit_single","A5NHP0N1XC09K","pain","2","","72","H","0","img/none_selected.jpg","0","0","1","","0.4513335087","false","142","","0.4513335087","main_expt","","0.2579513082","","0.4604546146","","0.4792724089","","","","","",""
"14","","bandit","218","667422","0.0-180.0-0.0","35921505","wem/bandit_single","A5NHP0N1XC09K","pain","2","","72","H","0","img/none_selected.jpg","0","1","0","","0.4198830698","false","143","","0.4198830698","main_expt","","0.21432658","","0.4826245684","","0.48057755","","","","","",""
"16","","bandit","219","669212","0.0-181.0-0.0","35921505","wem/bandit_single","A5NHP0N1XC09K","pain","2","","72","H","0","img/none_selected.jpg","0","0","1","","0.3673231636","false","144","","0.3673231636","main_expt","","0.1938021535","","0.4890981767","","0.4777600445","","","","","",""
"173","","bandit","220","671159","0.0-182.0-0.0","35921505","wem/bandit_single","A5NHP0N1XC09K","pain","2","","75","K","2","","0","1","0","","0.4680822138","false","145","","0.3772368795","main_expt","","0.206497324","","0.4680822138","","0.4735071841","","","","","",""
"21","","bandit","221","672950","0.0-183.0-0.0","35921505","wem/bandit_single","A5NHP0N1XC09K","pain","2","","75","K","2","","0","0","1","","0.4660155258","false","146","","0.3767069828","main_expt","","0.1857351915","","0.4660155258","","0.4598241197","","","","","",""
"138","","bandit","222","674859","0.0-184.0-0.0","35921505","wem/bandit_single","A5NHP0N1XC09K","pain","2","","74","J","1","","0","1","0","","0.1046475439","false","147","","0.4039806626","main_expt","","0.1046475439","","0.4723880167","","0.4279993213","","","","","",""
"26","","bandit","223","676668","0.0-185.0-0.0","35921505","wem/bandit_single","A5NHP0N1XC09K","pain","2","","74","J","1","","0","0","1","","0.1098111678","false","148","","0.4178396587","main_expt","","0.1098111678","","0.4692947112","","0.4422782314","","","","","",""
"137","","bandit","224","678594","0.0-186.0-0.0","35921505","wem/bandit_single","A5NHP0N1XC09K","pain","2","","75","K","2","","0","0","1","","0.4702562614","false","149","","0.3932004216","main_expt","","0.1221971929","","0.4702562614","","0.4514785706","","","","","",""
"164","","bandit","225","680537","0.0-187.0-0.0","35921505","wem/bandit_single","A5NHP0N1XC09K","pain","2","","75","K","2","","0","1","0","","0.4714094479","false","150","","0.4103897693","main_expt","","0.1354034315","","0.4714094479","","0.4189864991","","","","","",""
"123","","bandit","226","682438","0.0-188.0-0.0","35921505","wem/bandit_single","A5NHP0N1XC09K","pain","2","","75","K","2","","0","0","1","","0.4761401221","false","151","","0.4122179041","main_expt","","0.1041822367","","0.4761401221","","0.4389233528","","","","","",""
"15","","bandit","227","684224","0.0-189.0-0.0","35921505","wem/bandit_single","A5NHP0N1XC09K","pain","2","","75","K","2","","0","0","1","","0.4697737123","false","152","","0.3952463752","main_expt","","0.09038071171","","0.4697737123","","0.4244236929","","","","","",""
"189","","bandit","228","686186","0.0-190.0-0.0","35921505","wem/bandit_single","A5NHP0N1XC09K","pain","2","","75","K","2","","0","1","0","","0.446753433","false","153","","0.3877384472","main_expt","","0.08460578514","","0.446753433","","0.4476471014","","","","","",""
"4","","bandit","229","687961","0.0-191.0-0.0","35921505","wem/bandit_single","A5NHP0N1XC09K","pain","2","","75","K","2","","0","1","0","","0.4588815304","false","154","","0.3551427127","main_expt","","0.06957086972","","0.4588815304","","0.4505336387","","","","","",""
"55","","bandit","230","689792","0.0-192.0-0.0","35921505","wem/bandit_single","A5NHP0N1XC09K","pain","2","","75","K","2","","0","1","0","","0.4483664475","false","155","","0.3027898514","main_expt","","0.07570805595","","0.4483664475","","0.466992112","","","","","",""
"22","","bandit","231","691589","0.0-193.0-0.0","35921505","wem/bandit_single","A5NHP0N1XC09K","pain","2","","75","K","2","","0","0","1","","0.4383670719","false","156","","0.3245978035","main_expt","","0.1010055374","","0.4383670719","","0.4383448919","","","","","",""
"51","","bandit","232","693412","0.0-194.0-0.0","35921505","wem/bandit_single","A5NHP0N1XC09K","pain","2","","75","K","2","","0","0","1","","0.42990192","false","157","","0.3293821827","main_expt","","0.09959580587","","0.42990192","","0.4181306447","","","","","",""
"6","","bandit","233","695188","0.0-195.0-0.0","35921505","wem/bandit_single","A5NHP0N1XC09K","pain","2","","75","K","2","","0","1","0","","0.4112902825","false","158","","0.3053991167","main_expt","","0.09130540219","","0.4112902825","","0.4322591637","","","","","",""
"212","","bandit","234","697176","0.0-196.0-0.0","35921505","wem/bandit_single","A5NHP0N1XC09K","pain","2","","75","K","2","","0","1","0","","0.4085113589","false","159","","0.3475565739","main_expt","","0.07080299429","","0.4085113589","","0.4129829621","","","","","",""
"29","","bandit","235","698976","0.0-197.0-0.0","35921505","wem/bandit_single","A5NHP0N1XC09K","pain","2","","75","K","2","","0","0","1","","0.4079314082","false","160","","0.327393219","main_expt","","0.05017383151","","0.4079314082","","0.4094933958","","","","","",""
"3","","bandit","236","700751","0.0-198.0-0.0","35921505","wem/bandit_single","A5NHP0N1XC09K","pain","2","","75","K","2","","0","0","1","","0.3631501835","false","161","","0.303429729","main_expt","","0.03820476969","","0.3631501835","","0.404058003","","","","","",""
"25","","bandit","237","702552","0.0-199.0-0.0","35921505","wem/bandit_single","A5NHP0N1XC09K","pain","2","","74","J","1","","0","0","1","","0.02512507724","false","162","","0.3079210788","main_expt","","0.02512507724","","0.3470346279","","0.3846726044","","","","","",""
"48","","bandit","238","704371","0.0-200.0-0.0","35921505","wem/bandit_single","A5NHP0N1XC09K","pain","2","","74","J","1","","0","0","1","","0.03932379445","false","163","","0.3004483846","main_expt","","0.03932379445","","0.372656257","","0.4016559577","","","","","",""
"88","","bandit","239","706233","0.0-201.0-0.0","35921505","wem/bandit_single","A5NHP0N1XC09K","pain","2","","74","J","1","","0","0","1","","0.01829840099","false","164","","0.2886014424","main_expt","","0.01829840099","","0.3802753243","","0.3566256613","","","","","",""
"8","","bandit","240","708016","0.0-202.0-0.0","35921505","wem/bandit_single","A5NHP0N1XC09K","pain","2","","75","K","2","","0","1","0","","0.3881672334","false","165","","0.2088325088","main_expt","","0.02415252971","","0.3881672334","","0.3509524146","","","","","",""
"4","","bandit","241","709792","0.0-203.0-0.0","35921505","wem/bandit_single","A5NHP0N1XC09K","pain","2","","75","K","2","","0","0","1","","0.359536632","false","166","","0.2160195985","main_expt","","0.02185778449","","0.359536632","","0.2773632025","","","","","",""
"3082","","bandit","242","716314","0.0-204.0-0.0","35921505","wem/bandit_single","A5NHP0N1XC09K","pain","2","","75","K","2","","0","1","0","","0.3693034809","false","167","","0.1836534764","main_expt","","0.02761124673","","0.3693034809","","0.3022689801","","","","","",""
"50104","","bandit","243","768950","0.0-205.0-0.0","35921505","wem/bandit_single","A5NHP0N1XC09K","pain","2","","72","H","0","img/none_selected.jpg","0","0","1","","0.1701024481","false","168","","0.1701024481","main_expt","","0.02160611799","","0.3449050916","","0.2937690027","","","","","",""
"136","","bandit","244","770876","0.0-206.0-0.0","35921505","wem/bandit_single","A5NHP0N1XC09K","pain","2","","74","J","1","","0","1","0","","0.02113437328","false","169","","0.1896079261","main_expt","","0.02113437328","","0.3515710367","","0.2488586406","","","","","",""
"128","","bandit","245","772791","0.0-207.0-0.0","35921505","wem/bandit_single","A5NHP0N1XC09K","pain","2","","74","J","1","","0","0","1","","0.01292956957","false","170","","0.2377789273","main_expt","","0.01292956957","","0.3233833909","","0.2112819205","","","","","",""
"132","","bandit","246","774711","0.0-208.0-0.0","35921505","wem/bandit_single","A5NHP0N1XC09K","pain","2","","74","J","1","","0","0","1","","0.01989811998","false","171","","0.2640247014","main_expt","","0.01989811998","","0.2468086364","","0.2217900108","","","","","",""
"122","","bandit","247","776609","0.0-209.0-0.0","35921505","wem/bandit_single","A5NHP0N1XC09K","pain","2","","74","J","1","","0","0","1","","0.0296351857","false","172","","0.2055846389","main_expt","","0.0296351857","","0.3408906282","","0.2387596097","","","","","",""
"118","","bandit","248","778503","0.0-210.0-0.0","35921505","wem/bandit_single","A5NHP0N1XC09K","pain","2","","74","J","1","","0","0","1","","0.03540771295","false","173","","0.2438181894","main_expt","","0.03540771295","","0.3252944763","","0.2602125502","","","","","",""
"47","","bandit","249","780360","0.0-211.0-0.0","35921505","wem/bandit_single","A5NHP0N1XC09K","pain","2","","74","J","1","","0","0","1","","0.03725130304","false","174","","0.2733147352","main_expt","","0.03725130304","","0.3200904142","","0.2202846771","","","","","",""
"49","","bandit","250","782181","0.0-212.0-0.0","35921505","wem/bandit_single","A5NHP0N1XC09K","pain","2","","75","K","2","","0","0","1","","0.3622659173","false","175","","0.2767671147","main_expt","","0.03242602151","","0.3622659173","","0.233285157","","","","","",""
"6","","bandit","251","783959","0.0-213.0-0.0","35921505","wem/bandit_single","A5NHP0N1XC09K","pain","2","","74","J","1","","0","0","1","","0.04697917163","false","176","","0.2195478827","main_expt","","0.04697917163","","0.2937007374","","0.2264555061","","","","","",""
"122","","bandit","252","785856","0.0-214.0-0.0","35921505","wem/bandit_single","A5NHP0N1XC09K","pain","2","","74","J","1","","0","0","1","","0.04124559051","false","177","","0.1515864758","main_expt","","0.04124559051","","0.2513366018","","0.241841845","","","","","",""
"130","","bandit","253","787760","0.0-215.0-0.0","35921505","wem/bandit_single","A5NHP0N1XC09K","pain","2","","74","J","1","","0","0","1","","0.06205026603","false","178","","0.1618037694","main_expt","","0.06205026603","","0.3159509921","","0.2423953475","","","","","",""
"37","","bandit","254","789572","0.0-216.0-0.0","35921505","wem/bandit_single","A5NHP0N1XC09K","pain","2","","76","L","3","","0","0","1","","0.2523089652","false","179","","0.1653326191","main_expt","","0.08412795639","","0.2899582247","","0.2523089652","","","","","",""
"92","","bandit","255","791439","0.0-217.0-0.0","35921505","wem/bandit_single","A5NHP0N1XC09K","pain","2","","76","L","3","","0","0","1","","0.2223981335","false","180","","0.1751853148","main_expt","","0.1304099397","","0.3371390753","","0.2223981335","","","","","",""
"30","","bandit","256","793243","0.0-218.0-0.0","35921505","wem/bandit_single","A5NHP0N1XC09K","pain","2","","76","L","3","","0","0","1","","0.2319473409","false","181","","0.211978586","main_expt","","0.1801801058","","0.3365963609","","0.2319473409","","","","","",""
"17","","bandit","257","795033","0.0-219.0-0.0","35921505","wem/bandit_single","A5NHP0N1XC09K","pain","2","","76","L","3","","0","0","1","","0.2338578761","false","182","","0.2323199139","main_expt","","0.1951504204","","0.2643366398","","0.2338578761","","","","","",""
"111","","bandit","258","796919","0.0-220.0-0.0","35921505","wem/bandit_single","A5NHP0N1XC09K","pain","2","","76","L","3","","0","0","1","","0.265472663","false","183","","0.2252803731","main_expt","","0.2330781564","","0.2464000872","","0.265472663","","","","","",""
"67","","bandit","259","798759","0.0-221.0-0.0","35921505","wem/bandit_single","A5NHP0N1XC09K","pain","2","","74","J","1","","0","0","1","","0.2711395555","false","184","","0.1614269484","main_expt","","0.2711395555","","0.3039071009","","0.2826161147","","","","","",""
"51","","bandit","260","800583","0.0-222.0-0.0","35921505","wem/bandit_single","A5NHP0N1XC09K","pain","2","","72","H","0","img/none_selected.jpg","0","1","0","","0.1636939604","false","185","","0.1636939604","main_expt","","0.2182249031","","0.3100879913","","0.2542525597","","","","","",""
"115","","bandit","261","802477","0.0-223.0-0.0","35921505","wem/bandit_single","A5NHP0N1XC09K","pain","2","","72","H","0","img/none_selected.jpg","0","0","1","","0.1744134641","false","186","","0.1744134641","main_expt","","0.2609412602","","0.28505789","","0.260460085","","","","","",""
"99","","bandit","262","804360","0.0-224.0-0.0","35921505","wem/bandit_single","A5NHP0N1XC09K","pain","2","","72","H","0","img/none_selected.jpg","0","0","1","","0.1955069844","false","187","","0.1955069844","main_expt","","0.2242136054","","0.2698122055","","0.2119714508","","","","","",""
"136","","bandit","263","806271","0.0-225.0-0.0","35921505","wem/bandit_single","A5NHP0N1XC09K","pain","2","","72","H","0","img/none_selected.jpg","0","0","1","","0.2289740151","false","188","","0.2289740151","main_expt","","0.2404864381","","0.2270240414","","0.1887053186","","","","","",""
"104","","bandit","264","808153","0.0-226.0-0.0","35921505","wem/bandit_single","A5NHP0N1XC09K","pain","2","","72","H","0","img/none_selected.jpg","0","1","0","","0.2495887903","false","189","","0.2495887903","main_expt","","0.2177927796","","0.2182158859","","0.1944753942","","","","","",""
"170","","bandit","265","810099","0.0-227.0-0.0","35921505","wem/bandit_single","A5NHP0N1XC09K","pain","2","","72","H","0","img/none_selected.jpg","0","1","0","","0.2815424982","false","190","","0.2815424982","main_expt","","0.2445379922","","0.2445882628","","0.2163673671","","","","","",""
"84","","bandit","266","811960","0.0-228.0-0.0","35921505","wem/bandit_single","A5NHP0N1XC09K","pain","2","","72","H","0","img/none_selected.jpg","0","0","1","","0.2401402076","false","191","","0.2401402076","main_expt","","0.2910265903","","0.2733302752","","0.2584180811","","","","","",""
"125","","bandit","267","813859","0.0-229.0-0.0","35921505","wem/bandit_single","A5NHP0N1XC09K","pain","2","","72","H","0","img/none_selected.jpg","0","0","1","","0.2510809658","false","192","","0.2510809658","main_expt","","0.3095983682","","0.2776932955","","0.2555063139","","","","","",""
"115","","bandit","268","815749","0.0-230.0-0.0","35921505","wem/bandit_single","A5NHP0N1XC09K","pain","2","","72","H","0","img/none_selected.jpg","0","0","1","","0.2875405407","false","193","","0.2875405407","main_expt","","0.3217156539","","0.3335190616","","0.2694863875","","","","","",""
"110","","bandit","269","817637","0.0-231.0-0.0","35921505","wem/bandit_single","A5NHP0N1XC09K","pain","2","","72","H","0","img/none_selected.jpg","0","1","0","","0.2183543786","false","194","","0.2183543786","main_expt","","0.278878796","","0.3308991278","","0.2894821148","","","","","",""
"134","","bandit","270","819547","0.0-232.0-0.0","35921505","wem/bandit_single","A5NHP0N1XC09K","pain","2","","72","H","0","img/none_selected.jpg","0","0","1","","0.2626349305","false","195","","0.2626349305","main_expt","","0.2738334973","","0.3676749275","","0.3028339589","","","","","",""
"124","","bandit","271","821447","0.0-233.0-0.0","35921505","wem/bandit_single","A5NHP0N1XC09K","pain","2","","72","H","0","img/none_selected.jpg","0","0","1","","0.2046446137","false","196","","0.2046446137","main_expt","","0.2494818112","","0.3523241719","","0.3051171059","","","","","",""
"115","","bandit","272","823351","0.0-234.0-0.0","35921505","wem/bandit_single","A5NHP0N1XC09K","pain","2","","74","J","1","","0","1","0","","0.2620473779","false","197","","0.2122082762","main_expt","","0.2620473779","","0.3874168703","","0.2901305303","","","","","",""
"81","","bandit","273","825207","0.0-235.0-0.0","35921505","wem/bandit_single","A5NHP0N1XC09K","pain","2","","74","J","1","","0","1","0","","0.3153682745","false","198","","0.1962120249","main_expt","","0.3153682745","","0.4072223947","","0.2403600488","","","","","",""
"111","","bandit","274","827091","0.0-236.0-0.0","35921505","wem/bandit_single","A5NHP0N1XC09K","pain","2","","74","J","1","","0","1","0","","0.2424407548","false","199","","0.1840541487","main_expt","","0.2424407548","","0.4284861426","","0.2034733728","","","","","",""
"100","","bandit","275","828966","0.0-237.0-0.0","35921505","wem/bandit_single","A5NHP0N1XC09K","pain","2","","74","J","1","","0","1","0","","0.2692586032","false","200","","0.1575563837","main_expt","","0.2692586032","","0.4181746593","","0.2193557146","","","","","",""
"128","","bandit","276","830869","0.0-238.0-0.0","35921505","wem/bandit_single","A5NHP0N1XC09K","pain","2","","74","J","1","","0","0","1","","0.2605377594","false","201","","0.138860739","main_expt","","0.2605377594","","0.4134190678","","0.2412650678","","","","","",""
"69","","bandit","277","832712","0.0-239.0-0.0","35921505","wem/bandit_single","A5NHP0N1XC09K","pain","2","","74","J","1","","0","0","1","","0.2372211354","false","202","","0.1216759056","main_expt","","0.2372211354","","0.4255663607","","0.2106041824","","","","","",""
"54","","bandit","278","834543","0.0-240.0-0.0","35921505","wem/bandit_single","A5NHP0N1XC09K","pain","2","","75","K","2","","0","1","0","","0.4267176133","false","203","","0.1085797693","main_expt","","0.20896917","","0.4267176133","","0.2182463191","","","","","",""
"96","","bandit","279","836416","0.0-241.0-0.0","35921505","wem/bandit_single","A5NHP0N1XC09K","pain","2","","75","K","2","","0","0","1","","0.460819217","false","204","","0.08750272662","main_expt","","0.2277156902","","0.460819217","","0.2060997213","","","","","",""
"136","","bandit","280","838356","0.0-242.0-0.0","35921505","wem/bandit_single","A5NHP0N1XC09K","pain","2","","75","K","2","","0","1","0","","0.4797370756","false","205","","0.1119911725","main_expt","","0.2096017385","","0.4797370756","","0.2179237498","","","","","",""
"180","","bandit","281","840354","0.0-243.0-0.0","35921505","wem/bandit_single","A5NHP0N1XC09K","pain","2","","75","K","2","","0","0","1","","0.4850202511","false","206","","0.105166696","main_expt","","0.2293009918","","0.4850202511","","0.194566176","","","","","",""
"35","","bandit","282","842172","0.0-244.0-0.0","35921505","wem/bandit_single","A5NHP0N1XC09K","pain","2","","75","K","2","","0","0","1","","0.4588339162","false","207","","0.07428909222","main_expt","","0.2613461541","","0.4588339162","","0.2540459421","","","","","",""
"168","","bandit","283","844115","0.0-245.0-0.0","35921505","wem/bandit_single","A5NHP0N1XC09K","pain","2","","76","L","3","","0","0","1","","0.2165425212","false","208","","0.08415887516","main_expt","","0.2921374763","","0.4704498371","","0.2165425212","","","","","",""
"30","","bandit","284","845922","0.0-246.0-0.0","35921505","wem/bandit_single","A5NHP0N1XC09K","pain","2","","76","L","3","","0","0","1","","0.1808740619","false","209","","0.05558253146","main_expt","","0.2679345114","","0.4498430745","","0.1808740619","","","","","",""
"170","","bandit","285","847870","0.0-247.0-0.0","35921505","wem/bandit_single","A5NHP0N1XC09K","pain","2","","76","L","3","","0","0","1","","0.2298827717","false","210","","0.04914985493","main_expt","","0.2356021564","","0.4463117693","","0.2298827717","","","","","",""
"153","","bandit","286","849798","0.0-248.0-0.0","35921505","wem/bandit_single","A5NHP0N1XC09K","pain","2","","75","K","2","","0","0","1","","0.422163821","false","211","","0.03798033643","main_expt","","0.2152320876","","0.422163821","","0.2533880575","","","","","",""
"51","","bandit","287","851626","0.0-249.0-0.0","35921505","wem/bandit_single","A5NHP0N1XC09K","pain","2","","74","J","1","","0","1","0","","0.2216595069","false","212","","0.03974322714","main_expt","","0.2216595069","","0.3852039581","","0.2771241442","","","","","",""
"190","","bandit","288","853592","0.0-250.0-0.0","35921505","wem/bandit_single","A5NHP0N1XC09K","pain","2","","74","J","1","","0","1","0","","0.2150176613","false","213","","0.02384455773","main_expt","","0.2150176613","","0.3822954745","","0.3010302337","","","","","",""
"20","","bandit","289","855388","0.0-251.0-0.0","35921505","wem/bandit_single","A5NHP0N1XC09K","pain","2","","74","J","1","","0","0","1","","0.1772129937","false","214","","0.03216660231","main_expt","","0.1772129937","","0.3608549874","","0.3409008015","","","","","",""
"37","","bandit","290","857206","0.0-252.0-0.0","35921505","wem/bandit_single","A5NHP0N1XC09K","pain","2","","74","J","1","","0","1","0","","0.1584975441","false","215","","0.03095464101","main_expt","","0.1584975441","","0.3621739951","","0.3227810677","","","","","",""
"102","","bandit","291","859080","0.0-253.0-0.0","35921505","wem/bandit_single","A5NHP0N1XC09K","pain","2","","74","J","1","","0","0","1","","0.1256434713","false","216","","0.04011500866","main_expt","","0.1256434713","","0.3733564142","","0.3636386285","","","","","",""
"132","","bandit","292","860988","0.0-254.0-0.0","35921505","wem/bandit_single","A5NHP0N1XC09K","pain","2","","74","J","1","","0","0","1","","0.1601534085","false","217","","0.02351309264","main_expt","","0.1601534085","","0.3856473275","","0.3649758886","","","","","",""
"91","","bandit","293","862858","0.0-255.0-0.0","35921505","wem/bandit_single","A5NHP0N1XC09K","pain","2","","74","J","1","","0","1","0","","0.1514518834","false","218","","0.01650540734","main_expt","","0.1514518834","","0.3645608201","","0.3641131336","","","","","",""
"22","","bandit","294","864661","0.0-256.0-0.0","35921505","wem/bandit_single","A5NHP0N1XC09K","pain","2","","74","J","1","","0","0","1","","0.2415223947","false","219","","0.03577324375","main_expt","","0.2415223947","","0.3851453746","","0.341156599","","","","","",""
"145","","bandit","295","866594","0.0-257.0-0.0","35921505","wem/bandit_single","A5NHP0N1XC09K","pain","2","","74","J","1","","0","0","1","","0.2248182851","false","220","","0.03655385126","main_expt","","0.2248182851","","0.4075423229","","0.266049218","","","","","",""
"89","","bandit","296","868471","0.0-258.0-0.0","35921505","wem/bandit_single","A5NHP0N1XC09K","pain","2","","74","J","1","","0","0","1","","0.2588925836","false","221","","0.03282050992","main_expt","","0.2588925836","","0.4083347012","","0.2359154628","","","","","",""
"103","","bandit","297","870351","0.0-259.0-0.0","35921505","wem/bandit_single","A5NHP0N1XC09K","pain","2","","74","J","1","","0","1","0","","0.2025188389","false","222","","0.02558717114","main_expt","","0.2025188389","","0.4083223781","","0.2640726019","","","","","",""
"132","","bandit","298","872272","0.0-260.0-0.0","35921505","wem/bandit_single","A5NHP0N1XC09K","pain","2","","74","J","1","","0","0","1","","0.1609755914","false","223","","0.04788205671","main_expt","","0.1609755914","","0.4240474742","","0.1860418506","","","","","",""
"152","","bandit","299","874202","0.0-261.0-0.0","35921505","wem/bandit_single","A5NHP0N1XC09K","pain","2","","74","J","1","","0","0","1","","0.2316748255","false","224","","0.05498715651","main_expt","","0.2316748255","","0.4346876605","","0.151875944","","","","","",""
"156","","bandit","300","876135","0.0-262.0-0.0","35921505","wem/bandit_single","A5NHP0N1XC09K","pain","2","","74","J","1","","0","0","1","","0.1605893144","false","225","","0.056476577","main_expt","","0.1605893144","","0.4541072866","","0.1209973656","","","","","",""
"3","","bandit","301","877916","0.0-263.0-0.0","35921505","wem/bandit_single","A5NHP0N1XC09K","pain","2","","74","J","1","","0","0","1","","0.1389366963","false","226","","0.06361054401","main_expt","","0.1389366963","","0.4239515892","","0.1503457952","","","","","",""
"117","","bandit","302","879807","0.0-264.0-0.0","35921505","wem/bandit_single","A5NHP0N1XC09K","pain","2","","72","H","0","img/none_selected.jpg","0","0","1","","0.03819722012","false","227","","0.03819722012","main_expt","","0.09987042713","","0.4122914309","","0.1784166707","","","","","",""
"20","","bandit","303","881603","0.0-265.0-0.0","35921505","wem/bandit_single","A5NHP0N1XC09K","pain","2","","72","H","0","img/none_selected.jpg","0","0","1","","0.03706892342","false","228","","0.03706892342","main_expt","","0.1511988136","","0.4022765074","","0.1729157366","","","","","",""
"33","","bandit","304","883410","0.0-266.0-0.0","35921505","wem/bandit_single","A5NHP0N1XC09K","pain","2","","72","H","0","img/none_selected.jpg","0","0","1","","0.05619366589","false","229","","0.05619366589","main_expt","","0.1165125066","","0.3991813765","","0.2035050609","","","","","",""
"175","","bandit","305","885365","0.0-267.0-0.0","35921505","wem/bandit_single","A5NHP0N1XC09K","pain","2","","74","J","1","","0","0","1","","0.09058018373","false","230","","0.02398835026","main_expt","","0.09058018373","","0.3771825363","","0.1677195288","","","","","",""
"17","","bandit","306","887157","0.0-268.0-0.0","35921505","wem/bandit_single","A5NHP0N1XC09K","pain","2","","74","J","1","","0","0","1","","0.1254599363","false","231","","0.01087418165","main_expt","","0.1254599363","","0.4081115595","","0.1568417205","","","","","",""
"210","","bandit","307","889147","0.0-269.0-0.0","35921505","wem/bandit_single","A5NHP0N1XC09K","pain","2","","74","J","1","","0","0","1","","0.09699218641","false","232","","0.005667282796","main_expt","","0.09699218641","","0.4227202023","","0.1733774055","","","","","",""
"36","","bandit","308","890959","0.0-270.0-0.0","35921505","wem/bandit_single","A5NHP0N1XC09K","pain","2","","74","J","1","","0","0","1","","0.07122003092","false","233","","0.00711790457","main_expt","","0.07122003092","","0.4267606383","","0.2318808439","","","","","",""
"4","","bandit","309","892741","0.0-271.0-0.0","35921505","wem/bandit_single","A5NHP0N1XC09K","pain","2","","74","J","1","","0","0","1","","0.07078025717","false","234","","0.01087448681","main_expt","","0.07078025717","","0.4076790224","","0.2728484722","","","","","",""
"211","","bandit","310","894748","0.0-272.0-0.0","35921505","wem/bandit_single","A5NHP0N1XC09K","pain","2","","74","J","1","","0","0","1","","0.04546889639","false","235","","0.008183852991","main_expt","","0.04546889639","","0.3750136452","","0.230842538","","","","","",""
"137","","bandit","311","896666","0.0-273.0-0.0","35921505","wem/bandit_single","A5NHP0N1XC09K","pain","2","","75","K","2","","0","0","1","","0.3579900966","false","236","","0.00957014591","main_expt","","0.07949547843","","0.3579900966","","0.2565969246","","","","","",""
"32","","bandit","312","898473","0.0-274.0-0.0","35921505","wem/bandit_single","A5NHP0N1XC09K","pain","2","","75","K","2","","0","0","1","","0.3685919787","false","237","","0.02345003211","main_expt","","0.06498208703","","0.3685919787","","0.2661079812","","","","","",""
"175","","bandit","313","900436","0.0-275.0-0.0","35921505","wem/bandit_single","A5NHP0N1XC09K","pain","2","","76","L","3","","0","0","1","","0.3192940022","false","238","","0.02056264696","main_expt","","0.07283675032","","0.3220789964","","0.3192940022","","","","","",""
"73","","bandit","314","902290","0.0-276.0-0.0","35921505","wem/bandit_single","A5NHP0N1XC09K","pain","2","","76","L","3","","0","0","1","","0.3150738333","false","239","","0.02436326326","main_expt","","0.08723568047","","0.3059519391","","0.3150738333","","","","","",""
"143","","bandit","315","904212","0.0-277.0-0.0","35921505","wem/bandit_single","A5NHP0N1XC09K","pain","2","","76","L","3","","0","0","1","","0.3008600842","false","240","","0.0242835944","main_expt","","0.06404566497","","0.3168560559","","0.3008600842","","","","","",""
"14","","bandit","316","906001","0.0-278.0-0.0","35921505","wem/bandit_single","A5NHP0N1XC09K","pain","2","","75","K","2","","0","0","1","","0.269391424","false","241","","0.02652021178","main_expt","","0.05187051438","","0.269391424","","0.2677087501","","","","","",""
"216","","bandit","317","907993","0.0-279.0-0.0","35921505","wem/bandit_single","A5NHP0N1XC09K","pain","2","","74","J","1","","0","0","1","","0.04056120823","false","242","","0.0264543433","main_expt","","0.04056120823","","0.2061132751","","0.2645585527","","","","","",""
"129","","bandit","318","909900","0.0-280.0-0.0","35921505","wem/bandit_single","A5NHP0N1XC09K","pain","2","","72","H","0","img/none_selected.jpg","0","0","1","","0.02176476481","false","243","","0.02176476481","main_expt","","0.02806248696","","0.1996760118","","0.2793098336","","","","","",""
"38","","bandit","319","911712","0.0-281.0-0.0","35921505","wem/bandit_single","A5NHP0N1XC09K","pain","2","","74","J","1","","0","0","1","","0.04063524207","false","244","","0.01301534777","main_expt","","0.04063524207","","0.1719334629","","0.285685864","","","","","",""
"2","","bandit","320","913491","0.0-282.0-0.0","35921505","wem/bandit_single","A5NHP0N1XC09K","pain","2","","74","J","1","","0","0","1","","0.03258124644","false","245","","0.02332936253","main_expt","","0.03258124644","","0.2264626889","","0.2792363563","","","","","",""
"2","","bandit","321","915276","0.0-283.0-0.0","35921505","wem/bandit_single","A5NHP0N1XC09K","pain","2","","75","K","2","","0","0","1","","0.2097999869","false","246","","0.02379131239","main_expt","","0.034431304","","0.2097999869","","0.2721020884","","","","","",""
"1","","bandit","322","917053","0.0-284.0-0.0","35921505","wem/bandit_single","A5NHP0N1XC09K","pain","2","","76","L","3","","0","0","1","","0.2784836582","false","247","","0.02988301985","main_expt","","0.0335896152","","0.2190078117","","0.2784836582","","","","","",""
"28","","bandit","323","918887","0.0-285.0-0.0","35921505","wem/bandit_single","A5NHP0N1XC09K","pain","2","","76","L","3","","0","0","1","","0.2155360038","false","248","","0.04121629219","main_expt","","0.0373608022","","0.214739415","","0.2155360038","","","","","",""
"41","","bandit","324","920712","0.0-286.0-0.0","35921505","wem/bandit_single","A5NHP0N1XC09K","pain","2","","76","L","3","","0","0","1","","0.2182269439","false","249","","0.03081548873","main_expt","","0.04629433077","","0.2361668487","","0.2182269439","","","","","",""
"50","","bandit","325","922540","0.0-287.0-0.0","35921505","wem/bandit_single","A5NHP0N1XC09K","pain","2","","75","K","2","","0","0","1","","0.2730147117","false","250","","0.02831669856","main_expt","","0.04794370872","","0.2730147117","","0.2794373206","","","","","",""
"23","","bandit","326","924352","0.0-288.0-0.0","35921505","wem/bandit_single","A5NHP0N1XC09K","pain","2","","75","K","2","","0","1","0","","0.2591269664","false","251","","0.02600870455","main_expt","","0.06568157066","","0.2591269664","","0.2925698281","","","","","",""
"129","","bandit","327","926261","0.0-289.0-0.0","35921505","wem/bandit_single","A5NHP0N1XC09K","pain","2","","75","K","2","","0","1","0","","0.3091321407","false","252","","0.02705961599","main_expt","","0.07567030371","","0.3091321407","","0.2727886948","","","","","",""
"207","","bandit","328","928246","0.0-290.0-0.0","35921505","wem/bandit_single","A5NHP0N1XC09K","pain","2","","75","K","2","","0","0","1","","0.2284010385","false","253","","0.01805963102","main_expt","","0.06628052114","","0.2284010385","","0.2470803404","","","","","",""
"158","","bandit","329","930179","0.0-291.0-0.0","35921505","wem/bandit_single","A5NHP0N1XC09K","pain","2","","75","K","2","","0","0","1","","0.2452739286","false","254","","0.01631706542","main_expt","","0.08321976201","","0.2452739286","","0.3366881304","","","","","",""
"115","","bandit","330","932070","0.0-292.0-0.0","35921505","wem/bandit_single","A5NHP0N1XC09K","pain","2","","75","K","2","","0","0","1","","0.2769296881","false","255","","0.01966147099","main_expt","","0.1379446817","","0.2769296881","","0.3781216995","","","","","",""
"97","","bandit","331","933958","0.0-293.0-0.0","35921505","wem/bandit_single","A5NHP0N1XC09K","pain","2","","75","K","2","","0","0","1","","0.222598086","false","256","","0.02801527349","main_expt","","0.1104053019","","0.222598086","","0.3565974786","","","","","",""
"130","","bandit","332","935867","0.0-294.0-0.0","35921505","wem/bandit_single","A5NHP0N1XC09K","pain","2","","75","K","2","","0","1","0","","0.2497605863","false","257","","0.02393064904","main_expt","","0.110095483","","0.2497605863","","0.3668333327","","","","","",""
"90","","bandit","333","937746","0.0-295.0-0.0","35921505","wem/bandit_single","A5NHP0N1XC09K","pain","2","","75","K","2","","0","0","1","","0.248028097","false","258","","0.01715644076","main_expt","","0.09250214804","","0.248028097","","0.3978392262","","","","","",""
"128","","bandit","334","939665","0.0-296.0-0.0","35921505","wem/bandit_single","A5NHP0N1XC09K","pain","2","","75","K","2","","0","0","1","","0.210079309","false","259","","0.01812234738","main_expt","","0.1288972452","","0.210079309","","0.3892622443","","","","","",""
"98","","bandit","335","941541","0.0-297.0-0.0","35921505","wem/bandit_single","A5NHP0N1XC09K","pain","2","","75","K","2","","0","0","1","","0.1785868889","false","260","","0.01699252537","main_expt","","0.127844668","","0.1785868889","","0.3787635018","","","","","",""
"79","","bandit","336","943397","0.0-298.0-0.0","35921505","wem/bandit_single","A5NHP0N1XC09K","pain","2","","75","K","2","","0","0","1","","0.1855690742","false","261","","0.02027773674","main_expt","","0.1408125104","","0.1855690742","","0.4151771386","","","","","",""
"163","","bandit","337","945358","0.0-299.0-0.0","35921505","wem/bandit_single","A5NHP0N1XC09K","pain","2","","75","K","2","","0","0","1","","0.2454672077","false","262","","0.008159173947","main_expt","","0.1423762304","","0.2454672077","","0.4184001904","","","","","",""
"132","","bandit","338","947265","0.0-300.0-0.0","35921505","wem/bandit_single","A5NHP0N1XC09K","pain","2","","75","K","2","","0","0","1","","0.2423041147","false","263","","0.00730364875","main_expt","","0.1237094287","","0.2423041147","","0.4397427278","","","","","",""
"134","","bandit","339","949177","0.0-301.0-0.0","35921505","wem/bandit_single","A5NHP0N1XC09K","pain","2","","75","K","2","","0","0","1","","0.2771483686","false","264","","0.008891010149","main_expt","","0.1110826985","","0.2771483686","","0.4308816061","","","","","",""
"126","","bandit","340","951079","0.0-302.0-0.0","35921505","wem/bandit_single","A5NHP0N1XC09K","pain","2","","76","L","3","","0","1","0","","0.4310956018","false","265","","0.009434589262","main_expt","","0.09816719149","","0.2066329382","","0.4310956018","","","","","",""
"199","","bandit","341","953056","0.0-303.0-0.0","35921505","wem/bandit_single","A5NHP0N1XC09K","pain","2","","76","L","3","","0","0","1","","0.4462346174","false","266","","0.009503255165","main_expt","","0.1313615454","","0.1954640054","","0.4462346174","","","","","",""
"134","","bandit","342","954991","0.0-304.0-0.0","35921505","wem/bandit_single","A5NHP0N1XC09K","pain","2","","76","L","3","","0","1","0","","0.4649068607","false","267","","0.01294763698","main_expt","","0.1039649444","","0.132533774","","0.4649068607","","","","","",""
"6","","bandit","343","956772","0.0-305.0-0.0","35921505","wem/bandit_single","A5NHP0N1XC09K","pain","2","","76","L","3","","0","1","0","","0.4499385749","false","268","","0.01002763249","main_expt","","0.0758663636","","0.1212355483","","0.4499385749","","","","","",""
"195","","bandit","344","958749","0.0-306.0-0.0","35921505","wem/bandit_single","A5NHP0N1XC09K","pain","2","","76","L","3","","0","0","1","","0.4702815535","false","269","","0.009339874814","main_expt","","0.08641939852","","0.1363236216","","0.4702815535","","","","","",""
"142","","bandit","345","960697","0.0-307.0-0.0","35921505","wem/bandit_single","A5NHP0N1XC09K","pain","2","","76","L","3","","0","1","0","","0.4738293899","false","270","","0.0101894737","main_expt","","0.08694739741","","0.1061923246","","0.4738293899","","","","","",""
"100","","bandit","346","962575","0.0-308.0-0.0","35921505","wem/bandit_single","A5NHP0N1XC09K","pain","2","","76","L","3","","0","0","1","","0.4552130477","false","271","","0.0101062795","main_expt","","0.07507278363","","0.09682021381","","0.4552130477","","","","","",""
"105","","bandit","347","964462","0.0-309.0-0.0","35921505","wem/bandit_single","A5NHP0N1XC09K","pain","2","","76","L","3","","0","1","0","","0.4571227508","false","272","","0.009276773287","main_expt","","0.09002305832","","0.0728164368","","0.4571227508","","","","","",""
"77","","bandit","348","966351","0.0-310.0-0.0","35921505","wem/bandit_single","A5NHP0N1XC09K","pain","2","","76","L","3","","0","1","0","","0.4262778794","false","273","","0.0113492324","main_expt","","0.07941117108","","0.1026255411","","0.4262778794","","","","","",""
"212","","bandit","349","968353","0.0-311.0-0.0","35921505","wem/bandit_single","A5NHP0N1XC09K","pain","2","","76","L","3","","0","0","1","","0.4017895895","false","274","","0.005483919941","main_expt","","0.09301171309","","0.08683802548","","0.4017895895","","","","","",""
"95","","bandit","350","970233","0.0-312.0-0.0","35921505","wem/bandit_single","A5NHP0N1XC09K","pain","2","","76","L","3","","0","1","0","","0.4017548056","false","275","","0.00462874381","main_expt","","0.1012072593","","0.08250982893","","0.4017548056","","","","","",""
"183","","bandit","351","972197","0.0-313.0-0.0","35921505","wem/bandit_single","A5NHP0N1XC09K","pain","2","","76","L","3","","0","0","1","","0.4072561249","false","276","","0.009610611089","main_expt","","0.1230964009","","0.06031930624","","0.4072561249","","","","","",""
"153","","bandit","352","974126","0.0-314.0-0.0","35921505","wem/bandit_single","A5NHP0N1XC09K","pain","2","","76","L","3","","0","0","1","","0.3248287115","false","277","","0.01319252808","main_expt","","0.1320105939","","0.07169075363","","0.3248287115","","","","","",""
"186","","bandit","353","976092","0.0-315.0-0.0","35921505","wem/bandit_single","A5NHP0N1XC09K","pain","2","","76","L","3","","0","0","1","","0.2954662343","false","278","","0.008560453299","main_expt","","0.100271112","","0.119525529","","0.2954662343","","","","","",""
"112","","bandit","354","977987","0.0-316.0-0.0","35921505","wem/bandit_single","A5NHP0N1XC09K","pain","2","","75","K","2","","0","0","1","","0.05136608794","false","279","","0.02270234009","main_expt","","0.0752783975","","0.05136608794","","0.3430788315","","","","","",""
"46","","bandit","355","979809","0.0-317.0-0.0","35921505","wem/bandit_single","A5NHP0N1XC09K","pain","2","","74","J","1","","0","0","1","","0.04609407158","false","280","","0.01842994591","main_expt","","0.04609407158","","0.06692305053","","0.298888987","","","","","",""
"5","","bandit","356","981591","0.0-318.0-0.0","35921505","wem/bandit_single","A5NHP0N1XC09K","pain","2","","72","H","0","img/none_selected.jpg","0","0","1","","0.01750385803","false","281","","0.01750385803","main_expt","","0.05874754036","","0.08594942048","","0.317374049","","","","","",""
"116","","bandit","357","983487","0.0-319.0-0.0","35921505","wem/bandit_single","A5NHP0N1XC09K","pain","2","","74","J","1","","0","0","1","","0.05911354127","false","282","","0.01075771148","main_expt","","0.05911354127","","0.08562343316","","0.2905756231","","","","","",""
"110","","bandit","358","985387","0.0-320.0-0.0","35921505","wem/bandit_single","A5NHP0N1XC09K","pain","2","","75","K","2","","0","0","1","","0.06507866554","false","283","","0.009487342711","main_expt","","0.0444902615","","0.06507866554","","0.335540713","","","","","",""
"70","","bandit","359","987238","0.0-321.0-0.0","35921505","wem/bandit_single","A5NHP0N1XC09K","pain","2","","76","L","3","","0","0","1","","0.3569674754","false","284","","0.01035814212","main_expt","","0.03666520406","","0.05738126215","","0.3569674754","","","","","",""
"39","","bandit","360","989056","0.0-322.0-0.0","35921505","wem/bandit_single","A5NHP0N1XC09K","pain","2","","76","L","3","","0","0","1","","0.4068019922","false","285","","0.01056818013","main_expt","","0.02451873239","","0.06337296056","","0.4068019922","","","","","",""
"63","","bandit","361","990920","0.0-323.0-0.0","35921505","wem/bandit_single","A5NHP0N1XC09K","pain","2","","75","K","2","","0","1","0","","0.04649068967","false","286","","0.007821227136","main_expt","","0.02877547985","","0.04649068967","","0.432978486","","","","","",""
"44","","bandit","362","992742","0.0-324.0-0.0","35921505","wem/bandit_single","A5NHP0N1XC09K","pain","2","","76","L","3","","0","0","1","","0.4213006965","false","287","","0.01039042452","main_expt","","0.03331393821","","0.04946639224","","0.4213006965","","","","","",""
"79","","bandit","363","994600","0.0-325.0-0.0","35921505","wem/bandit_single","A5NHP0N1XC09K","pain","2","","75","K","2","","0","0","1","","0.03962947871","false","288","","0.02141961277","main_expt","","0.02363643209","","0.03962947871","","0.4094413186","","","","","",""
"16","","bandit","364","996397","0.0-326.0-0.0","35921505","wem/bandit_single","A5NHP0N1XC09K","pain","2","","75","K","2","","0","0","1","","0.05295486238","false","289","","0.02062414181","main_expt","","0.0366455232","","0.05295486238","","0.3731302572","","","","","",""
"86","","bandit","365","998265","0.0-327.0-0.0","35921505","wem/bandit_single","A5NHP0N1XC09K","pain","2","","75","K","2","","0","1","0","","0.06311332932","false","290","","0.01411690602","main_expt","","0.04887184979","","0.06311332932","","0.4076032329","","","","","",""
"135","","bandit","366","1000178","0.0-328.0-0.0","35921505","wem/bandit_single","A5NHP0N1XC09K","pain","2","","75","K","2","","0","0","1","","0.07741633782","false","291","","0.03188260643","main_expt","","0.03783642248","","0.07741633782","","0.4134699565","","","","","",""
"130","","bandit","367","1002090","0.0-329.0-0.0","35921505","wem/bandit_single","A5NHP0N1XC09K","pain","2","","75","K","2","","0","0","1","","0.09064252153","false","292","","0.03429620073","main_expt","","0.07820299584","","0.09064252153","","0.3827884258","","","","","",""
"119","","bandit","368","1003987","0.0-330.0-0.0","35921505","wem/bandit_single","A5NHP0N1XC09K","pain","2","","75","K","2","","0","1","0","","0.07659126906","false","293","","0.030392347","main_expt","","0.07060894185","","0.07659126906","","0.4162015812","","","","","",""
"196","","bandit","369","1005960","0.0-331.0-0.0","35921505","wem/bandit_single","A5NHP0N1XC09K","pain","2","","74","J","1","","0","0","1","","0.1051632986","false","294","","0.04782046051","main_expt","","0.1051632986","","0.08042624432","","0.447674372","","","","","",""
"171","","bandit","370","1007911","0.0-332.0-0.0","35921505","wem/bandit_single","A5NHP0N1XC09K","pain","2","","74","J","1","","0","0","1","","0.06624019153","false","295","","0.06309063339","main_expt","","0.06624019153","","0.1216640212","","0.4402126752","","","","","",""
"183","","bandit","371","1009975","0.0-333.0-0.0","35921505","wem/bandit_single","A5NHP0N1XC09K","pain","2","","74","J","1","","0","0","1","","0.07088700909","false","296","","0.09511663338","main_expt","","0.07088700909","","0.1058257345","","0.4378891161","","","","","",""
"54","","bandit","372","1011810","0.0-334.0-0.0","35921505","wem/bandit_single","A5NHP0N1XC09K","pain","2","","74","J","1","","0","0","1","","0.0529580871","false","297","","0.07325770628","main_expt","","0.0529580871","","0.1101311263","","0.468153315","","","","","",""
