"rt","responses","trial_type","trial_index","time_elapsed","internal_node_id","subjID","study","MID","cond","drift","key_press","respCharCode","respKey","respChoiceNum","respChoice","gems","bombs","no_reward","GemPrChosen","BombPrChosen","practice","trial_counter","WinPr_0","LosePr_0","trial_label","WinPr_1","LosePr_1","WinPr_2","LosePr_2","WinPr_3","LosePr_3","Q0","Q1","Q2","gender","age","ethnicity"
"14983","{""Q0"":""A3DFJV1RD653DQ""}","survey-text","0","14991","0.0-0.0","36092053","wem/bandit_single","A3DFJV1RD653DQ","pain","3","","","","","","","","","","","","","","","","","","","","","","","","","","",""
"2015","","text","1","18016","0.0-1.0","36092053","wem/bandit_single","A3DFJV1RD653DQ","pain","3","32","","","","","","","","","","","","","","","","","","","","","","","","","",""
"4716","","text","2","22738","0.0-2.0","36092053","wem/bandit_single","A3DFJV1RD653DQ","pain","3","32","","","","","","","","","","","","","","","","","","","","","","","","","",""
"83648","","text","3","106392","0.0-3.0","36092053","wem/bandit_single","A3DFJV1RD653DQ","pain","3","32","","","","","","","","","","","","","","","","","","","","","","","","","",""
"12115","","text","4","118511","0.0-4.0","36092053","wem/bandit_single","A3DFJV1RD653DQ","pain","3","32","","","","","","","","","","","","","","","","","","","","","","","","","",""
"12660","","text","5","131175","0.0-5.0","36092053","wem/bandit_single","A3DFJV1RD653DQ","pain","3","32","","","","","","","","","","","","","","","","","","","","","","","","","",""
"6933","","text","6","138111","0.0-6.0","36092053","wem/bandit_single","A3DFJV1RD653DQ","pain","3","32","","","","","","","","","","","","","","","","","","","","","","","","","",""
"4549","","text","7","142663","0.0-7.0","36092053","wem/bandit_single","A3DFJV1RD653DQ","pain","3","32","","","","","","","","","","","","","","","","","","","","","","","","","",""
"4955","","text","8","147621","0.0-8.0","36092053","wem/bandit_single","A3DFJV1RD653DQ","pain","3","32","","","","","","","","","","","","","","","","","","","","","","","","","",""
"2885","","text","9","150509","0.0-9.0","36092053","wem/bandit_single","A3DFJV1RD653DQ","pain","3","32","","","","","","","","","","","","","","","","","","","","","","","","","",""
"6284","","text","10","156797","0.0-10.0","36092053","wem/bandit_single","A3DFJV1RD653DQ","pain","3","32","","","","","","","","","","","","","","","","","","","","","","","","","",""
"6479","","text","11","163279","0.0-11.0","36092053","wem/bandit_single","A3DFJV1RD653DQ","pain","3","32","","","","","","","","","","","","","","","","","","","","","","","","","",""
"1307","","bandit","12","166108","0.0-12.0-0.0","36092053","wem/bandit_single","A3DFJV1RD653DQ","pain","3","","74","J","0","img/none_selected_demo.jpg","0","0","1","0","0","true","0","0","0","","","","","","","","","","","","",""
"1269","","bandit","13","169139","0.0-13.0-0.0","36092053","wem/bandit_single","A3DFJV1RD653DQ","pain","3","","75","K","0","img/none_selected_demo.jpg","0","0","1","0","0","true","0","0","0","","","","","","","","","","","","",""
"2200","","text","14","171596","0.0-14.0","36092053","wem/bandit_single","A3DFJV1RD653DQ","pain","3","32","","","","","","","","","","","","","","","","","","","","","","","","","",""
"1454","","text","15","173053","0.0-15.0","36092053","wem/bandit_single","A3DFJV1RD653DQ","pain","3","32","","","","","","","","","","","","","","","","","","","","","","","","","",""
"5096","","text","16","178152","0.0-16.0","36092053","wem/bandit_single","A3DFJV1RD653DQ","pain","3","32","","","","","","","","","","","","","","","","","","","","","","","","","",""
"2948","","text","17","181103","0.0-17.0","36092053","wem/bandit_single","A3DFJV1RD653DQ","pain","3","32","","","","","","","","","","","","","","","","","","","","","","","","","",""
"1091","","bandit","18","183707","0.0-18.0-0.0","36092053","wem/bandit_single","A3DFJV1RD653DQ","pain","3","","74","J","0","img/none_selected_demo.jpg","0","1","0","0","0.8","true","0","0","0.8","80_20_practice","0","0.2","","","","","","","","","",""
"129","","bandit","19","185597","0.0-18.0-1.0","36092053","wem/bandit_single","A3DFJV1RD653DQ","pain","3","","74","J","0","img/none_selected_demo.jpg","0","0","1","0","0.8","true","0","0","0.8","80_20_practice","0","0.2","","","","","","","","","",""
"474","","bandit","20","187834","0.0-18.0-2.0","36092053","wem/bandit_single","A3DFJV1RD653DQ","pain","3","","74","J","0","img/none_selected_demo.jpg","0","1","0","0","0.8","true","0","0","0.8","80_20_practice","0","0.2","","","","","","","","","",""
"92","","bandit","21","189691","0.0-18.0-3.0","36092053","wem/bandit_single","A3DFJV1RD653DQ","pain","3","","74","J","0","img/none_selected_demo.jpg","0","1","0","0","0.8","true","0","0","0.8","80_20_practice","0","0.2","","","","","","","","","",""
"118","","bandit","22","191570","0.0-18.0-4.0","36092053","wem/bandit_single","A3DFJV1RD653DQ","pain","3","","75","K","1","","0","1","0","0","0.2","true","0","0","0.8","80_20_practice","0","0.2","","","","","","","","","",""
"57","","bandit","23","193391","0.0-18.0-5.0","36092053","wem/bandit_single","A3DFJV1RD653DQ","pain","3","","75","K","1","","0","1","0","0","0.2","true","0","0","0.8","80_20_practice","0","0.2","","","","","","","","","",""
"1162","","bandit","24","196315","0.0-18.0-6.0","36092053","wem/bandit_single","A3DFJV1RD653DQ","pain","3","","75","K","1","","0","0","1","0","0.2","true","0","0","0.8","80_20_practice","0","0.2","","","","","","","","","",""
"63","","bandit","25","198140","0.0-18.0-7.0","36092053","wem/bandit_single","A3DFJV1RD653DQ","pain","3","","75","K","1","","0","1","0","0","0.2","true","0","0","0.8","80_20_practice","0","0.2","","","","","","","","","",""
"2793","","bandit","26","202694","0.0-18.0-8.0","36092053","wem/bandit_single","A3DFJV1RD653DQ","pain","3","","75","K","1","","0","0","1","0","0.2","true","0","0","0.8","80_20_practice","0","0.2","","","","","","","","","",""
"279","","bandit","27","204735","0.0-18.0-9.0","36092053","wem/bandit_single","A3DFJV1RD653DQ","pain","3","","75","K","1","","0","0","1","0","0.2","true","0","0","0.8","80_20_practice","0","0.2","","","","","","","","","",""
"101","","bandit","28","206596","0.0-18.0-10.0","36092053","wem/bandit_single","A3DFJV1RD653DQ","pain","3","","75","K","1","","0","1","0","0","0.2","true","0","0","0.8","80_20_practice","0","0.2","","","","","","","","","",""
"567","","bandit","29","208934","0.0-18.0-11.0","36092053","wem/bandit_single","A3DFJV1RD653DQ","pain","3","","74","J","0","img/none_selected_demo.jpg","0","1","0","0","0.8","true","0","0","0.8","80_20_practice","0","0.2","","","","","","","","","",""
"495","","bandit","30","211192","0.0-18.0-12.0","36092053","wem/bandit_single","A3DFJV1RD653DQ","pain","3","","74","J","0","img/none_selected_demo.jpg","0","1","0","0","0.8","true","0","0","0.8","80_20_practice","0","0.2","","","","","","","","","",""
"454","","bandit","31","213411","0.0-18.0-13.0","36092053","wem/bandit_single","A3DFJV1RD653DQ","pain","3","","74","J","0","img/none_selected_demo.jpg","0","1","0","0","0.8","true","0","0","0.8","80_20_practice","0","0.2","","","","","","","","","",""
"98","","bandit","32","215274","0.0-18.0-14.0","36092053","wem/bandit_single","A3DFJV1RD653DQ","pain","3","","74","J","0","img/none_selected_demo.jpg","0","1","0","0","0.8","true","0","0","0.8","80_20_practice","0","0.2","","","","","","","","","",""
"62","","bandit","33","217099","0.0-18.0-15.0","36092053","wem/bandit_single","A3DFJV1RD653DQ","pain","3","","74","J","0","img/none_selected_demo.jpg","0","1","0","0","0.8","true","0","0","0.8","80_20_practice","0","0.2","","","","","","","","","",""
"42","","bandit","34","218904","0.0-18.0-16.0","36092053","wem/bandit_single","A3DFJV1RD653DQ","pain","3","","75","K","1","","0","0","1","0","0.2","true","0","0","0.8","80_20_practice","0","0.2","","","","","","","","","",""
"216","","bandit","35","220886","0.0-18.0-17.0","36092053","wem/bandit_single","A3DFJV1RD653DQ","pain","3","","74","J","0","img/none_selected_demo.jpg","0","0","1","0","0.8","true","0","0","0.8","80_20_practice","0","0.2","","","","","","","","","",""
"142","","bandit","36","222790","0.0-18.0-18.0","36092053","wem/bandit_single","A3DFJV1RD653DQ","pain","3","","74","J","0","img/none_selected_demo.jpg","0","1","0","0","0.8","true","0","0","0.8","80_20_practice","0","0.2","","","","","","","","","",""
"149","","bandit","37","224699","0.0-18.0-19.0","36092053","wem/bandit_single","A3DFJV1RD653DQ","pain","3","","75","K","1","","0","0","1","0","0.2","true","0","0","0.8","80_20_practice","0","0.2","","","","","","","","","",""
"2097","","text","38","227059","0.0-19.0","36092053","wem/bandit_single","A3DFJV1RD653DQ","pain","3","32","","","","","","","","","","","","","","","","","","","","","","","","","",""
"1326","","bandit","39","229896","0.0-20.0-0.0","36092053","wem/bandit_single","A3DFJV1RD653DQ","pain","3","","75","K","1","","0","0","1","0","0","true","0","0","0","","0","0","","","","","","","","","",""
"3683","","text","40","233844","0.0-21.0","36092053","wem/bandit_single","A3DFJV1RD653DQ","pain","3","32","","","","","","","","","","","","","","","","","","","","","","","","","",""
"2105","","text","41","235954","0.0-22.0","36092053","wem/bandit_single","A3DFJV1RD653DQ","pain","3","32","","","","","","","","","","","","","","","","","","","","","","","","","",""
"2184","","text","42","238144","0.0-23.0","36092053","wem/bandit_single","A3DFJV1RD653DQ","pain","3","32","","","","","","","","","","","","","","","","","","","","","","","","","",""
"2386","","text","43","240535","0.0-24.0","36092053","wem/bandit_single","A3DFJV1RD653DQ","pain","3","32","","","","","","","","","","","","","","","","","","","","","","","","","",""
"1340","","text","44","241880","0.0-25.0","36092053","wem/bandit_single","A3DFJV1RD653DQ","pain","3","32","","","","","","","","","","","","","","","","","","","","","","","","","",""
"2172","","text","45","244055","0.0-26.0","36092053","wem/bandit_single","A3DFJV1RD653DQ","pain","3","32","","","","","","","","","","","","","","","","","","","","","","","","","",""
"2112","","text","46","246169","0.0-27.0","36092053","wem/bandit_single","A3DFJV1RD653DQ","pain","3","32","","","","","","","","","","","","","","","","","","","","","","","","","",""
"1455","","text","47","247630","0.0-28.0","36092053","wem/bandit_single","A3DFJV1RD653DQ","pain","3","32","","","","","","","","","","","","","","","","","","","","","","","","","",""
"3852","","text","48","251489","0.0-29.0","36092053","wem/bandit_single","A3DFJV1RD653DQ","pain","3","32","","","","","","","","","","","","","","","","","","","","","","","","","",""
"1316","","text","49","252811","0.0-30.0","36092053","wem/bandit_single","A3DFJV1RD653DQ","pain","3","32","","","","","","","","","","","","","","","","","","","","","","","","","",""
"2651","","text","50","255467","0.0-31.0","36092053","wem/bandit_single","A3DFJV1RD653DQ","pain","3","32","","","","","","","","","","","","","","","","","","","","","","","","","",""
"577","","bandit","51","257555","0.0-32.0-0.0","36092053","wem/bandit_single","A3DFJV1RD653DQ","pain","3","","72","H","0","img/none_selected.jpg","0","0","1","0","0.8","true","0","0","0.8","full_practice","0","0.2","0","0.6","0","0.2","","","","","",""
"347","","bandit","52","259666","0.0-32.0-1.0","36092053","wem/bandit_single","A3DFJV1RD653DQ","pain","3","","72","H","0","img/none_selected.jpg","0","1","0","0","0.8","true","0","0","0.8","full_practice","0","0.2","0","0.6","0","0.2","","","","","",""
"190","","bandit","53","261623","0.0-32.0-2.0","36092053","wem/bandit_single","A3DFJV1RD653DQ","pain","3","","72","H","0","img/none_selected.jpg","0","1","0","0","0.8","true","0","0","0.8","full_practice","0","0.2","0","0.6","0","0.2","","","","","",""
"150","","bandit","54","263539","0.0-32.0-3.0","36092053","wem/bandit_single","A3DFJV1RD653DQ","pain","3","","72","H","0","img/none_selected.jpg","0","1","0","0","0.8","true","0","0","0.8","full_practice","0","0.2","0","0.6","0","0.2","","","","","",""
"69","","bandit","55","265374","0.0-32.0-4.0","36092053","wem/bandit_single","A3DFJV1RD653DQ","pain","3","","74","J","1","","0","0","1","0","0.2","true","0","0","0.8","full_practice","0","0.2","0","0.6","0","0.2","","","","","",""
"36","","bandit","56","267169","0.0-32.0-5.0","36092053","wem/bandit_single","A3DFJV1RD653DQ","pain","3","","74","J","1","","0","0","1","0","0.2","true","0","0","0.8","full_practice","0","0.2","0","0.6","0","0.2","","","","","",""
"25","","bandit","57","268965","0.0-32.0-6.0","36092053","wem/bandit_single","A3DFJV1RD653DQ","pain","3","","74","J","1","","0","1","0","0","0.2","true","0","0","0.8","full_practice","0","0.2","0","0.6","0","0.2","","","","","",""
"492","","bandit","58","271221","0.0-32.0-7.0","36092053","wem/bandit_single","A3DFJV1RD653DQ","pain","3","","74","J","1","","0","0","1","0","0.2","true","0","0","0.8","full_practice","0","0.2","0","0.6","0","0.2","","","","","",""
"83","","bandit","59","273068","0.0-32.0-8.0","36092053","wem/bandit_single","A3DFJV1RD653DQ","pain","3","","74","J","1","","0","0","1","0","0.2","true","0","0","0.8","full_practice","0","0.2","0","0.6","0","0.2","","","","","",""
"239","","bandit","60","275074","0.0-32.0-9.0","36092053","wem/bandit_single","A3DFJV1RD653DQ","pain","3","","75","K","2","","0","0","1","0","0.6","true","0","0","0.8","full_practice","0","0.2","0","0.6","0","0.2","","","","","",""
"86","","bandit","61","276926","0.0-32.0-10.0","36092053","wem/bandit_single","A3DFJV1RD653DQ","pain","3","","75","K","2","","0","0","1","0","0.6","true","0","0","0.8","full_practice","0","0.2","0","0.6","0","0.2","","","","","",""
"40","","bandit","62","278731","0.0-32.0-11.0","36092053","wem/bandit_single","A3DFJV1RD653DQ","pain","3","","75","K","2","","0","1","0","0","0.6","true","0","0","0.8","full_practice","0","0.2","0","0.6","0","0.2","","","","","",""
"7","","bandit","63","280503","0.0-32.0-12.0","36092053","wem/bandit_single","A3DFJV1RD653DQ","pain","3","","75","K","2","","0","1","0","0","0.6","true","0","0","0.8","full_practice","0","0.2","0","0.6","0","0.2","","","","","",""
"561","","bandit","64","282829","0.0-32.0-13.0","36092053","wem/bandit_single","A3DFJV1RD653DQ","pain","3","","75","K","2","","0","1","0","0","0.6","true","0","0","0.8","full_practice","0","0.2","0","0.6","0","0.2","","","","","",""
"229","","bandit","65","284829","0.0-32.0-14.0","36092053","wem/bandit_single","A3DFJV1RD653DQ","pain","3","","76","L","3","","0","0","1","0","0.2","true","0","0","0.8","full_practice","0","0.2","0","0.6","0","0.2","","","","","",""
"84","","bandit","66","286678","0.0-32.0-15.0","36092053","wem/bandit_single","A3DFJV1RD653DQ","pain","3","","76","L","3","","0","1","0","0","0.2","true","0","0","0.8","full_practice","0","0.2","0","0.6","0","0.2","","","","","",""
"257","","bandit","67","288700","0.0-32.0-16.0","36092053","wem/bandit_single","A3DFJV1RD653DQ","pain","3","","76","L","3","","0","1","0","0","0.2","true","0","0","0.8","full_practice","0","0.2","0","0.6","0","0.2","","","","","",""
"272","","bandit","68","290734","0.0-32.0-17.0","36092053","wem/bandit_single","A3DFJV1RD653DQ","pain","3","","76","L","3","","0","0","1","0","0.2","true","0","0","0.8","full_practice","0","0.2","0","0.6","0","0.2","","","","","",""
"30","","bandit","69","292532","0.0-32.0-18.0","36092053","wem/bandit_single","A3DFJV1RD653DQ","pain","3","","76","L","3","","0","1","0","0","0.2","true","0","0","0.8","full_practice","0","0.2","0","0.6","0","0.2","","","","","",""
"1","","bandit","70","294300","0.0-32.0-19.0","36092053","wem/bandit_single","A3DFJV1RD653DQ","pain","3","","72","H","0","img/none_selected.jpg","0","1","0","0","0.8","true","0","0","0.8","full_practice","0","0.2","0","0.6","0","0.2","","","","","",""
"4036","","text","71","298609","0.0-33.0","36092053","wem/bandit_single","A3DFJV1RD653DQ","pain","3","32","","","","","","","","","","","","","","","","","","","","","","","","","",""
"10999","","text","72","310617","0.0-34.0","36092053","wem/bandit_single","A3DFJV1RD653DQ","pain","3","32","","","","","","","","","","","","","","","","","","","","","","","","","",""
"2950","","text","73","313573","0.0-35.0","36092053","wem/bandit_single","A3DFJV1RD653DQ","pain","3","32","","","","","","","","","","","","","","","","","","","","","","","","","",""
"2379","","text","74","315960","0.0-36.0","36092053","wem/bandit_single","A3DFJV1RD653DQ","pain","3","32","","","","","","","","","","","","","","","","","","","","","","","","","",""
"3486","","text","75","319452","0.0-37.0","36092053","wem/bandit_single","A3DFJV1RD653DQ","pain","3","32","","","","","","","","","","","","","","","","","","","","","","","","","",""
"1228","","bandit","76","322198","0.0-38.0-0.0","36092053","wem/bandit_single","A3DFJV1RD653DQ","pain","3","","72","H","0","img/none_selected.jpg","0","0","1","","0.06813583588","false","1","","0.06813583588","main_expt","","0.3417032333","","0.2211287853","","0.2015711498","","","","","",""
"432","","bandit","77","324398","0.0-39.0-0.0","36092053","wem/bandit_single","A3DFJV1RD653DQ","pain","3","","72","H","0","img/none_selected.jpg","0","0","1","","0.08840771113","false","2","","0.08840771113","main_expt","","0.3935143322","","0.2921894834","","0.1868286341","","","","","",""
"163","","bandit","78","326324","0.0-40.0-0.0","36092053","wem/bandit_single","A3DFJV1RD653DQ","pain","3","","72","H","0","img/none_selected.jpg","0","1","0","","0.14311428","false","3","","0.14311428","main_expt","","0.3247841161","","0.2712314767","","0.2285659085","","","","","",""
"94","","bandit","79","328186","0.0-41.0-0.0","36092053","wem/bandit_single","A3DFJV1RD653DQ","pain","3","","72","H","0","img/none_selected.jpg","0","0","1","","0.1389033164","false","4","","0.1389033164","main_expt","","0.3524809632","","0.3501044345","","0.2587006496","","","","","",""
"47","","bandit","80","330001","0.0-42.0-0.0","36092053","wem/bandit_single","A3DFJV1RD653DQ","pain","3","","74","J","1","","0","1","0","","0.3243282494","false","5","","0.1064755534","main_expt","","0.3243282494","","0.3826883046","","0.2238216231","","","","","",""
"217","","bandit","81","331986","0.0-43.0-0.0","36092053","wem/bandit_single","A3DFJV1RD653DQ","pain","3","","74","J","1","","0","0","1","","0.3856520047","false","6","","0.07607549968","main_expt","","0.3856520047","","0.3538977559","","0.2114086621","","","","","",""
"11","","bandit","82","333764","0.0-44.0-0.0","36092053","wem/bandit_single","A3DFJV1RD653DQ","pain","3","","74","J","1","","0","0","1","","0.3595299576","false","7","","0.0490522351","main_expt","","0.3595299576","","0.3911179113","","0.225256176","","","","","",""
"45","","bandit","83","335569","0.0-45.0-0.0","36092053","wem/bandit_single","A3DFJV1RD653DQ","pain","3","","74","J","1","","0","0","1","","0.2908809246","false","8","","0.04564729275","main_expt","","0.2908809246","","0.3378010318","","0.1920600422","","","","","",""
"298","","bandit","84","337638","0.0-46.0-0.0","36092053","wem/bandit_single","A3DFJV1RD653DQ","pain","3","","75","K","2","","0","0","1","","0.3584091786","false","9","","0.05361883364","main_expt","","0.3401169694","","0.3584091786","","0.222474992","","","","","",""
"18","","bandit","85","339422","0.0-47.0-0.0","36092053","wem/bandit_single","A3DFJV1RD653DQ","pain","3","","75","K","2","","0","0","1","","0.3822252457","false","10","","0.05689605437","main_expt","","0.370347707","","0.3822252457","","0.1720297318","","","","","",""
"90","","bandit","86","341279","0.0-48.0-0.0","36092053","wem/bandit_single","A3DFJV1RD653DQ","pain","3","","75","K","2","","0","1","0","","0.4003480189","false","11","","0.05596529361","main_expt","","0.3385652673","","0.4003480189","","0.1672236423","","","","","",""
"2152","","bandit","87","345202","0.0-49.0-0.0","36092053","wem/bandit_single","A3DFJV1RD653DQ","pain","3","","75","K","2","","0","0","1","","0.4035898181","false","12","","0.07455145674","main_expt","","0.3433253296","","0.4035898181","","0.1908353862","","","","","",""
"212","","bandit","88","347180","0.0-50.0-0.0","36092053","wem/bandit_single","A3DFJV1RD653DQ","pain","3","","76","L","3","","0","1","0","","0.1373256951","false","13","","0.1061797552","main_expt","","0.3306460316","","0.3939267589","","0.1373256951","","","","","",""
"271","","bandit","89","349219","0.0-51.0-0.0","36092053","wem/bandit_single","A3DFJV1RD653DQ","pain","3","","76","L","3","","0","0","1","","0.1605467602","false","14","","0.09003395111","main_expt","","0.3423394156","","0.4058751809","","0.1605467602","","","","","",""
"378","","bandit","90","351363","0.0-52.0-0.0","36092053","wem/bandit_single","A3DFJV1RD653DQ","pain","3","","76","L","3","","0","1","0","","0.1270826231","false","15","","0.09190110762","main_expt","","0.3514631564","","0.3784768297","","0.1270826231","","","","","",""
"164","","bandit","91","353296","0.0-53.0-0.0","36092053","wem/bandit_single","A3DFJV1RD653DQ","pain","3","","76","L","3","","0","0","1","","0.1659789958","false","16","","0.1119147711","main_expt","","0.3763865137","","0.3742197382","","0.1659789958","","","","","",""
"291","","bandit","92","355354","0.0-54.0-0.0","36092053","wem/bandit_single","A3DFJV1RD653DQ","pain","3","","76","L","3","","0","0","1","","0.1810296119","false","17","","0.1268228496","main_expt","","0.3613216018","","0.3738750299","","0.1810296119","","","","","",""
"341","","bandit","93","357466","0.0-55.0-0.0","36092053","wem/bandit_single","A3DFJV1RD653DQ","pain","3","","72","H","0","img/none_selected.jpg","0","0","1","","0.160542793","false","18","","0.160542793","main_expt","","0.3354311471","","0.30878177","","0.2209588372","","","","","",""
"271","","bandit","94","359501","0.0-56.0-0.0","36092053","wem/bandit_single","A3DFJV1RD653DQ","pain","3","","72","H","0","img/none_selected.jpg","0","0","1","","0.1913020378","false","19","","0.1913020378","main_expt","","0.3151580681","","0.3257740717","","0.1577150754","","","","","",""
"9","","bandit","95","361278","0.0-57.0-0.0","36092053","wem/bandit_single","A3DFJV1RD653DQ","pain","3","","74","J","1","","0","0","1","","0.2633525784","false","20","","0.2201213849","main_expt","","0.2633525784","","0.2780557495","","0.2368366468","","","","","",""
"211","","bandit","96","363258","0.0-58.0-0.0","36092053","wem/bandit_single","A3DFJV1RD653DQ","pain","3","","75","K","2","","0","0","1","","0.2552615423","false","21","","0.1747441944","main_expt","","0.2730255539","","0.2552615423","","0.1692925459","","","","","",""
"341","","bandit","97","365367","0.0-59.0-0.0","36092053","wem/bandit_single","A3DFJV1RD653DQ","pain","3","","76","L","3","","0","0","1","","0.144462955","false","22","","0.1407764438","main_expt","","0.2366183143","","0.2862558775","","0.144462955","","","","","",""
"34","","bandit","98","367171","0.0-60.0-0.0","36092053","wem/bandit_single","A3DFJV1RD653DQ","pain","3","","75","K","2","","0","1","0","","0.290674517","false","23","","0.1444197889","main_expt","","0.2193011186","","0.290674517","","0.1928882479","","","","","",""
"72","","bandit","99","369010","0.0-61.0-0.0","36092053","wem/bandit_single","A3DFJV1RD653DQ","pain","3","","75","K","2","","0","0","1","","0.2669553567","false","24","","0.1898422889","main_expt","","0.2058852999","","0.2669553567","","0.2077361259","","","","","",""
"170","","bandit","100","370965","0.0-62.0-0.0","36092053","wem/bandit_single","A3DFJV1RD653DQ","pain","3","","75","K","2","","0","0","1","","0.2134469473","false","25","","0.2319991336","main_expt","","0.2377147794","","0.2134469473","","0.2580980749","","","","","",""
"504","","bandit","101","373235","0.0-63.0-0.0","36092053","wem/bandit_single","A3DFJV1RD653DQ","pain","3","","75","K","2","","0","0","1","","0.2027981442","false","26","","0.2140617454","main_expt","","0.3017638279","","0.2027981442","","0.2593960467","","","","","",""
"154","","bandit","102","375156","0.0-64.0-0.0","36092053","wem/bandit_single","A3DFJV1RD653DQ","pain","3","","72","H","0","img/none_selected.jpg","0","1","0","","0.2186733942","false","27","","0.2186733942","main_expt","","0.2647551657","","0.1669761534","","0.2913294918","","","","","",""
"343","","bandit","103","377269","0.0-65.0-0.0","36092053","wem/bandit_single","A3DFJV1RD653DQ","pain","3","","72","H","0","img/none_selected.jpg","0","1","0","","0.2573772923","false","28","","0.2573772923","main_expt","","0.2864353885","","0.1301617017","","0.2838721205","","","","","",""
"440","","bandit","104","379476","0.0-66.0-0.0","36092053","wem/bandit_single","A3DFJV1RD653DQ","pain","3","","72","H","0","img/none_selected.jpg","0","0","1","","0.2563684882","false","29","","0.2563684882","main_expt","","0.2669447337","","0.1540227795","","0.2225595658","","","","","",""
"136","","bandit","105","381376","0.0-67.0-0.0","36092053","wem/bandit_single","A3DFJV1RD653DQ","pain","3","","72","H","0","img/none_selected.jpg","0","1","0","","0.3180657859","false","30","","0.3180657859","main_expt","","0.242519946","","0.1290956128","","0.2450998207","","","","","",""
"7","","bandit","106","383160","0.0-68.0-0.0","36092053","wem/bandit_single","A3DFJV1RD653DQ","pain","3","","72","H","0","img/none_selected.jpg","0","0","1","","0.3391977199","false","31","","0.3391977199","main_expt","","0.1808952067","","0.157476084","","0.2358374841","","","","","",""
"21","","bandit","107","384946","0.0-69.0-0.0","36092053","wem/bandit_single","A3DFJV1RD653DQ","pain","3","","74","J","1","","0","0","1","","0.1490402933","false","32","","0.3655242212","main_expt","","0.1490402933","","0.1667461438","","0.2465538883","","","","","",""
"218","","bandit","108","386938","0.0-70.0-0.0","36092053","wem/bandit_single","A3DFJV1RD653DQ","pain","3","","75","K","2","","0","0","1","","0.1698659255","false","33","","0.3476833293","main_expt","","0.1607825008","","0.1698659255","","0.2479029149","","","","","",""
"767","","bandit","109","389471","0.0-71.0-0.0","36092053","wem/bandit_single","A3DFJV1RD653DQ","pain","3","","72","H","0","img/none_selected.jpg","0","0","1","","0.3287357547","false","34","","0.3287357547","main_expt","","0.2019438485","","0.1830702822","","0.1813792252","","","","","",""
"47","","bandit","110","391286","0.0-72.0-0.0","36092053","wem/bandit_single","A3DFJV1RD653DQ","pain","3","","75","K","2","","0","1","0","","0.1648441896","false","35","","0.3568635533","main_expt","","0.1187506792","","0.1648441896","","0.1507873856","","","","","",""
"425","","bandit","111","393480","0.0-73.0-0.0","36092053","wem/bandit_single","A3DFJV1RD653DQ","pain","3","","75","K","2","","0","0","1","","0.1702375356","false","36","","0.2559818432","main_expt","","0.107122158","","0.1702375356","","0.185146395","","","","","",""
"458","","bandit","112","395707","0.0-74.0-0.0","36092053","wem/bandit_single","A3DFJV1RD653DQ","pain","3","","75","K","2","","0","0","1","","0.1248493821","false","37","","0.2095103509","main_expt","","0.1462043769","","0.1248493821","","0.1995500277","","","","","",""
"2","","bandit","113","397478","0.0-75.0-0.0","36092053","wem/bandit_single","A3DFJV1RD653DQ","pain","3","","75","K","2","","0","0","1","","0.1806095344","false","38","","0.1824107212","main_expt","","0.1562864446","","0.1806095344","","0.2324476024","","","","","",""
"79","","bandit","114","399323","0.0-76.0-0.0","36092053","wem/bandit_single","A3DFJV1RD653DQ","pain","3","","76","L","3","","0","0","1","","0.2374336796","false","39","","0.180532013","main_expt","","0.1425148763","","0.1636381498","","0.2374336796","","","","","",""
"266","","bandit","115","401360","0.0-77.0-0.0","36092053","wem/bandit_single","A3DFJV1RD653DQ","pain","3","","76","L","3","","0","1","0","","0.1871034738","false","40","","0.209403608","main_expt","","0.1332413707","","0.128328165","","0.1871034738","","","","","",""
"37","","bandit","116","403165","0.0-78.0-0.0","36092053","wem/bandit_single","A3DFJV1RD653DQ","pain","3","","76","L","3","","0","0","1","","0.1923798107","false","41","","0.1790729352","main_expt","","0.170838957","","0.1128848486","","0.1923798107","","","","","",""
"388","","bandit","117","405326","0.0-79.0-0.0","36092053","wem/bandit_single","A3DFJV1RD653DQ","pain","3","","76","L","3","","0","0","1","","0.2175202152","false","42","","0.1586268334","main_expt","","0.221577246","","0.1024028154","","0.2175202152","","","","","",""
"364","","bandit","118","407459","0.0-80.0-0.0","36092053","wem/bandit_single","A3DFJV1RD653DQ","pain","3","","72","H","0","img/none_selected.jpg","0","0","1","","0.1953085145","false","43","","0.1953085145","main_expt","","0.2937465132","","0.1842117743","","0.199004634","","","","","",""
"289","","bandit","119","409517","0.0-81.0-0.0","36092053","wem/bandit_single","A3DFJV1RD653DQ","pain","3","","74","J","1","","0","1","0","","0.2473378206","false","44","","0.229373846","main_expt","","0.2473378206","","0.2398699605","","0.1979694218","","","","","",""
"1","","bandit","120","411288","0.0-82.0-0.0","36092053","wem/bandit_single","A3DFJV1RD653DQ","pain","3","","74","J","1","","0","0","1","","0.2911711657","false","45","","0.2387173179","main_expt","","0.2911711657","","0.2666943954","","0.1992427108","","","","","",""
"117","","bandit","121","413178","0.0-83.0-0.0","36092053","wem/bandit_single","A3DFJV1RD653DQ","pain","3","","74","J","1","","0","0","1","","0.2520057509","false","46","","0.2142046797","main_expt","","0.2520057509","","0.3187479261","","0.2240306516","","","","","",""
"283","","bandit","122","415232","0.0-84.0-0.0","36092053","wem/bandit_single","A3DFJV1RD653DQ","pain","3","","75","K","2","","0","0","1","","0.3190608455","false","47","","0.2454335886","main_expt","","0.2527148282","","0.3190608455","","0.2065012218","","","","","",""
"3","","bandit","123","417004","0.0-85.0-0.0","36092053","wem/bandit_single","A3DFJV1RD653DQ","pain","3","","75","K","2","","0","0","1","","0.3135096665","false","48","","0.2810950816","main_expt","","0.273334487","","0.3135096665","","0.1926440163","","","","","",""
"43","","bandit","124","418818","0.0-86.0-0.0","36092053","wem/bandit_single","A3DFJV1RD653DQ","pain","3","","75","K","2","","0","0","1","","0.3341811191","false","49","","0.2547597437","main_expt","","0.3181736471","","0.3341811191","","0.1670810943","","","","","",""
"80","","bandit","125","420672","0.0-87.0-0.0","36092053","wem/bandit_single","A3DFJV1RD653DQ","pain","3","","74","J","1","","0","0","1","","0.3806153608","false","50","","0.224323175","main_expt","","0.3806153608","","0.3459923598","","0.1198069869","","","","","",""
"259","","bandit","126","422701","0.0-88.0-0.0","36092053","wem/bandit_single","A3DFJV1RD653DQ","pain","3","","72","H","0","img/none_selected.jpg","0","1","0","","0.2755477452","false","51","","0.2755477452","main_expt","","0.3949296296","","0.3331953563","","0.103394302","","","","","",""
"328","","bandit","127","424804","0.0-89.0-0.0","36092053","wem/bandit_single","A3DFJV1RD653DQ","pain","3","","72","H","0","img/none_selected.jpg","0","1","0","","0.3022170302","false","52","","0.3022170302","main_expt","","0.3544293331","","0.3915962888","","0.1018912343","","","","","",""
"18","","bandit","128","426591","0.0-90.0-0.0","36092053","wem/bandit_single","A3DFJV1RD653DQ","pain","3","","72","H","0","img/none_selected.jpg","0","0","1","","0.2886203433","false","53","","0.2886203433","main_expt","","0.3007967805","","0.3984086051","","0.07233269407","","","","","",""
"393","","bandit","129","428758","0.0-91.0-0.0","36092053","wem/bandit_single","A3DFJV1RD653DQ","pain","3","","72","H","0","img/none_selected.jpg","0","0","1","","0.3072524501","false","54","","0.3072524501","main_expt","","0.3376398899","","0.4181407331","","0.09210147888","","","","","",""
"94","","bandit","130","430625","0.0-92.0-0.0","36092053","wem/bandit_single","A3DFJV1RD653DQ","pain","3","","72","H","0","img/none_selected.jpg","0","0","1","","0.3847595325","false","55","","0.3847595325","main_expt","","0.3625264345","","0.3964386999","","0.08866102842","","","","","",""
"16","","bandit","131","432411","0.0-93.0-0.0","36092053","wem/bandit_single","A3DFJV1RD653DQ","pain","3","","74","J","1","","0","0","1","","0.313137485","false","56","","0.4008313728","main_expt","","0.313137485","","0.4043277199","","0.1208391037","","","","","",""
"91","","bandit","132","434273","0.0-94.0-0.0","36092053","wem/bandit_single","A3DFJV1RD653DQ","pain","3","","75","K","2","","0","0","1","","0.3232173094","false","57","","0.3763680666","main_expt","","0.3287581384","","0.3232173094","","0.1429525169","","","","","",""
"230","","bandit","133","436275","0.0-95.0-0.0","36092053","wem/bandit_single","A3DFJV1RD653DQ","pain","3","","76","L","3","","0","0","1","","0.1800007821","false","58","","0.3630839511","main_expt","","0.2891608333","","0.3352595409","","0.1800007821","","","","","",""
"354","","bandit","134","438404","0.0-96.0-0.0","36092053","wem/bandit_single","A3DFJV1RD653DQ","pain","3","","76","L","3","","0","0","1","","0.1168587732","false","59","","0.3166885591","main_expt","","0.2228703537","","0.3423270404","","0.1168587732","","","","","",""
"141","","bandit","135","440316","0.0-97.0-0.0","36092053","wem/bandit_single","A3DFJV1RD653DQ","pain","3","","72","H","0","img/none_selected.jpg","0","1","0","","0.3339947878","false","60","","0.3339947878","main_expt","","0.2694349638","","0.3326485747","","0.08966050757","","","","","",""
"195","","bandit","136","442281","0.0-98.0-0.0","36092053","wem/bandit_single","A3DFJV1RD653DQ","pain","3","","72","H","0","img/none_selected.jpg","0","0","1","","0.3559621948","false","61","","0.3559621948","main_expt","","0.3291501217","","0.3239501662","","0.06827284498","","","","","",""
"54","","bandit","137","444107","0.0-99.0-0.0","36092053","wem/bandit_single","A3DFJV1RD653DQ","pain","3","","74","J","1","","0","1","0","","0.3516688484","false","62","","0.3565904981","main_expt","","0.3516688484","","0.3140158541","","0.0870528816","","","","","",""
"140","","bandit","138","446017","0.0-100.0-0.0","36092053","wem/bandit_single","A3DFJV1RD653DQ","pain","3","","74","J","1","","0","1","0","","0.3662001291","false","63","","0.3766945074","main_expt","","0.3662001291","","0.2896297009","","0.07384780705","","","","","",""
"80","","bandit","139","447861","0.0-101.0-0.0","36092053","wem/bandit_single","A3DFJV1RD653DQ","pain","3","","74","J","1","","0","0","1","","0.3986377969","false","64","","0.4038560084","main_expt","","0.3986377969","","0.2848001348","","0.09386223648","","","","","",""
"52","","bandit","140","449683","0.0-102.0-0.0","36092053","wem/bandit_single","A3DFJV1RD653DQ","pain","3","","74","J","1","","0","0","1","","0.4284050928","false","65","","0.4081833366","main_expt","","0.4284050928","","0.2621939157","","0.08656227431","","","","","",""
"1","","bandit","141","451457","0.0-103.0-0.0","36092053","wem/bandit_single","A3DFJV1RD653DQ","pain","3","","74","J","1","","0","0","1","","0.4295130084","false","66","","0.4111507483","main_expt","","0.4295130084","","0.2218985249","","0.1254260964","","","","","",""
"148","","bandit","142","453373","0.0-104.0-0.0","36092053","wem/bandit_single","A3DFJV1RD653DQ","pain","3","","74","J","1","","0","1","0","","0.4192215244","false","67","","0.3731562577","main_expt","","0.4192215244","","0.2203007364","","0.0848557225","","","","","",""
"225","","bandit","143","455370","0.0-105.0-0.0","36092053","wem/bandit_single","A3DFJV1RD653DQ","pain","3","","74","J","1","","0","1","0","","0.4617344849","false","68","","0.3471707475","main_expt","","0.4617344849","","0.2163243509","","0.1277621339","","","","","",""
"68","","bandit","144","457208","0.0-106.0-0.0","36092053","wem/bandit_single","A3DFJV1RD653DQ","pain","3","","74","J","1","","0","1","0","","0.4496684627","false","69","","0.3163780081","main_expt","","0.4496684627","","0.1552451017","","0.1425885083","","","","","",""
"58","","bandit","145","459046","0.0-107.0-0.0","36092053","wem/bandit_single","A3DFJV1RD653DQ","pain","3","","74","J","1","","0","0","1","","0.4572021165","false","70","","0.2872849644","main_expt","","0.4572021165","","0.144295094","","0.1765985622","","","","","",""
"433","","bandit","146","461251","0.0-108.0-0.0","36092053","wem/bandit_single","A3DFJV1RD653DQ","pain","3","","74","J","1","","0","0","1","","0.457930868","false","71","","0.300298776","main_expt","","0.457930868","","0.1823242822","","0.1520060204","","","","","",""
"49","","bandit","147","463074","0.0-109.0-0.0","36092053","wem/bandit_single","A3DFJV1RD653DQ","pain","3","","74","J","1","","0","0","1","","0.4687468973","false","72","","0.3280152389","main_expt","","0.4687468973","","0.144478384","","0.09933583891","","","","","",""
"46","","bandit","148","464889","0.0-110.0-0.0","36092053","wem/bandit_single","A3DFJV1RD653DQ","pain","3","","74","J","1","","0","0","1","","0.4707862587","false","73","","0.2758062481","main_expt","","0.4707862587","","0.1420634247","","0.1087995109","","","","","",""
"74","","bandit","149","466735","0.0-111.0-0.0","36092053","wem/bandit_single","A3DFJV1RD653DQ","pain","3","","75","K","2","","0","0","1","","0.1358649702","false","74","","0.3370537031","main_expt","","0.4602293826","","0.1358649702","","0.150223613","","","","","",""
"25","","bandit","150","468529","0.0-112.0-0.0","36092053","wem/bandit_single","A3DFJV1RD653DQ","pain","3","","75","K","2","","0","0","1","","0.09700523291","false","75","","0.3323795279","main_expt","","0.439891953","","0.09700523291","","0.1945690608","","","","","",""
"27","","bandit","151","470327","0.0-113.0-0.0","36092053","wem/bandit_single","A3DFJV1RD653DQ","pain","3","","75","K","2","","0","0","1","","0.07829726083","false","76","","0.3822428931","main_expt","","0.4424180744","","0.07829726083","","0.2454913388","","","","","",""
"20","","bandit","152","472119","0.0-114.0-0.0","36092053","wem/bandit_single","A3DFJV1RD653DQ","pain","3","","75","K","2","","0","0","1","","0.08460916486","false","77","","0.4136836411","main_expt","","0.4066280348","","0.08460916486","","0.2181262922","","","","","",""
"59","","bandit","153","473958","0.0-115.0-0.0","36092053","wem/bandit_single","A3DFJV1RD653DQ","pain","3","","76","L","3","","0","0","1","","0.2500794828","false","78","","0.4505469687","main_expt","","0.3969262671","","0.0875988483","","0.2500794828","","","","","",""
"52","","bandit","154","475784","0.0-116.0-0.0","36092053","wem/bandit_single","A3DFJV1RD653DQ","pain","3","","76","L","3","","0","0","1","","0.2021405589","false","79","","0.4251749511","main_expt","","0.4119020232","","0.06491107755","","0.2021405589","","","","","",""
"30","","bandit","155","477589","0.0-117.0-0.0","36092053","wem/bandit_single","A3DFJV1RD653DQ","pain","3","","76","L","3","","0","1","0","","0.1654874554","false","80","","0.3976376265","main_expt","","0.3797331509","","0.1021818806","","0.1654874554","","","","","",""
"60","","bandit","156","479423","0.0-118.0-0.0","36092053","wem/bandit_single","A3DFJV1RD653DQ","pain","3","","76","L","3","","0","0","1","","0.1281487551","false","81","","0.409462467","main_expt","","0.4024270851","","0.07175209231","","0.1281487551","","","","","",""
"284","","bandit","157","481483","0.0-119.0-0.0","36092053","wem/bandit_single","A3DFJV1RD653DQ","pain","3","","76","L","3","","0","1","0","","0.1167166884","false","82","","0.4541942335","main_expt","","0.3976574516","","0.04651379375","","0.1167166884","","","","","",""
"17","","bandit","158","483271","0.0-120.0-0.0","36092053","wem/bandit_single","A3DFJV1RD653DQ","pain","3","","76","L","3","","0","0","1","","0.1426109787","false","83","","0.4452160763","main_expt","","0.3749492802","","0.03148502893","","0.1426109787","","","","","",""
"26","","bandit","159","485062","0.0-121.0-0.0","36092053","wem/bandit_single","A3DFJV1RD653DQ","pain","3","","76","L","3","","0","0","1","","0.121887906","false","84","","0.438985114","main_expt","","0.4021863709","","0.05186863446","","0.121887906","","","","","",""
"162","","bandit","160","486993","0.0-122.0-0.0","36092053","wem/bandit_single","A3DFJV1RD653DQ","pain","3","","72","H","0","img/none_selected.jpg","0","0","1","","0.4331173667","false","85","","0.4331173667","main_expt","","0.3624574422","","0.04986731509","","0.1361926199","","","","","",""
"446","","bandit","161","489207","0.0-123.0-0.0","36092053","wem/bandit_single","A3DFJV1RD653DQ","pain","3","","72","H","0","img/none_selected.jpg","0","1","0","","0.447547065","false","86","","0.447547065","main_expt","","0.387939101","","0.05891938772","","0.1287871674","","","","","",""
"62","","bandit","162","491046","0.0-124.0-0.0","36092053","wem/bandit_single","A3DFJV1RD653DQ","pain","3","","72","H","0","img/none_selected.jpg","0","1","0","","0.4451560311","false","87","","0.4451560311","main_expt","","0.3949621072","","0.06619539979","","0.13112728","","","","","",""
"56","","bandit","163","492876","0.0-125.0-0.0","36092053","wem/bandit_single","A3DFJV1RD653DQ","pain","3","","72","H","0","img/none_selected.jpg","0","1","0","","0.4010299359","false","88","","0.4010299359","main_expt","","0.3789082299","","0.03553047297","","0.1385028762","","","","","",""
"411","","bandit","164","495062","0.0-126.0-0.0","36092053","wem/bandit_single","A3DFJV1RD653DQ","pain","3","","72","H","0","img/none_selected.jpg","0","0","1","","0.430672582","false","89","","0.430672582","main_expt","","0.3718344374","","0.03983007571","","0.1377901848","","","","","",""
"3","","bandit","165","496850","0.0-127.0-0.0","36092053","wem/bandit_single","A3DFJV1RD653DQ","pain","3","","72","H","0","img/none_selected.jpg","0","1","0","","0.4063924327","false","90","","0.4063924327","main_expt","","0.4341719303","","0.02618566652","","0.1642812903","","","","","",""
"73","","bandit","166","498694","0.0-128.0-0.0","36092053","wem/bandit_single","A3DFJV1RD653DQ","pain","3","","72","H","0","img/none_selected.jpg","0","1","0","","0.4115689239","false","91","","0.4115689239","main_expt","","0.4538289377","","0.03325063158","","0.2115922749","","","","","",""
"56","","bandit","167","500524","0.0-129.0-0.0","36092053","wem/bandit_single","A3DFJV1RD653DQ","pain","3","","72","H","0","img/none_selected.jpg","0","1","0","","0.4195244723","false","92","","0.4195244723","main_expt","","0.4508501544","","0.02042352937","","0.1819790886","","","","","",""
"1","","bandit","168","502302","0.0-130.0-0.0","36092053","wem/bandit_single","A3DFJV1RD653DQ","pain","3","","72","H","0","img/none_selected.jpg","0","1","0","","0.3976010387","false","93","","0.3976010387","main_expt","","0.4548943395","","0.01887694535","","0.2039146085","","","","","",""
"5","","bandit","169","504079","0.0-131.0-0.0","36092053","wem/bandit_single","A3DFJV1RD653DQ","pain","3","","72","H","0","img/none_selected.jpg","0","0","1","","0.3668479885","false","94","","0.3668479885","main_expt","","0.4646086811","","0.02367451168","","0.2307813202","","","","","",""
"402","","bandit","170","506255","0.0-132.0-0.0","36092053","wem/bandit_single","A3DFJV1RD653DQ","pain","3","","72","H","0","img/none_selected.jpg","0","1","0","","0.3332342888","false","95","","0.3332342888","main_expt","","0.467541367","","0.02723032617","","0.2213313998","","","","","",""
"728","","bandit","171","508763","0.0-133.0-0.0","36092053","wem/bandit_single","A3DFJV1RD653DQ","pain","3","","72","H","0","img/none_selected.jpg","0","1","0","","0.2884910782","false","96","","0.2884910782","main_expt","","0.4642351642","","0.02648196594","","0.2568515079","","","","","",""
"24","","bandit","172","510559","0.0-134.0-0.0","36092053","wem/bandit_single","A3DFJV1RD653DQ","pain","3","","72","H","0","img/none_selected.jpg","0","0","1","","0.2656891479","false","97","","0.2656891479","main_expt","","0.4467755515","","0.01585024216","","0.2699845376","","","","","",""
"347","","bandit","173","512680","0.0-135.0-0.0","36092053","wem/bandit_single","A3DFJV1RD653DQ","pain","3","","72","H","0","img/none_selected.jpg","0","0","1","","0.2595300749","false","98","","0.2595300749","main_expt","","0.4056350907","","0.01169409205","","0.2797451528","","","","","",""
"277","","bandit","174","514732","0.0-136.0-0.0","36092053","wem/bandit_single","A3DFJV1RD653DQ","pain","3","","72","H","0","img/none_selected.jpg","0","0","1","","0.2519900202","false","99","","0.2519900202","main_expt","","0.339742379","","0.01197913588","","0.3187705275","","","","","",""
"365","","bandit","175","516867","0.0-137.0-0.0","36092053","wem/bandit_single","A3DFJV1RD653DQ","pain","3","","74","J","1","","0","1","0","","0.3381167522","false","100","","0.2523409295","main_expt","","0.3381167522","","0.01759776774","","0.3570824245","","","","","",""
"41","","bandit","176","518680","0.0-138.0-0.0","36092053","wem/bandit_single","A3DFJV1RD653DQ","pain","3","","74","J","1","","0","0","1","","0.2803213009","false","101","","0.2146893193","main_expt","","0.2803213009","","0.04295615511","","0.3489468272","","","","","",""
"96","","bandit","177","520554","0.0-139.0-0.0","36092053","wem/bandit_single","A3DFJV1RD653DQ","pain","3","","74","J","1","","0","1","0","","0.317644571","false","102","","0.1843767259","main_expt","","0.317644571","","0.06572998715","","0.3015799625","","","","","",""
"78","","bandit","178","522405","0.0-140.0-0.0","36092053","wem/bandit_single","A3DFJV1RD653DQ","pain","3","","74","J","1","","0","0","1","","0.3024927185","false","103","","0.2108432206","main_expt","","0.3024927185","","0.1043212589","","0.2656450655","","","","","",""
"30","","bandit","179","524211","0.0-141.0-0.0","36092053","wem/bandit_single","A3DFJV1RD653DQ","pain","3","","74","J","1","","0","0","1","","0.3339077782","false","104","","0.26792014","main_expt","","0.3339077782","","0.07063930719","","0.261155182","","","","","",""
"386","","bandit","180","526377","0.0-142.0-0.0","36092053","wem/bandit_single","A3DFJV1RD653DQ","pain","3","","75","K","2","","0","0","1","","0.09992353171","false","105","","0.3302583292","main_expt","","0.2966783269","","0.09992353171","","0.2794756432","","","","","",""
"40","","bandit","181","528195","0.0-143.0-0.0","36092053","wem/bandit_single","A3DFJV1RD653DQ","pain","3","","75","K","2","","0","0","1","","0.1074399807","false","106","","0.3099187861","main_expt","","0.3722996478","","0.1074399807","","0.2719827923","","","","","",""
"66","","bandit","182","530036","0.0-144.0-0.0","36092053","wem/bandit_single","A3DFJV1RD653DQ","pain","3","","75","K","2","","0","0","1","","0.1398361659","false","107","","0.3526315454","main_expt","","0.3764369168","","0.1398361659","","0.2614179637","","","","","",""
"218","","bandit","183","532026","0.0-145.0-0.0","36092053","wem/bandit_single","A3DFJV1RD653DQ","pain","3","","75","K","2","","0","1","0","","0.1503356919","false","108","","0.3741147492","main_expt","","0.3221289315","","0.1503356919","","0.3154283329","","","","","",""
"50","","bandit","184","533848","0.0-146.0-0.0","36092053","wem/bandit_single","A3DFJV1RD653DQ","pain","3","","75","K","2","","0","0","1","","0.1554773292","false","109","","0.3775387023","main_expt","","0.3394272446","","0.1554773292","","0.3965133924","","","","","",""
"9","","bandit","185","535632","0.0-147.0-0.0","36092053","wem/bandit_single","A3DFJV1RD653DQ","pain","3","","75","K","2","","0","0","1","","0.1862379276","false","110","","0.3603169275","main_expt","","0.3108194313","","0.1862379276","","0.4096679205","","","","","",""
"49","","bandit","186","537455","0.0-148.0-0.0","36092053","wem/bandit_single","A3DFJV1RD653DQ","pain","3","","76","L","3","","0","0","1","","0.4107972434","false","111","","0.3492898999","main_expt","","0.2754643313","","0.2096222548","","0.4107972434","","","","","",""
"10","","bandit","187","539237","0.0-149.0-0.0","36092053","wem/bandit_single","A3DFJV1RD653DQ","pain","3","","76","L","3","","0","1","0","","0.4229867006","false","112","","0.3332089306","main_expt","","0.2906444469","","0.2432579143","","0.4229867006","","","","","",""
"183","","bandit","188","541195","0.0-150.0-0.0","36092053","wem/bandit_single","A3DFJV1RD653DQ","pain","3","","76","L","3","","0","0","1","","0.4045712819","false","113","","0.3450976056","main_expt","","0.3006146448","","0.1721880852","","0.4045712819","","","","","",""
"23","","bandit","189","542994","0.0-151.0-0.0","36092053","wem/bandit_single","A3DFJV1RD653DQ","pain","3","","76","L","3","","0","0","1","","0.3821667802","false","114","","0.3725565121","main_expt","","0.2668468313","","0.2081909003","","0.3821667802","","","","","",""
"405","","bandit","190","545174","0.0-152.0-0.0","36092053","wem/bandit_single","A3DFJV1RD653DQ","pain","3","","72","H","0","img/none_selected.jpg","0","1","0","","0.3789561431","false","115","","0.3789561431","main_expt","","0.3032344037","","0.272711811","","0.3342096713","","","","","",""
"291","","bandit","191","547240","0.0-153.0-0.0","36092053","wem/bandit_single","A3DFJV1RD653DQ","pain","3","","72","H","0","img/none_selected.jpg","0","0","1","","0.3829881954","false","116","","0.3829881954","main_expt","","0.279678247","","0.2801201945","","0.3475890958","","","","","",""
"342","","bandit","192","549363","0.0-154.0-0.0","36092053","wem/bandit_single","A3DFJV1RD653DQ","pain","3","","72","H","0","img/none_selected.jpg","0","0","1","","0.3872477479","false","117","","0.3872477479","main_expt","","0.2762620489","","0.3615324036","","0.3545652452","","","","","",""
"111","","bandit","193","551250","0.0-155.0-0.0","36092053","wem/bandit_single","A3DFJV1RD653DQ","pain","3","","72","H","0","img/none_selected.jpg","0","1","0","","0.3952603005","false","118","","0.3952603005","main_expt","","0.2880572365","","0.3615177178","","0.3542043025","","","","","",""
"343","","bandit","194","553365","0.0-156.0-0.0","36092053","wem/bandit_single","A3DFJV1RD653DQ","pain","3","","72","H","0","img/none_selected.jpg","0","0","1","","0.3838673248","false","119","","0.3838673248","main_expt","","0.2807620685","","0.3875935955","","0.3471352845","","","","","",""
"391","","bandit","195","555518","0.0-157.0-0.0","36092053","wem/bandit_single","A3DFJV1RD653DQ","pain","3","","72","H","0","img/none_selected.jpg","0","0","1","","0.4148997213","false","120","","0.4148997213","main_expt","","0.2811576832","","0.4052723714","","0.3343169965","","","","","",""
"252","","bandit","196","557544","0.0-158.0-0.0","36092053","wem/bandit_single","A3DFJV1RD653DQ","pain","3","","74","J","1","","0","0","1","","0.3016455194","false","121","","0.4184259471","main_expt","","0.3016455194","","0.44462971","","0.3595120763","","","","","",""
"75","","bandit","197","559394","0.0-159.0-0.0","36092053","wem/bandit_single","A3DFJV1RD653DQ","pain","3","","74","J","1","","0","0","1","","0.3161331551","false","122","","0.4271141924","main_expt","","0.3161331551","","0.4338931322","","0.3296914373","","","","","",""
"97","","bandit","198","561266","0.0-160.0-0.0","36092053","wem/bandit_single","A3DFJV1RD653DQ","pain","3","","74","J","1","","0","0","1","","0.2882518765","false","123","","0.3994299035","main_expt","","0.2882518765","","0.4248885798","","0.3369167856","","","","","",""
"56","","bandit","199","563097","0.0-161.0-0.0","36092053","wem/bandit_single","A3DFJV1RD653DQ","pain","3","","74","J","1","","0","0","1","","0.3426101702","false","124","","0.4319292606","main_expt","","0.3426101702","","0.3773411534","","0.3181772373","","","","","",""
"7","","bandit","200","564879","0.0-162.0-0.0","36092053","wem/bandit_single","A3DFJV1RD653DQ","pain","3","","74","J","1","","0","0","1","","0.3623178769","false","125","","0.4228137624","main_expt","","0.3623178769","","0.3322500489","","0.3285823626","","","","","",""
"35","","bandit","201","566678","0.0-163.0-0.0","36092053","wem/bandit_single","A3DFJV1RD653DQ","pain","3","","75","K","2","","0","0","1","","0.3742157909","false","126","","0.4445824992","main_expt","","0.3487147863","","0.3742157909","","0.3203566048","","","","","",""
"92","","bandit","202","568546","0.0-164.0-0.0","36092053","wem/bandit_single","A3DFJV1RD653DQ","pain","3","","75","K","2","","0","1","0","","0.3851047317","false","127","","0.4525048151","main_expt","","0.4137567253","","0.3851047317","","0.3852478983","","","","","",""
"42","","bandit","203","570364","0.0-165.0-0.0","36092053","wem/bandit_single","A3DFJV1RD653DQ","pain","3","","75","K","2","","0","1","0","","0.4043255462","false","128","","0.4692783601","main_expt","","0.3814482247","","0.4043255462","","0.3389365807","","","","","",""
"79","","bandit","204","572223","0.0-166.0-0.0","36092053","wem/bandit_single","A3DFJV1RD653DQ","pain","3","","75","K","2","","0","1","0","","0.4123407707","false","129","","0.4168961411","main_expt","","0.4168244781","","0.4123407707","","0.3137404055","","","","","",""
"48","","bandit","205","574047","0.0-167.0-0.0","36092053","wem/bandit_single","A3DFJV1RD653DQ","pain","3","","75","K","2","","0","1","0","","0.4046971735","false","130","","0.3790243023","main_expt","","0.4365918222","","0.4046971735","","0.3258581953","","","","","",""
"65","","bandit","206","575891","0.0-168.0-0.0","36092053","wem/bandit_single","A3DFJV1RD653DQ","pain","3","","75","K","2","","0","0","1","","0.4461276952","false","131","","0.4049885765","main_expt","","0.4389841863","","0.4461276952","","0.2883577813","","","","","",""
"104","","bandit","207","577771","0.0-169.0-0.0","36092053","wem/bandit_single","A3DFJV1RD653DQ","pain","3","","75","K","2","","0","0","1","","0.4611465992","false","132","","0.4146365962","main_expt","","0.4152650591","","0.4611465992","","0.3560589507","","","","","",""
"100","","bandit","208","579638","0.0-170.0-0.0","36092053","wem/bandit_single","A3DFJV1RD653DQ","pain","3","","75","K","2","","0","0","1","","0.4798080461","false","133","","0.3895917514","main_expt","","0.4542457407","","0.4798080461","","0.358394082","","","","","",""
"373","","bandit","209","581790","0.0-171.0-0.0","36092053","wem/bandit_single","A3DFJV1RD653DQ","pain","3","","76","L","3","","0","1","0","","0.3605573227","false","134","","0.4031985028","main_expt","","0.4598844585","","0.4536835414","","0.3605573227","","","","","",""
"104","","bandit","210","583670","0.0-172.0-0.0","36092053","wem/bandit_single","A3DFJV1RD653DQ","pain","3","","76","L","3","","0","0","1","","0.3695471057","false","135","","0.3950250086","main_expt","","0.4690925783","","0.4297718384","","0.3695471057","","","","","",""
"94","","bandit","211","585547","0.0-173.0-0.0","36092053","wem/bandit_single","A3DFJV1RD653DQ","pain","3","","76","L","3","","0","0","1","","0.4060603524","false","136","","0.3958408827","main_expt","","0.4382452635","","0.4047290025","","0.4060603524","","","","","",""
"214","","bandit","212","587538","0.0-174.0-0.0","36092053","wem/bandit_single","A3DFJV1RD653DQ","pain","3","","76","L","3","","0","0","1","","0.3977168634","false","137","","0.4025558346","main_expt","","0.4469583278","","0.4062789173","","0.3977168634","","","","","",""
"91","","bandit","213","589404","0.0-175.0-0.0","36092053","wem/bandit_single","A3DFJV1RD653DQ","pain","3","","72","H","0","img/none_selected.jpg","0","0","1","","0.3901350715","false","138","","0.3901350715","main_expt","","0.44739429","","0.3893267926","","0.3884520433","","","","","",""
"32","","bandit","214","591214","0.0-176.0-0.0","36092053","wem/bandit_single","A3DFJV1RD653DQ","pain","3","","72","H","0","img/none_selected.jpg","0","0","1","","0.4069565875","false","139","","0.4069565875","main_expt","","0.4329330235","","0.3355070849","","0.3517782966","","","","","",""
"126","","bandit","215","593108","0.0-177.0-0.0","36092053","wem/bandit_single","A3DFJV1RD653DQ","pain","3","","74","J","1","","0","1","0","","0.4427321083","false","140","","0.4384632306","main_expt","","0.4427321083","","0.3033729388","","0.3147433726","","","","","",""
"63","","bandit","216","594949","0.0-178.0-0.0","36092053","wem/bandit_single","A3DFJV1RD653DQ","pain","3","","74","J","1","","0","1","0","","0.4630674526","false","141","","0.4513823692","main_expt","","0.4630674526","","0.3495942718","","0.315874603","","","","","",""
"112","","bandit","217","596839","0.0-179.0-0.0","36092053","wem/bandit_single","A3DFJV1RD653DQ","pain","3","","74","J","1","","0","0","1","","0.4678156034","false","142","","0.4477105457","main_expt","","0.4678156034","","0.373744609","","0.2660579121","","","","","",""
"287","","bandit","218","598904","0.0-180.0-0.0","36092053","wem/bandit_single","A3DFJV1RD653DQ","pain","3","","76","L","3","","0","1","0","","0.2791435274","false","143","","0.4399018081","main_expt","","0.4556942345","","0.3983109068","","0.2791435274","","","","","",""
"197","","bandit","219","600888","0.0-181.0-0.0","36092053","wem/bandit_single","A3DFJV1RD653DQ","pain","3","","76","L","3","","0","0","1","","0.3232226047","false","144","","0.3929519584","main_expt","","0.4606745253","","0.4290647624","","0.3232226047","","","","","",""
"27","","bandit","220","602693","0.0-182.0-0.0","36092053","wem/bandit_single","A3DFJV1RD653DQ","pain","3","","76","L","3","","0","0","1","","0.2863527335","false","145","","0.3638959839","main_expt","","0.4493721712","","0.4360055891","","0.2863527335","","","","","",""
"174","","bandit","221","604639","0.0-183.0-0.0","36092053","wem/bandit_single","A3DFJV1RD653DQ","pain","3","","75","K","2","","0","0","1","","0.4408793748","false","146","","0.3109408856","main_expt","","0.411205332","","0.4408793748","","0.2399582054","","","","","",""
"66","","bandit","222","606484","0.0-184.0-0.0","36092053","wem/bandit_single","A3DFJV1RD653DQ","pain","3","","76","L","3","","0","0","1","","0.2186627863","false","147","","0.303790043","main_expt","","0.4091009254","","0.4152856751","","0.2186627863","","","","","",""
"90","","bandit","223","608353","0.0-185.0-0.0","36092053","wem/bandit_single","A3DFJV1RD653DQ","pain","3","","76","L","3","","0","0","1","","0.233860686","false","148","","0.2836070719","main_expt","","0.3878952866","","0.400149315","","0.233860686","","","","","",""
"128","","bandit","224","610262","0.0-186.0-0.0","36092053","wem/bandit_single","A3DFJV1RD653DQ","pain","3","","72","H","0","img/none_selected.jpg","0","0","1","","0.2132997302","false","149","","0.2132997302","main_expt","","0.39239053","","0.4081055764","","0.2752018233","","","","","",""
"11","","bandit","225","612052","0.0-187.0-0.0","36092053","wem/bandit_single","A3DFJV1RD653DQ","pain","3","","72","H","0","img/none_selected.jpg","0","0","1","","0.1906505553","false","150","","0.1906505553","main_expt","","0.3869122725","","0.3946041437","","0.2306982087","","","","","",""
"36","","bandit","226","613856","0.0-188.0-0.0","36092053","wem/bandit_single","A3DFJV1RD653DQ","pain","3","","72","H","0","img/none_selected.jpg","0","0","1","","0.1887938372","false","151","","0.1887938372","main_expt","","0.3562084687","","0.3517385329","","0.272940168","","","","","",""
"41","","bandit","227","615679","0.0-189.0-0.0","36092053","wem/bandit_single","A3DFJV1RD653DQ","pain","3","","74","J","1","","0","1","0","","0.3975166132","false","152","","0.1452925277","main_expt","","0.3975166132","","0.33807167","","0.246833375","","","","","",""
"1","","bandit","228","617459","0.0-190.0-0.0","36092053","wem/bandit_single","A3DFJV1RD653DQ","pain","3","","74","J","1","","0","0","1","","0.4221253747","false","153","","0.1236287895","main_expt","","0.4221253747","","0.3507556502","","0.2555278221","","","","","",""
"441","","bandit","229","619675","0.0-191.0-0.0","36092053","wem/bandit_single","A3DFJV1RD653DQ","pain","3","","74","J","1","","0","1","0","","0.3887365422","false","154","","0.119712108","main_expt","","0.3887365422","","0.3484399371","","0.1964980564","","","","","",""
"108","","bandit","230","621571","0.0-192.0-0.0","36092053","wem/bandit_single","A3DFJV1RD653DQ","pain","3","","74","J","1","","0","0","1","","0.3935049101","false","155","","0.1638630184","main_expt","","0.3935049101","","0.4023996329","","0.2158986014","","","","","",""
"94","","bandit","231","623445","0.0-193.0-0.0","36092053","wem/bandit_single","A3DFJV1RD653DQ","pain","3","","72","H","0","img/none_selected.jpg","0","1","0","","0.138562935","false","156","","0.138562935","main_expt","","0.4185769797","","0.3489947109","","0.2269609611","","","","","",""
"59","","bandit","232","625278","0.0-194.0-0.0","36092053","wem/bandit_single","A3DFJV1RD653DQ","pain","3","","72","H","0","img/none_selected.jpg","0","0","1","","0.1424057266","false","157","","0.1424057266","main_expt","","0.412821327","","0.3223479281","","0.2997599927","","","","","",""
"93","","bandit","233","627152","0.0-195.0-0.0","36092053","wem/bandit_single","A3DFJV1RD653DQ","pain","3","","75","K","2","","0","1","0","","0.3334556671","false","158","","0.1068688432","main_expt","","0.4433072999","","0.3334556671","","0.2608946303","","","","","",""
"59","","bandit","234","628987","0.0-196.0-0.0","36092053","wem/bandit_single","A3DFJV1RD653DQ","pain","3","","75","K","2","","0","1","0","","0.3686402331","false","159","","0.08394897778","main_expt","","0.4600675837","","0.3686402331","","0.2927903113","","","","","",""
"29","","bandit","235","630795","0.0-197.0-0.0","36092053","wem/bandit_single","A3DFJV1RD653DQ","pain","3","","75","K","2","","0","0","1","","0.3711838842","false","160","","0.09909711901","main_expt","","0.449399373","","0.3711838842","","0.3165869591","","","","","",""
"424","","bandit","236","632997","0.0-198.0-0.0","36092053","wem/bandit_single","A3DFJV1RD653DQ","pain","3","","75","K","2","","0","0","1","","0.385982022","false","161","","0.09256485174","main_expt","","0.4303005813","","0.385982022","","0.3355773311","","","","","",""
"128","","bandit","237","634905","0.0-199.0-0.0","36092053","wem/bandit_single","A3DFJV1RD653DQ","pain","3","","76","L","3","","0","1","0","","0.3801839585","false","162","","0.07550585721","main_expt","","0.4319487415","","0.3435676447","","0.3801839585","","","","","",""
"192","","bandit","238","636876","0.0-200.0-0.0","36092053","wem/bandit_single","A3DFJV1RD653DQ","pain","3","","76","L","3","","0","0","1","","0.3796909961","false","163","","0.08055395315","main_expt","","0.4459750046","","0.3840292687","","0.3796909961","","","","","",""
"95","","bandit","239","638753","0.0-201.0-0.0","36092053","wem/bandit_single","A3DFJV1RD653DQ","pain","3","","76","L","3","","0","0","1","","0.3657353238","false","164","","0.07824920034","main_expt","","0.4529977304","","0.3427058888","","0.3657353238","","","","","",""
"91","","bandit","240","640610","0.0-202.0-0.0","36092053","wem/bandit_single","A3DFJV1RD653DQ","pain","3","","76","L","3","","0","0","1","","0.3937598932","false","165","","0.08439791844","main_expt","","0.4472909282","","0.3258967388","","0.3937598932","","","","","",""
"122","","bandit","241","642509","0.0-203.0-0.0","36092053","wem/bandit_single","A3DFJV1RD653DQ","pain","3","","76","L","3","","0","1","0","","0.3914196171","false","166","","0.05039915739","main_expt","","0.4399772256","","0.2704303424","","0.3914196171","","","","","",""
"238","","bandit","242","644524","0.0-204.0-0.0","36092053","wem/bandit_single","A3DFJV1RD653DQ","pain","3","","76","L","3","","0","0","1","","0.3919877423","false","167","","0.05759530337","main_expt","","0.4636729032","","0.3205555932","","0.3919877423","","","","","",""
"63","","bandit","243","646370","0.0-205.0-0.0","36092053","wem/bandit_single","A3DFJV1RD653DQ","pain","3","","76","L","3","","0","0","1","","0.3647459683","false","168","","0.04992464654","main_expt","","0.4437796743","","0.3639109947","","0.3647459683","","","","","",""
"10","","bandit","244","648160","0.0-206.0-0.0","36092053","wem/bandit_single","A3DFJV1RD653DQ","pain","3","","72","H","0","img/none_selected.jpg","0","0","1","","0.03416660819","false","169","","0.03416660819","main_expt","","0.456101387","","0.3733582142","","0.4058418149","","","","","",""
"552","","bandit","245","650495","0.0-207.0-0.0","36092053","wem/bandit_single","A3DFJV1RD653DQ","pain","3","","72","H","0","img/none_selected.jpg","0","0","1","","0.01917125828","false","170","","0.01917125828","main_expt","","0.4571218852","","0.3832331311","","0.3998590153","","","","","",""
"144","","bandit","246","652413","0.0-208.0-0.0","36092053","wem/bandit_single","A3DFJV1RD653DQ","pain","3","","72","H","0","img/none_selected.jpg","0","0","1","","0.02244253376","false","171","","0.02244253376","main_expt","","0.445510323","","0.3815339887","","0.3887500458","","","","","",""
"108","","bandit","247","654306","0.0-209.0-0.0","36092053","wem/bandit_single","A3DFJV1RD653DQ","pain","3","","74","J","1","","0","0","1","","0.4280794999","false","172","","0.02619280326","main_expt","","0.4280794999","","0.3471775219","","0.4102182378","","","","","",""
"402","","bandit","248","656487","0.0-210.0-0.0","36092053","wem/bandit_single","A3DFJV1RD653DQ","pain","3","","74","J","1","","0","0","1","","0.4379780546","false","173","","0.0218428458","main_expt","","0.4379780546","","0.340289466","","0.3895773165","","","","","",""
"35","","bandit","249","658303","0.0-211.0-0.0","36092053","wem/bandit_single","A3DFJV1RD653DQ","pain","3","","74","J","1","","0","0","1","","0.4160926905","false","174","","0.02840617367","main_expt","","0.4160926905","","0.3280863639","","0.3826402373","","","","","",""
"47","","bandit","250","660129","0.0-212.0-0.0","36092053","wem/bandit_single","A3DFJV1RD653DQ","pain","3","","74","J","1","","0","1","0","","0.44195178","false","175","","0.0268928826","main_expt","","0.44195178","","0.3782643392","","0.38572844","","","","","",""
"98","","bandit","251","662009","0.0-213.0-0.0","36092053","wem/bandit_single","A3DFJV1RD653DQ","pain","3","","74","J","1","","0","1","0","","0.4469840309","false","176","","0.04471375276","main_expt","","0.4469840309","","0.3714875018","","0.3566605828","","","","","",""
"110","","bandit","252","663900","0.0-214.0-0.0","36092053","wem/bandit_single","A3DFJV1RD653DQ","pain","3","","74","J","1","","0","0","1","","0.4732589693","false","177","","0.04508647299","main_expt","","0.4732589693","","0.3110573775","","0.3736379944","","","","","",""
"167","","bandit","253","665855","0.0-215.0-0.0","36092053","wem/bandit_single","A3DFJV1RD653DQ","pain","3","","75","K","2","","0","0","1","","0.3725785744","false","178","","0.07342594821","main_expt","","0.4716065645","","0.3725785744","","0.3835263095","","","","","",""
"70","","bandit","254","667703","0.0-216.0-0.0","36092053","wem/bandit_single","A3DFJV1RD653DQ","pain","3","","75","K","2","","0","0","1","","0.4143512522","false","179","","0.08189943715","main_expt","","0.4724187392","","0.4143512522","","0.3531759074","","","","","",""
"100","","bandit","255","669580","0.0-217.0-0.0","36092053","wem/bandit_single","A3DFJV1RD653DQ","pain","3","","75","K","2","","0","1","0","","0.4240428135","false","180","","0.07894611151","main_expt","","0.4551908631","","0.4240428135","","0.3185705061","","","","","",""
"86","","bandit","256","671449","0.0-218.0-0.0","36092053","wem/bandit_single","A3DFJV1RD653DQ","pain","3","","75","K","2","","0","1","0","","0.4394908049","false","181","","0.06982230443","main_expt","","0.456416976","","0.4394908049","","0.2823592255","","","","","",""
"99","","bandit","257","673328","0.0-219.0-0.0","36092053","wem/bandit_single","A3DFJV1RD653DQ","pain","3","","75","K","2","","0","0","1","","0.4180692962","false","182","","0.06674639092","main_expt","","0.4525945541","","0.4180692962","","0.2741397005","","","","","",""
"49","","bandit","258","675157","0.0-220.0-0.0","36092053","wem/bandit_single","A3DFJV1RD653DQ","pain","3","","72","H","0","img/none_selected.jpg","0","0","1","","0.04008595334","false","183","","0.04008595334","main_expt","","0.4439654651","","0.4468782907","","0.2936799338","","","","","",""
"232","","bandit","259","677173","0.0-221.0-0.0","36092053","wem/bandit_single","A3DFJV1RD653DQ","pain","3","","72","H","0","img/none_selected.jpg","0","0","1","","0.04652727321","false","184","","0.04652727321","main_expt","","0.4366406792","","0.4489540851","","0.3027831177","","","","","",""
"74","","bandit","260","679025","0.0-222.0-0.0","36092053","wem/bandit_single","A3DFJV1RD653DQ","pain","3","","76","L","3","","0","0","1","","0.3180510168","false","185","","0.05033673313","main_expt","","0.4282468188","","0.4669005471","","0.3180510168","","","","","",""
"188","","bandit","261","680981","0.0-223.0-0.0","36092053","wem/bandit_single","A3DFJV1RD653DQ","pain","3","","72","H","0","img/none_selected.jpg","0","0","1","","0.03009771755","false","186","","0.03009771755","main_expt","","0.4249990568","","0.419417397","","0.3285352945","","","","","",""
"51","","bandit","262","682806","0.0-224.0-0.0","36092053","wem/bandit_single","A3DFJV1RD653DQ","pain","3","","74","J","1","","0","1","0","","0.4159118542","false","187","","0.02601150791","main_expt","","0.4159118542","","0.3735271503","","0.3278715557","","","","","",""
"42","","bandit","263","684624","0.0-225.0-0.0","36092053","wem/bandit_single","A3DFJV1RD653DQ","pain","3","","74","J","1","","0","0","1","","0.4294829221","false","188","","0.02389042297","main_expt","","0.4294829221","","0.3339942922","","0.3408065186","","","","","",""
"71","","bandit","264","686474","0.0-226.0-0.0","36092053","wem/bandit_single","A3DFJV1RD653DQ","pain","3","","75","K","2","","0","0","1","","0.3200911101","false","189","","0.02303770395","main_expt","","0.4183094629","","0.3200911101","","0.3335894225","","","","","",""
"501","","bandit","265","688757","0.0-227.0-0.0","36092053","wem/bandit_single","A3DFJV1RD653DQ","pain","3","","75","K","2","","0","1","0","","0.379511296","false","190","","0.0156858998","main_expt","","0.3769048436","","0.379511296","","0.2560009578","","","","","",""
"22","","bandit","266","690561","0.0-228.0-0.0","36092053","wem/bandit_single","A3DFJV1RD653DQ","pain","3","","75","K","2","","0","1","0","","0.3475909393","false","191","","0.02184200568","main_expt","","0.3654839124","","0.3475909393","","0.2422543603","","","","","",""
"337","","bandit","267","692680","0.0-229.0-0.0","36092053","wem/bandit_single","A3DFJV1RD653DQ","pain","3","","75","K","2","","0","0","1","","0.3248483226","false","192","","0.04159540118","main_expt","","0.4158526776","","0.3248483226","","0.2479432207","","","","","",""
"217","","bandit","268","694678","0.0-230.0-0.0","36092053","wem/bandit_single","A3DFJV1RD653DQ","pain","3","","76","L","3","","0","1","0","","0.2198669916","false","193","","0.02418359434","main_expt","","0.4294001388","","0.3530355579","","0.2198669916","","","","","",""
"119","","bandit","269","696576","0.0-231.0-0.0","36092053","wem/bandit_single","A3DFJV1RD653DQ","pain","3","","76","L","3","","0","0","1","","0.1832858475","false","194","","0.03036789999","main_expt","","0.421006879","","0.3613612536","","0.1832858475","","","","","",""
"89","","bandit","270","698448","0.0-232.0-0.0","36092053","wem/bandit_single","A3DFJV1RD653DQ","pain","3","","75","K","2","","0","1","0","","0.3712676973","false","195","","0.0328032794","main_expt","","0.3993762185","","0.3712676973","","0.1758973168","","","","","",""
"24","","bandit","271","700250","0.0-233.0-0.0","36092053","wem/bandit_single","A3DFJV1RD653DQ","pain","3","","75","K","2","","0","1","0","","0.3797177139","false","196","","0.03367124179","main_expt","","0.3953591144","","0.3797177139","","0.1472052011","","","","","",""
"57","","bandit","272","702086","0.0-234.0-0.0","36092053","wem/bandit_single","A3DFJV1RD653DQ","pain","3","","75","K","2","","0","0","1","","0.3703437648","false","197","","0.03515804352","main_expt","","0.4186523265","","0.3703437648","","0.09357285733","","","","","",""
"9","","bandit","273","703867","0.0-235.0-0.0","36092053","wem/bandit_single","A3DFJV1RD653DQ","pain","3","","74","J","1","","0","1","0","","0.4334783576","false","198","","0.0474911349","main_expt","","0.4334783576","","0.3269028648","","0.1466532231","","","","","",""
"73","","bandit","274","705720","0.0-236.0-0.0","36092053","wem/bandit_single","A3DFJV1RD653DQ","pain","3","","74","J","1","","0","1","0","","0.452916177","false","199","","0.04758635843","main_expt","","0.452916177","","0.2972028605","","0.1745555733","","","","","",""
"46","","bandit","275","707536","0.0-237.0-0.0","36092053","wem/bandit_single","A3DFJV1RD653DQ","pain","3","","74","J","1","","0","1","0","","0.4652130485","false","200","","0.06637193447","main_expt","","0.4652130485","","0.2548635421","","0.1496088854","","","","","",""
"1","","bandit","276","709319","0.0-238.0-0.0","36092053","wem/bandit_single","A3DFJV1RD653DQ","pain","3","","74","J","1","","0","0","1","","0.4544628945","false","201","","0.03961336895","main_expt","","0.4544628945","","0.2360204523","","0.1144678821","","","","","",""
"498","","bandit","277","711612","0.0-239.0-0.0","36092053","wem/bandit_single","A3DFJV1RD653DQ","pain","3","","72","H","0","img/none_selected.jpg","0","0","1","","0.04217273593","false","202","","0.04217273593","main_expt","","0.4346785174","","0.1847208139","","0.08314182588","","","","","",""
"116","","bandit","278","713506","0.0-240.0-0.0","36092053","wem/bandit_single","A3DFJV1RD653DQ","pain","3","","72","H","0","img/none_selected.jpg","0","0","1","","0.03601881868","false","203","","0.03601881868","main_expt","","0.4340895374","","0.1740418795","","0.1008304514","","","","","",""
"272","","bandit","279","715561","0.0-241.0-0.0","36092053","wem/bandit_single","A3DFJV1RD653DQ","pain","3","","74","J","1","","0","1","0","","0.4398780919","false","204","","0.04663301139","main_expt","","0.4398780919","","0.1469060572","","0.1170364225","","","","","",""
"39","","bandit","280","717380","0.0-242.0-0.0","36092053","wem/bandit_single","A3DFJV1RD653DQ","pain","3","","74","J","1","","0","1","0","","0.4001316318","false","205","","0.04643109282","main_expt","","0.4001316318","","0.1162446513","","0.1228414706","","","","","",""
"59","","bandit","281","719224","0.0-243.0-0.0","36092053","wem/bandit_single","A3DFJV1RD653DQ","pain","3","","74","J","1","","0","1","0","","0.4347617828","false","206","","0.06886832812","main_expt","","0.4347617828","","0.1289033918","","0.1574749647","","","","","",""
"427","","bandit","282","721434","0.0-244.0-0.0","36092053","wem/bandit_single","A3DFJV1RD653DQ","pain","3","","74","J","1","","0","0","1","","0.4383015813","false","207","","0.0600143171","main_expt","","0.4383015813","","0.1261822501","","0.1922173773","","","","","",""
"251","","bandit","283","723465","0.0-245.0-0.0","36092053","wem/bandit_single","A3DFJV1RD653DQ","pain","3","","75","K","2","","0","0","1","","0.1024795668","false","208","","0.04637571639","main_expt","","0.4038237536","","0.1024795668","","0.1673160211","","","","","",""
"102","","bandit","284","725348","0.0-246.0-0.0","36092053","wem/bandit_single","A3DFJV1RD653DQ","pain","3","","76","L","3","","0","1","0","","0.1269527993","false","209","","0.04040360689","main_expt","","0.3890753365","","0.1129838087","","0.1269527993","","","","","",""
"74","","bandit","285","727202","0.0-247.0-0.0","36092053","wem/bandit_single","A3DFJV1RD653DQ","pain","3","","76","L","3","","0","0","1","","0.1114377498","false","210","","0.02069644656","main_expt","","0.3792373644","","0.1562804612","","0.1114377498","","","","","",""
"32","","bandit","286","729016","0.0-248.0-0.0","36092053","wem/bandit_single","A3DFJV1RD653DQ","pain","3","","72","H","0","img/none_selected.jpg","0","1","0","","0.03173395488","false","211","","0.03173395488","main_expt","","0.3780611868","","0.1363837251","","0.1155820846","","","","","",""
"80","","bandit","287","730878","0.0-249.0-0.0","36092053","wem/bandit_single","A3DFJV1RD653DQ","pain","3","","72","H","0","img/none_selected.jpg","0","0","1","","0.02469601981","false","212","","0.02469601981","main_expt","","0.3483689532","","0.09358237554","","0.1553323518","","","","","",""
"9","","bandit","288","732670","0.0-250.0-0.0","36092053","wem/bandit_single","A3DFJV1RD653DQ","pain","3","","74","J","1","","0","0","1","","0.2874103991","false","213","","0.04258417901","main_expt","","0.2874103991","","0.05743859841","","0.2062901667","","","","","",""
"459","","bandit","289","734921","0.0-251.0-0.0","36092053","wem/bandit_single","A3DFJV1RD653DQ","pain","3","","74","J","1","","0","0","1","","0.2620706088","false","214","","0.05493755721","main_expt","","0.2620706088","","0.05800100084","","0.2076956631","","","","","",""
"74","","bandit","290","736790","0.0-252.0-0.0","36092053","wem/bandit_single","A3DFJV1RD653DQ","pain","3","","75","K","2","","0","0","1","","0.05413405856","false","215","","0.08978059799","main_expt","","0.2855520155","","0.05413405856","","0.2609492508","","","","","",""
"146","","bandit","291","738715","0.0-253.0-0.0","36092053","wem/bandit_single","A3DFJV1RD653DQ","pain","3","","75","K","2","","0","0","1","","0.03942357166","false","216","","0.09809121306","main_expt","","0.2916786734","","0.03942357166","","0.2500101786","","","","","",""
"70","","bandit","292","740553","0.0-254.0-0.0","36092053","wem/bandit_single","A3DFJV1RD653DQ","pain","3","","76","L","3","","0","0","1","","0.2748248586","false","217","","0.1427848958","main_expt","","0.2823685681","","0.03801572204","","0.2748248586","","","","","",""
"114","","bandit","293","742449","0.0-255.0-0.0","36092053","wem/bandit_single","A3DFJV1RD653DQ","pain","3","","76","L","3","","0","0","1","","0.311954441","false","218","","0.1570322525","main_expt","","0.2423520158","","0.03890441123","","0.311954441","","","","","",""
"3","","bandit","294","744241","0.0-256.0-0.0","36092053","wem/bandit_single","A3DFJV1RD653DQ","pain","3","","72","H","0","img/none_selected.jpg","0","0","1","","0.1805036953","false","219","","0.1805036953","main_expt","","0.2949403562","","0.01887456362","","0.3632760336","","","","","",""
"335","","bandit","295","746359","0.0-257.0-0.0","36092053","wem/bandit_single","A3DFJV1RD653DQ","pain","3","","72","H","0","img/none_selected.jpg","0","0","1","","0.1305519061","false","220","","0.1305519061","main_expt","","0.3123592507","","0.02149820142","","0.3369908474","","","","","",""
"20","","bandit","296","748161","0.0-258.0-0.0","36092053","wem/bandit_single","A3DFJV1RD653DQ","pain","3","","74","J","1","","0","0","1","","0.3184432139","false","221","","0.09039333473","main_expt","","0.3184432139","","0.03528878979","","0.3047504054","","","","","",""
"4","","bandit","297","749948","0.0-259.0-0.0","36092053","wem/bandit_single","A3DFJV1RD653DQ","pain","3","","74","J","1","","0","0","1","","0.3596246423","false","222","","0.0801847008","main_expt","","0.3596246423","","0.03906528797","","0.3107799438","","","","","",""
"93","","bandit","298","751840","0.0-260.0-0.0","36092053","wem/bandit_single","A3DFJV1RD653DQ","pain","3","","75","K","2","","0","0","1","","0.04285152396","false","223","","0.08930296305","main_expt","","0.3048299186","","0.04285152396","","0.3359374044","","","","","",""
"180","","bandit","299","753805","0.0-261.0-0.0","36092053","wem/bandit_single","A3DFJV1RD653DQ","pain","3","","76","L","3","","0","0","1","","0.354776332","false","224","","0.0783544472","main_expt","","0.3097637171","","0.03308098724","","0.354776332","","","","","",""
"97","","bandit","300","755683","0.0-262.0-0.0","36092053","wem/bandit_single","A3DFJV1RD653DQ","pain","3","","72","H","0","img/none_selected.jpg","0","0","1","","0.05733223117","false","225","","0.05733223117","main_expt","","0.3313621339","","0.03318257961","","0.3747964846","","","","","",""
"436","","bandit","301","757896","0.0-263.0-0.0","36092053","wem/bandit_single","A3DFJV1RD653DQ","pain","3","","72","H","0","img/none_selected.jpg","0","0","1","","0.09472546141","false","226","","0.09472546141","main_expt","","0.2611013425","","0.02568716964","","0.3530330239","","","","","",""
"97","","bandit","302","759777","0.0-264.0-0.0","36092053","wem/bandit_single","A3DFJV1RD653DQ","pain","3","","74","J","1","","0","0","1","","0.2761398934","false","227","","0.08353253247","main_expt","","0.2761398934","","0.03534330031","","0.3299445106","","","","","",""
"10","","bandit","303","761571","0.0-265.0-0.0","36092053","wem/bandit_single","A3DFJV1RD653DQ","pain","3","","75","K","2","","0","0","1","","0.03702628412","false","228","","0.06220105415","main_expt","","0.2358148364","","0.03702628412","","0.3286020352","","","","","",""
"40","","bandit","304","763394","0.0-266.0-0.0","36092053","wem/bandit_single","A3DFJV1RD653DQ","pain","3","","75","K","2","","0","0","1","","0.03077125553","false","229","","0.06639782905","main_expt","","0.2091128555","","0.03077125553","","0.3178943429","","","","","",""
"31","","bandit","305","765209","0.0-267.0-0.0","36092053","wem/bandit_single","A3DFJV1RD653DQ","pain","3","","75","K","2","","0","0","1","","0.03752036101","false","230","","0.07029464087","main_expt","","0.181986641","","0.03752036101","","0.3254915512","","","","","",""
"127","","bandit","306","767121","0.0-268.0-0.0","36092053","wem/bandit_single","A3DFJV1RD653DQ","pain","3","","74","J","1","","0","1","0","","0.1599443191","false","231","","0.07612781315","main_expt","","0.1599443191","","0.02736090244","","0.3298497064","","","","","",""
"51","","bandit","307","768940","0.0-269.0-0.0","36092053","wem/bandit_single","A3DFJV1RD653DQ","pain","3","","74","J","1","","0","0","1","","0.125214013","false","232","","0.04325191911","main_expt","","0.125214013","","0.02154887034","","0.300331178","","","","","",""
"106","","bandit","308","770826","0.0-270.0-0.0","36092053","wem/bandit_single","A3DFJV1RD653DQ","pain","3","","74","J","1","","0","1","0","","0.134118517","false","233","","0.04039924652","main_expt","","0.134118517","","0.0228348974","","0.3357562734","","","","","",""
"30","","bandit","309","772637","0.0-271.0-0.0","36092053","wem/bandit_single","A3DFJV1RD653DQ","pain","3","","74","J","1","","0","1","0","","0.1238594142","false","234","","0.0435796211","main_expt","","0.1238594142","","0.01030782054","","0.3257461803","","","","","",""
"72","","bandit","310","774494","0.0-272.0-0.0","36092053","wem/bandit_single","A3DFJV1RD653DQ","pain","3","","74","J","1","","0","0","1","","0.1141846942","false","235","","0.02315237623","main_expt","","0.1141846942","","0.02615737471","","0.3534766227","","","","","",""
"91","","bandit","311","776370","0.0-273.0-0.0","36092053","wem/bandit_single","A3DFJV1RD653DQ","pain","3","","72","H","0","img/none_selected.jpg","0","0","1","","0.02010779399","false","236","","0.02010779399","main_expt","","0.1101280349","","0.0224272094","","0.3733068719","","","","","",""
"126","","bandit","312","778280","0.0-274.0-0.0","36092053","wem/bandit_single","A3DFJV1RD653DQ","pain","3","","72","H","0","img/none_selected.jpg","0","0","1","","0.01796146932","false","237","","0.01796146932","main_expt","","0.09079266978","","0.02679999918","","0.4105295152","","","","","",""
"61","","bandit","313","780130","0.0-275.0-0.0","36092053","wem/bandit_single","A3DFJV1RD653DQ","pain","3","","76","L","3","","0","0","1","","0.4225156592","false","238","","0.0167141813","main_expt","","0.1365862295","","0.07542988795","","0.4225156592","","","","","",""
"125","","bandit","314","782035","0.0-276.0-0.0","36092053","wem/bandit_single","A3DFJV1RD653DQ","pain","3","","76","L","3","","0","1","0","","0.4360895212","false","239","","0.03283355296","main_expt","","0.1846819155","","0.09772903","","0.4360895212","","","","","",""
"100","","bandit","315","783923","0.0-277.0-0.0","36092053","wem/bandit_single","A3DFJV1RD653DQ","pain","3","","76","L","3","","0","0","1","","0.423514393","false","240","","0.05325110434","main_expt","","0.1795044078","","0.1044145256","","0.423514393","","","","","",""
"202","","bandit","316","785913","0.0-278.0-0.0","36092053","wem/bandit_single","A3DFJV1RD653DQ","pain","3","","76","L","3","","0","1","0","","0.3824942702","false","241","","0.04551940083","main_expt","","0.1522343712","","0.109937241","","0.3824942702","","","","","",""
"170","","bandit","317","787867","0.0-279.0-0.0","36092053","wem/bandit_single","A3DFJV1RD653DQ","pain","3","","76","L","3","","0","0","1","","0.3758562762","false","242","","0.05503183359","main_expt","","0.1433696576","","0.09239004846","","0.3758562762","","","","","",""
"193","","bandit","318","789836","0.0-280.0-0.0","36092053","wem/bandit_single","A3DFJV1RD653DQ","pain","3","","76","L","3","","0","0","1","","0.2984655584","false","243","","0.04467871076","main_expt","","0.1427577162","","0.1014218366","","0.2984655584","","","","","",""
"333","","bandit","319","791947","0.0-281.0-0.0","36092053","wem/bandit_single","A3DFJV1RD653DQ","pain","3","","75","K","2","","0","1","0","","0.192841162","false","244","","0.06552455376","main_expt","","0.1340795621","","0.192841162","","0.2901672904","","","","","",""
"80","","bandit","320","793814","0.0-282.0-0.0","36092053","wem/bandit_single","A3DFJV1RD653DQ","pain","3","","75","K","2","","0","0","1","","0.1953250812","false","245","","0.1005127954","main_expt","","0.1469719784","","0.1953250812","","0.2495050599","","","","","",""
"184","","bandit","321","795784","0.0-283.0-0.0","36092053","wem/bandit_single","A3DFJV1RD653DQ","pain","3","","75","K","2","","0","0","1","","0.1865380945","false","246","","0.11534406","main_expt","","0.140914489","","0.1865380945","","0.2406773486","","","","","",""
"49","","bandit","322","797618","0.0-284.0-0.0","36092053","wem/bandit_single","A3DFJV1RD653DQ","pain","3","","74","J","1","","0","0","1","","0.1592666071","false","247","","0.08579934652","main_expt","","0.1592666071","","0.221100819","","0.2265306157","","","","","",""
"62","","bandit","323","799466","0.0-285.0-0.0","36092053","wem/bandit_single","A3DFJV1RD653DQ","pain","3","","74","J","1","","0","0","1","","0.2210893918","false","248","","0.08554071629","main_expt","","0.2210893918","","0.2106100544","","0.2000380921","","","","","",""
"53","","bandit","324","801308","0.0-286.0-0.0","36092053","wem/bandit_single","A3DFJV1RD653DQ","pain","3","","74","J","1","","0","0","1","","0.2306666851","false","249","","0.07137080198","main_expt","","0.2306666851","","0.2172535859","","0.1920984986","","","","","",""
"421","","bandit","325","803513","0.0-287.0-0.0","36092053","wem/bandit_single","A3DFJV1RD653DQ","pain","3","","72","H","0","img/none_selected.jpg","0","0","1","","0.06874505311","false","250","","0.06874505311","main_expt","","0.2422322172","","0.1953648199","","0.1624135027","","","","","",""
"164","","bandit","326","805464","0.0-288.0-0.0","36092053","wem/bandit_single","A3DFJV1RD653DQ","pain","3","","72","H","0","img/none_selected.jpg","0","0","1","","0.04927492375","false","251","","0.04927492375","main_expt","","0.2425189851","","0.2129795833","","0.2057369507","","","","","",""
"43","","bandit","327","807290","0.0-289.0-0.0","36092053","wem/bandit_single","A3DFJV1RD653DQ","pain","3","","72","H","0","img/none_selected.jpg","0","0","1","","0.0504542679","false","252","","0.0504542679","main_expt","","0.1980379423","","0.2271134102","","0.26034901","","","","","",""
"126","","bandit","328","809202","0.0-290.0-0.0","36092053","wem/bandit_single","A3DFJV1RD653DQ","pain","3","","72","H","0","img/none_selected.jpg","0","0","1","","0.0313618618","false","253","","0.0313618618","main_expt","","0.2040952335","","0.2152809257","","0.1886300366","","","","","",""
"371","","bandit","329","811359","0.0-291.0-0.0","36092053","wem/bandit_single","A3DFJV1RD653DQ","pain","3","","72","H","0","img/none_selected.jpg","0","0","1","","0.0191685034","false","254","","0.0191685034","main_expt","","0.1621407843","","0.2065685424","","0.1978078828","","","","","",""
"44","","bandit","330","813193","0.0-292.0-0.0","36092053","wem/bandit_single","A3DFJV1RD653DQ","pain","3","","76","L","3","","0","0","1","","0.1544468143","false","255","","0.01882474885","main_expt","","0.1817956319","","0.2000715388","","0.1544468143","","","","","",""
"120","","bandit","331","815099","0.0-293.0-0.0","36092053","wem/bandit_single","A3DFJV1RD653DQ","pain","3","","76","L","3","","0","0","1","","0.1552120094","false","256","","0.01765542058","main_expt","","0.1796151025","","0.1997851389","","0.1552120094","","","","","",""
"319","","bandit","332","817210","0.0-294.0-0.0","36092053","wem/bandit_single","A3DFJV1RD653DQ","pain","3","","76","L","3","","0","0","1","","0.1337291471","false","257","","0.0162265086","main_expt","","0.1874922979","","0.1965173465","","0.1337291471","","","","","",""
"190","","bandit","333","819192","0.0-295.0-0.0","36092053","wem/bandit_single","A3DFJV1RD653DQ","pain","3","","75","K","2","","0","0","1","","0.1816932188","false","258","","0.01630278654","main_expt","","0.2152410464","","0.1816932188","","0.1279332347","","","","","",""
"167","","bandit","334","821137","0.0-296.0-0.0","36092053","wem/bandit_single","A3DFJV1RD653DQ","pain","3","","75","K","2","","0","0","1","","0.2275026539","false","259","","0.0149919991","main_expt","","0.2311433436","","0.2275026539","","0.152418206","","","","","",""
"118","","bandit","335","823047","0.0-297.0-0.0","36092053","wem/bandit_single","A3DFJV1RD653DQ","pain","3","","74","J","1","","0","0","1","","0.1621257941","false","260","","0.02225913397","main_expt","","0.1621257941","","0.1798156178","","0.1100328583","","","","","",""
"65","","bandit","336","824899","0.0-298.0-0.0","36092053","wem/bandit_single","A3DFJV1RD653DQ","pain","3","","74","J","1","","0","0","1","","0.1219102136","false","261","","0.02865634389","main_expt","","0.1219102136","","0.187122726","","0.1537012171","","","","","",""
"39","","bandit","337","826722","0.0-299.0-0.0","36092053","wem/bandit_single","A3DFJV1RD653DQ","pain","3","","72","H","0","img/none_selected.jpg","0","0","1","","0.03173788073","false","262","","0.03173788073","main_expt","","0.1667536199","","0.1507521212","","0.1302597035","","","","","",""
"10","","bandit","338","828507","0.0-300.0-0.0","36092053","wem/bandit_single","A3DFJV1RD653DQ","pain","3","","72","H","0","img/none_selected.jpg","0","0","1","","0.04250990858","false","263","","0.04250990858","main_expt","","0.1361259709","","0.1374951011","","0.1297736826","","","","","",""
"29","","bandit","339","830325","0.0-301.0-0.0","36092053","wem/bandit_single","A3DFJV1RD653DQ","pain","3","","74","J","1","","0","0","1","","0.1217381733","false","264","","0.056503948","main_expt","","0.1217381733","","0.1158818852","","0.1326654045","","","","","",""
"320","","bandit","340","832418","0.0-302.0-0.0","36092053","wem/bandit_single","A3DFJV1RD653DQ","pain","3","","74","J","1","","0","0","1","","0.1258265959","false","265","","0.07592662832","main_expt","","0.1258265959","","0.1147359408","","0.1586413096","","","","","",""
"42","","bandit","341","834247","0.0-303.0-0.0","36092053","wem/bandit_single","A3DFJV1RD653DQ","pain","3","","75","K","2","","0","0","1","","0.09491002089","false","266","","0.1002340293","main_expt","","0.1445769791","","0.09491002089","","0.1496521415","","","","","",""
"76","","bandit","342","836110","0.0-304.0-0.0","36092053","wem/bandit_single","A3DFJV1RD653DQ","pain","3","","75","K","2","","0","0","1","","0.1181284109","false","267","","0.1526998269","main_expt","","0.1014120844","","0.1181284109","","0.1410052581","","","","","",""
"259","","bandit","343","838160","0.0-305.0-0.0","36092053","wem/bandit_single","A3DFJV1RD653DQ","pain","3","","76","L","3","","0","0","1","","0.145208313","false","268","","0.1340815566","main_expt","","0.06386630904","","0.1054434992","","0.145208313","","","","","",""
"266","","bandit","344","840208","0.0-306.0-0.0","36092053","wem/bandit_single","A3DFJV1RD653DQ","pain","3","","76","L","3","","0","0","1","","0.1387339362","false","269","","0.1350059692","main_expt","","0.03725778621","","0.1307900039","","0.1387339362","","","","","",""
"69","","bandit","345","842066","0.0-307.0-0.0","36092053","wem/bandit_single","A3DFJV1RD653DQ","pain","3","","76","L","3","","0","1","0","","0.1822325734","false","270","","0.1008257698","main_expt","","0.02825676517","","0.1444746669","","0.1822325734","","","","","",""
"169","","bandit","346","844027","0.0-308.0-0.0","36092053","wem/bandit_single","A3DFJV1RD653DQ","pain","3","","76","L","3","","0","0","1","","0.1752825828","false","271","","0.1257425884","main_expt","","0.02967844624","","0.1622504114","","0.1752825828","","","","","",""
"35","","bandit","347","845844","0.0-309.0-0.0","36092053","wem/bandit_single","A3DFJV1RD653DQ","pain","3","","76","L","3","","0","0","1","","0.1572277832","false","272","","0.1363444874","main_expt","","0.03051557875","","0.1814673171","","0.1572277832","","","","","",""
"21","","bandit","348","847651","0.0-310.0-0.0","36092053","wem/bandit_single","A3DFJV1RD653DQ","pain","3","","72","H","0","img/none_selected.jpg","0","0","1","","0.1090842693","false","273","","0.1090842693","main_expt","","0.0408401102","","0.1930303076","","0.1609880977","","","","","",""
"78","","bandit","349","849520","0.0-311.0-0.0","36092053","wem/bandit_single","A3DFJV1RD653DQ","pain","3","","72","H","0","img/none_selected.jpg","0","0","1","","0.1397265487","false","274","","0.1397265487","main_expt","","0.03240614182","","0.1704680895","","0.2228580822","","","","","",""
"148","","bandit","350","851457","0.0-312.0-0.0","36092053","wem/bandit_single","A3DFJV1RD653DQ","pain","3","","72","H","0","img/none_selected.jpg","0","0","1","","0.210641606","false","275","","0.210641606","main_expt","","0.04120982645","","0.1785534293","","0.2126640298","","","","","",""
"145","","bandit","351","853384","0.0-313.0-0.0","36092053","wem/bandit_single","A3DFJV1RD653DQ","pain","3","","72","H","0","img/none_selected.jpg","0","0","1","","0.1523626192","false","276","","0.1523626192","main_expt","","0.04353307789","","0.1843971019","","0.2006548762","","","","","",""
"383","","bandit","352","855555","0.0-314.0-0.0","36092053","wem/bandit_single","A3DFJV1RD653DQ","pain","3","","74","J","1","","0","0","1","","0.0172565486","false","277","","0.16102954","main_expt","","0.0172565486","","0.2042268453","","0.1986275587","","","","","",""
"103","","bandit","353","857445","0.0-315.0-0.0","36092053","wem/bandit_single","A3DFJV1RD653DQ","pain","3","","74","J","1","","0","0","1","","0.02582715814","false","278","","0.1166001048","main_expt","","0.02582715814","","0.1609113936","","0.1321506531","","","","","",""
"20","","bandit","354","859247","0.0-316.0-0.0","36092053","wem/bandit_single","A3DFJV1RD653DQ","pain","3","","74","J","1","","0","0","1","","0.03609925784","false","279","","0.1427402012","main_expt","","0.03609925784","","0.1604878733","","0.2112193978","","","","","",""
"100","","bandit","355","861131","0.0-317.0-0.0","36092053","wem/bandit_single","A3DFJV1RD653DQ","pain","3","","74","J","1","","0","0","1","","0.02629944548","false","280","","0.1524149458","main_expt","","0.02629944548","","0.1678567182","","0.1872216356","","","","","",""
"133","","bandit","356","863052","0.0-318.0-0.0","36092053","wem/bandit_single","A3DFJV1RD653DQ","pain","3","","75","K","2","","0","0","1","","0.1338700362","false","281","","0.1638207856","main_expt","","0.01890368782","","0.1338700362","","0.1635487084","","","","","",""
"46","","bandit","357","864887","0.0-319.0-0.0","36092053","wem/bandit_single","A3DFJV1RD653DQ","pain","3","","75","K","2","","0","0","1","","0.2010661714","false","282","","0.1055747009","main_expt","","0.01508823693","","0.2010661714","","0.1576359327","","","","","",""
"28","","bandit","358","866710","0.0-320.0-0.0","36092053","wem/bandit_single","A3DFJV1RD653DQ","pain","3","","75","K","2","","0","0","1","","0.1763159594","false","283","","0.1121395768","main_expt","","0.01359220223","","0.1763159594","","0.21861051","","","","","",""
"31","","bandit","359","868519","0.0-321.0-0.0","36092053","wem/bandit_single","A3DFJV1RD653DQ","pain","3","","75","K","2","","0","1","0","","0.2379754842","false","284","","0.1110051372","main_expt","","0.01691173417","","0.2379754842","","0.180487154","","","","","",""
"4","","bandit","360","870306","0.0-322.0-0.0","36092053","wem/bandit_single","A3DFJV1RD653DQ","pain","3","","75","K","2","","0","0","1","","0.2769670592","false","285","","0.1746572204","main_expt","","0.01734240677","","0.2769670592","","0.1641106304","","","","","",""
"39","","bandit","361","872132","0.0-323.0-0.0","36092053","wem/bandit_single","A3DFJV1RD653DQ","pain","3","","75","K","2","","0","1","0","","0.3002963297","false","286","","0.2038956484","main_expt","","0.01574531315","","0.3002963297","","0.1866508097","","","","","",""
"50","","bandit","362","873977","0.0-324.0-0.0","36092053","wem/bandit_single","A3DFJV1RD653DQ","pain","3","","75","K","2","","0","0","1","","0.2804215723","false","287","","0.2396876396","main_expt","","0.011703364","","0.2804215723","","0.1339791425","","","","","",""
"139","","bandit","363","875914","0.0-325.0-0.0","36092053","wem/bandit_single","A3DFJV1RD653DQ","pain","3","","75","K","2","","0","0","1","","0.2873948651","false","288","","0.2300823482","main_expt","","0.01499165326","","0.2873948651","","0.1910191906","","","","","",""
"128","","bandit","364","877831","0.0-326.0-0.0","36092053","wem/bandit_single","A3DFJV1RD653DQ","pain","3","","72","H","0","img/none_selected.jpg","0","0","1","","0.2697946193","false","289","","0.2697946193","main_expt","","0.01307353483","","0.3383825142","","0.1987886011","","","","","",""
"399","","bandit","365","880016","0.0-327.0-0.0","36092053","wem/bandit_single","A3DFJV1RD653DQ","pain","3","","74","J","1","","0","0","1","","0.005839555229","false","290","","0.3030113395","main_expt","","0.005839555229","","0.3597664772","","0.2163493667","","","","","",""
"100","","bandit","366","881903","0.0-328.0-0.0","36092053","wem/bandit_single","A3DFJV1RD653DQ","pain","3","","74","J","1","","0","0","1","","0.00760433752","false","291","","0.2903670118","main_expt","","0.00760433752","","0.3684517111","","0.1987756658","","","","","",""
"24","","bandit","367","883718","0.0-329.0-0.0","36092053","wem/bandit_single","A3DFJV1RD653DQ","pain","3","","74","J","1","","0","0","1","","0.01807310376","false","292","","0.3219279298","main_expt","","0.01807310376","","0.3471931258","","0.1996771378","","","","","",""
"219","","bandit","368","885708","0.0-330.0-0.0","36092053","wem/bandit_single","A3DFJV1RD653DQ","pain","3","","72","H","0","img/none_selected.jpg","0","1","0","","0.2585416619","false","293","","0.2585416619","main_expt","","0.02882206876","","0.3742872252","","0.2067525645","","","","","",""
"104","","bandit","369","887587","0.0-331.0-0.0","36092053","wem/bandit_single","A3DFJV1RD653DQ","pain","3","","72","H","0","img/none_selected.jpg","0","0","1","","0.3093607287","false","294","","0.3093607287","main_expt","","0.02728804169","","0.3937541296","","0.230585761","","","","","",""
"126","","bandit","370","889503","0.0-332.0-0.0","36092053","wem/bandit_single","A3DFJV1RD653DQ","pain","3","","72","H","0","img/none_selected.jpg","0","0","1","","0.315069057","false","295","","0.315069057","main_expt","","0.01545304162","","0.3331550888","","0.1936278336","","","","","",""
"135","","bandit","371","891408","0.0-333.0-0.0","36092053","wem/bandit_single","A3DFJV1RD653DQ","pain","3","","72","H","0","img/none_selected.jpg","0","0","1","","0.3556215031","false","296","","0.3556215031","main_expt","","0.01463146341","","0.3564327955","","0.1733248866","","","","","",""
"113","","bandit","372","893311","0.0-334.0-0.0","36092053","wem/bandit_single","A3DFJV1RD653DQ","pain","3","","72","H","0","img/none_selected.jpg","0","1","0","","0.3380436511","false","297","","0.3380436511","main_expt","","0.03487584845","","0.3344242189","","0.1762096585","","","","","",""
"132","","bandit","373","895235","0.0-335.0-0.0","36092053","wem/bandit_single","A3DFJV1RD653DQ","pain","3","","72","H","0","img/none_selected.jpg","0","0","1","","0.347815101","false","298","","0.347815101","main_expt","","0.04917346329","","0.3434582948","","0.176801175","","","","","",""
