"rt","responses","trial_type","trial_index","time_elapsed","internal_node_id","subjID","study","MID","cond","drift","key_press","respCharCode","respKey","respChoiceNum","respChoice","gems","bombs","no_reward","GemPrChosen","BombPrChosen","practice","trial_counter","WinPr_0","LosePr_0","trial_label","WinPr_1","LosePr_1","WinPr_2","LosePr_2","WinPr_3","LosePr_3","Q0","Q1","Q2","gender","age","ethnicity"
"3777","{""Q0"":""A1VPE05UDNFKGV""}","survey-text","0","3781","0.0-0.0","36591335","wem/bandit_single","A1VPE05UDNFKGV","gain","6","","","","","","","","","","","","","","","","","","","","","","","","","","",""
"1958","","text","1","6749","0.0-1.0","36591335","wem/bandit_single","A1VPE05UDNFKGV","gain","6","32","","","","","","","","","","","","","","","","","","","","","","","","","",""
"1718","","text","2","8473","0.0-2.0","36591335","wem/bandit_single","A1VPE05UDNFKGV","gain","6","32","","","","","","","","","","","","","","","","","","","","","","","","","",""
"270545","","text","3","279023","0.0-3.0","36591335","wem/bandit_single","A1VPE05UDNFKGV","gain","6","32","","","","","","","","","","","","","","","","","","","","","","","","","",""
"4147","","text","4","283173","0.0-4.0","36591335","wem/bandit_single","A1VPE05UDNFKGV","gain","6","32","","","","","","","","","","","","","","","","","","","","","","","","","",""
"2181","","text","5","285359","0.0-5.0","36591335","wem/bandit_single","A1VPE05UDNFKGV","gain","6","32","","","","","","","","","","","","","","","","","","","","","","","","","",""
"4670","","text","6","290032","0.0-6.0","36591335","wem/bandit_single","A1VPE05UDNFKGV","gain","6","32","","","","","","","","","","","","","","","","","","","","","","","","","",""
"6923","","text","7","296959","0.0-7.0","36591335","wem/bandit_single","A1VPE05UDNFKGV","gain","6","32","","","","","","","","","","","","","","","","","","","","","","","","","",""
"3264","","text","8","300227","0.0-8.0","36591335","wem/bandit_single","A1VPE05UDNFKGV","gain","6","32","","","","","","","","","","","","","","","","","","","","","","","","","",""
"2440","","text","9","302671","0.0-9.0","36591335","wem/bandit_single","A1VPE05UDNFKGV","gain","6","32","","","","","","","","","","","","","","","","","","","","","","","","","",""
"2380","","text","10","305055","0.0-10.0","36591335","wem/bandit_single","A1VPE05UDNFKGV","gain","6","32","","","","","","","","","","","","","","","","","","","","","","","","","",""
"4501","","text","11","309561","0.0-11.0","36591335","wem/bandit_single","A1VPE05UDNFKGV","gain","6","32","","","","","","","","","","","","","","","","","","","","","","","","","",""
"934","","bandit","12","312015","0.0-12.0-0.0","36591335","wem/bandit_single","A1VPE05UDNFKGV","gain","6","","74","J","0","img/none_selected_demo.jpg","0","0","1","0","0","true","0","0","0","","","","","","","","","","","","",""
"2207","","bandit","13","315984","0.0-13.0-0.0","36591335","wem/bandit_single","A1VPE05UDNFKGV","gain","6","","75","K","0","img/none_selected_demo.jpg","0","0","1","0","0","true","0","0","0","","","","","","","","","","","","",""
"1509","","text","14","317748","0.0-14.0","36591335","wem/bandit_single","A1VPE05UDNFKGV","gain","6","32","","","","","","","","","","","","","","","","","","","","","","","","","",""
"1335","","text","15","319086","0.0-15.0","36591335","wem/bandit_single","A1VPE05UDNFKGV","gain","6","32","","","","","","","","","","","","","","","","","","","","","","","","","",""
"4274","","text","16","323364","0.0-16.0","36591335","wem/bandit_single","A1VPE05UDNFKGV","gain","6","32","","","","","","","","","","","","","","","","","","","","","","","","","",""
"2767","","text","17","326135","0.0-17.0","36591335","wem/bandit_single","A1VPE05UDNFKGV","gain","6","32","","","","","","","","","","","","","","","","","","","","","","","","","",""
"1893","","bandit","18","329538","0.0-18.0-0.0","36591335","wem/bandit_single","A1VPE05UDNFKGV","gain","6","","74","J","0","img/none_selected_demo.jpg","1","0","0","0.8","0","true","0","0.8","0","80_20_practice","0.2","0","","","","","","","","","",""
"590","","bandit","19","331892","0.0-18.0-1.0","36591335","wem/bandit_single","A1VPE05UDNFKGV","gain","6","","74","J","0","img/none_selected_demo.jpg","1","0","0","0.8","0","true","0","0.8","0","80_20_practice","0.2","0","","","","","","","","","",""
"339","","bandit","20","333999","0.0-18.0-2.0","36591335","wem/bandit_single","A1VPE05UDNFKGV","gain","6","","74","J","0","img/none_selected_demo.jpg","1","0","0","0.8","0","true","0","0.8","0","80_20_practice","0.2","0","","","","","","","","","",""
"328","","bandit","21","336090","0.0-18.0-3.0","36591335","wem/bandit_single","A1VPE05UDNFKGV","gain","6","","74","J","0","img/none_selected_demo.jpg","1","0","0","0.8","0","true","0","0.8","0","80_20_practice","0.2","0","","","","","","","","","",""
"242","","bandit","22","338101","0.0-18.0-4.0","36591335","wem/bandit_single","A1VPE05UDNFKGV","gain","6","","74","J","0","img/none_selected_demo.jpg","1","0","0","0.8","0","true","0","0.8","0","80_20_practice","0.2","0","","","","","","","","","",""
"238","","bandit","23","340102","0.0-18.0-5.0","36591335","wem/bandit_single","A1VPE05UDNFKGV","gain","6","","74","J","0","img/none_selected_demo.jpg","0","0","1","0.8","0","true","0","0.8","0","80_20_practice","0.2","0","","","","","","","","","",""
"282","","bandit","24","342146","0.0-18.0-6.0","36591335","wem/bandit_single","A1VPE05UDNFKGV","gain","6","","74","J","0","img/none_selected_demo.jpg","1","0","0","0.8","0","true","0","0.8","0","80_20_practice","0.2","0","","","","","","","","","",""
"180","","bandit","25","344090","0.0-18.0-7.0","36591335","wem/bandit_single","A1VPE05UDNFKGV","gain","6","","74","J","0","img/none_selected_demo.jpg","1","0","0","0.8","0","true","0","0.8","0","80_20_practice","0.2","0","","","","","","","","","",""
"199","","bandit","26","346049","0.0-18.0-8.0","36591335","wem/bandit_single","A1VPE05UDNFKGV","gain","6","","74","J","0","img/none_selected_demo.jpg","0","0","1","0.8","0","true","0","0.8","0","80_20_practice","0.2","0","","","","","","","","","",""
"686","","bandit","27","348496","0.0-18.0-9.0","36591335","wem/bandit_single","A1VPE05UDNFKGV","gain","6","","74","J","0","img/none_selected_demo.jpg","1","0","0","0.8","0","true","0","0.8","0","80_20_practice","0.2","0","","","","","","","","","",""
"307","","bandit","28","350566","0.0-18.0-10.0","36591335","wem/bandit_single","A1VPE05UDNFKGV","gain","6","","74","J","0","img/none_selected_demo.jpg","1","0","0","0.8","0","true","0","0.8","0","80_20_practice","0.2","0","","","","","","","","","",""
"286","","bandit","29","352619","0.0-18.0-11.0","36591335","wem/bandit_single","A1VPE05UDNFKGV","gain","6","","74","J","0","img/none_selected_demo.jpg","0","0","1","0.8","0","true","0","0.8","0","80_20_practice","0.2","0","","","","","","","","","",""
"205","","bandit","30","354588","0.0-18.0-12.0","36591335","wem/bandit_single","A1VPE05UDNFKGV","gain","6","","74","J","0","img/none_selected_demo.jpg","1","0","0","0.8","0","true","0","0.8","0","80_20_practice","0.2","0","","","","","","","","","",""
"490","","bandit","31","356842","0.0-18.0-13.0","36591335","wem/bandit_single","A1VPE05UDNFKGV","gain","6","","74","J","0","img/none_selected_demo.jpg","1","0","0","0.8","0","true","0","0.8","0","80_20_practice","0.2","0","","","","","","","","","",""
"134","","bandit","32","358740","0.0-18.0-14.0","36591335","wem/bandit_single","A1VPE05UDNFKGV","gain","6","","74","J","0","img/none_selected_demo.jpg","1","0","0","0.8","0","true","0","0.8","0","80_20_practice","0.2","0","","","","","","","","","",""
"203","","bandit","33","360706","0.0-18.0-15.0","36591335","wem/bandit_single","A1VPE05UDNFKGV","gain","6","","74","J","0","img/none_selected_demo.jpg","1","0","0","0.8","0","true","0","0.8","0","80_20_practice","0.2","0","","","","","","","","","",""
"315","","bandit","34","362783","0.0-18.0-16.0","36591335","wem/bandit_single","A1VPE05UDNFKGV","gain","6","","74","J","0","img/none_selected_demo.jpg","1","0","0","0.8","0","true","0","0.8","0","80_20_practice","0.2","0","","","","","","","","","",""
"998","","bandit","35","365545","0.0-18.0-17.0","36591335","wem/bandit_single","A1VPE05UDNFKGV","gain","6","","74","J","0","img/none_selected_demo.jpg","1","0","0","0.8","0","true","0","0.8","0","80_20_practice","0.2","0","","","","","","","","","",""
"258","","bandit","36","367575","0.0-18.0-18.0","36591335","wem/bandit_single","A1VPE05UDNFKGV","gain","6","","74","J","0","img/none_selected_demo.jpg","1","0","0","0.8","0","true","0","0.8","0","80_20_practice","0.2","0","","","","","","","","","",""
"136","","bandit","37","369475","0.0-18.0-19.0","36591335","wem/bandit_single","A1VPE05UDNFKGV","gain","6","","74","J","0","img/none_selected_demo.jpg","1","0","0","0.8","0","true","0","0.8","0","80_20_practice","0.2","0","","","","","","","","","",""
"2524","","text","38","372258","0.0-19.0","36591335","wem/bandit_single","A1VPE05UDNFKGV","gain","6","32","","","","","","","","","","","","","","","","","","","","","","","","","",""
"1597","","bandit","39","375366","0.0-20.0-0.0","36591335","wem/bandit_single","A1VPE05UDNFKGV","gain","6","","74","J","0","img/none_selected_demo.jpg","0","0","1","0","0","true","0","0","0","","0","0","","","","","","","","","",""
"1816","","text","40","377440","0.0-21.0","36591335","wem/bandit_single","A1VPE05UDNFKGV","gain","6","32","","","","","","","","","","","","","","","","","","","","","","","","","",""
"2183","","text","41","379629","0.0-22.0","36591335","wem/bandit_single","A1VPE05UDNFKGV","gain","6","32","","","","","","","","","","","","","","","","","","","","","","","","","",""
"2008","","text","42","381643","0.0-23.0","36591335","wem/bandit_single","A1VPE05UDNFKGV","gain","6","32","","","","","","","","","","","","","","","","","","","","","","","","","",""
"2428","","text","43","384078","0.0-24.0","36591335","wem/bandit_single","A1VPE05UDNFKGV","gain","6","32","","","","","","","","","","","","","","","","","","","","","","","","","",""
"3418","","text","44","387498","0.0-25.0","36591335","wem/bandit_single","A1VPE05UDNFKGV","gain","6","32","","","","","","","","","","","","","","","","","","","","","","","","","",""
"1573","","text","45","389074","0.0-26.0","36591335","wem/bandit_single","A1VPE05UDNFKGV","gain","6","32","","","","","","","","","","","","","","","","","","","","","","","","","",""
"3817","","text","46","392896","0.0-27.0","36591335","wem/bandit_single","A1VPE05UDNFKGV","gain","6","32","","","","","","","","","","","","","","","","","","","","","","","","","",""
"3641","","text","47","396543","0.0-28.0","36591335","wem/bandit_single","A1VPE05UDNFKGV","gain","6","32","","","","","","","","","","","","","","","","","","","","","","","","","",""
"7201","","text","48","403750","0.0-29.0","36591335","wem/bandit_single","A1VPE05UDNFKGV","gain","6","32","","","","","","","","","","","","","","","","","","","","","","","","","",""
"23622","","text","49","427377","0.0-30.0","36591335","wem/bandit_single","A1VPE05UDNFKGV","gain","6","32","","","","","","","","","","","","","","","","","","","","","","","","","",""
"1859","","text","50","429241","0.0-31.0","36591335","wem/bandit_single","A1VPE05UDNFKGV","gain","6","32","","","","","","","","","","","","","","","","","","","","","","","","","",""
"981","","bandit","51","431735","0.0-32.0-0.0","36591335","wem/bandit_single","A1VPE05UDNFKGV","gain","6","","72","H","0","img/none_selected.jpg","1","0","0","0.8","0","true","0","0.8","0","full_practice","0.2","0","0.6","0","0.2","0","","","","","",""
"292","","bandit","52","433791","0.0-32.0-1.0","36591335","wem/bandit_single","A1VPE05UDNFKGV","gain","6","","72","H","0","img/none_selected.jpg","1","0","0","0.8","0","true","0","0.8","0","full_practice","0.2","0","0.6","0","0.2","0","","","","","",""
"221","","bandit","53","435785","0.0-32.0-2.0","36591335","wem/bandit_single","A1VPE05UDNFKGV","gain","6","","72","H","0","img/none_selected.jpg","1","0","0","0.8","0","true","0","0.8","0","full_practice","0.2","0","0.6","0","0.2","0","","","","","",""
"601","","bandit","54","438159","0.0-32.0-3.0","36591335","wem/bandit_single","A1VPE05UDNFKGV","gain","6","","72","H","0","img/none_selected.jpg","1","0","0","0.8","0","true","0","0.8","0","full_practice","0.2","0","0.6","0","0.2","0","","","","","",""
"368","","bandit","55","440294","0.0-32.0-4.0","36591335","wem/bandit_single","A1VPE05UDNFKGV","gain","6","","72","H","0","img/none_selected.jpg","1","0","0","0.8","0","true","0","0.8","0","full_practice","0.2","0","0.6","0","0.2","0","","","","","",""
"251","","bandit","56","442311","0.0-32.0-5.0","36591335","wem/bandit_single","A1VPE05UDNFKGV","gain","6","","72","H","0","img/none_selected.jpg","1","0","0","0.8","0","true","0","0.8","0","full_practice","0.2","0","0.6","0","0.2","0","","","","","",""
"302","","bandit","57","444380","0.0-32.0-6.0","36591335","wem/bandit_single","A1VPE05UDNFKGV","gain","6","","72","H","0","img/none_selected.jpg","1","0","0","0.8","0","true","0","0.8","0","full_practice","0.2","0","0.6","0","0.2","0","","","","","",""
"442","","bandit","58","446587","0.0-32.0-7.0","36591335","wem/bandit_single","A1VPE05UDNFKGV","gain","6","","72","H","0","img/none_selected.jpg","1","0","0","0.8","0","true","0","0.8","0","full_practice","0.2","0","0.6","0","0.2","0","","","","","",""
"284","","bandit","59","448643","0.0-32.0-8.0","36591335","wem/bandit_single","A1VPE05UDNFKGV","gain","6","","72","H","0","img/none_selected.jpg","0","0","1","0.8","0","true","0","0.8","0","full_practice","0.2","0","0.6","0","0.2","0","","","","","",""
"311","","bandit","60","450717","0.0-32.0-9.0","36591335","wem/bandit_single","A1VPE05UDNFKGV","gain","6","","72","H","0","img/none_selected.jpg","0","0","1","0.8","0","true","0","0.8","0","full_practice","0.2","0","0.6","0","0.2","0","","","","","",""
"317","","bandit","61","452802","0.0-32.0-10.0","36591335","wem/bandit_single","A1VPE05UDNFKGV","gain","6","","75","K","2","","0","0","1","0.6","0","true","0","0.8","0","full_practice","0.2","0","0.6","0","0.2","0","","","","","",""
"631","","bandit","62","455200","0.0-32.0-11.0","36591335","wem/bandit_single","A1VPE05UDNFKGV","gain","6","","74","J","1","","0","0","1","0.2","0","true","0","0.8","0","full_practice","0.2","0","0.6","0","0.2","0","","","","","",""
"368","","bandit","63","457337","0.0-32.0-12.0","36591335","wem/bandit_single","A1VPE05UDNFKGV","gain","6","","76","L","3","","1","0","0","0.2","0","true","0","0.8","0","full_practice","0.2","0","0.6","0","0.2","0","","","","","",""
"281","","bandit","64","459384","0.0-32.0-13.0","36591335","wem/bandit_single","A1VPE05UDNFKGV","gain","6","","76","L","3","","1","0","0","0.2","0","true","0","0.8","0","full_practice","0.2","0","0.6","0","0.2","0","","","","","",""
"256","","bandit","65","461409","0.0-32.0-14.0","36591335","wem/bandit_single","A1VPE05UDNFKGV","gain","6","","76","L","3","","0","0","1","0.2","0","true","0","0.8","0","full_practice","0.2","0","0.6","0","0.2","0","","","","","",""
"246","","bandit","66","463425","0.0-32.0-15.0","36591335","wem/bandit_single","A1VPE05UDNFKGV","gain","6","","76","L","3","","0","0","1","0.2","0","true","0","0.8","0","full_practice","0.2","0","0.6","0","0.2","0","","","","","",""
"443","","bandit","67","465636","0.0-32.0-16.0","36591335","wem/bandit_single","A1VPE05UDNFKGV","gain","6","","74","J","1","","0","0","1","0.2","0","true","0","0.8","0","full_practice","0.2","0","0.6","0","0.2","0","","","","","",""
"307","","bandit","68","467709","0.0-32.0-17.0","36591335","wem/bandit_single","A1VPE05UDNFKGV","gain","6","","72","H","0","img/none_selected.jpg","0","0","1","0.8","0","true","0","0.8","0","full_practice","0.2","0","0.6","0","0.2","0","","","","","",""
"250","","bandit","69","469725","0.0-32.0-18.0","36591335","wem/bandit_single","A1VPE05UDNFKGV","gain","6","","72","H","0","img/none_selected.jpg","1","0","0","0.8","0","true","0","0.8","0","full_practice","0.2","0","0.6","0","0.2","0","","","","","",""
"278","","bandit","70","471774","0.0-32.0-19.0","36591335","wem/bandit_single","A1VPE05UDNFKGV","gain","6","","72","H","0","img/none_selected.jpg","0","0","1","0.8","0","true","0","0.8","0","full_practice","0.2","0","0.6","0","0.2","0","","","","","",""
"1790","","text","71","473838","0.0-33.0","36591335","wem/bandit_single","A1VPE05UDNFKGV","gain","6","32","","","","","","","","","","","","","","","","","","","","","","","","","",""
"2492","","text","72","477338","0.0-34.0","36591335","wem/bandit_single","A1VPE05UDNFKGV","gain","6","32","","","","","","","","","","","","","","","","","","","","","","","","","",""
"2176","","text","73","479522","0.0-35.0","36591335","wem/bandit_single","A1VPE05UDNFKGV","gain","6","32","","","","","","","","","","","","","","","","","","","","","","","","","",""
"1643","","text","74","481171","0.0-36.0","36591335","wem/bandit_single","A1VPE05UDNFKGV","gain","6","32","","","","","","","","","","","","","","","","","","","","","","","","","",""
"2356","","text","75","483535","0.0-37.0","36591335","wem/bandit_single","A1VPE05UDNFKGV","gain","6","32","","","","","","","","","","","","","","","","","","","","","","","","","",""
"1708","","bandit","76","486759","0.0-38.0-0.0","36591335","wem/bandit_single","A1VPE05UDNFKGV","gain","6","","72","H","0","img/none_selected.jpg","0","0","1","0.1623639982","","false","1","0.1623639982","","main_expt","0.1940838181","","0.1142009487","","0.3785571591","","","","","","",""
"205","","bandit","77","488735","0.0-39.0-0.0","36591335","wem/bandit_single","A1VPE05UDNFKGV","gain","6","","72","H","0","img/none_selected.jpg","0","0","1","0.1864124343","","false","2","0.1864124343","","main_expt","0.2410489397","","0.09165924831","","0.3894156921","","","","","","",""
"295","","bandit","78","490798","0.0-40.0-0.0","36591335","wem/bandit_single","A1VPE05UDNFKGV","gain","6","","76","L","3","","1","0","0","0.4125386255","","false","3","0.1494323563","","main_expt","0.2645422736","","0.1174954382","","0.4125386255","","","","","","",""
"196","","bandit","79","492770","0.0-41.0-0.0","36591335","wem/bandit_single","A1VPE05UDNFKGV","gain","6","","76","L","3","","1","0","0","0.3990363537","","false","4","0.1266436655","","main_expt","0.1984909652","","0.1426329369","","0.3990363537","","","","","","",""
"187","","bandit","80","494725","0.0-42.0-0.0","36591335","wem/bandit_single","A1VPE05UDNFKGV","gain","6","","76","L","3","","1","0","0","0.454435597","","false","5","0.1476492511","","main_expt","0.1239860826","","0.1503595054","","0.454435597","","","","","","",""
"165","","bandit","81","496658","0.0-43.0-0.0","36591335","wem/bandit_single","A1VPE05UDNFKGV","gain","6","","76","L","3","","1","0","0","0.4583077461","","false","6","0.1525625276","","main_expt","0.06805906468","","0.1646450236","","0.4583077461","","","","","","",""
"214","","bandit","82","498640","0.0-44.0-0.0","36591335","wem/bandit_single","A1VPE05UDNFKGV","gain","6","","76","L","3","","1","0","0","0.4617786505","","false","7","0.1856713893","","main_expt","0.05890971721","","0.2031930874","","0.4617786505","","","","","","",""
"180","","bandit","83","500591","0.0-45.0-0.0","36591335","wem/bandit_single","A1VPE05UDNFKGV","gain","6","","76","L","3","","1","0","0","0.475168559","","false","8","0.2108076934","","main_expt","0.0832196585","","0.181996894","","0.475168559","","","","","","",""
"423","","bandit","84","502785","0.0-46.0-0.0","36591335","wem/bandit_single","A1VPE05UDNFKGV","gain","6","","76","L","3","","0","0","1","0.458325554","","false","9","0.1956497028","","main_expt","0.1325638406","","0.1673845292","","0.458325554","","","","","","",""
"96","","bandit","85","504649","0.0-47.0-0.0","36591335","wem/bandit_single","A1VPE05UDNFKGV","gain","6","","76","L","3","","0","0","1","0.4316924572","","false","10","0.1582923175","","main_expt","0.1196898321","","0.2328473308","","0.4316924572","","","","","","",""
"506","","bandit","86","506928","0.0-48.0-0.0","36591335","wem/bandit_single","A1VPE05UDNFKGV","gain","6","","72","H","0","img/none_selected.jpg","0","0","1","0.167734997","","false","11","0.167734997","","main_expt","0.1103103944","","0.20589494","","0.3756511011","","","","","","",""
"6761","","bandit","87","515454","0.0-49.0-0.0","36591335","wem/bandit_single","A1VPE05UDNFKGV","gain","6","","74","J","1","","0","0","1","0.06819125589","","false","12","0.2150601968","","main_expt","0.06819125589","","0.2246944015","","0.3549088727","","","","","","",""
"340","","bandit","88","517564","0.0-50.0-0.0","36591335","wem/bandit_single","A1VPE05UDNFKGV","gain","6","","74","J","1","","0","0","1","0.07076675629","","false","13","0.252216208","","main_expt","0.07076675629","","0.2613447163","","0.3455803359","","","","","","",""
"352","","bandit","89","519685","0.0-51.0-0.0","36591335","wem/bandit_single","A1VPE05UDNFKGV","gain","6","","75","K","2","","1","0","0","0.212655478","","false","14","0.2184022087","","main_expt","0.09241451512","","0.212655478","","0.3809937316","","","","","","",""
"301","","bandit","90","521757","0.0-52.0-0.0","36591335","wem/bandit_single","A1VPE05UDNFKGV","gain","6","","75","K","2","","0","0","1","0.1679070286","","false","15","0.210005203","","main_expt","0.07205700739","","0.1679070286","","0.3479508526","","","","","","",""
"197","","bandit","91","523729","0.0-53.0-0.0","36591335","wem/bandit_single","A1VPE05UDNFKGV","gain","6","","75","K","2","","0","0","1","0.1774383452","","false","16","0.2402495983","","main_expt","0.04760190598","","0.1774383452","","0.3287514515","","","","","","",""
"310","","bandit","92","525813","0.0-54.0-0.0","36591335","wem/bandit_single","A1VPE05UDNFKGV","gain","6","","76","L","3","","1","0","0","0.4008698656","","false","17","0.2766196603","","main_expt","0.03958098904","","0.1562672395","","0.4008698656","","","","","","",""
"205","","bandit","93","527789","0.0-55.0-0.0","36591335","wem/bandit_single","A1VPE05UDNFKGV","gain","6","","76","L","3","","1","0","0","0.3845126264","","false","18","0.3193638145","","main_expt","0.03128671198","","0.1407597156","","0.3845126264","","","","","","",""
"187","","bandit","94","529749","0.0-56.0-0.0","36591335","wem/bandit_single","A1VPE05UDNFKGV","gain","6","","76","L","3","","1","0","0","0.3979941068","","false","19","0.2953318626","","main_expt","0.04453616628","","0.1310890834","","0.3979941068","","","","","","",""
"183","","bandit","95","531700","0.0-57.0-0.0","36591335","wem/bandit_single","A1VPE05UDNFKGV","gain","6","","76","L","3","","1","0","0","0.3920029867","","false","20","0.3007143328","","main_expt","0.04596917346","","0.1317163977","","0.3920029867","","","","","","",""
"193","","bandit","96","533664","0.0-58.0-0.0","36591335","wem/bandit_single","A1VPE05UDNFKGV","gain","6","","76","L","3","","0","0","1","0.4057752261","","false","21","0.3105995928","","main_expt","0.04297504417","","0.1752537558","","0.4057752261","","","","","","",""
"181","","bandit","97","535616","0.0-59.0-0.0","36591335","wem/bandit_single","A1VPE05UDNFKGV","gain","6","","76","L","3","","1","0","0","0.4072420822","","false","22","0.3742057862","","main_expt","0.04739698515","","0.2064983175","","0.4072420822","","","","","","",""
"225","","bandit","98","537612","0.0-60.0-0.0","36591335","wem/bandit_single","A1VPE05UDNFKGV","gain","6","","76","L","3","","0","0","1","0.3798298113","","false","23","0.3439758112","","main_expt","0.08003173613","","0.216691321","","0.3798298113","","","","","","",""
"163","","bandit","99","539548","0.0-61.0-0.0","36591335","wem/bandit_single","A1VPE05UDNFKGV","gain","6","","76","L","3","","0","0","1","0.3329856024","","false","24","0.3549138733","","main_expt","0.09868307827","","0.2342773894","","0.3329856024","","","","","","",""
"395","","bandit","100","541714","0.0-62.0-0.0","36591335","wem/bandit_single","A1VPE05UDNFKGV","gain","6","","72","H","0","img/none_selected.jpg","0","0","1","0.3811330683","","false","25","0.3811330683","","main_expt","0.07950464875","","0.2378870173","","0.3337381726","","","","","","",""
"264","","bandit","101","543751","0.0-63.0-0.0","36591335","wem/bandit_single","A1VPE05UDNFKGV","gain","6","","72","H","0","img/none_selected.jpg","1","0","0","0.3131907418","","false","26","0.3131907418","","main_expt","0.09697268327","","0.2555438901","","0.3650510818","","","","","","",""
"289","","bandit","102","545812","0.0-64.0-0.0","36591335","wem/bandit_single","A1VPE05UDNFKGV","gain","6","","72","H","0","img/none_selected.jpg","0","0","1","0.3210571327","","false","27","0.3210571327","","main_expt","0.09831328215","","0.2487754609","","0.3930286133","","","","","","",""
"303","","bandit","103","547888","0.0-65.0-0.0","36591335","wem/bandit_single","A1VPE05UDNFKGV","gain","6","","72","H","0","img/none_selected.jpg","0","0","1","0.3350138966","","false","28","0.3350138966","","main_expt","0.08798585883","","0.2023297646","","0.3849328395","","","","","","",""
"2494","","bandit","104","552157","0.0-66.0-0.0","36591335","wem/bandit_single","A1VPE05UDNFKGV","gain","6","","75","K","2","","0","0","1","0.1824385616","","false","29","0.3491704597","","main_expt","0.1001400419","","0.1824385616","","0.3635333449","","","","","","",""
"186","","bandit","105","554113","0.0-67.0-0.0","36591335","wem/bandit_single","A1VPE05UDNFKGV","gain","6","","75","K","2","","1","0","0","0.2108935763","","false","30","0.3515390533","","main_expt","0.100360092","","0.2108935763","","0.3870800473","","","","","","",""
"265","","bandit","106","556151","0.0-68.0-0.0","36591335","wem/bandit_single","A1VPE05UDNFKGV","gain","6","","75","K","2","","0","0","1","0.2212072473","","false","31","0.3116189274","","main_expt","0.1235489826","","0.2212072473","","0.407818568","","","","","","",""
"255","","bandit","107","558179","0.0-69.0-0.0","36591335","wem/bandit_single","A1VPE05UDNFKGV","gain","6","","75","K","2","","0","0","1","0.2349080289","","false","32","0.2923613921","","main_expt","0.0999088058","","0.2349080289","","0.4365503818","","","","","","",""
"227","","bandit","108","560176","0.0-70.0-0.0","36591335","wem/bandit_single","A1VPE05UDNFKGV","gain","6","","76","L","3","","1","0","0","0.438397095","","false","33","0.2833872006","","main_expt","0.1229353218","","0.2233211346","","0.438397095","","","","","","",""
"181","","bandit","109","562129","0.0-71.0-0.0","36591335","wem/bandit_single","A1VPE05UDNFKGV","gain","6","","76","L","3","","0","0","1","0.4225996483","","false","34","0.251012165","","main_expt","0.1174339591","","0.2328620384","","0.4225996483","","","","","","",""
"142","","bandit","110","564043","0.0-72.0-0.0","36591335","wem/bandit_single","A1VPE05UDNFKGV","gain","6","","76","L","3","","1","0","0","0.3719427837","","false","35","0.2150204629","","main_expt","0.08922948311","","0.2442853791","","0.3719427837","","","","","","",""
"236","","bandit","111","566051","0.0-73.0-0.0","36591335","wem/bandit_single","A1VPE05UDNFKGV","gain","6","","76","L","3","","0","0","1","0.3643608465","","false","36","0.2003821391","","main_expt","0.1065429935","","0.2536962779","","0.3643608465","","","","","","",""
"123","","bandit","112","567948","0.0-74.0-0.0","36591335","wem/bandit_single","A1VPE05UDNFKGV","gain","6","","76","L","3","","0","0","1","0.3951734682","","false","37","0.1584744983","","main_expt","0.119331244","","0.1968410568","","0.3951734682","","","","","","",""
"448","","bandit","113","570168","0.0-75.0-0.0","36591335","wem/bandit_single","A1VPE05UDNFKGV","gain","6","","72","H","0","img/none_selected.jpg","0","0","1","0.1107345946","","false","38","0.1107345946","","main_expt","0.1140529394","","0.1903576104","","0.4106313244","","","","","","",""
"453","","bandit","114","572395","0.0-76.0-0.0","36591335","wem/bandit_single","A1VPE05UDNFKGV","gain","6","","74","J","1","","0","0","1","0.1377706652","","false","39","0.1922112034","","main_expt","0.1377706652","","0.2094560733","","0.385877281","","","","","","",""
"216","","bandit","115","574385","0.0-77.0-0.0","36591335","wem/bandit_single","A1VPE05UDNFKGV","gain","6","","74","J","1","","1","0","0","0.1686011578","","false","40","0.202991566","","main_expt","0.1686011578","","0.2157952434","","0.3814638094","","","","","","",""
"411","","bandit","116","576567","0.0-78.0-0.0","36591335","wem/bandit_single","A1VPE05UDNFKGV","gain","6","","74","J","1","","0","0","1","0.1640814413","","false","41","0.257249123","","main_expt","0.1640814413","","0.1982376225","","0.3569976603","","","","","","",""
"278","","bandit","117","578620","0.0-79.0-0.0","36591335","wem/bandit_single","A1VPE05UDNFKGV","gain","6","","74","J","1","","0","0","1","0.1444461896","","false","42","0.3139605103","","main_expt","0.1444461896","","0.1815133425","","0.3254656301","","","","","","",""
"281","","bandit","118","580664","0.0-80.0-0.0","36591335","wem/bandit_single","A1VPE05UDNFKGV","gain","6","","76","L","3","","1","0","0","0.3061667188","","false","43","0.2859416922","","main_expt","0.1466097136","","0.1804658283","","0.3061667188","","","","","","",""
"211","","bandit","119","582645","0.0-81.0-0.0","36591335","wem/bandit_single","A1VPE05UDNFKGV","gain","6","","76","L","3","","0","0","1","0.3247162798","","false","44","0.2344477797","","main_expt","0.1701376127","","0.1453808853","","0.3247162798","","","","","","",""
"72","","bandit","120","584490","0.0-82.0-0.0","36591335","wem/bandit_single","A1VPE05UDNFKGV","gain","6","","76","L","3","","0","0","1","0.3464274235","","false","45","0.25278305","","main_expt","0.2382164817","","0.1975985391","","0.3464274235","","","","","","",""
"256","","bandit","121","586518","0.0-83.0-0.0","36591335","wem/bandit_single","A1VPE05UDNFKGV","gain","6","","72","H","0","img/none_selected.jpg","0","0","1","0.2447001663","","false","46","0.2447001663","","main_expt","0.2817064876","","0.2099331931","","0.2853596265","","","","","","",""
"207","","bandit","122","588500","0.0-84.0-0.0","36591335","wem/bandit_single","A1VPE05UDNFKGV","gain","6","","72","H","0","img/none_selected.jpg","0","0","1","0.2439886488","","false","47","0.2439886488","","main_expt","0.3449614965","","0.2373708448","","0.2781892211","","","","","","",""
"951","","bandit","123","591221","0.0-85.0-0.0","36591335","wem/bandit_single","A1VPE05UDNFKGV","gain","6","","75","K","2","","0","0","1","0.2929879582","","false","48","0.3453423138","","main_expt","0.2846403666","","0.2929879582","","0.2802769371","","","","","","",""
"165","","bandit","124","593156","0.0-86.0-0.0","36591335","wem/bandit_single","A1VPE05UDNFKGV","gain","6","","75","K","2","","0","0","1","0.2643709298","","false","49","0.3208634608","","main_expt","0.3292227521","","0.2643709298","","0.3162769287","","","","","","",""
"300","","bandit","125","595230","0.0-87.0-0.0","36591335","wem/bandit_single","A1VPE05UDNFKGV","gain","6","","75","K","2","","1","0","0","0.2666646559","","false","50","0.2600740437","","main_expt","0.270904054","","0.2666646559","","0.2524095143","","","","","","",""
"277","","bandit","126","597280","0.0-88.0-0.0","36591335","wem/bandit_single","A1VPE05UDNFKGV","gain","6","","75","K","2","","1","0","0","0.2550538978","","false","51","0.2451527442","","main_expt","0.2503066232","","0.2550538978","","0.2630113652","","","","","","",""
"247","","bandit","127","599301","0.0-89.0-0.0","36591335","wem/bandit_single","A1VPE05UDNFKGV","gain","6","","75","K","2","","0","0","1","0.3235330097","","false","52","0.1882651979","","main_expt","0.2405173112","","0.3235330097","","0.2707742251","","","","","","",""
"425","","bandit","128","601499","0.0-90.0-0.0","36591335","wem/bandit_single","A1VPE05UDNFKGV","gain","6","","75","K","2","","0","0","1","0.347433539","","false","53","0.1930778153","","main_expt","0.2966352861","","0.347433539","","0.2150274285","","","","","","",""
"293","","bandit","129","603567","0.0-91.0-0.0","36591335","wem/bandit_single","A1VPE05UDNFKGV","gain","6","","76","L","3","","0","0","1","0.2326572497","","false","54","0.2216955806","","main_expt","0.2887198369","","0.3368202787","","0.2326572497","","","","","","",""
"224","","bandit","130","605565","0.0-92.0-0.0","36591335","wem/bandit_single","A1VPE05UDNFKGV","gain","6","","72","H","0","img/none_selected.jpg","0","0","1","0.2422165651","","false","55","0.2422165651","","main_expt","0.2801160178","","0.3503124627","","0.2134399586","","","","","","",""
"333","","bandit","131","607672","0.0-93.0-0.0","36591335","wem/bandit_single","A1VPE05UDNFKGV","gain","6","","72","H","0","img/none_selected.jpg","0","0","1","0.228979269","","false","56","0.228979269","","main_expt","0.3022415889","","0.368841946","","0.2394891912","","","","","","",""
"318","","bandit","132","609765","0.0-94.0-0.0","36591335","wem/bandit_single","A1VPE05UDNFKGV","gain","6","","74","J","1","","0","0","1","0.3300995428","","false","57","0.243325051","","main_expt","0.3300995428","","0.3883837061","","0.2942469327","","","","","","",""
"362","","bandit","133","611902","0.0-95.0-0.0","36591335","wem/bandit_single","A1VPE05UDNFKGV","gain","6","","74","J","1","","0","0","1","0.3393984951","","false","58","0.2326991071","","main_expt","0.3393984951","","0.4116863428","","0.369295693","","","","","","",""
"238","","bandit","134","613916","0.0-96.0-0.0","36591335","wem/bandit_single","A1VPE05UDNFKGV","gain","6","","75","K","2","","1","0","0","0.3980375199","","false","59","0.2480349675","","main_expt","0.3592245678","","0.3980375199","","0.3663837161","","","","","","",""
"245","","bandit","135","615935","0.0-97.0-0.0","36591335","wem/bandit_single","A1VPE05UDNFKGV","gain","6","","75","K","2","","0","0","1","0.3849919156","","false","60","0.2591134247","","main_expt","0.3431938453","","0.3849919156","","0.3578669063","","","","","","",""
"202","","bandit","136","617912","0.0-98.0-0.0","36591335","wem/bandit_single","A1VPE05UDNFKGV","gain","6","","75","K","2","","0","0","1","0.3822359719","","false","61","0.2828027123","","main_expt","0.3622980041","","0.3822359719","","0.3901807011","","","","","","",""
"308","","bandit","137","619993","0.0-99.0-0.0","36591335","wem/bandit_single","A1VPE05UDNFKGV","gain","6","","76","L","3","","0","0","1","0.4199484271","","false","62","0.2645717152","","main_expt","0.3898917795","","0.3356955782","","0.4199484271","","","","","","",""
"219","","bandit","138","621985","0.0-100.0-0.0","36591335","wem/bandit_single","A1VPE05UDNFKGV","gain","6","","76","L","3","","1","0","0","0.431710707","","false","63","0.3164731366","","main_expt","0.3730814422","","0.2961333539","","0.431710707","","","","","","",""
"165","","bandit","139","623926","0.0-101.0-0.0","36591335","wem/bandit_single","A1VPE05UDNFKGV","gain","6","","76","L","3","","1","0","0","0.4302834116","","false","64","0.3549458842","","main_expt","0.359514794","","0.3332154777","","0.4302834116","","","","","","",""
"171","","bandit","140","625872","0.0-102.0-0.0","36591335","wem/bandit_single","A1VPE05UDNFKGV","gain","6","","76","L","3","","0","0","1","0.3985691748","","false","65","0.288515421","","main_expt","0.3114607296","","0.35785358","","0.3985691748","","","","","","",""
"99","","bandit","141","627745","0.0-103.0-0.0","36591335","wem/bandit_single","A1VPE05UDNFKGV","gain","6","","76","L","3","","1","0","0","0.4041176093","","false","66","0.3011993237","","main_expt","0.2942291023","","0.406057841","","0.4041176093","","","","","","",""
"252","","bandit","142","629769","0.0-104.0-0.0","36591335","wem/bandit_single","A1VPE05UDNFKGV","gain","6","","76","L","3","","1","0","0","0.4007812862","","false","67","0.345072876","","main_expt","0.3320533568","","0.4196038874","","0.4007812862","","","","","","",""
"149","","bandit","143","631694","0.0-105.0-0.0","36591335","wem/bandit_single","A1VPE05UDNFKGV","gain","6","","76","L","3","","1","0","0","0.4294162969","","false","68","0.3196529892","","main_expt","0.3600975808","","0.3890604874","","0.4294162969","","","","","","",""
"260","","bandit","144","633727","0.0-106.0-0.0","36591335","wem/bandit_single","A1VPE05UDNFKGV","gain","6","","76","L","3","","0","0","1","0.3767619451","","false","69","0.3649702463","","main_expt","0.2872110667","","0.4084138829","","0.3767619451","","","","","","",""
"131","","bandit","145","635634","0.0-107.0-0.0","36591335","wem/bandit_single","A1VPE05UDNFKGV","gain","6","","76","L","3","","0","0","1","0.3777248691","","false","70","0.356932825","","main_expt","0.295141158","","0.3468887804","","0.3777248691","","","","","","",""
"260","","bandit","146","637666","0.0-108.0-0.0","36591335","wem/bandit_single","A1VPE05UDNFKGV","gain","6","","76","L","3","","1","0","0","0.3795242786","","false","71","0.3835678776","","main_expt","0.3206647592","","0.341524862","","0.3795242786","","","","","","",""
"210","","bandit","147","639651","0.0-109.0-0.0","36591335","wem/bandit_single","A1VPE05UDNFKGV","gain","6","","76","L","3","","0","0","1","0.3665841139","","false","72","0.4212385026","","main_expt","0.3264000429","","0.3749246652","","0.3665841139","","","","","","",""
"176","","bandit","148","641602","0.0-110.0-0.0","36591335","wem/bandit_single","A1VPE05UDNFKGV","gain","6","","76","L","3","","1","0","0","0.3651794524","","false","73","0.4261424303","","main_expt","0.333972891","","0.3871824506","","0.3651794524","","","","","","",""
"223","","bandit","149","643599","0.0-111.0-0.0","36591335","wem/bandit_single","A1VPE05UDNFKGV","gain","6","","76","L","3","","0","0","1","0.3550305672","","false","74","0.3977974162","","main_expt","0.3616968722","","0.3721906724","","0.3550305672","","","","","","",""
"311","","bandit","150","645683","0.0-112.0-0.0","36591335","wem/bandit_single","A1VPE05UDNFKGV","gain","6","","76","L","3","","0","0","1","0.2927321298","","false","75","0.4267201321","","main_expt","0.3975057441","","0.3111946895","","0.2927321298","","","","","","",""
"286","","bandit","151","647744","0.0-113.0-0.0","36591335","wem/bandit_single","A1VPE05UDNFKGV","gain","6","","76","L","3","","0","0","1","0.2842047713","","false","76","0.4263250047","","main_expt","0.3807363423","","0.3336428477","","0.2842047713","","","","","","",""
"221","","bandit","152","649742","0.0-114.0-0.0","36591335","wem/bandit_single","A1VPE05UDNFKGV","gain","6","","72","H","0","img/none_selected.jpg","0","0","1","0.4081139898","","false","77","0.4081139898","","main_expt","0.394346207","","0.2972108807","","0.291961298","","","","","","",""
"227","","bandit","153","651746","0.0-115.0-0.0","36591335","wem/bandit_single","A1VPE05UDNFKGV","gain","6","","72","H","0","img/none_selected.jpg","1","0","0","0.4081745619","","false","78","0.4081745619","","main_expt","0.4130135997","","0.3500338334","","0.2772504781","","","","","","",""
"323","","bandit","154","653843","0.0-116.0-0.0","36591335","wem/bandit_single","A1VPE05UDNFKGV","gain","6","","72","H","0","img/none_selected.jpg","0","0","1","0.4210543479","","false","79","0.4210543479","","main_expt","0.388257836","","0.3382579744","","0.2910266255","","","","","","",""
"155","","bandit","155","655775","0.0-117.0-0.0","36591335","wem/bandit_single","A1VPE05UDNFKGV","gain","6","","72","H","0","img/none_selected.jpg","1","0","0","0.4173400146","","false","80","0.4173400146","","main_expt","0.402189785","","0.2848378437","","0.3236474027","","","","","","",""
"558","","bandit","156","658108","0.0-118.0-0.0","36591335","wem/bandit_single","A1VPE05UDNFKGV","gain","6","","72","H","0","img/none_selected.jpg","0","0","1","0.3876294662","","false","81","0.3876294662","","main_expt","0.4188164015","","0.2824957966","","0.3171491255","","","","","","",""
"158","","bandit","157","660039","0.0-119.0-0.0","36591335","wem/bandit_single","A1VPE05UDNFKGV","gain","6","","72","H","0","img/none_selected.jpg","0","0","1","0.3960397656","","false","82","0.3960397656","","main_expt","0.3923487362","","0.2921189703","","0.3253049084","","","","","","",""
"1046","","bandit","158","662857","0.0-120.0-0.0","36591335","wem/bandit_single","A1VPE05UDNFKGV","gain","6","","75","K","2","","0","0","1","0.346808059","","false","83","0.4048972575","","main_expt","0.3765831671","","0.346808059","","0.2650825447","","","","","","",""
"167","","bandit","159","664799","0.0-121.0-0.0","36591335","wem/bandit_single","A1VPE05UDNFKGV","gain","6","","75","K","2","","1","0","0","0.3142369957","","false","84","0.4261464595","","main_expt","0.3744655151","","0.3142369957","","0.2860936523","","","","","","",""
"290","","bandit","160","666864","0.0-122.0-0.0","36591335","wem/bandit_single","A1VPE05UDNFKGV","gain","6","","75","K","2","","0","0","1","0.3336664699","","false","85","0.4252889048","","main_expt","0.4097897279","","0.3336664699","","0.2965161573","","","","","","",""
"155","","bandit","161","668798","0.0-123.0-0.0","36591335","wem/bandit_single","A1VPE05UDNFKGV","gain","6","","75","K","2","","1","0","0","0.3487181938","","false","86","0.4234238012","","main_expt","0.4365994201","","0.3487181938","","0.2718920201","","","","","","",""
"246","","bandit","162","670822","0.0-124.0-0.0","36591335","wem/bandit_single","A1VPE05UDNFKGV","gain","6","","75","K","2","","1","0","0","0.3595256023","","false","87","0.4493325849","","main_expt","0.4485753971","","0.3595256023","","0.2663647104","","","","","","",""
"249","","bandit","163","672846","0.0-125.0-0.0","36591335","wem/bandit_single","A1VPE05UDNFKGV","gain","6","","75","K","2","","0","0","1","0.3633435887","","false","88","0.4618336953","","main_expt","0.4682155013","","0.3633435887","","0.2505207396","","","","","","",""
"233","","bandit","164","674865","0.0-126.0-0.0","36591335","wem/bandit_single","A1VPE05UDNFKGV","gain","6","","75","K","2","","0","0","1","0.3301577903","","false","89","0.470357169","","main_expt","0.455546077","","0.3301577903","","0.2380326514","","","","","","",""
"308","","bandit","165","676947","0.0-127.0-0.0","36591335","wem/bandit_single","A1VPE05UDNFKGV","gain","6","","76","L","3","","1","0","0","0.2825572521","","false","90","0.4756012524","","main_expt","0.4648286352","","0.2983975746","","0.2825572521","","","","","","",""
"188","","bandit","166","678910","0.0-128.0-0.0","36591335","wem/bandit_single","A1VPE05UDNFKGV","gain","6","","76","L","3","","1","0","0","0.3629334232","","false","91","0.4661355378","","main_expt","0.4597569826","","0.2708507867","","0.3629334232","","","","","","",""
"148","","bandit","167","680834","0.0-129.0-0.0","36591335","wem/bandit_single","A1VPE05UDNFKGV","gain","6","","76","L","3","","1","0","0","0.4318733099","","false","92","0.4640816948","","main_expt","0.4636055165","","0.2025174094","","0.4318733099","","","","","","",""
"263","","bandit","168","682877","0.0-130.0-0.0","36591335","wem/bandit_single","A1VPE05UDNFKGV","gain","6","","76","L","3","","1","0","0","0.4354989634","","false","93","0.4745032584","","main_expt","0.4344757896","","0.1991535532","","0.4354989634","","","","","","",""
"217","","bandit","169","684867","0.0-131.0-0.0","36591335","wem/bandit_single","A1VPE05UDNFKGV","gain","6","","76","L","3","","1","0","0","0.4569950804","","false","94","0.4713826624","","main_expt","0.4540573516","","0.2072674268","","0.4569950804","","","","","","",""
"106","","bandit","170","686748","0.0-132.0-0.0","36591335","wem/bandit_single","A1VPE05UDNFKGV","gain","6","","76","L","3","","0","0","1","0.4626037768","","false","95","0.4518091014","","main_expt","0.467393544","","0.2139910976","","0.4626037768","","","","","","",""
"259","","bandit","171","688778","0.0-133.0-0.0","36591335","wem/bandit_single","A1VPE05UDNFKGV","gain","6","","76","L","3","","1","0","0","0.4632162831","","false","96","0.4610288074","","main_expt","0.4523779492","","0.1714021876","","0.4632162831","","","","","","",""
"238","","bandit","172","690792","0.0-134.0-0.0","36591335","wem/bandit_single","A1VPE05UDNFKGV","gain","6","","76","L","3","","0","0","1","0.4574348148","","false","97","0.4610411697","","main_expt","0.4734298584","","0.1776734449","","0.4574348148","","","","","","",""
"98","","bandit","173","692663","0.0-135.0-0.0","36591335","wem/bandit_single","A1VPE05UDNFKGV","gain","6","","76","L","3","","1","0","0","0.4551488225","","false","98","0.4658458747","","main_expt","0.4822123269","","0.2143852757","","0.4551488225","","","","","","",""
"171","","bandit","174","694611","0.0-136.0-0.0","36591335","wem/bandit_single","A1VPE05UDNFKGV","gain","6","","76","L","3","","1","0","0","0.4604873832","","false","99","0.4372748216","","main_expt","0.4829706494","","0.2341872784","","0.4604873832","","","","","","",""
"198","","bandit","175","696585","0.0-137.0-0.0","36591335","wem/bandit_single","A1VPE05UDNFKGV","gain","6","","76","L","3","","0","0","1","0.4364445071","","false","100","0.4237986198","","main_expt","0.4918551361","","0.2835639283","","0.4364445071","","","","","","",""
"153","","bandit","176","698514","0.0-138.0-0.0","36591335","wem/bandit_single","A1VPE05UDNFKGV","gain","6","","76","L","3","","1","0","0","0.4152010141","","false","101","0.4239408107","","main_expt","0.4891782125","","0.3342764243","","0.4152010141","","","","","","",""
"219","","bandit","177","700510","0.0-139.0-0.0","36591335","wem/bandit_single","A1VPE05UDNFKGV","gain","6","","76","L","3","","1","0","0","0.4463558977","","false","102","0.4482877494","","main_expt","0.484620563","","0.3693598309","","0.4463558977","","","","","","",""
"155","","bandit","178","702441","0.0-140.0-0.0","36591335","wem/bandit_single","A1VPE05UDNFKGV","gain","6","","76","L","3","","1","0","0","0.4519222506","","false","103","0.4319618448","","main_expt","0.4880888492","","0.3465782007","","0.4519222506","","","","","","",""
"78","","bandit","179","704295","0.0-141.0-0.0","36591335","wem/bandit_single","A1VPE05UDNFKGV","gain","6","","76","L","3","","1","0","0","0.44950272","","false","104","0.3989131432","","main_expt","0.4862983338","","0.356437927","","0.44950272","","","","","","",""
"219","","bandit","180","706291","0.0-142.0-0.0","36591335","wem/bandit_single","A1VPE05UDNFKGV","gain","6","","76","L","3","","0","0","1","0.4631277203","","false","105","0.3718051273","","main_expt","0.4761426531","","0.349556789","","0.4631277203","","","","","","",""
"99","","bandit","181","708167","0.0-143.0-0.0","36591335","wem/bandit_single","A1VPE05UDNFKGV","gain","6","","76","L","3","","0","0","1","0.4761070442","","false","106","0.3820213715","","main_expt","0.4724420891","","0.3368343046","","0.4761070442","","","","","","",""
"272","","bandit","182","710215","0.0-144.0-0.0","36591335","wem/bandit_single","A1VPE05UDNFKGV","gain","6","","72","H","0","img/none_selected.jpg","0","0","1","0.3903902173","","false","107","0.3903902173","","main_expt","0.4544285192","","0.3492990444","","0.4574049266","","","","","","",""
"231","","bandit","183","712220","0.0-145.0-0.0","36591335","wem/bandit_single","A1VPE05UDNFKGV","gain","6","","72","H","0","img/none_selected.jpg","1","0","0","0.424383047","","false","108","0.424383047","","main_expt","0.4489506099","","0.3657086014","","0.4342229458","","","","","","",""
"295","","bandit","184","714292","0.0-146.0-0.0","36591335","wem/bandit_single","A1VPE05UDNFKGV","gain","6","","72","H","0","img/none_selected.jpg","1","0","0","0.3732822228","","false","109","0.3732822228","","main_expt","0.4357570441","","0.3473329542","","0.4437976733","","","","","","",""
"299","","bandit","185","716366","0.0-147.0-0.0","36591335","wem/bandit_single","A1VPE05UDNFKGV","gain","6","","72","H","0","img/none_selected.jpg","0","0","1","0.3545846445","","false","110","0.3545846445","","main_expt","0.4243789051","","0.3937482981","","0.4131704669","","","","","","",""
"217","","bandit","186","718360","0.0-148.0-0.0","36591335","wem/bandit_single","A1VPE05UDNFKGV","gain","6","","72","H","0","img/none_selected.jpg","0","0","1","0.2861948885","","false","111","0.2861948885","","main_expt","0.4235572131","","0.4067223002","","0.3849612216","","","","","","",""
"867","","bandit","187","721001","0.0-149.0-0.0","36591335","wem/bandit_single","A1VPE05UDNFKGV","gain","6","","75","K","2","","0","0","1","0.3791461054","","false","112","0.3148935151","","main_expt","0.4216330179","","0.3791461054","","0.4197473064","","","","","","",""
"347","","bandit","188","723122","0.0-150.0-0.0","36591335","wem/bandit_single","A1VPE05UDNFKGV","gain","6","","75","K","2","","0","0","1","0.3697872407","","false","113","0.310891148","","main_expt","0.3981229654","","0.3697872407","","0.4477672952","","","","","","",""
"329","","bandit","189","725226","0.0-151.0-0.0","36591335","wem/bandit_single","A1VPE05UDNFKGV","gain","6","","74","J","1","","1","0","0","0.4051483532","","false","114","0.3312817134","","main_expt","0.4051483532","","0.3542284497","","0.4347577032","","","","","","",""
"372","","bandit","190","727376","0.0-152.0-0.0","36591335","wem/bandit_single","A1VPE05UDNFKGV","gain","6","","74","J","1","","0","0","1","0.3664587937","","false","115","0.3328181623","","main_expt","0.3664587937","","0.3424252445","","0.4123529648","","","","","","",""
"269","","bandit","191","729421","0.0-153.0-0.0","36591335","wem/bandit_single","A1VPE05UDNFKGV","gain","6","","74","J","1","","0","0","1","0.3815824605","","false","116","0.282168926","","main_expt","0.3815824605","","0.3364913945","","0.4374051313","","","","","","",""
"412","","bandit","192","731610","0.0-154.0-0.0","36591335","wem/bandit_single","A1VPE05UDNFKGV","gain","6","","76","L","3","","0","0","1","0.4336999329","","false","117","0.3282440564","","main_expt","0.3718524962","","0.3607093693","","0.4336999329","","","","","","",""
"247","","bandit","193","733632","0.0-155.0-0.0","36591335","wem/bandit_single","A1VPE05UDNFKGV","gain","6","","76","L","3","","1","0","0","0.4609057125","","false","118","0.3735758205","","main_expt","0.3228128462","","0.3651530194","","0.4609057125","","","","","","",""
"160","","bandit","194","735563","0.0-156.0-0.0","36591335","wem/bandit_single","A1VPE05UDNFKGV","gain","6","","76","L","3","","1","0","0","0.4644995027","","false","119","0.4085136599","","main_expt","0.3303119184","","0.391691743","","0.4644995027","","","","","","",""
"158","","bandit","195","737498","0.0-157.0-0.0","36591335","wem/bandit_single","A1VPE05UDNFKGV","gain","6","","76","L","3","","1","0","0","0.4699288035","","false","120","0.4152109264","","main_expt","0.3566896217","","0.3892352466","","0.4699288035","","","","","","",""
"216","","bandit","196","739490","0.0-158.0-0.0","36591335","wem/bandit_single","A1VPE05UDNFKGV","gain","6","","76","L","3","","1","0","0","0.48416914","","false","121","0.4362055741","","main_expt","0.3938610898","","0.4119078466","","0.48416914","","","","","","",""
"228","","bandit","197","741494","0.0-159.0-0.0","36591335","wem/bandit_single","A1VPE05UDNFKGV","gain","6","","76","L","3","","1","0","0","0.4744752566","","false","122","0.4381361327","","main_expt","0.3846692282","","0.3864510994","","0.4744752566","","","","","","",""
"133","","bandit","198","743406","0.0-160.0-0.0","36591335","wem/bandit_single","A1VPE05UDNFKGV","gain","6","","76","L","3","","0","0","1","0.4770694964","","false","123","0.4266523018","","main_expt","0.3479888462","","0.3206095238","","0.4770694964","","","","","","",""
"219","","bandit","199","745401","0.0-161.0-0.0","36591335","wem/bandit_single","A1VPE05UDNFKGV","gain","6","","76","L","3","","1","0","0","0.4882663864","","false","124","0.3976500929","","main_expt","0.3446564944","","0.3004639257","","0.4882663864","","","","","","",""
"135","","bandit","200","747314","0.0-162.0-0.0","36591335","wem/bandit_single","A1VPE05UDNFKGV","gain","6","","76","L","3","","1","0","0","0.4867438878","","false","125","0.4004048686","","main_expt","0.3742116014","","0.2718713493","","0.4867438878","","","","","","",""
"133","","bandit","201","749224","0.0-163.0-0.0","36591335","wem/bandit_single","A1VPE05UDNFKGV","gain","6","","76","L","3","","0","0","1","0.4859509926","","false","126","0.3978852423","","main_expt","0.3522130289","","0.312825386","","0.4859509926","","","","","","",""
"275","","bandit","202","751276","0.0-164.0-0.0","36591335","wem/bandit_single","A1VPE05UDNFKGV","gain","6","","76","L","3","","0","0","1","0.4910312391","","false","127","0.4164913371","","main_expt","0.4136983804","","0.2929193121","","0.4910312391","","","","","","",""
"229","","bandit","203","753280","0.0-165.0-0.0","36591335","wem/bandit_single","A1VPE05UDNFKGV","gain","6","","72","H","0","img/none_selected.jpg","1","0","0","0.4273270633","","false","128","0.4273270633","","main_expt","0.3740150402","","0.3483635392","","0.4916106826","","","","","","",""
"174","","bandit","204","755231","0.0-166.0-0.0","36591335","wem/bandit_single","A1VPE05UDNFKGV","gain","6","","72","H","0","img/none_selected.jpg","1","0","0","0.4403517336","","false","129","0.4403517336","","main_expt","0.3561584853","","0.3180783589","","0.4774596984","","","","","","",""
"262","","bandit","205","757270","0.0-167.0-0.0","36591335","wem/bandit_single","A1VPE05UDNFKGV","gain","6","","72","H","0","img/none_selected.jpg","0","0","1","0.436469863","","false","130","0.436469863","","main_expt","0.3781611856","","0.332672873","","0.4792113904","","","","","","",""
"113","","bandit","206","759160","0.0-168.0-0.0","36591335","wem/bandit_single","A1VPE05UDNFKGV","gain","6","","72","H","0","img/none_selected.jpg","0","0","1","0.467157068","","false","131","0.467157068","","main_expt","0.3972118802","","0.3172252399","","0.4761250173","","","","","","",""
"507","","bandit","207","761446","0.0-169.0-0.0","36591335","wem/bandit_single","A1VPE05UDNFKGV","gain","6","","74","J","1","","0","0","1","0.3951630556","","false","132","0.4747764211","","main_expt","0.3951630556","","0.2808852702","","0.4782449011","","","","","","",""
"239","","bandit","208","763463","0.0-170.0-0.0","36591335","wem/bandit_single","A1VPE05UDNFKGV","gain","6","","74","J","1","","1","0","0","0.3918056992","","false","133","0.4662147581","","main_expt","0.3918056992","","0.2846237695","","0.4789501527","","","","","","",""
"441","","bandit","209","765680","0.0-171.0-0.0","36591335","wem/bandit_single","A1VPE05UDNFKGV","gain","6","","74","J","1","","0","0","1","0.395342783","","false","134","0.4711951182","","main_expt","0.395342783","","0.3115497245","","0.4821877595","","","","","","",""
"705","","bandit","210","768162","0.0-172.0-0.0","36591335","wem/bandit_single","A1VPE05UDNFKGV","gain","6","","74","J","1","","0","0","1","0.3867762939","","false","135","0.4540730246","","main_expt","0.3867762939","","0.3413582918","","0.4863767518","","","","","","",""
"423","","bandit","211","770365","0.0-173.0-0.0","36591335","wem/bandit_single","A1VPE05UDNFKGV","gain","6","","75","K","2","","0","0","1","0.316763081","","false","136","0.4412688847","","main_expt","0.3929594686","","0.316763081","","0.4887786445","","","","","","",""
"209","","bandit","212","772351","0.0-174.0-0.0","36591335","wem/bandit_single","A1VPE05UDNFKGV","gain","6","","75","K","2","","1","0","0","0.2585559296","","false","137","0.4585130214","","main_expt","0.3067223256","","0.2585559296","","0.4896902137","","","","","","",""
"207","","bandit","213","774339","0.0-175.0-0.0","36591335","wem/bandit_single","A1VPE05UDNFKGV","gain","6","","75","K","2","","0","0","1","0.2320291273","","false","138","0.4413786145","","main_expt","0.3444805877","","0.2320291273","","0.4754525561","","","","","","",""
"177","","bandit","214","776290","0.0-176.0-0.0","36591335","wem/bandit_single","A1VPE05UDNFKGV","gain","6","","75","K","2","","0","0","1","0.2705305451","","false","139","0.4235974169","","main_expt","0.4025185773","","0.2705305451","","0.4525902595","","","","","","",""
"293","","bandit","215","778362","0.0-177.0-0.0","36591335","wem/bandit_single","A1VPE05UDNFKGV","gain","6","","76","L","3","","1","0","0","0.474141966","","false","140","0.3993595144","","main_expt","0.4000290511","","0.2115164241","","0.474141966","","","","","","",""
"538","","bandit","216","780677","0.0-178.0-0.0","36591335","wem/bandit_single","A1VPE05UDNFKGV","gain","6","","76","L","3","","1","0","0","0.4642583801","","false","141","0.3845482665","","main_expt","0.4052231698","","0.2166269704","","0.4642583801","","","","","","",""
"524","","bandit","217","782982","0.0-179.0-0.0","36591335","wem/bandit_single","A1VPE05UDNFKGV","gain","6","","76","L","3","","0","0","1","0.4713728632","","false","142","0.3636407915","","main_expt","0.3881257509","","0.2477117994","","0.4713728632","","","","","","",""
"129","","bandit","218","784891","0.0-180.0-0.0","36591335","wem/bandit_single","A1VPE05UDNFKGV","gain","6","","76","L","3","","0","0","1","0.4714731714","","false","143","0.3360879677","","main_expt","0.4101759482","","0.2347168821","","0.4714731714","","","","","","",""
"121","","bandit","219","786790","0.0-181.0-0.0","36591335","wem/bandit_single","A1VPE05UDNFKGV","gain","6","","76","L","3","","0","0","1","0.4777196865","","false","144","0.2886719504","","main_expt","0.4100488723","","0.190213181","","0.4777196865","","","","","","",""
"204","","bandit","220","788768","0.0-182.0-0.0","36591335","wem/bandit_single","A1VPE05UDNFKGV","gain","6","","72","H","0","img/none_selected.jpg","0","0","1","0.2607344777","","false","145","0.2607344777","","main_expt","0.4294240464","","0.2873677543","","0.467438704","","","","","","",""
"135","","bandit","221","790679","0.0-183.0-0.0","36591335","wem/bandit_single","A1VPE05UDNFKGV","gain","6","","72","H","0","img/none_selected.jpg","0","0","1","0.261523257","","false","146","0.261523257","","main_expt","0.4447984025","","0.3434581746","","0.4764572222","","","","","","",""
"496","","bandit","222","792951","0.0-184.0-0.0","36591335","wem/bandit_single","A1VPE05UDNFKGV","gain","6","","76","L","3","","1","0","0","0.4670163239","","false","147","0.2768268543","","main_expt","0.4339083406","","0.3677167414","","0.4670163239","","","","","","",""
"244","","bandit","223","794975","0.0-185.0-0.0","36591335","wem/bandit_single","A1VPE05UDNFKGV","gain","6","","76","L","3","","1","0","0","0.4762727371","","false","148","0.2822793125","","main_expt","0.4200875786","","0.378672096","","0.4762727371","","","","","","",""
"108","","bandit","224","796862","0.0-186.0-0.0","36591335","wem/bandit_single","A1VPE05UDNFKGV","gain","6","","76","L","3","","0","0","1","0.4763998188","","false","149","0.3100291085","","main_expt","0.4370731276","","0.3447579657","","0.4763998188","","","","","","",""
"246","","bandit","225","798888","0.0-187.0-0.0","36591335","wem/bandit_single","A1VPE05UDNFKGV","gain","6","","76","L","3","","1","0","0","0.4534074178","","false","150","0.3473977335","","main_expt","0.4606741766","","0.3225325285","","0.4534074178","","","","","","",""
"200","","bandit","226","800867","0.0-188.0-0.0","36591335","wem/bandit_single","A1VPE05UDNFKGV","gain","6","","76","L","3","","0","0","1","0.4518750411","","false","151","0.3755194153","","main_expt","0.4831185644","","0.2971371866","","0.4518750411","","","","","","",""
"287","","bandit","227","802932","0.0-189.0-0.0","36591335","wem/bandit_single","A1VPE05UDNFKGV","gain","6","","76","L","3","","1","0","0","0.4724220712","","false","152","0.3931135366","","main_expt","0.489350082","","0.2436525959","","0.4724220712","","","","","","",""
"285","","bandit","228","804996","0.0-190.0-0.0","36591335","wem/bandit_single","A1VPE05UDNFKGV","gain","6","","76","L","3","","0","0","1","0.4655138208","","false","153","0.3704791656","","main_expt","0.4874668037","","0.2745817176","","0.4655138208","","","","","","",""
"144","","bandit","229","806918","0.0-191.0-0.0","36591335","wem/bandit_single","A1VPE05UDNFKGV","gain","6","","76","L","3","","1","0","0","0.466892577","","false","154","0.3918087328","","main_expt","0.4906252114","","0.2354012901","","0.466892577","","","","","","",""
"343","","bandit","230","809038","0.0-192.0-0.0","36591335","wem/bandit_single","A1VPE05UDNFKGV","gain","6","","76","L","3","","1","0","0","0.4696525674","","false","155","0.3629162862","","main_expt","0.4807331657","","0.2125693007","","0.4696525674","","","","","","",""
"224","","bandit","231","811041","0.0-193.0-0.0","36591335","wem/bandit_single","A1VPE05UDNFKGV","gain","6","","76","L","3","","1","0","0","0.4798639378","","false","156","0.3329402669","","main_expt","0.4886913858","","0.2344806361","","0.4798639378","","","","","","",""
"172","","bandit","232","812993","0.0-194.0-0.0","36591335","wem/bandit_single","A1VPE05UDNFKGV","gain","6","","76","L","3","","1","0","0","0.4706110477","","false","157","0.2681960896","","main_expt","0.4791259403","","0.1314384861","","0.4706110477","","","","","","",""
"340","","bandit","233","815110","0.0-195.0-0.0","36591335","wem/bandit_single","A1VPE05UDNFKGV","gain","6","","76","L","3","","0","0","1","0.4469873257","","false","158","0.2540197996","","main_expt","0.4733263956","","0.181857365","","0.4469873257","","","","","","",""
"155","","bandit","234","817046","0.0-196.0-0.0","36591335","wem/bandit_single","A1VPE05UDNFKGV","gain","6","","76","L","3","","1","0","0","0.4239904196","","false","159","0.2609952623","","main_expt","0.4815819336","","0.158015958","","0.4239904196","","","","","","",""
"205","","bandit","235","819029","0.0-197.0-0.0","36591335","wem/bandit_single","A1VPE05UDNFKGV","gain","6","","76","L","3","","1","0","0","0.4459131135","","false","160","0.2023108268","","main_expt","0.4721468952","","0.141078422","","0.4459131135","","","","","","",""
"322","","bandit","236","821130","0.0-198.0-0.0","36591335","wem/bandit_single","A1VPE05UDNFKGV","gain","6","","76","L","3","","0","0","1","0.4186734055","","false","161","0.2500661268","","main_expt","0.4711146003","","0.1347361735","","0.4186734055","","","","","","",""
"161","","bandit","237","823070","0.0-199.0-0.0","36591335","wem/bandit_single","A1VPE05UDNFKGV","gain","6","","76","L","3","","0","0","1","0.3857154427","","false","162","0.2540596089","","main_expt","0.4712261849","","0.09535719087","","0.3857154427","","","","","","",""
"135","","bandit","238","824985","0.0-200.0-0.0","36591335","wem/bandit_single","A1VPE05UDNFKGV","gain","6","","76","L","3","","1","0","0","0.4174701589","","false","163","0.2601053227","","main_expt","0.4845321786","","0.08326456225","","0.4174701589","","","","","","",""
"247","","bandit","239","827008","0.0-201.0-0.0","36591335","wem/bandit_single","A1VPE05UDNFKGV","gain","6","","76","L","3","","1","0","0","0.3890878976","","false","164","0.2541421927","","main_expt","0.4759389929","","0.09053498257","","0.3890878976","","","","","","",""
"195","","bandit","240","828979","0.0-202.0-0.0","36591335","wem/bandit_single","A1VPE05UDNFKGV","gain","6","","76","L","3","","1","0","0","0.4138915172","","false","165","0.2481661974","","main_expt","0.4720948066","","0.08506048778","","0.4138915172","","","","","","",""
"204","","bandit","241","830963","0.0-203.0-0.0","36591335","wem/bandit_single","A1VPE05UDNFKGV","gain","6","","76","L","3","","1","0","0","0.3965001983","","false","166","0.2774316831","","main_expt","0.4785392204","","0.1313511463","","0.3965001983","","","","","","",""
"116","","bandit","242","832857","0.0-204.0-0.0","36591335","wem/bandit_single","A1VPE05UDNFKGV","gain","6","","76","L","3","","0","0","1","0.3565429409","","false","167","0.2487678046","","main_expt","0.4807372421","","0.1176964862","","0.3565429409","","","","","","",""
"203","","bandit","243","834839","0.0-205.0-0.0","36591335","wem/bandit_single","A1VPE05UDNFKGV","gain","6","","76","L","3","","0","0","1","0.3697134737","","false","168","0.3058486258","","main_expt","0.4679921472","","0.08442850793","","0.3697134737","","","","","","",""
"186","","bandit","244","836804","0.0-206.0-0.0","36591335","wem/bandit_single","A1VPE05UDNFKGV","gain","6","","76","L","3","","0","0","1","0.3754926497","","false","169","0.3196595105","","main_expt","0.4504326489","","0.08508452716","","0.3754926497","","","","","","",""
"203","","bandit","245","838785","0.0-207.0-0.0","36591335","wem/bandit_single","A1VPE05UDNFKGV","gain","6","","72","H","0","img/none_selected.jpg","1","0","0","0.2675331271","","false","170","0.2675331271","","main_expt","0.4575738232","","0.06647736925","","0.3688606114","","","","","","",""
"248","","bandit","246","840808","0.0-208.0-0.0","36591335","wem/bandit_single","A1VPE05UDNFKGV","gain","6","","72","H","0","img/none_selected.jpg","1","0","0","0.2898788388","","false","171","0.2898788388","","main_expt","0.4515033555","","0.05048422731","","0.3548436987","","","","","","",""
"306","","bandit","247","842891","0.0-209.0-0.0","36591335","wem/bandit_single","A1VPE05UDNFKGV","gain","6","","72","H","0","img/none_selected.jpg","0","0","1","0.3066863737","","false","172","0.3066863737","","main_expt","0.4804896953","","0.05782489063","","0.3789739593","","","","","","",""
"398","","bandit","248","845069","0.0-210.0-0.0","36591335","wem/bandit_single","A1VPE05UDNFKGV","gain","6","","72","H","0","img/none_selected.jpg","1","0","0","0.2694007619","","false","173","0.2694007619","","main_expt","0.4915792717","","0.05297704283","","0.361488512","","","","","","",""
"361","","bandit","249","847208","0.0-211.0-0.0","36591335","wem/bandit_single","A1VPE05UDNFKGV","gain","6","","72","H","0","img/none_selected.jpg","0","0","1","0.2754062015","","false","174","0.2754062015","","main_expt","0.4861742571","","0.05353397103","","0.3460135238","","","","","","",""
"302","","bandit","250","849286","0.0-212.0-0.0","36591335","wem/bandit_single","A1VPE05UDNFKGV","gain","6","","72","H","0","img/none_selected.jpg","0","0","1","0.296446081","","false","175","0.296446081","","main_expt","0.4817940596","","0.03778759003","","0.3522158256","","","","","","",""
"984","","bandit","251","852041","0.0-213.0-0.0","36591335","wem/bandit_single","A1VPE05UDNFKGV","gain","6","","75","K","2","","0","0","1","0.02527008277","","false","176","0.3058710094","","main_expt","0.4757066075","","0.02527008277","","0.2998164985","","","","","","",""
"244","","bandit","252","854062","0.0-214.0-0.0","36591335","wem/bandit_single","A1VPE05UDNFKGV","gain","6","","75","K","2","","0","0","1","0.03305249037","","false","177","0.2349503117","","main_expt","0.4781570811","","0.03305249037","","0.2523084086","","","","","","",""
"944","","bandit","253","856779","0.0-215.0-0.0","36591335","wem/bandit_single","A1VPE05UDNFKGV","gain","6","","74","J","1","","1","0","0","0.4800614517","","false","178","0.2619038699","","main_expt","0.4800614517","","0.03386287722","","0.304071788","","","","","","",""
"564","","bandit","254","859120","0.0-216.0-0.0","36591335","wem/bandit_single","A1VPE05UDNFKGV","gain","6","","74","J","1","","0","0","1","0.4829502963","","false","179","0.2830684205","","main_expt","0.4829502963","","0.04065763291","","0.2871062198","","","","","","",""
"234","","bandit","255","861131","0.0-217.0-0.0","36591335","wem/bandit_single","A1VPE05UDNFKGV","gain","6","","74","J","1","","1","0","0","0.4858173281","","false","180","0.3534450431","","main_expt","0.4858173281","","0.05743716857","","0.2266659288","","","","","","",""
"476","","bandit","256","863385","0.0-218.0-0.0","36591335","wem/bandit_single","A1VPE05UDNFKGV","gain","6","","74","J","1","","1","0","0","0.4744777914","","false","181","0.3212605574","","main_expt","0.4744777914","","0.04418568229","","0.221928096","","","","","","",""
"450","","bandit","257","865612","0.0-219.0-0.0","36591335","wem/bandit_single","A1VPE05UDNFKGV","gain","6","","74","J","1","","0","0","1","0.4845259409","","false","182","0.3315430587","","main_expt","0.4845259409","","0.08176319179","","0.2300829386","","","","","","",""
"266","","bandit","258","867654","0.0-220.0-0.0","36591335","wem/bandit_single","A1VPE05UDNFKGV","gain","6","","74","J","1","","1","0","0","0.481953826","","false","183","0.3284942609","","main_expt","0.481953826","","0.127405614","","0.236046558","","","","","","",""
"431","","bandit","259","869866","0.0-221.0-0.0","36591335","wem/bandit_single","A1VPE05UDNFKGV","gain","6","","74","J","1","","1","0","0","0.4855041368","","false","184","0.3122619856","","main_expt","0.4855041368","","0.08615736955","","0.2923178249","","","","","","",""
"956","","bandit","260","872600","0.0-222.0-0.0","36591335","wem/bandit_single","A1VPE05UDNFKGV","gain","6","","74","J","1","","0","0","1","0.4698046591","","false","185","0.2923416166","","main_expt","0.4698046591","","0.1184297318","","0.2808840613","","","","","","",""
"221","","bandit","261","874601","0.0-223.0-0.0","36591335","wem/bandit_single","A1VPE05UDNFKGV","gain","6","","74","J","1","","0","0","1","0.4595088788","","false","186","0.2743414945","","main_expt","0.4595088788","","0.1909222977","","0.2016881086","","","","","","",""
"314","","bandit","262","876694","0.0-224.0-0.0","36591335","wem/bandit_single","A1VPE05UDNFKGV","gain","6","","74","J","1","","0","0","1","0.4646501277","","false","187","0.3313242874","","main_expt","0.4646501277","","0.156943311","","0.2403842116","","","","","","",""
"393","","bandit","263","878868","0.0-225.0-0.0","36591335","wem/bandit_single","A1VPE05UDNFKGV","gain","6","","76","L","3","","0","0","1","0.2559443775","","false","188","0.3665806697","","main_expt","0.4587354039","","0.139104156","","0.2559443775","","","","","","",""
"203","","bandit","264","880849","0.0-226.0-0.0","36591335","wem/bandit_single","A1VPE05UDNFKGV","gain","6","","76","L","3","","0","0","1","0.2450962267","","false","189","0.3982105691","","main_expt","0.4433819168","","0.1984961232","","0.2450962267","","","","","","",""
"242","","bandit","265","882870","0.0-227.0-0.0","36591335","wem/bandit_single","A1VPE05UDNFKGV","gain","6","","72","H","0","img/none_selected.jpg","0","0","1","0.4063069195","","false","190","0.4063069195","","main_expt","0.441597313","","0.3152507924","","0.2520413598","","","","","","",""
"232","","bandit","266","884879","0.0-228.0-0.0","36591335","wem/bandit_single","A1VPE05UDNFKGV","gain","6","","72","H","0","img/none_selected.jpg","1","0","0","0.4073058099","","false","191","0.4073058099","","main_expt","0.4447050695","","0.34868685","","0.3069822625","","","","","","",""
"246","","bandit","267","886904","0.0-229.0-0.0","36591335","wem/bandit_single","A1VPE05UDNFKGV","gain","6","","72","H","0","img/none_selected.jpg","1","0","0","0.3597632315","","false","192","0.3597632315","","main_expt","0.3903647542","","0.3244392246","","0.269658105","","","","","","",""
"399","","bandit","268","889083","0.0-230.0-0.0","36591335","wem/bandit_single","A1VPE05UDNFKGV","gain","6","","72","H","0","img/none_selected.jpg","0","0","1","0.3512918873","","false","193","0.3512918873","","main_expt","0.37796371","","0.3077199203","","0.2337652902","","","","","","",""
"234","","bandit","269","891097","0.0-231.0-0.0","36591335","wem/bandit_single","A1VPE05UDNFKGV","gain","6","","72","H","0","img/none_selected.jpg","0","0","1","0.2959519196","","false","194","0.2959519196","","main_expt","0.4130200877","","0.3089314305","","0.232364398","","","","","","",""
"216","","bandit","270","893094","0.0-232.0-0.0","36591335","wem/bandit_single","A1VPE05UDNFKGV","gain","6","","72","H","0","img/none_selected.jpg","1","0","0","0.335494982","","false","195","0.335494982","","main_expt","0.4247195967","","0.2747286701","","0.3001816851","","","","","","",""
"346","","bandit","271","895215","0.0-233.0-0.0","36591335","wem/bandit_single","A1VPE05UDNFKGV","gain","6","","72","H","0","img/none_selected.jpg","1","0","0","0.349715921","","false","196","0.349715921","","main_expt","0.4243543636","","0.234477082","","0.3408234979","","","","","","",""
"194","","bandit","272","897191","0.0-234.0-0.0","36591335","wem/bandit_single","A1VPE05UDNFKGV","gain","6","","72","H","0","img/none_selected.jpg","1","0","0","0.301359959","","false","197","0.301359959","","main_expt","0.3856928417","","0.2134381397","","0.3048500693","","","","","","",""
"193","","bandit","273","899162","0.0-235.0-0.0","36591335","wem/bandit_single","A1VPE05UDNFKGV","gain","6","","72","H","0","img/none_selected.jpg","0","0","1","0.2948231879","","false","198","0.2948231879","","main_expt","0.3619593125","","0.1732682886","","0.320222978","","","","","","",""
"191","","bandit","274","901133","0.0-236.0-0.0","36591335","wem/bandit_single","A1VPE05UDNFKGV","gain","6","","72","H","0","img/none_selected.jpg","0","0","1","0.2739130918","","false","199","0.2739130918","","main_expt","0.367752629","","0.1702760897","","0.3267381451","","","","","","",""
"213","","bandit","275","903123","0.0-237.0-0.0","36591335","wem/bandit_single","A1VPE05UDNFKGV","gain","6","","72","H","0","img/none_selected.jpg","1","0","0","0.2519174554","","false","200","0.2519174554","","main_expt","0.3243939248","","0.1149890083","","0.3471124056","","","","","","",""
"261","","bandit","276","905156","0.0-238.0-0.0","36591335","wem/bandit_single","A1VPE05UDNFKGV","gain","6","","72","H","0","img/none_selected.jpg","0","0","1","0.2607800984","","false","201","0.2607800984","","main_expt","0.309205964","","0.1378425817","","0.377370495","","","","","","",""
"201","","bandit","277","907134","0.0-239.0-0.0","36591335","wem/bandit_single","A1VPE05UDNFKGV","gain","6","","72","H","0","img/none_selected.jpg","0","0","1","0.2144757733","","false","202","0.2144757733","","main_expt","0.2762714965","","0.1351165101","","0.4118986778","","","","","","",""
"308","","bandit","278","909221","0.0-240.0-0.0","36591335","wem/bandit_single","A1VPE05UDNFKGV","gain","6","","72","H","0","img/none_selected.jpg","0","0","1","0.3006883459","","false","203","0.3006883459","","main_expt","0.296808735","","0.105254576","","0.4232074982","","","","","","",""
"324","","bandit","279","911323","0.0-241.0-0.0","36591335","wem/bandit_single","A1VPE05UDNFKGV","gain","6","","72","H","0","img/none_selected.jpg","0","0","1","0.3059688055","","false","204","0.3059688055","","main_expt","0.3198559136","","0.09939331469","","0.422672589","","","","","","",""
"386","","bandit","280","913488","0.0-242.0-0.0","36591335","wem/bandit_single","A1VPE05UDNFKGV","gain","6","","76","L","3","","1","0","0","0.4290364806","","false","205","0.2810212056","","main_expt","0.3814451683","","0.1099723927","","0.4290364806","","","","","","",""
"365","","bandit","281","915630","0.0-243.0-0.0","36591335","wem/bandit_single","A1VPE05UDNFKGV","gain","6","","76","L","3","","1","0","0","0.4412489094","","false","206","0.2427537705","","main_expt","0.3836436308","","0.1203356594","","0.4412489094","","","","","","",""
"146","","bandit","282","917558","0.0-244.0-0.0","36591335","wem/bandit_single","A1VPE05UDNFKGV","gain","6","","76","L","3","","1","0","0","0.461161346","","false","207","0.2312113295","","main_expt","0.3943212714","","0.1887874267","","0.461161346","","","","","","",""
"91","","bandit","283","919429","0.0-245.0-0.0","36591335","wem/bandit_single","A1VPE05UDNFKGV","gain","6","","76","L","3","","1","0","0","0.4749000037","","false","208","0.2502246517","","main_expt","0.4100076043","","0.1570662604","","0.4749000037","","","","","","",""
"166","","bandit","284","921376","0.0-246.0-0.0","36591335","wem/bandit_single","A1VPE05UDNFKGV","gain","6","","76","L","3","","0","0","1","0.4677638209","","false","209","0.2378747501","","main_expt","0.4207901851","","0.2050570797","","0.4677638209","","","","","","",""
"118","","bandit","285","923274","0.0-247.0-0.0","36591335","wem/bandit_single","A1VPE05UDNFKGV","gain","6","","76","L","3","","1","0","0","0.4507398287","","false","210","0.2323826376","","main_expt","0.4261573075","","0.1803355731","","0.4507398287","","","","","","",""
"147","","bandit","286","925200","0.0-248.0-0.0","36591335","wem/bandit_single","A1VPE05UDNFKGV","gain","6","","76","L","3","","0","0","1","0.4275102647","","false","211","0.2346446126","","main_expt","0.3677002177","","0.2066302241","","0.4275102647","","","","","","",""
"53","","bandit","287","927030","0.0-249.0-0.0","36591335","wem/bandit_single","A1VPE05UDNFKGV","gain","6","","76","L","3","","1","0","0","0.4147803006","","false","212","0.2017096022","","main_expt","0.4030871251","","0.2190460355","","0.4147803006","","","","","","",""
"59","","bandit","288","928870","0.0-250.0-0.0","36591335","wem/bandit_single","A1VPE05UDNFKGV","gain","6","","76","L","3","","0","0","1","0.4119553225","","false","213","0.2149770465","","main_expt","0.3616850983","","0.2433731683","","0.4119553225","","","","","","",""
"159","","bandit","289","930805","0.0-251.0-0.0","36591335","wem/bandit_single","A1VPE05UDNFKGV","gain","6","","76","L","3","","1","0","0","0.4097086646","","false","214","0.2323699387","","main_expt","0.3380837625","","0.2355486522","","0.4097086646","","","","","","",""
"224","","bandit","290","932809","0.0-252.0-0.0","36591335","wem/bandit_single","A1VPE05UDNFKGV","gain","6","","76","L","3","","0","0","1","0.4553079268","","false","215","0.1880023584","","main_expt","0.3788103814","","0.2493822419","","0.4553079268","","","","","","",""
"66","","bandit","291","934654","0.0-253.0-0.0","36591335","wem/bandit_single","A1VPE05UDNFKGV","gain","6","","76","L","3","","0","0","1","0.4360341733","","false","216","0.2305078945","","main_expt","0.3844600678","","0.2455091026","","0.4360341733","","","","","","",""
"120","","bandit","292","936555","0.0-254.0-0.0","36591335","wem/bandit_single","A1VPE05UDNFKGV","gain","6","","76","L","3","","0","0","1","0.4337093526","","false","217","0.2042922501","","main_expt","0.3747540642","","0.193913996","","0.4337093526","","","","","","",""
"722","","bandit","293","939055","0.0-255.0-0.0","36591335","wem/bandit_single","A1VPE05UDNFKGV","gain","6","","75","K","2","","0","0","1","0.2375794361","","false","218","0.1827914188","","main_expt","0.373903774","","0.2375794361","","0.4646024675","","","","","","",""
"211","","bandit","294","941045","0.0-256.0-0.0","36591335","wem/bandit_single","A1VPE05UDNFKGV","gain","6","","75","K","2","","0","0","1","0.2477723709","","false","219","0.2630445196","","main_expt","0.3735380413","","0.2477723709","","0.4630893692","","","","","","",""
"330","","bandit","295","943154","0.0-257.0-0.0","36591335","wem/bandit_single","A1VPE05UDNFKGV","gain","6","","72","H","0","img/none_selected.jpg","0","0","1","0.311946342","","false","220","0.311946342","","main_expt","0.383917491","","0.2543503475","","0.4683356487","","","","","","",""
"221","","bandit","296","945155","0.0-258.0-0.0","36591335","wem/bandit_single","A1VPE05UDNFKGV","gain","6","","72","H","0","img/none_selected.jpg","0","0","1","0.2972788283","","false","221","0.2972788283","","main_expt","0.3479973737","","0.2776519347","","0.4682635517","","","","","","",""
"603","","bandit","297","947535","0.0-259.0-0.0","36591335","wem/bandit_single","A1VPE05UDNFKGV","gain","6","","74","J","1","","1","0","0","0.3845595158","","false","222","0.3550400804","","main_expt","0.3845595158","","0.2291835432","","0.4771668828","","","","","","",""
"352","","bandit","298","949665","0.0-260.0-0.0","36591335","wem/bandit_single","A1VPE05UDNFKGV","gain","6","","74","J","1","","1","0","0","0.368723436","","false","223","0.3246239653","","main_expt","0.368723436","","0.2266132179","","0.4773959318","","","","","","",""
"406","","bandit","299","951852","0.0-261.0-0.0","36591335","wem/bandit_single","A1VPE05UDNFKGV","gain","6","","74","J","1","","0","0","1","0.3566991655","","false","224","0.351266899","","main_expt","0.3566991655","","0.2124948974","","0.4567335023","","","","","","",""
"425","","bandit","300","954054","0.0-262.0-0.0","36591335","wem/bandit_single","A1VPE05UDNFKGV","gain","6","","74","J","1","","0","0","1","0.3557331736","","false","225","0.3617362435","","main_expt","0.3557331736","","0.2168010387","","0.4545703871","","","","","","",""
"304","","bandit","301","956140","0.0-263.0-0.0","36591335","wem/bandit_single","A1VPE05UDNFKGV","gain","6","","76","L","3","","1","0","0","0.4563055184","","false","226","0.3625162538","","main_expt","0.3620904828","","0.2286352314","","0.4563055184","","","","","","",""
"235","","bandit","302","958156","0.0-264.0-0.0","36591335","wem/bandit_single","A1VPE05UDNFKGV","gain","6","","76","L","3","","1","0","0","0.4414344485","","false","227","0.3638477037","","main_expt","0.3794330306","","0.2349833204","","0.4414344485","","","","","","",""
"356","","bandit","303","960289","0.0-265.0-0.0","36591335","wem/bandit_single","A1VPE05UDNFKGV","gain","6","","76","L","3","","0","0","1","0.4509897562","","false","228","0.321865515","","main_expt","0.3480060926","","0.2376541641","","0.4509897562","","","","","","",""
"107","","bandit","304","962175","0.0-266.0-0.0","36591335","wem/bandit_single","A1VPE05UDNFKGV","gain","6","","76","L","3","","1","0","0","0.4355264455","","false","229","0.2574970425","","main_expt","0.3197951212","","0.2141250471","","0.4355264455","","","","","","",""
"341","","bandit","305","964295","0.0-267.0-0.0","36591335","wem/bandit_single","A1VPE05UDNFKGV","gain","6","","76","L","3","","0","0","1","0.4393215817","","false","230","0.3167366343","","main_expt","0.2360623461","","0.1986478114","","0.4393215817","","","","","","",""
"106","","bandit","306","966179","0.0-268.0-0.0","36591335","wem/bandit_single","A1VPE05UDNFKGV","gain","6","","76","L","3","","0","0","1","0.426442838","","false","231","0.359889087","","main_expt","0.228441671","","0.1632677176","","0.426442838","","","","","","",""
"280","","bandit","307","968239","0.0-269.0-0.0","36591335","wem/bandit_single","A1VPE05UDNFKGV","gain","6","","72","H","0","img/none_selected.jpg","0","0","1","0.3765691143","","false","232","0.3765691143","","main_expt","0.2233622879","","0.1437929512","","0.4455015341","","","","","","",""
"251","","bandit","308","970277","0.0-270.0-0.0","36591335","wem/bandit_single","A1VPE05UDNFKGV","gain","6","","72","H","0","img/none_selected.jpg","1","0","0","0.351320345","","false","233","0.351320345","","main_expt","0.1782647691","","0.2490618922","","0.4370113712","","","","","","",""
"217","","bandit","309","972275","0.0-271.0-0.0","36591335","wem/bandit_single","A1VPE05UDNFKGV","gain","6","","72","H","0","img/none_selected.jpg","0","0","1","0.2997083133","","false","234","0.2997083133","","main_expt","0.1971530904","","0.2811602772","","0.4228056097","","","","","","",""
"222","","bandit","310","974279","0.0-272.0-0.0","36591335","wem/bandit_single","A1VPE05UDNFKGV","gain","6","","72","H","0","img/none_selected.jpg","0","0","1","0.3526624454","","false","235","0.3526624454","","main_expt","0.2109348075","","0.332316849","","0.4176536857","","","","","","",""
"600","","bandit","311","976658","0.0-273.0-0.0","36591335","wem/bandit_single","A1VPE05UDNFKGV","gain","6","","75","K","2","","0","0","1","0.3059905229","","false","236","0.3050627859","","main_expt","0.1891579582","","0.3059905229","","0.419442654","","","","","","",""
"145","","bandit","312","978582","0.0-274.0-0.0","36591335","wem/bandit_single","A1VPE05UDNFKGV","gain","6","","75","K","2","","0","0","1","0.3058344165","","false","237","0.312969263","","main_expt","0.1278978542","","0.3058344165","","0.4082659589","","","","","","",""
"339","","bandit","313","980698","0.0-275.0-0.0","36591335","wem/bandit_single","A1VPE05UDNFKGV","gain","6","","74","J","1","","0","0","1","0.1509653188","","false","238","0.380225341","","main_expt","0.1509653188","","0.2931512536","","0.4108407801","","","","","","",""
"203","","bandit","314","982683","0.0-276.0-0.0","36591335","wem/bandit_single","A1VPE05UDNFKGV","gain","6","","74","J","1","","0","0","1","0.1919733462","","false","239","0.3657076542","","main_expt","0.1919733462","","0.2922133777","","0.4378360478","","","","","","",""
"428","","bandit","315","984890","0.0-277.0-0.0","36591335","wem/bandit_single","A1VPE05UDNFKGV","gain","6","","76","L","3","","0","0","1","0.4467030129","","false","240","0.3815359164","","main_expt","0.1751407906","","0.3452033359","","0.4467030129","","","","","","",""
"126","","bandit","316","986795","0.0-278.0-0.0","36591335","wem/bandit_single","A1VPE05UDNFKGV","gain","6","","76","L","3","","1","0","0","0.4705393647","","false","241","0.3251101936","","main_expt","0.1759125222","","0.3682897549","","0.4705393647","","","","","","",""
"377","","bandit","317","988954","0.0-279.0-0.0","36591335","wem/bandit_single","A1VPE05UDNFKGV","gain","6","","76","L","3","","1","0","0","0.4610792938","","false","242","0.3212185421","","main_expt","0.2137068054","","0.3628947189","","0.4610792938","","","","","","",""
"186","","bandit","318","990920","0.0-280.0-0.0","36591335","wem/bandit_single","A1VPE05UDNFKGV","gain","6","","76","L","3","","1","0","0","0.4437729889","","false","243","0.3270030252","","main_expt","0.2179170348","","0.3766569032","","0.4437729889","","","","","","",""
"246","","bandit","319","992945","0.0-281.0-0.0","36591335","wem/bandit_single","A1VPE05UDNFKGV","gain","6","","76","L","3","","0","0","1","0.4199869792","","false","244","0.309973419","","main_expt","0.2426329099","","0.377991886","","0.4199869792","","","","","","",""
"204","","bandit","320","994928","0.0-282.0-0.0","36591335","wem/bandit_single","A1VPE05UDNFKGV","gain","6","","76","L","3","","0","0","1","0.4183767379","","false","245","0.3342881273","","main_expt","0.2351694379","","0.304751896","","0.4183767379","","","","","","",""
"238","","bandit","321","996947","0.0-283.0-0.0","36591335","wem/bandit_single","A1VPE05UDNFKGV","gain","6","","72","H","0","img/none_selected.jpg","0","0","1","0.3149240913","","false","246","0.3149240913","","main_expt","0.2111663312","","0.3348187262","","0.4292136751","","","","","","",""
"283","","bandit","322","999012","0.0-284.0-0.0","36591335","wem/bandit_single","A1VPE05UDNFKGV","gain","6","","72","H","0","img/none_selected.jpg","0","0","1","0.296458043","","false","247","0.296458043","","main_expt","0.1899020887","","0.3307987246","","0.4577956797","","","","","","",""
"376","","bandit","323","1001166","0.0-285.0-0.0","36591335","wem/bandit_single","A1VPE05UDNFKGV","gain","6","","74","J","1","","0","0","1","0.2151484255","","false","248","0.3038576119","","main_expt","0.2151484255","","0.3774544282","","0.4586239927","","","","","","",""
"243","","bandit","324","1003189","0.0-286.0-0.0","36591335","wem/bandit_single","A1VPE05UDNFKGV","gain","6","","74","J","1","","1","0","0","0.2454548658","","false","249","0.3383832125","","main_expt","0.2454548658","","0.3553688181","","0.4709187109","","","","","","",""
"635","","bandit","325","1005605","0.0-287.0-0.0","36591335","wem/bandit_single","A1VPE05UDNFKGV","gain","6","","74","J","1","","0","0","1","0.1973527755","","false","250","0.3505221498","","main_expt","0.1973527755","","0.3209961504","","0.4742496359","","","","","","",""
"247","","bandit","326","1007632","0.0-288.0-0.0","36591335","wem/bandit_single","A1VPE05UDNFKGV","gain","6","","74","J","1","","0","0","1","0.2459600056","","false","251","0.3439557404","","main_expt","0.2459600056","","0.2938420796","","0.4684276702","","","","","","",""
"392","","bandit","327","1009805","0.0-289.0-0.0","36591335","wem/bandit_single","A1VPE05UDNFKGV","gain","6","","76","L","3","","0","0","1","0.465775704","","false","252","0.3394881367","","main_expt","0.2361341643","","0.2377141092","","0.465775704","","","","","","",""
"162","","bandit","328","1011750","0.0-290.0-0.0","36591335","wem/bandit_single","A1VPE05UDNFKGV","gain","6","","76","L","3","","0","0","1","0.4739398589","","false","253","0.3195186677","","main_expt","0.2263014677","","0.28098189","","0.4739398589","","","","","","",""
"251","","bandit","329","1013782","0.0-291.0-0.0","36591335","wem/bandit_single","A1VPE05UDNFKGV","gain","6","","75","K","2","","1","0","0","0.36168886","","false","254","0.3607388593","","main_expt","0.2384195691","","0.36168886","","0.4709597483","","","","","","",""
"382","","bandit","330","1015946","0.0-292.0-0.0","36591335","wem/bandit_single","A1VPE05UDNFKGV","gain","6","","75","K","2","","0","0","1","0.3196270919","","false","255","0.3801942793","","main_expt","0.2186709452","","0.3196270919","","0.468651231","","","","","","",""
"116","","bandit","331","1017844","0.0-293.0-0.0","36591335","wem/bandit_single","A1VPE05UDNFKGV","gain","6","","75","K","2","","0","0","1","0.3201998045","","false","256","0.2987962353","","main_expt","0.1625458568","","0.3201998045","","0.4837462493","","","","","","",""
"280","","bandit","332","1019904","0.0-294.0-0.0","36591335","wem/bandit_single","A1VPE05UDNFKGV","gain","6","","76","L","3","","1","0","0","0.4842399178","","false","257","0.272571782","","main_expt","0.159361747","","0.3576002339","","0.4842399178","","","","","","",""
"250","","bandit","333","1021936","0.0-295.0-0.0","36591335","wem/bandit_single","A1VPE05UDNFKGV","gain","6","","76","L","3","","0","0","1","0.4878873921","","false","258","0.2593204486","","main_expt","0.1556255119","","0.3715220428","","0.4878873921","","","","","","",""
"169","","bandit","334","1023886","0.0-296.0-0.0","36591335","wem/bandit_single","A1VPE05UDNFKGV","gain","6","","76","L","3","","1","0","0","0.4869160663","","false","259","0.2951424317","","main_expt","0.1256368346","","0.3730860303","","0.4869160663","","","","","","",""
"181","","bandit","335","1025847","0.0-297.0-0.0","36591335","wem/bandit_single","A1VPE05UDNFKGV","gain","6","","76","L","3","","0","0","1","0.4912834456","","false","260","0.2369093976","","main_expt","0.1449854444","","0.3724964978","","0.4912834456","","","","","","",""
"125","","bandit","336","1027753","0.0-298.0-0.0","36591335","wem/bandit_single","A1VPE05UDNFKGV","gain","6","","76","L","3","","0","0","1","0.4907072989","","false","261","0.2234433316","","main_expt","0.1647157085","","0.3574286068","","0.4907072989","","","","","","",""
"263","","bandit","337","1029796","0.0-299.0-0.0","36591335","wem/bandit_single","A1VPE05UDNFKGV","gain","6","","72","H","0","img/none_selected.jpg","0","0","1","0.215626833","","false","262","0.215626833","","main_expt","0.1586541082","","0.4204463107","","0.4904114062","","","","","","",""
"191","","bandit","338","1031766","0.0-300.0-0.0","36591335","wem/bandit_single","A1VPE05UDNFKGV","gain","6","","72","H","0","img/none_selected.jpg","0","0","1","0.2227197798","","false","263","0.2227197798","","main_expt","0.1683870388","","0.4244263348","","0.4900075499","","","","","","",""
"290","","bandit","339","1033839","0.0-301.0-0.0","36591335","wem/bandit_single","A1VPE05UDNFKGV","gain","6","","76","L","3","","1","0","0","0.4922230388","","false","264","0.2113558788","","main_expt","0.2205087037","","0.4217668892","","0.4922230388","","","","","","",""
"200","","bandit","340","1035820","0.0-302.0-0.0","36591335","wem/bandit_single","A1VPE05UDNFKGV","gain","6","","76","L","3","","1","0","0","0.4892111554","","false","265","0.1814287308","","main_expt","0.1554736059","","0.3908218086","","0.4892111554","","","","","","",""
"732","","bandit","341","1038334","0.0-303.0-0.0","36591335","wem/bandit_single","A1VPE05UDNFKGV","gain","6","","76","L","3","","0","0","1","0.4894097466","","false","266","0.2579261203","","main_expt","0.1556775797","","0.350583855","","0.4894097466","","","","","","",""
"54","","bandit","342","1040168","0.0-304.0-0.0","36591335","wem/bandit_single","A1VPE05UDNFKGV","gain","6","","76","L","3","","0","0","1","0.4898547377","","false","267","0.3033521226","","main_expt","0.1732223335","","0.2971845499","","0.4898547377","","","","","","",""
"222","","bandit","343","1042171","0.0-305.0-0.0","36591335","wem/bandit_single","A1VPE05UDNFKGV","gain","6","","76","L","3","","0","0","1","0.4960714099","","false","268","0.2697057224","","main_expt","0.1670192172","","0.3271935382","","0.4960714099","","","","","","",""
"304","","bandit","344","1044256","0.0-306.0-0.0","36591335","wem/bandit_single","A1VPE05UDNFKGV","gain","6","","74","J","1","","0","0","1","0.1666577124","","false","269","0.3075876552","","main_expt","0.1666577124","","0.2912245063","","0.4951393121","","","","","","",""
"187","","bandit","345","1046223","0.0-307.0-0.0","36591335","wem/bandit_single","A1VPE05UDNFKGV","gain","6","","74","J","1","","0","0","1","0.1133531577","","false","270","0.3437361696","","main_expt","0.1133531577","","0.3007980493","","0.4903783272","","","","","","",""
"327","","bandit","346","1048334","0.0-308.0-0.0","36591335","wem/bandit_single","A1VPE05UDNFKGV","gain","6","","75","K","2","","0","0","1","0.3025875308","","false","271","0.2596534978","","main_expt","0.1453503833","","0.3025875308","","0.4932948231","","","","","","",""
"177","","bandit","347","1050287","0.0-309.0-0.0","36591335","wem/bandit_single","A1VPE05UDNFKGV","gain","6","","75","K","2","","1","0","0","0.2608882705","","false","272","0.2680739133","","main_expt","0.1542373291","","0.2608882705","","0.4950636705","","","","","","",""
"297","","bandit","348","1052363","0.0-310.0-0.0","36591335","wem/bandit_single","A1VPE05UDNFKGV","gain","6","","75","K","2","","1","0","0","0.2985246063","","false","273","0.2287209558","","main_expt","0.1312836042","","0.2985246063","","0.4866982898","","","","","","",""
"277","","bandit","349","1054419","0.0-311.0-0.0","36591335","wem/bandit_single","A1VPE05UDNFKGV","gain","6","","75","K","2","","1","0","0","0.296104213","","false","274","0.2659047846","","main_expt","0.1616535947","","0.296104213","","0.4654226264","","","","","","",""
"420","","bandit","350","1056620","0.0-312.0-0.0","36591335","wem/bandit_single","A1VPE05UDNFKGV","gain","6","","75","K","2","","1","0","0","0.2897414639","","false","275","0.2303642271","","main_expt","0.163822666","","0.2897414639","","0.4633702838","","","","","","",""
"279","","bandit","351","1058684","0.0-313.0-0.0","36591335","wem/bandit_single","A1VPE05UDNFKGV","gain","6","","75","K","2","","0","0","1","0.296822441","","false","276","0.2631654739","","main_expt","0.1500588852","","0.296822441","","0.4741710053","","","","","","",""
"198","","bandit","352","1060663","0.0-314.0-0.0","36591335","wem/bandit_single","A1VPE05UDNFKGV","gain","6","","75","K","2","","1","0","0","0.2769528726","","false","277","0.2660527836","","main_expt","0.1975700973","","0.2769528726","","0.4821206929","","","","","","",""
"151","","bandit","353","1062597","0.0-315.0-0.0","36591335","wem/bandit_single","A1VPE05UDNFKGV","gain","6","","75","K","2","","0","0","1","0.3356585436","","false","278","0.2869547209","","main_expt","0.1355298524","","0.3356585436","","0.4704549119","","","","","","",""
"233","","bandit","354","1064612","0.0-316.0-0.0","36591335","wem/bandit_single","A1VPE05UDNFKGV","gain","6","","75","K","2","","0","0","1","0.3222384225","","false","279","0.3594721793","","main_expt","0.1437345226","","0.3222384225","","0.4749598821","","","","","","",""
"392","","bandit","355","1066787","0.0-317.0-0.0","36591335","wem/bandit_single","A1VPE05UDNFKGV","gain","6","","75","K","2","","0","0","1","0.27346357","","false","280","0.3903699723","","main_expt","0.126787642","","0.27346357","","0.4385317488","","","","","","",""
"231","","bandit","356","1068798","0.0-318.0-0.0","36591335","wem/bandit_single","A1VPE05UDNFKGV","gain","6","","76","L","3","","0","0","1","0.4397970497","","false","281","0.4583904318","","main_expt","0.1765789866","","0.3633072925","","0.4397970497","","","","","","",""
"141","","bandit","357","1070719","0.0-319.0-0.0","36591335","wem/bandit_single","A1VPE05UDNFKGV","gain","6","","76","L","3","","1","0","0","0.4485424667","","false","282","0.4689346609","","main_expt","0.1659157347","","0.3269934488","","0.4485424667","","","","","","",""
"134","","bandit","358","1072633","0.0-320.0-0.0","36591335","wem/bandit_single","A1VPE05UDNFKGV","gain","6","","76","L","3","","0","0","1","0.4460930912","","false","283","0.460541741","","main_expt","0.1876778028","","0.324321327","","0.4460930912","","","","","","",""
"81","","bandit","359","1074496","0.0-321.0-0.0","36591335","wem/bandit_single","A1VPE05UDNFKGV","gain","6","","76","L","3","","0","0","1","0.46041158","","false","284","0.4485703909","","main_expt","0.2072959333","","0.2677217275","","0.46041158","","","","","","",""
"206","","bandit","360","1076485","0.0-322.0-0.0","36591335","wem/bandit_single","A1VPE05UDNFKGV","gain","6","","72","H","0","img/none_selected.jpg","0","0","1","0.4493749552","","false","285","0.4493749552","","main_expt","0.2171876524","","0.2832280908","","0.4722631388","","","","","","",""
"274","","bandit","361","1078543","0.0-323.0-0.0","36591335","wem/bandit_single","A1VPE05UDNFKGV","gain","6","","72","H","0","img/none_selected.jpg","0","0","1","0.4223312446","","false","286","0.4223312446","","main_expt","0.224404947","","0.3338799161","","0.4710864859","","","","","","",""
"323","","bandit","362","1080647","0.0-324.0-0.0","36591335","wem/bandit_single","A1VPE05UDNFKGV","gain","6","","74","J","1","","1","0","0","0.2249093708","","false","287","0.457140216","","main_expt","0.2249093708","","0.3484096991","","0.4400158941","","","","","","",""
"343","","bandit","363","1082770","0.0-325.0-0.0","36591335","wem/bandit_single","A1VPE05UDNFKGV","gain","6","","74","J","1","","0","0","1","0.2219747159","","false","288","0.4411377771","","main_expt","0.2219747159","","0.3215301514","","0.4036546776","","","","","","",""
"169","","bandit","364","1084720","0.0-326.0-0.0","36591335","wem/bandit_single","A1VPE05UDNFKGV","gain","6","","74","J","1","","0","0","1","0.2183007497","","false","289","0.4501271696","","main_expt","0.2183007497","","0.2965974011","","0.4324218596","","","","","","",""
"724","","bandit","365","1087220","0.0-327.0-0.0","36591335","wem/bandit_single","A1VPE05UDNFKGV","gain","6","","76","L","3","","0","0","1","0.4536473803","","false","290","0.4436507911","","main_expt","0.2481136515","","0.2926361454","","0.4536473803","","","","","","",""
"163","","bandit","366","1089164","0.0-328.0-0.0","36591335","wem/bandit_single","A1VPE05UDNFKGV","gain","6","","76","L","3","","1","0","0","0.4634661847","","false","291","0.4381939672","","main_expt","0.2972088317","","0.243163711","","0.4634661847","","","","","","",""
"14","","bandit","367","1090960","0.0-329.0-0.0","36591335","wem/bandit_single","A1VPE05UDNFKGV","gain","6","","76","L","3","","0","0","1","0.4609966616","","false","292","0.4101305143","","main_expt","0.2998647236","","0.2064952975","","0.4609966616","","","","","","",""
"65","","bandit","368","1092810","0.0-330.0-0.0","36591335","wem/bandit_single","A1VPE05UDNFKGV","gain","6","","76","L","3","","0","0","1","0.4648618971","","false","293","0.4297915702","","main_expt","0.2861810992","","0.2099334792","","0.4648618971","","","","","","",""
"181","","bandit","369","1094775","0.0-331.0-0.0","36591335","wem/bandit_single","A1VPE05UDNFKGV","gain","6","","75","K","2","","1","0","0","0.2507358833","","false","294","0.4537219743","","main_expt","0.345484004","","0.2507358833","","0.4582487824","","","","","","",""
"282","","bandit","370","1096838","0.0-332.0-0.0","36591335","wem/bandit_single","A1VPE05UDNFKGV","gain","6","","75","K","2","","1","0","0","0.2494268831","","false","295","0.4694953972","","main_expt","0.3251772281","","0.2494268831","","0.4482247061","","","","","","",""
"463","","bandit","371","1099082","0.0-333.0-0.0","36591335","wem/bandit_single","A1VPE05UDNFKGV","gain","6","","75","K","2","","0","0","1","0.2867080039","","false","296","0.4880383038","","main_expt","0.2953905587","","0.2867080039","","0.42326912","","","","","","",""
"176","","bandit","372","1101041","0.0-334.0-0.0","36591335","wem/bandit_single","A1VPE05UDNFKGV","gain","6","","75","K","2","","0","0","1","0.2983387387","","false","297","0.4916251568","","main_expt","0.2717848064","","0.2983387387","","0.4151021773","","","","","","",""
"330","","bandit","373","1103154","0.0-335.0-0.0","36591335","wem/bandit_single","A1VPE05UDNFKGV","gain","6","","75","K","2","","0","0","1","0.2982690602","","false","298","0.4921476303","","main_expt","0.2682571213","","0.2982690602","","0.4270228344","","","","","","",""
