"rt","responses","trial_type","trial_index","time_elapsed","internal_node_id","subjID","study","MID","cond","drift","key_press","respCharCode","respKey","respChoiceNum","respChoice","gems","bombs","no_reward","GemPrChosen","BombPrChosen","practice","trial_counter","WinPr_0","LosePr_0","trial_label","WinPr_1","LosePr_1","WinPr_2","LosePr_2","WinPr_3","LosePr_3","Q0","Q1","Q2","gender","age","ethnicity"
"8342","{""Q0"":""AJWES6SFIP3AT""}","survey-text","0","8347","0.0-0.0","37629236","wem/bandit_single","AJWES6SFIP3AT","gain","6","","","","","","","","","","","","","","","","","","","","","","","","","","",""
"2516","","text","1","11872","0.0-1.0","37629236","wem/bandit_single","AJWES6SFIP3AT","gain","6","32","","","","","","","","","","","","","","","","","","","","","","","","","",""
"4431","","text","2","16308","0.0-2.0","37629236","wem/bandit_single","AJWES6SFIP3AT","gain","6","32","","","","","","","","","","","","","","","","","","","","","","","","","",""
"226315","","text","3","242629","0.0-3.0","37629236","wem/bandit_single","AJWES6SFIP3AT","gain","6","32","","","","","","","","","","","","","","","","","","","","","","","","","",""
"9330","","text","4","251963","0.0-4.0","37629236","wem/bandit_single","AJWES6SFIP3AT","gain","6","32","","","","","","","","","","","","","","","","","","","","","","","","","",""
"5887","","text","5","257852","0.0-5.0","37629236","wem/bandit_single","AJWES6SFIP3AT","gain","6","32","","","","","","","","","","","","","","","","","","","","","","","","","",""
"4178","","text","6","262033","0.0-6.0","37629236","wem/bandit_single","AJWES6SFIP3AT","gain","6","32","","","","","","","","","","","","","","","","","","","","","","","","","",""
"3387","","text","7","265421","0.0-7.0","37629236","wem/bandit_single","AJWES6SFIP3AT","gain","6","32","","","","","","","","","","","","","","","","","","","","","","","","","",""
"2954","","text","8","268377","0.0-8.0","37629236","wem/bandit_single","AJWES6SFIP3AT","gain","6","32","","","","","","","","","","","","","","","","","","","","","","","","","",""
"2092","","text","9","270473","0.0-9.0","37629236","wem/bandit_single","AJWES6SFIP3AT","gain","6","32","","","","","","","","","","","","","","","","","","","","","","","","","",""
"2966","","text","10","273443","0.0-10.0","37629236","wem/bandit_single","AJWES6SFIP3AT","gain","6","32","","","","","","","","","","","","","","","","","","","","","","","","","",""
"13117","","text","11","286565","0.0-11.0","37629236","wem/bandit_single","AJWES6SFIP3AT","gain","6","32","","","","","","","","","","","","","","","","","","","","","","","","","",""
"3550","","bandit","12","291639","0.0-12.0-0.0","37629236","wem/bandit_single","AJWES6SFIP3AT","gain","6","","74","J","0","img/none_selected_demo.jpg","0","0","1","0","0","true","0","0","0","","","","","","","","","","","","",""
"842","","bandit","13","294246","0.0-13.0-0.0","37629236","wem/bandit_single","AJWES6SFIP3AT","gain","6","","75","K","0","img/none_selected_demo.jpg","0","0","1","0","0","true","0","0","0","","","","","","","","","","","","",""
"1374","","text","14","295873","0.0-14.0","37629236","wem/bandit_single","AJWES6SFIP3AT","gain","6","32","","","","","","","","","","","","","","","","","","","","","","","","","",""
"875","","text","15","296752","0.0-15.0","37629236","wem/bandit_single","AJWES6SFIP3AT","gain","6","32","","","","","","","","","","","","","","","","","","","","","","","","","",""
"1949","","text","16","298704","0.0-16.0","37629236","wem/bandit_single","AJWES6SFIP3AT","gain","6","32","","","","","","","","","","","","","","","","","","","","","","","","","",""
"2311","","text","17","301017","0.0-17.0","37629236","wem/bandit_single","AJWES6SFIP3AT","gain","6","32","","","","","","","","","","","","","","","","","","","","","","","","","",""
"1692","","bandit","18","304217","0.0-18.0-0.0","37629236","wem/bandit_single","AJWES6SFIP3AT","gain","6","","75","K","1","","1","0","0","0.2","0","true","0","0.8","0","80_20_practice","0.2","0","","","","","","","","","",""
"141","","bandit","19","306116","0.0-18.0-1.0","37629236","wem/bandit_single","AJWES6SFIP3AT","gain","6","","75","K","1","","0","0","1","0.2","0","true","0","0.8","0","80_20_practice","0.2","0","","","","","","","","","",""
"643","","bandit","20","308515","0.0-18.0-2.0","37629236","wem/bandit_single","AJWES6SFIP3AT","gain","6","","75","K","1","","0","0","1","0.2","0","true","0","0.8","0","80_20_practice","0.2","0","","","","","","","","","",""
"304","","bandit","21","310576","0.0-18.0-3.0","37629236","wem/bandit_single","AJWES6SFIP3AT","gain","6","","74","J","0","img/none_selected_demo.jpg","1","0","0","0.8","0","true","0","0.8","0","80_20_practice","0.2","0","","","","","","","","","",""
"366","","bandit","22","312699","0.0-18.0-4.0","37629236","wem/bandit_single","AJWES6SFIP3AT","gain","6","","74","J","0","img/none_selected_demo.jpg","1","0","0","0.8","0","true","0","0.8","0","80_20_practice","0.2","0","","","","","","","","","",""
"1","","bandit","23","314459","0.0-18.0-5.0","37629236","wem/bandit_single","AJWES6SFIP3AT","gain","6","","74","J","0","img/none_selected_demo.jpg","1","0","0","0.8","0","true","0","0.8","0","80_20_practice","0.2","0","","","","","","","","","",""
"50","","bandit","24","316279","0.0-18.0-6.0","37629236","wem/bandit_single","AJWES6SFIP3AT","gain","6","","74","J","0","img/none_selected_demo.jpg","1","0","0","0.8","0","true","0","0.8","0","80_20_practice","0.2","0","","","","","","","","","",""
"54","","bandit","25","318098","0.0-18.0-7.0","37629236","wem/bandit_single","AJWES6SFIP3AT","gain","6","","74","J","0","img/none_selected_demo.jpg","1","0","0","0.8","0","true","0","0.8","0","80_20_practice","0.2","0","","","","","","","","","",""
"5","","bandit","26","319872","0.0-18.0-8.0","37629236","wem/bandit_single","AJWES6SFIP3AT","gain","6","","74","J","0","img/none_selected_demo.jpg","1","0","0","0.8","0","true","0","0.8","0","80_20_practice","0.2","0","","","","","","","","","",""
"121","","bandit","27","321758","0.0-18.0-9.0","37629236","wem/bandit_single","AJWES6SFIP3AT","gain","6","","74","J","0","img/none_selected_demo.jpg","1","0","0","0.8","0","true","0","0.8","0","80_20_practice","0.2","0","","","","","","","","","",""
"164","","bandit","28","323688","0.0-18.0-10.0","37629236","wem/bandit_single","AJWES6SFIP3AT","gain","6","","74","J","0","img/none_selected_demo.jpg","1","0","0","0.8","0","true","0","0.8","0","80_20_practice","0.2","0","","","","","","","","","",""
"60","","bandit","29","325507","0.0-18.0-11.0","37629236","wem/bandit_single","AJWES6SFIP3AT","gain","6","","74","J","0","img/none_selected_demo.jpg","1","0","0","0.8","0","true","0","0.8","0","80_20_practice","0.2","0","","","","","","","","","",""
"150","","bandit","30","327417","0.0-18.0-12.0","37629236","wem/bandit_single","AJWES6SFIP3AT","gain","6","","74","J","0","img/none_selected_demo.jpg","1","0","0","0.8","0","true","0","0.8","0","80_20_practice","0.2","0","","","","","","","","","",""
"159","","bandit","31","329334","0.0-18.0-13.0","37629236","wem/bandit_single","AJWES6SFIP3AT","gain","6","","74","J","0","img/none_selected_demo.jpg","1","0","0","0.8","0","true","0","0.8","0","80_20_practice","0.2","0","","","","","","","","","",""
"155","","bandit","32","331245","0.0-18.0-14.0","37629236","wem/bandit_single","AJWES6SFIP3AT","gain","6","","75","K","1","","0","0","1","0.2","0","true","0","0.8","0","80_20_practice","0.2","0","","","","","","","","","",""
"65","","bandit","33","333067","0.0-18.0-15.0","37629236","wem/bandit_single","AJWES6SFIP3AT","gain","6","","74","J","0","img/none_selected_demo.jpg","1","0","0","0.8","0","true","0","0.8","0","80_20_practice","0.2","0","","","","","","","","","",""
"118","","bandit","34","334949","0.0-18.0-16.0","37629236","wem/bandit_single","AJWES6SFIP3AT","gain","6","","74","J","0","img/none_selected_demo.jpg","1","0","0","0.8","0","true","0","0.8","0","80_20_practice","0.2","0","","","","","","","","","",""
"101","","bandit","35","336816","0.0-18.0-17.0","37629236","wem/bandit_single","AJWES6SFIP3AT","gain","6","","74","J","0","img/none_selected_demo.jpg","1","0","0","0.8","0","true","0","0.8","0","80_20_practice","0.2","0","","","","","","","","","",""
"144","","bandit","36","338725","0.0-18.0-18.0","37629236","wem/bandit_single","AJWES6SFIP3AT","gain","6","","74","J","0","img/none_selected_demo.jpg","1","0","0","0.8","0","true","0","0.8","0","80_20_practice","0.2","0","","","","","","","","","",""
"42","","bandit","37","340527","0.0-18.0-19.0","37629236","wem/bandit_single","AJWES6SFIP3AT","gain","6","","74","J","0","img/none_selected_demo.jpg","1","0","0","0.8","0","true","0","0.8","0","80_20_practice","0.2","0","","","","","","","","","",""
"1756","","text","38","342538","0.0-19.0","37629236","wem/bandit_single","AJWES6SFIP3AT","gain","6","32","","","","","","","","","","","","","","","","","","","","","","","","","",""
"1013","","bandit","39","345062","0.0-20.0-0.0","37629236","wem/bandit_single","AJWES6SFIP3AT","gain","6","","74","J","0","img/none_selected_demo.jpg","0","0","1","0","0","true","0","0","0","","0","0","","","","","","","","","",""
"2433","","text","40","347753","0.0-21.0","37629236","wem/bandit_single","AJWES6SFIP3AT","gain","6","32","","","","","","","","","","","","","","","","","","","","","","","","","",""
"2353","","text","41","350113","0.0-22.0","37629236","wem/bandit_single","AJWES6SFIP3AT","gain","6","32","","","","","","","","","","","","","","","","","","","","","","","","","",""
"1295","","text","42","351417","0.0-23.0","37629236","wem/bandit_single","AJWES6SFIP3AT","gain","6","32","","","","","","","","","","","","","","","","","","","","","","","","","",""
"2584","","text","43","354006","0.0-24.0","37629236","wem/bandit_single","AJWES6SFIP3AT","gain","6","32","","","","","","","","","","","","","","","","","","","","","","","","","",""
"20262","","text","44","374273","0.0-25.0","37629236","wem/bandit_single","AJWES6SFIP3AT","gain","6","32","","","","","","","","","","","","","","","","","","","","","","","","","",""
"1496","","text","45","375772","0.0-26.0","37629236","wem/bandit_single","AJWES6SFIP3AT","gain","6","32","","","","","","","","","","","","","","","","","","","","","","","","","",""
"7607","","text","46","383382","0.0-27.0","37629236","wem/bandit_single","AJWES6SFIP3AT","gain","6","32","","","","","","","","","","","","","","","","","","","","","","","","","",""
"2638","","text","47","386022","0.0-28.0","37629236","wem/bandit_single","AJWES6SFIP3AT","gain","6","32","","","","","","","","","","","","","","","","","","","","","","","","","",""
"2043","","text","48","388072","0.0-29.0","37629236","wem/bandit_single","AJWES6SFIP3AT","gain","6","32","","","","","","","","","","","","","","","","","","","","","","","","","",""
"1816","","text","49","389893","0.0-30.0","37629236","wem/bandit_single","AJWES6SFIP3AT","gain","6","32","","","","","","","","","","","","","","","","","","","","","","","","","",""
"2484","","text","50","392380","0.0-31.0","37629236","wem/bandit_single","AJWES6SFIP3AT","gain","6","32","","","","","","","","","","","","","","","","","","","","","","","","","",""
"609","","bandit","51","394498","0.0-32.0-0.0","37629236","wem/bandit_single","AJWES6SFIP3AT","gain","6","","76","L","3","","1","0","0","0.2","0","true","0","0.8","0","full_practice","0.2","0","0.6","0","0.2","0","","","","","",""
"97","","bandit","52","396358","0.0-32.0-1.0","37629236","wem/bandit_single","AJWES6SFIP3AT","gain","6","","76","L","3","","0","0","1","0.2","0","true","0","0.8","0","full_practice","0.2","0","0.6","0","0.2","0","","","","","",""
"657","","bandit","53","398789","0.0-32.0-2.0","37629236","wem/bandit_single","AJWES6SFIP3AT","gain","6","","74","J","1","","0","0","1","0.2","0","true","0","0.8","0","full_practice","0.2","0","0.6","0","0.2","0","","","","","",""
"58","","bandit","54","400613","0.0-32.0-3.0","37629236","wem/bandit_single","AJWES6SFIP3AT","gain","6","","72","H","0","img/none_selected.jpg","1","0","0","0.8","0","true","0","0.8","0","full_practice","0.2","0","0.6","0","0.2","0","","","","","",""
"509","","bandit","55","402884","0.0-32.0-4.0","37629236","wem/bandit_single","AJWES6SFIP3AT","gain","6","","72","H","0","img/none_selected.jpg","1","0","0","0.8","0","true","0","0.8","0","full_practice","0.2","0","0.6","0","0.2","0","","","","","",""
"125","","bandit","56","404764","0.0-32.0-5.0","37629236","wem/bandit_single","AJWES6SFIP3AT","gain","6","","72","H","0","img/none_selected.jpg","0","0","1","0.8","0","true","0","0.8","0","full_practice","0.2","0","0.6","0","0.2","0","","","","","",""
"207","","bandit","57","406733","0.0-32.0-6.0","37629236","wem/bandit_single","AJWES6SFIP3AT","gain","6","","72","H","0","img/none_selected.jpg","1","0","0","0.8","0","true","0","0.8","0","full_practice","0.2","0","0.6","0","0.2","0","","","","","",""
"71","","bandit","58","408565","0.0-32.0-7.0","37629236","wem/bandit_single","AJWES6SFIP3AT","gain","6","","72","H","0","img/none_selected.jpg","1","0","0","0.8","0","true","0","0.8","0","full_practice","0.2","0","0.6","0","0.2","0","","","","","",""
"5509","","bandit","59","415835","0.0-32.0-8.0","37629236","wem/bandit_single","AJWES6SFIP3AT","gain","6","","72","H","0","img/none_selected.jpg","1","0","0","0.8","0","true","0","0.8","0","full_practice","0.2","0","0.6","0","0.2","0","","","","","",""
"160","","bandit","60","417757","0.0-32.0-9.0","37629236","wem/bandit_single","AJWES6SFIP3AT","gain","6","","72","H","0","img/none_selected.jpg","0","0","1","0.8","0","true","0","0.8","0","full_practice","0.2","0","0.6","0","0.2","0","","","","","",""
"145","","bandit","61","419669","0.0-32.0-10.0","37629236","wem/bandit_single","AJWES6SFIP3AT","gain","6","","72","H","0","img/none_selected.jpg","1","0","0","0.8","0","true","0","0.8","0","full_practice","0.2","0","0.6","0","0.2","0","","","","","",""
"145","","bandit","62","421576","0.0-32.0-11.0","37629236","wem/bandit_single","AJWES6SFIP3AT","gain","6","","72","H","0","img/none_selected.jpg","1","0","0","0.8","0","true","0","0.8","0","full_practice","0.2","0","0.6","0","0.2","0","","","","","",""
"184","","bandit","63","423527","0.0-32.0-12.0","37629236","wem/bandit_single","AJWES6SFIP3AT","gain","6","","72","H","0","img/none_selected.jpg","1","0","0","0.8","0","true","0","0.8","0","full_practice","0.2","0","0.6","0","0.2","0","","","","","",""
"68","","bandit","64","425365","0.0-32.0-13.0","37629236","wem/bandit_single","AJWES6SFIP3AT","gain","6","","72","H","0","img/none_selected.jpg","1","0","0","0.8","0","true","0","0.8","0","full_practice","0.2","0","0.6","0","0.2","0","","","","","",""
"68","","bandit","65","427193","0.0-32.0-14.0","37629236","wem/bandit_single","AJWES6SFIP3AT","gain","6","","72","H","0","img/none_selected.jpg","1","0","0","0.8","0","true","0","0.8","0","full_practice","0.2","0","0.6","0","0.2","0","","","","","",""
"31","","bandit","66","428987","0.0-32.0-15.0","37629236","wem/bandit_single","AJWES6SFIP3AT","gain","6","","72","H","0","img/none_selected.jpg","0","0","1","0.8","0","true","0","0.8","0","full_practice","0.2","0","0.6","0","0.2","0","","","","","",""
"5","","bandit","67","430757","0.0-32.0-16.0","37629236","wem/bandit_single","AJWES6SFIP3AT","gain","6","","72","H","0","img/none_selected.jpg","1","0","0","0.8","0","true","0","0.8","0","full_practice","0.2","0","0.6","0","0.2","0","","","","","",""
"46","","bandit","68","432567","0.0-32.0-17.0","37629236","wem/bandit_single","AJWES6SFIP3AT","gain","6","","72","H","0","img/none_selected.jpg","1","0","0","0.8","0","true","0","0.8","0","full_practice","0.2","0","0.6","0","0.2","0","","","","","",""
"1167","","bandit","69","435496","0.0-32.0-18.0","37629236","wem/bandit_single","AJWES6SFIP3AT","gain","6","","72","H","0","img/none_selected.jpg","1","0","0","0.8","0","true","0","0.8","0","full_practice","0.2","0","0.6","0","0.2","0","","","","","",""
"1164","","bandit","70","438423","0.0-32.0-19.0","37629236","wem/bandit_single","AJWES6SFIP3AT","gain","6","","72","H","0","img/none_selected.jpg","0","0","1","0.8","0","true","0","0.8","0","full_practice","0.2","0","0.6","0","0.2","0","","","","","",""
"2194","","text","71","440893","0.0-33.0","37629236","wem/bandit_single","AJWES6SFIP3AT","gain","6","32","","","","","","","","","","","","","","","","","","","","","","","","","",""
"30627","","text","72","472526","0.0-34.0","37629236","wem/bandit_single","AJWES6SFIP3AT","gain","6","32","","","","","","","","","","","","","","","","","","","","","","","","","",""
"3172","","text","73","475703","0.0-35.0","37629236","wem/bandit_single","AJWES6SFIP3AT","gain","6","32","","","","","","","","","","","","","","","","","","","","","","","","","",""
"4154","","text","74","479862","0.0-36.0","37629236","wem/bandit_single","AJWES6SFIP3AT","gain","6","32","","","","","","","","","","","","","","","","","","","","","","","","","",""
"4013","","text","75","483880","0.0-37.0","37629236","wem/bandit_single","AJWES6SFIP3AT","gain","6","32","","","","","","","","","","","","","","","","","","","","","","","","","",""
"1721","","bandit","76","487116","0.0-38.0-0.0","37629236","wem/bandit_single","AJWES6SFIP3AT","gain","6","","74","J","1","","1","0","0","0.1623639982","","false","1","0.3785571591","","main_expt","0.1623639982","","0.1940838181","","0.1142009487","","","","","","",""
"113","","bandit","77","488994","0.0-39.0-0.0","37629236","wem/bandit_single","AJWES6SFIP3AT","gain","6","","74","J","1","","0","0","1","0.1864124343","","false","2","0.3894156921","","main_expt","0.1864124343","","0.2410489397","","0.09165924831","","","","","","",""
"80","","bandit","78","490837","0.0-40.0-0.0","37629236","wem/bandit_single","AJWES6SFIP3AT","gain","6","","74","J","1","","0","0","1","0.1494323563","","false","3","0.4125386255","","main_expt","0.1494323563","","0.2645422736","","0.1174954382","","","","","","",""
"86","","bandit","79","492685","0.0-41.0-0.0","37629236","wem/bandit_single","AJWES6SFIP3AT","gain","6","","72","H","0","img/none_selected.jpg","0","0","1","0.3990363537","","false","4","0.3990363537","","main_expt","0.1266436655","","0.1984909652","","0.1426329369","","","","","","",""
"336","","bandit","80","494785","0.0-42.0-0.0","37629236","wem/bandit_single","AJWES6SFIP3AT","gain","6","","75","K","2","","0","0","1","0.1239860826","","false","5","0.454435597","","main_expt","0.1476492511","","0.1239860826","","0.1503595054","","","","","","",""
"108","","bandit","81","496655","0.0-43.0-0.0","37629236","wem/bandit_single","AJWES6SFIP3AT","gain","6","","72","H","0","img/none_selected.jpg","1","0","0","0.4583077461","","false","6","0.4583077461","","main_expt","0.1525625276","","0.06805906468","","0.1646450236","","","","","","",""
"96","","bandit","82","498515","0.0-44.0-0.0","37629236","wem/bandit_single","AJWES6SFIP3AT","gain","6","","72","H","0","img/none_selected.jpg","1","0","0","0.4617786505","","false","7","0.4617786505","","main_expt","0.1856713893","","0.05890971721","","0.2031930874","","","","","","",""
"1505","","bandit","83","501784","0.0-45.0-0.0","37629236","wem/bandit_single","AJWES6SFIP3AT","gain","6","","72","H","0","img/none_selected.jpg","1","0","0","0.475168559","","false","8","0.475168559","","main_expt","0.2108076934","","0.0832196585","","0.181996894","","","","","","",""
"766","","bandit","84","504311","0.0-46.0-0.0","37629236","wem/bandit_single","AJWES6SFIP3AT","gain","6","","72","H","0","img/none_selected.jpg","0","0","1","0.458325554","","false","9","0.458325554","","main_expt","0.1956497028","","0.1325638406","","0.1673845292","","","","","","",""
"279","","bandit","85","506354","0.0-47.0-0.0","37629236","wem/bandit_single","AJWES6SFIP3AT","gain","6","","72","H","0","img/none_selected.jpg","1","0","0","0.4316924572","","false","10","0.4316924572","","main_expt","0.1582923175","","0.1196898321","","0.2328473308","","","","","","",""
"146","","bandit","86","508259","0.0-48.0-0.0","37629236","wem/bandit_single","AJWES6SFIP3AT","gain","6","","72","H","0","img/none_selected.jpg","0","0","1","0.3756511011","","false","11","0.3756511011","","main_expt","0.167734997","","0.1103103944","","0.20589494","","","","","","",""
"73","","bandit","87","510096","0.0-49.0-0.0","37629236","wem/bandit_single","AJWES6SFIP3AT","gain","6","","76","L","3","","1","0","0","0.2246944015","","false","12","0.3549088727","","main_expt","0.2150601968","","0.06819125589","","0.2246944015","","","","","","",""
"17","","bandit","88","511881","0.0-50.0-0.0","37629236","wem/bandit_single","AJWES6SFIP3AT","gain","6","","76","L","3","","0","0","1","0.2613447163","","false","13","0.3455803359","","main_expt","0.252216208","","0.07076675629","","0.2613447163","","","","","","",""
"78","","bandit","89","513726","0.0-51.0-0.0","37629236","wem/bandit_single","AJWES6SFIP3AT","gain","6","","76","L","3","","0","0","1","0.212655478","","false","14","0.3809937316","","main_expt","0.2184022087","","0.09241451512","","0.212655478","","","","","","",""
"764","","bandit","90","516250","0.0-52.0-0.0","37629236","wem/bandit_single","AJWES6SFIP3AT","gain","6","","72","H","0","img/none_selected.jpg","0","0","1","0.3479508526","","false","15","0.3479508526","","main_expt","0.210005203","","0.07205700739","","0.1679070286","","","","","","",""
"264","","bandit","91","518287","0.0-53.0-0.0","37629236","wem/bandit_single","AJWES6SFIP3AT","gain","6","","72","H","0","img/none_selected.jpg","0","0","1","0.3287514515","","false","16","0.3287514515","","main_expt","0.2402495983","","0.04760190598","","0.1774383452","","","","","","",""
"126","","bandit","92","520179","0.0-54.0-0.0","37629236","wem/bandit_single","AJWES6SFIP3AT","gain","6","","74","J","1","","0","0","1","0.2766196603","","false","17","0.4008698656","","main_expt","0.2766196603","","0.03958098904","","0.1562672395","","","","","","",""
"143","","bandit","93","522089","0.0-55.0-0.0","37629236","wem/bandit_single","AJWES6SFIP3AT","gain","6","","75","K","2","","0","0","1","0.03128671198","","false","18","0.3845126264","","main_expt","0.3193638145","","0.03128671198","","0.1407597156","","","","","","",""
"54","","bandit","94","523918","0.0-56.0-0.0","37629236","wem/bandit_single","AJWES6SFIP3AT","gain","6","","72","H","0","img/none_selected.jpg","0","0","1","0.3979941068","","false","19","0.3979941068","","main_expt","0.2953318626","","0.04453616628","","0.1310890834","","","","","","",""
"79","","bandit","95","525767","0.0-57.0-0.0","37629236","wem/bandit_single","AJWES6SFIP3AT","gain","6","","76","L","3","","0","0","1","0.1317163977","","false","20","0.3920029867","","main_expt","0.3007143328","","0.04596917346","","0.1317163977","","","","","","",""
"254","","bandit","96","527783","0.0-58.0-0.0","37629236","wem/bandit_single","AJWES6SFIP3AT","gain","6","","72","H","0","img/none_selected.jpg","0","0","1","0.4057752261","","false","21","0.4057752261","","main_expt","0.3105995928","","0.04297504417","","0.1752537558","","","","","","",""
"535","","bandit","97","530091","0.0-59.0-0.0","37629236","wem/bandit_single","AJWES6SFIP3AT","gain","6","","72","H","0","img/none_selected.jpg","0","0","1","0.4072420822","","false","22","0.4072420822","","main_expt","0.3742057862","","0.04739698515","","0.2064983175","","","","","","",""
"83","","bandit","98","531940","0.0-60.0-0.0","37629236","wem/bandit_single","AJWES6SFIP3AT","gain","6","","76","L","3","","0","0","1","0.216691321","","false","23","0.3798298113","","main_expt","0.3439758112","","0.08003173613","","0.216691321","","","","","","",""
"51","","bandit","99","533754","0.0-61.0-0.0","37629236","wem/bandit_single","AJWES6SFIP3AT","gain","6","","75","K","2","","0","0","1","0.09868307827","","false","24","0.3329856024","","main_expt","0.3549138733","","0.09868307827","","0.2342773894","","","","","","",""
"90","","bandit","100","535608","0.0-62.0-0.0","37629236","wem/bandit_single","AJWES6SFIP3AT","gain","6","","75","K","2","","0","0","1","0.07950464875","","false","25","0.3337381726","","main_expt","0.3811330683","","0.07950464875","","0.2378870173","","","","","","",""
"130","","bandit","101","537498","0.0-63.0-0.0","37629236","wem/bandit_single","AJWES6SFIP3AT","gain","6","","74","J","1","","0","0","1","0.3131907418","","false","26","0.3650510818","","main_expt","0.3131907418","","0.09697268327","","0.2555438901","","","","","","",""
"102","","bandit","102","539366","0.0-64.0-0.0","37629236","wem/bandit_single","AJWES6SFIP3AT","gain","6","","74","J","1","","1","0","0","0.3210571327","","false","27","0.3930286133","","main_expt","0.3210571327","","0.09831328215","","0.2487754609","","","","","","",""
"75","","bandit","103","541202","0.0-65.0-0.0","37629236","wem/bandit_single","AJWES6SFIP3AT","gain","6","","74","J","1","","0","0","1","0.3350138966","","false","28","0.3849328395","","main_expt","0.3350138966","","0.08798585883","","0.2023297646","","","","","","",""
"162","","bandit","104","543123","0.0-66.0-0.0","37629236","wem/bandit_single","AJWES6SFIP3AT","gain","6","","74","J","1","","0","0","1","0.3491704597","","false","29","0.3635333449","","main_expt","0.3491704597","","0.1001400419","","0.1824385616","","","","","","",""
"48","","bandit","105","544933","0.0-67.0-0.0","37629236","wem/bandit_single","AJWES6SFIP3AT","gain","6","","72","H","0","img/none_selected.jpg","1","0","0","0.3870800473","","false","30","0.3870800473","","main_expt","0.3515390533","","0.100360092","","0.2108935763","","","","","","",""
"79","","bandit","106","546773","0.0-68.0-0.0","37629236","wem/bandit_single","AJWES6SFIP3AT","gain","6","","72","H","0","img/none_selected.jpg","0","0","1","0.407818568","","false","31","0.407818568","","main_expt","0.3116189274","","0.1235489826","","0.2212072473","","","","","","",""
"826","","bandit","107","549363","0.0-69.0-0.0","37629236","wem/bandit_single","AJWES6SFIP3AT","gain","6","","75","K","2","","0","0","1","0.0999088058","","false","32","0.4365503818","","main_expt","0.2923613921","","0.0999088058","","0.2349080289","","","","","","",""
"67","","bandit","108","551189","0.0-70.0-0.0","37629236","wem/bandit_single","AJWES6SFIP3AT","gain","6","","76","L","3","","1","0","0","0.2233211346","","false","33","0.438397095","","main_expt","0.2833872006","","0.1229353218","","0.2233211346","","","","","","",""
"109","","bandit","109","553064","0.0-71.0-0.0","37629236","wem/bandit_single","AJWES6SFIP3AT","gain","6","","76","L","3","","0","0","1","0.2328620384","","false","34","0.4225996483","","main_expt","0.251012165","","0.1174339591","","0.2328620384","","","","","","",""
"127","","bandit","110","554964","0.0-72.0-0.0","37629236","wem/bandit_single","AJWES6SFIP3AT","gain","6","","72","H","0","img/none_selected.jpg","0","0","1","0.3719427837","","false","35","0.3719427837","","main_expt","0.2150204629","","0.08922948311","","0.2442853791","","","","","","",""
"205","","bandit","111","556944","0.0-73.0-0.0","37629236","wem/bandit_single","AJWES6SFIP3AT","gain","6","","74","J","1","","0","0","1","0.2003821391","","false","36","0.3643608465","","main_expt","0.2003821391","","0.1065429935","","0.2536962779","","","","","","",""
"2","","bandit","112","558714","0.0-74.0-0.0","37629236","wem/bandit_single","AJWES6SFIP3AT","gain","6","","76","L","3","","0","0","1","0.1968410568","","false","37","0.3951734682","","main_expt","0.1584744983","","0.119331244","","0.1968410568","","","","","","",""
"7652","","bandit","113","568138","0.0-75.0-0.0","37629236","wem/bandit_single","AJWES6SFIP3AT","gain","6","","72","H","0","img/none_selected.jpg","0","0","1","0.4106313244","","false","38","0.4106313244","","main_expt","0.1107345946","","0.1140529394","","0.1903576104","","","","","","",""
"387","","bandit","114","570291","0.0-76.0-0.0","37629236","wem/bandit_single","AJWES6SFIP3AT","gain","6","","74","J","1","","1","0","0","0.1922112034","","false","39","0.385877281","","main_expt","0.1922112034","","0.1377706652","","0.2094560733","","","","","","",""
"67","","bandit","115","572128","0.0-77.0-0.0","37629236","wem/bandit_single","AJWES6SFIP3AT","gain","6","","74","J","1","","0","0","1","0.202991566","","false","40","0.3814638094","","main_expt","0.202991566","","0.1686011578","","0.2157952434","","","","","","",""
"1","","bandit","116","573888","0.0-78.0-0.0","37629236","wem/bandit_single","AJWES6SFIP3AT","gain","6","","74","J","1","","0","0","1","0.257249123","","false","41","0.3569976603","","main_expt","0.257249123","","0.1640814413","","0.1982376225","","","","","","",""
"182","","bandit","117","575832","0.0-79.0-0.0","37629236","wem/bandit_single","AJWES6SFIP3AT","gain","6","","75","K","2","","1","0","0","0.1444461896","","false","42","0.3254656301","","main_expt","0.3139605103","","0.1444461896","","0.1815133425","","","","","","",""
"42","","bandit","118","577634","0.0-80.0-0.0","37629236","wem/bandit_single","AJWES6SFIP3AT","gain","6","","75","K","2","","0","0","1","0.1466097136","","false","43","0.3061667188","","main_expt","0.2859416922","","0.1466097136","","0.1804658283","","","","","","",""
"25","","bandit","119","579425","0.0-81.0-0.0","37629236","wem/bandit_single","AJWES6SFIP3AT","gain","6","","75","K","2","","0","0","1","0.1701376127","","false","44","0.3247162798","","main_expt","0.2344477797","","0.1701376127","","0.1453808853","","","","","","",""
"107","","bandit","120","581304","0.0-82.0-0.0","37629236","wem/bandit_single","AJWES6SFIP3AT","gain","6","","72","H","0","img/none_selected.jpg","1","0","0","0.3464274235","","false","45","0.3464274235","","main_expt","0.25278305","","0.2382164817","","0.1975985391","","","","","","",""
"122","","bandit","121","583190","0.0-83.0-0.0","37629236","wem/bandit_single","AJWES6SFIP3AT","gain","6","","72","H","0","img/none_selected.jpg","1","0","0","0.2853596265","","false","46","0.2853596265","","main_expt","0.2447001663","","0.2817064876","","0.2099331931","","","","","","",""
"0","","bandit","122","584956","0.0-84.0-0.0","37629236","wem/bandit_single","AJWES6SFIP3AT","gain","6","","72","H","0","img/none_selected.jpg","0","0","1","0.2781892211","","false","47","0.2781892211","","main_expt","0.2439886488","","0.3449614965","","0.2373708448","","","","","","",""
"133","","bandit","123","586860","0.0-85.0-0.0","37629236","wem/bandit_single","AJWES6SFIP3AT","gain","6","","76","L","3","","0","0","1","0.2929879582","","false","48","0.2802769371","","main_expt","0.3453423138","","0.2846403666","","0.2929879582","","","","","","",""
"100","","bandit","124","588724","0.0-86.0-0.0","37629236","wem/bandit_single","AJWES6SFIP3AT","gain","6","","75","K","2","","0","0","1","0.3292227521","","false","49","0.3162769287","","main_expt","0.3208634608","","0.3292227521","","0.2643709298","","","","","","",""
"39","","bandit","125","590529","0.0-87.0-0.0","37629236","wem/bandit_single","AJWES6SFIP3AT","gain","6","","74","J","1","","0","0","1","0.2600740437","","false","50","0.2524095143","","main_expt","0.2600740437","","0.270904054","","0.2666646559","","","","","","",""
"1471","","bandit","126","593761","0.0-88.0-0.0","37629236","wem/bandit_single","AJWES6SFIP3AT","gain","6","","76","L","3","","0","0","1","0.2550538978","","false","51","0.2630113652","","main_expt","0.2451527442","","0.2503066232","","0.2550538978","","","","","","",""
"19","","bandit","127","595549","0.0-89.0-0.0","37629236","wem/bandit_single","AJWES6SFIP3AT","gain","6","","72","H","0","img/none_selected.jpg","0","0","1","0.2707742251","","false","52","0.2707742251","","main_expt","0.1882651979","","0.2405173112","","0.3235330097","","","","","","",""
"32","","bandit","128","597345","0.0-90.0-0.0","37629236","wem/bandit_single","AJWES6SFIP3AT","gain","6","","74","J","1","","0","0","1","0.1930778153","","false","53","0.2150274285","","main_expt","0.1930778153","","0.2966352861","","0.347433539","","","","","","",""
"77","","bandit","129","599189","0.0-91.0-0.0","37629236","wem/bandit_single","AJWES6SFIP3AT","gain","6","","75","K","2","","0","0","1","0.2887198369","","false","54","0.2326572497","","main_expt","0.2216955806","","0.2887198369","","0.3368202787","","","","","","",""
"82","","bandit","130","601035","0.0-92.0-0.0","37629236","wem/bandit_single","AJWES6SFIP3AT","gain","6","","75","K","2","","1","0","0","0.2801160178","","false","55","0.2134399586","","main_expt","0.2422165651","","0.2801160178","","0.3503124627","","","","","","",""
"88","","bandit","131","602889","0.0-93.0-0.0","37629236","wem/bandit_single","AJWES6SFIP3AT","gain","6","","75","K","2","","1","0","0","0.3022415889","","false","56","0.2394891912","","main_expt","0.228979269","","0.3022415889","","0.368841946","","","","","","",""
"48","","bandit","132","604703","0.0-94.0-0.0","37629236","wem/bandit_single","AJWES6SFIP3AT","gain","6","","75","K","2","","1","0","0","0.3300995428","","false","57","0.2942469327","","main_expt","0.243325051","","0.3300995428","","0.3883837061","","","","","","",""
"97","","bandit","133","606564","0.0-95.0-0.0","37629236","wem/bandit_single","AJWES6SFIP3AT","gain","6","","75","K","2","","0","0","1","0.3393984951","","false","58","0.369295693","","main_expt","0.2326991071","","0.3393984951","","0.4116863428","","","","","","",""
"54","","bandit","134","608384","0.0-96.0-0.0","37629236","wem/bandit_single","AJWES6SFIP3AT","gain","6","","75","K","2","","0","0","1","0.3592245678","","false","59","0.3663837161","","main_expt","0.2480349675","","0.3592245678","","0.3980375199","","","","","","",""
"110","","bandit","135","610260","0.0-97.0-0.0","37629236","wem/bandit_single","AJWES6SFIP3AT","gain","6","","75","K","2","","1","0","0","0.3431938453","","false","60","0.3578669063","","main_expt","0.2591134247","","0.3431938453","","0.3849919156","","","","","","",""
"94","","bandit","136","612119","0.0-98.0-0.0","37629236","wem/bandit_single","AJWES6SFIP3AT","gain","6","","75","K","2","","1","0","0","0.3622980041","","false","61","0.3901807011","","main_expt","0.2828027123","","0.3622980041","","0.3822359719","","","","","","",""
"128","","bandit","137","614016","0.0-99.0-0.0","37629236","wem/bandit_single","AJWES6SFIP3AT","gain","6","","75","K","2","","0","0","1","0.3898917795","","false","62","0.4199484271","","main_expt","0.2645717152","","0.3898917795","","0.3356955782","","","","","","",""
"132","","bandit","138","615923","0.0-100.0-0.0","37629236","wem/bandit_single","AJWES6SFIP3AT","gain","6","","75","K","2","","1","0","0","0.3730814422","","false","63","0.431710707","","main_expt","0.3164731366","","0.3730814422","","0.2961333539","","","","","","",""
"33","","bandit","139","617761","0.0-101.0-0.0","37629236","wem/bandit_single","AJWES6SFIP3AT","gain","6","","75","K","2","","1","0","0","0.359514794","","false","64","0.4302834116","","main_expt","0.3549458842","","0.359514794","","0.3332154777","","","","","","",""
"30","","bandit","140","619563","0.0-102.0-0.0","37629236","wem/bandit_single","AJWES6SFIP3AT","gain","6","","75","K","2","","0","0","1","0.3114607296","","false","65","0.3985691748","","main_expt","0.288515421","","0.3114607296","","0.35785358","","","","","","",""
"75","","bandit","141","621422","0.0-103.0-0.0","37629236","wem/bandit_single","AJWES6SFIP3AT","gain","6","","75","K","2","","0","0","1","0.2942291023","","false","66","0.4041176093","","main_expt","0.3011993237","","0.2942291023","","0.406057841","","","","","","",""
"103","","bandit","142","623293","0.0-104.0-0.0","37629236","wem/bandit_single","AJWES6SFIP3AT","gain","6","","75","K","2","","1","0","0","0.3320533568","","false","67","0.4007812862","","main_expt","0.345072876","","0.3320533568","","0.4196038874","","","","","","",""
"134","","bandit","143","625193","0.0-105.0-0.0","37629236","wem/bandit_single","AJWES6SFIP3AT","gain","6","","75","K","2","","0","0","1","0.3600975808","","false","68","0.4294162969","","main_expt","0.3196529892","","0.3600975808","","0.3890604874","","","","","","",""
"152","","bandit","144","627104","0.0-106.0-0.0","37629236","wem/bandit_single","AJWES6SFIP3AT","gain","6","","75","K","2","","0","0","1","0.2872110667","","false","69","0.3767619451","","main_expt","0.3649702463","","0.2872110667","","0.4084138829","","","","","","",""
"138","","bandit","145","629009","0.0-107.0-0.0","37629236","wem/bandit_single","AJWES6SFIP3AT","gain","6","","75","K","2","","1","0","0","0.295141158","","false","70","0.3777248691","","main_expt","0.356932825","","0.295141158","","0.3468887804","","","","","","",""
"114","","bandit","146","630883","0.0-108.0-0.0","37629236","wem/bandit_single","AJWES6SFIP3AT","gain","6","","75","K","2","","1","0","0","0.3206647592","","false","71","0.3795242786","","main_expt","0.3835678776","","0.3206647592","","0.341524862","","","","","","",""
"117","","bandit","147","632758","0.0-109.0-0.0","37629236","wem/bandit_single","AJWES6SFIP3AT","gain","6","","75","K","2","","1","0","0","0.3264000429","","false","72","0.3665841139","","main_expt","0.4212385026","","0.3264000429","","0.3749246652","","","","","","",""
"169","","bandit","148","634694","0.0-110.0-0.0","37629236","wem/bandit_single","AJWES6SFIP3AT","gain","6","","75","K","2","","1","0","0","0.333972891","","false","73","0.3651794524","","main_expt","0.4261424303","","0.333972891","","0.3871824506","","","","","","",""
"15","","bandit","149","636474","0.0-111.0-0.0","37629236","wem/bandit_single","AJWES6SFIP3AT","gain","6","","75","K","2","","0","0","1","0.3616968722","","false","74","0.3550305672","","main_expt","0.3977974162","","0.3616968722","","0.3721906724","","","","","","",""
"282","","bandit","150","638525","0.0-112.0-0.0","37629236","wem/bandit_single","AJWES6SFIP3AT","gain","6","","75","K","2","","0","0","1","0.3975057441","","false","75","0.2927321298","","main_expt","0.4267201321","","0.3975057441","","0.3111946895","","","","","","",""
"232","","bandit","151","640525","0.0-113.0-0.0","37629236","wem/bandit_single","AJWES6SFIP3AT","gain","6","","75","K","2","","0","0","1","0.3807363423","","false","76","0.2842047713","","main_expt","0.4263250047","","0.3807363423","","0.3336428477","","","","","","",""
"127","","bandit","152","642425","0.0-114.0-0.0","37629236","wem/bandit_single","AJWES6SFIP3AT","gain","6","","75","K","2","","1","0","0","0.394346207","","false","77","0.291961298","","main_expt","0.4081139898","","0.394346207","","0.2972108807","","","","","","",""
"63","","bandit","153","644265","0.0-115.0-0.0","37629236","wem/bandit_single","AJWES6SFIP3AT","gain","6","","75","K","2","","1","0","0","0.4130135997","","false","78","0.2772504781","","main_expt","0.4081745619","","0.4130135997","","0.3500338334","","","","","","",""
"252","","bandit","154","646296","0.0-116.0-0.0","37629236","wem/bandit_single","AJWES6SFIP3AT","gain","6","","75","K","2","","0","0","1","0.388257836","","false","79","0.2910266255","","main_expt","0.4210543479","","0.388257836","","0.3382579744","","","","","","",""
"182","","bandit","155","648245","0.0-117.0-0.0","37629236","wem/bandit_single","AJWES6SFIP3AT","gain","6","","75","K","2","","1","0","0","0.402189785","","false","80","0.3236474027","","main_expt","0.4173400146","","0.402189785","","0.2848378437","","","","","","",""
"107","","bandit","156","650121","0.0-118.0-0.0","37629236","wem/bandit_single","AJWES6SFIP3AT","gain","6","","75","K","2","","0","0","1","0.4188164015","","false","81","0.3171491255","","main_expt","0.3876294662","","0.4188164015","","0.2824957966","","","","","","",""
"11","","bandit","157","651902","0.0-119.0-0.0","37629236","wem/bandit_single","AJWES6SFIP3AT","gain","6","","75","K","2","","1","0","0","0.3923487362","","false","82","0.3253049084","","main_expt","0.3960397656","","0.3923487362","","0.2921189703","","","","","","",""
"80","","bandit","158","653754","0.0-120.0-0.0","37629236","wem/bandit_single","AJWES6SFIP3AT","gain","6","","75","K","2","","0","0","1","0.3765831671","","false","83","0.2650825447","","main_expt","0.4048972575","","0.3765831671","","0.346808059","","","","","","",""
"156","","bandit","159","655691","0.0-121.0-0.0","37629236","wem/bandit_single","AJWES6SFIP3AT","gain","6","","75","K","2","","0","0","1","0.3744655151","","false","84","0.2860936523","","main_expt","0.4261464595","","0.3744655151","","0.3142369957","","","","","","",""
"133","","bandit","160","657594","0.0-122.0-0.0","37629236","wem/bandit_single","AJWES6SFIP3AT","gain","6","","75","K","2","","0","0","1","0.4097897279","","false","85","0.2965161573","","main_expt","0.4252889048","","0.4097897279","","0.3336664699","","","","","","",""
"195","","bandit","161","659569","0.0-123.0-0.0","37629236","wem/bandit_single","AJWES6SFIP3AT","gain","6","","75","K","2","","0","0","1","0.4365994201","","false","86","0.2718920201","","main_expt","0.4234238012","","0.4365994201","","0.3487181938","","","","","","",""
"131","","bandit","162","661478","0.0-124.0-0.0","37629236","wem/bandit_single","AJWES6SFIP3AT","gain","6","","75","K","2","","1","0","0","0.4485753971","","false","87","0.2663647104","","main_expt","0.4493325849","","0.4485753971","","0.3595256023","","","","","","",""
"53","","bandit","163","663304","0.0-125.0-0.0","37629236","wem/bandit_single","AJWES6SFIP3AT","gain","6","","75","K","2","","1","0","0","0.4682155013","","false","88","0.2505207396","","main_expt","0.4618336953","","0.4682155013","","0.3633435887","","","","","","",""
"43","","bandit","164","665115","0.0-126.0-0.0","37629236","wem/bandit_single","AJWES6SFIP3AT","gain","6","","75","K","2","","0","0","1","0.455546077","","false","89","0.2380326514","","main_expt","0.470357169","","0.455546077","","0.3301577903","","","","","","",""
"142","","bandit","165","667023","0.0-127.0-0.0","37629236","wem/bandit_single","AJWES6SFIP3AT","gain","6","","75","K","2","","0","0","1","0.4648286352","","false","90","0.2825572521","","main_expt","0.4756012524","","0.4648286352","","0.2983975746","","","","","","",""
"315","","bandit","166","669104","0.0-128.0-0.0","37629236","wem/bandit_single","AJWES6SFIP3AT","gain","6","","75","K","2","","0","0","1","0.4597569826","","false","91","0.3629334232","","main_expt","0.4661355378","","0.4597569826","","0.2708507867","","","","","","",""
"193","","bandit","167","671063","0.0-129.0-0.0","37629236","wem/bandit_single","AJWES6SFIP3AT","gain","6","","75","K","2","","0","0","1","0.4636055165","","false","92","0.4318733099","","main_expt","0.4640816948","","0.4636055165","","0.2025174094","","","","","","",""
"110","","bandit","168","672934","0.0-130.0-0.0","37629236","wem/bandit_single","AJWES6SFIP3AT","gain","6","","74","J","1","","1","0","0","0.4745032584","","false","93","0.4354989634","","main_expt","0.4745032584","","0.4344757896","","0.1991535532","","","","","","",""
"46","","bandit","169","674765","0.0-131.0-0.0","37629236","wem/bandit_single","AJWES6SFIP3AT","gain","6","","74","J","1","","1","0","0","0.4713826624","","false","94","0.4569950804","","main_expt","0.4713826624","","0.4540573516","","0.2072674268","","","","","","",""
"187","","bandit","170","676713","0.0-132.0-0.0","37629236","wem/bandit_single","AJWES6SFIP3AT","gain","6","","74","J","1","","0","0","1","0.4518091014","","false","95","0.4626037768","","main_expt","0.4518091014","","0.467393544","","0.2139910976","","","","","","",""
"64","","bandit","171","678548","0.0-133.0-0.0","37629236","wem/bandit_single","AJWES6SFIP3AT","gain","6","","74","J","1","","1","0","0","0.4610288074","","false","96","0.4632162831","","main_expt","0.4610288074","","0.4523779492","","0.1714021876","","","","","","",""
"105","","bandit","172","680444","0.0-134.0-0.0","37629236","wem/bandit_single","AJWES6SFIP3AT","gain","6","","74","J","1","","1","0","0","0.4610411697","","false","97","0.4574348148","","main_expt","0.4610411697","","0.4734298584","","0.1776734449","","","","","","",""
"41","","bandit","173","682266","0.0-135.0-0.0","37629236","wem/bandit_single","AJWES6SFIP3AT","gain","6","","74","J","1","","0","0","1","0.4658458747","","false","98","0.4551488225","","main_expt","0.4658458747","","0.4822123269","","0.2143852757","","","","","","",""
"76","","bandit","174","684114","0.0-136.0-0.0","37629236","wem/bandit_single","AJWES6SFIP3AT","gain","6","","74","J","1","","0","0","1","0.4372748216","","false","99","0.4604873832","","main_expt","0.4372748216","","0.4829706494","","0.2341872784","","","","","","",""
"42","","bandit","175","685925","0.0-137.0-0.0","37629236","wem/bandit_single","AJWES6SFIP3AT","gain","6","","74","J","1","","0","0","1","0.4237986198","","false","100","0.4364445071","","main_expt","0.4237986198","","0.4918551361","","0.2835639283","","","","","","",""
"172","","bandit","176","687873","0.0-138.0-0.0","37629236","wem/bandit_single","AJWES6SFIP3AT","gain","6","","72","H","0","img/none_selected.jpg","1","0","0","0.4152010141","","false","101","0.4152010141","","main_expt","0.4239408107","","0.4891782125","","0.3342764243","","","","","","",""
"38","","bandit","177","689684","0.0-139.0-0.0","37629236","wem/bandit_single","AJWES6SFIP3AT","gain","6","","72","H","0","img/none_selected.jpg","1","0","0","0.4463558977","","false","102","0.4463558977","","main_expt","0.4482877494","","0.484620563","","0.3693598309","","","","","","",""
"156","","bandit","178","691605","0.0-140.0-0.0","37629236","wem/bandit_single","AJWES6SFIP3AT","gain","6","","72","H","0","img/none_selected.jpg","1","0","0","0.4519222506","","false","103","0.4519222506","","main_expt","0.4319618448","","0.4880888492","","0.3465782007","","","","","","",""
"66","","bandit","179","693433","0.0-141.0-0.0","37629236","wem/bandit_single","AJWES6SFIP3AT","gain","6","","72","H","0","img/none_selected.jpg","1","0","0","0.44950272","","false","104","0.44950272","","main_expt","0.3989131432","","0.4862983338","","0.356437927","","","","","","",""
"43","","bandit","180","695241","0.0-142.0-0.0","37629236","wem/bandit_single","AJWES6SFIP3AT","gain","6","","72","H","0","img/none_selected.jpg","0","0","1","0.4631277203","","false","105","0.4631277203","","main_expt","0.3718051273","","0.4761426531","","0.349556789","","","","","","",""
"143","","bandit","181","697145","0.0-143.0-0.0","37629236","wem/bandit_single","AJWES6SFIP3AT","gain","6","","75","K","2","","1","0","0","0.4724420891","","false","106","0.4761070442","","main_expt","0.3820213715","","0.4724420891","","0.3368343046","","","","","","",""
"159","","bandit","182","699065","0.0-144.0-0.0","37629236","wem/bandit_single","AJWES6SFIP3AT","gain","6","","75","K","2","","1","0","0","0.4544285192","","false","107","0.4574049266","","main_expt","0.3903902173","","0.4544285192","","0.3492990444","","","","","","",""
"240","","bandit","183","701074","0.0-145.0-0.0","37629236","wem/bandit_single","AJWES6SFIP3AT","gain","6","","75","K","2","","0","0","1","0.4489506099","","false","108","0.4342229458","","main_expt","0.424383047","","0.4489506099","","0.3657086014","","","","","","",""
"28","","bandit","184","702884","0.0-146.0-0.0","37629236","wem/bandit_single","AJWES6SFIP3AT","gain","6","","75","K","2","","0","0","1","0.4357570441","","false","109","0.4437976733","","main_expt","0.3732822228","","0.4357570441","","0.3473329542","","","","","","",""
"70","","bandit","185","704738","0.0-147.0-0.0","37629236","wem/bandit_single","AJWES6SFIP3AT","gain","6","","76","L","3","","0","0","1","0.3937482981","","false","110","0.4131704669","","main_expt","0.3545846445","","0.4243789051","","0.3937482981","","","","","","",""
"29","","bandit","186","706536","0.0-148.0-0.0","37629236","wem/bandit_single","AJWES6SFIP3AT","gain","6","","72","H","0","img/none_selected.jpg","1","0","0","0.3849612216","","false","111","0.3849612216","","main_expt","0.2861948885","","0.4235572131","","0.4067223002","","","","","","",""
"221","","bandit","187","708521","0.0-149.0-0.0","37629236","wem/bandit_single","AJWES6SFIP3AT","gain","6","","72","H","0","img/none_selected.jpg","0","0","1","0.4197473064","","false","112","0.4197473064","","main_expt","0.3148935151","","0.4216330179","","0.3791461054","","","","","","",""
"147","","bandit","188","710443","0.0-150.0-0.0","37629236","wem/bandit_single","AJWES6SFIP3AT","gain","6","","72","H","0","img/none_selected.jpg","0","0","1","0.4477672952","","false","113","0.4477672952","","main_expt","0.310891148","","0.3981229654","","0.3697872407","","","","","","",""
"412","","bandit","189","712613","0.0-151.0-0.0","37629236","wem/bandit_single","AJWES6SFIP3AT","gain","6","","76","L","3","","0","0","1","0.3542284497","","false","114","0.4347577032","","main_expt","0.3312817134","","0.4051483532","","0.3542284497","","","","","","",""
"150","","bandit","190","714533","0.0-152.0-0.0","37629236","wem/bandit_single","AJWES6SFIP3AT","gain","6","","76","L","3","","0","0","1","0.3424252445","","false","115","0.4123529648","","main_expt","0.3328181623","","0.3664587937","","0.3424252445","","","","","","",""
"639","","bandit","191","716943","0.0-153.0-0.0","37629236","wem/bandit_single","AJWES6SFIP3AT","gain","6","","74","J","1","","0","0","1","0.282168926","","false","116","0.4374051313","","main_expt","0.282168926","","0.3815824605","","0.3364913945","","","","","","",""
"298","","bandit","192","719001","0.0-154.0-0.0","37629236","wem/bandit_single","AJWES6SFIP3AT","gain","6","","72","H","0","img/none_selected.jpg","0","0","1","0.4336999329","","false","117","0.4336999329","","main_expt","0.3282440564","","0.3718524962","","0.3607093693","","","","","","",""
"191","","bandit","193","720968","0.0-155.0-0.0","37629236","wem/bandit_single","AJWES6SFIP3AT","gain","6","","75","K","2","","1","0","0","0.3228128462","","false","118","0.4609057125","","main_expt","0.3735758205","","0.3228128462","","0.3651530194","","","","","","",""
"121","","bandit","194","722865","0.0-156.0-0.0","37629236","wem/bandit_single","AJWES6SFIP3AT","gain","6","","75","K","2","","1","0","0","0.3303119184","","false","119","0.4644995027","","main_expt","0.4085136599","","0.3303119184","","0.391691743","","","","","","",""
"120","","bandit","195","724745","0.0-157.0-0.0","37629236","wem/bandit_single","AJWES6SFIP3AT","gain","6","","75","K","2","","1","0","0","0.3566896217","","false","120","0.4699288035","","main_expt","0.4152109264","","0.3566896217","","0.3892352466","","","","","","",""
"60","","bandit","196","726572","0.0-158.0-0.0","37629236","wem/bandit_single","AJWES6SFIP3AT","gain","6","","75","K","2","","1","0","0","0.3938610898","","false","121","0.48416914","","main_expt","0.4362055741","","0.3938610898","","0.4119078466","","","","","","",""
"191","","bandit","197","728532","0.0-159.0-0.0","37629236","wem/bandit_single","AJWES6SFIP3AT","gain","6","","75","K","2","","0","0","1","0.3846692282","","false","122","0.4744752566","","main_expt","0.4381361327","","0.3846692282","","0.3864510994","","","","","","",""
"132","","bandit","198","730422","0.0-160.0-0.0","37629236","wem/bandit_single","AJWES6SFIP3AT","gain","6","","75","K","2","","0","0","1","0.3479888462","","false","123","0.4770694964","","main_expt","0.4266523018","","0.3479888462","","0.3206095238","","","","","","",""
"54","","bandit","199","732247","0.0-161.0-0.0","37629236","wem/bandit_single","AJWES6SFIP3AT","gain","6","","75","K","2","","0","0","1","0.3446564944","","false","124","0.4882663864","","main_expt","0.3976500929","","0.3446564944","","0.3004639257","","","","","","",""
"214","","bandit","200","734232","0.0-162.0-0.0","37629236","wem/bandit_single","AJWES6SFIP3AT","gain","6","","75","K","2","","1","0","0","0.3742116014","","false","125","0.4867438878","","main_expt","0.4004048686","","0.3742116014","","0.2718713493","","","","","","",""
"91","","bandit","201","736082","0.0-163.0-0.0","37629236","wem/bandit_single","AJWES6SFIP3AT","gain","6","","75","K","2","","0","0","1","0.3522130289","","false","126","0.4859509926","","main_expt","0.3978852423","","0.3522130289","","0.312825386","","","","","","",""
"153","","bandit","202","738005","0.0-164.0-0.0","37629236","wem/bandit_single","AJWES6SFIP3AT","gain","6","","75","K","2","","1","0","0","0.4136983804","","false","127","0.4910312391","","main_expt","0.4164913371","","0.4136983804","","0.2929193121","","","","","","",""
"100","","bandit","203","739885","0.0-165.0-0.0","37629236","wem/bandit_single","AJWES6SFIP3AT","gain","6","","75","K","2","","0","0","1","0.3740150402","","false","128","0.4916106826","","main_expt","0.4273270633","","0.3740150402","","0.3483635392","","","","","","",""
"99","","bandit","204","741764","0.0-166.0-0.0","37629236","wem/bandit_single","AJWES6SFIP3AT","gain","6","","75","K","2","","0","0","1","0.3561584853","","false","129","0.4774596984","","main_expt","0.4403517336","","0.3561584853","","0.3180783589","","","","","","",""
"499","","bandit","205","744034","0.0-167.0-0.0","37629236","wem/bandit_single","AJWES6SFIP3AT","gain","6","","72","H","0","img/none_selected.jpg","0","0","1","0.4792113904","","false","130","0.4792113904","","main_expt","0.436469863","","0.3781611856","","0.332672873","","","","","","",""
"249","","bandit","206","746055","0.0-168.0-0.0","37629236","wem/bandit_single","AJWES6SFIP3AT","gain","6","","74","J","1","","0","0","1","0.467157068","","false","131","0.4761250173","","main_expt","0.467157068","","0.3972118802","","0.3172252399","","","","","","",""
"114","","bandit","207","747944","0.0-169.0-0.0","37629236","wem/bandit_single","AJWES6SFIP3AT","gain","6","","72","H","0","img/none_selected.jpg","0","0","1","0.4782449011","","false","132","0.4782449011","","main_expt","0.4747764211","","0.3951630556","","0.2808852702","","","","","","",""
"51","","bandit","208","749768","0.0-170.0-0.0","37629236","wem/bandit_single","AJWES6SFIP3AT","gain","6","","72","H","0","img/none_selected.jpg","0","0","1","0.4789501527","","false","133","0.4789501527","","main_expt","0.4662147581","","0.3918056992","","0.2846237695","","","","","","",""
"564","","bandit","209","752102","0.0-171.0-0.0","37629236","wem/bandit_single","AJWES6SFIP3AT","gain","6","","74","J","1","","1","0","0","0.4711951182","","false","134","0.4821877595","","main_expt","0.4711951182","","0.395342783","","0.3115497245","","","","","","",""
"39","","bandit","210","753913","0.0-172.0-0.0","37629236","wem/bandit_single","AJWES6SFIP3AT","gain","6","","74","J","1","","0","0","1","0.4540730246","","false","135","0.4863767518","","main_expt","0.4540730246","","0.3867762939","","0.3413582918","","","","","","",""
"274","","bandit","211","755965","0.0-173.0-0.0","37629236","wem/bandit_single","AJWES6SFIP3AT","gain","6","","74","J","1","","0","0","1","0.4412688847","","false","136","0.4887786445","","main_expt","0.4412688847","","0.3929594686","","0.316763081","","","","","","",""
"83","","bandit","212","757833","0.0-174.0-0.0","37629236","wem/bandit_single","AJWES6SFIP3AT","gain","6","","75","K","2","","0","0","1","0.3067223256","","false","137","0.4896902137","","main_expt","0.4585130214","","0.3067223256","","0.2585559296","","","","","","",""
"50","","bandit","213","759654","0.0-175.0-0.0","37629236","wem/bandit_single","AJWES6SFIP3AT","gain","6","","76","L","3","","0","0","1","0.2320291273","","false","138","0.4754525561","","main_expt","0.4413786145","","0.3444805877","","0.2320291273","","","","","","",""
"11","","bandit","214","761437","0.0-176.0-0.0","37629236","wem/bandit_single","AJWES6SFIP3AT","gain","6","","76","L","3","","0","0","1","0.2705305451","","false","139","0.4525902595","","main_expt","0.4235974169","","0.4025185773","","0.2705305451","","","","","","",""
"63","","bandit","215","763266","0.0-177.0-0.0","37629236","wem/bandit_single","AJWES6SFIP3AT","gain","6","","74","J","1","","0","0","1","0.3993595144","","false","140","0.474141966","","main_expt","0.3993595144","","0.4000290511","","0.2115164241","","","","","","",""
"349","","bandit","216","765375","0.0-178.0-0.0","37629236","wem/bandit_single","AJWES6SFIP3AT","gain","6","","75","K","2","","1","0","0","0.4052231698","","false","141","0.4642583801","","main_expt","0.3845482665","","0.4052231698","","0.2166269704","","","","","","",""
"43","","bandit","217","767199","0.0-179.0-0.0","37629236","wem/bandit_single","AJWES6SFIP3AT","gain","6","","75","K","2","","1","0","0","0.3881257509","","false","142","0.4713728632","","main_expt","0.3636407915","","0.3881257509","","0.2477117994","","","","","","",""
"74","","bandit","218","769052","0.0-180.0-0.0","37629236","wem/bandit_single","AJWES6SFIP3AT","gain","6","","75","K","2","","1","0","0","0.4101759482","","false","143","0.4714731714","","main_expt","0.3360879677","","0.4101759482","","0.2347168821","","","","","","",""
"101","","bandit","219","770925","0.0-181.0-0.0","37629236","wem/bandit_single","AJWES6SFIP3AT","gain","6","","75","K","2","","0","0","1","0.4100488723","","false","144","0.4777196865","","main_expt","0.2886719504","","0.4100488723","","0.190213181","","","","","","",""
"204","","bandit","220","772899","0.0-182.0-0.0","37629236","wem/bandit_single","AJWES6SFIP3AT","gain","6","","72","H","0","img/none_selected.jpg","1","0","0","0.467438704","","false","145","0.467438704","","main_expt","0.2607344777","","0.4294240464","","0.2873677543","","","","","","",""
"171","","bandit","221","774842","0.0-183.0-0.0","37629236","wem/bandit_single","AJWES6SFIP3AT","gain","6","","72","H","0","img/none_selected.jpg","1","0","0","0.4764572222","","false","146","0.4764572222","","main_expt","0.261523257","","0.4447984025","","0.3434581746","","","","","","",""
"113","","bandit","222","776731","0.0-184.0-0.0","37629236","wem/bandit_single","AJWES6SFIP3AT","gain","6","","72","H","0","img/none_selected.jpg","1","0","0","0.4670163239","","false","147","0.4670163239","","main_expt","0.2768268543","","0.4339083406","","0.3677167414","","","","","","",""
"73","","bandit","223","778579","0.0-185.0-0.0","37629236","wem/bandit_single","AJWES6SFIP3AT","gain","6","","72","H","0","img/none_selected.jpg","0","0","1","0.4762727371","","false","148","0.4762727371","","main_expt","0.2822793125","","0.4200875786","","0.378672096","","","","","","",""
"116","","bandit","224","780484","0.0-186.0-0.0","37629236","wem/bandit_single","AJWES6SFIP3AT","gain","6","","75","K","2","","0","0","1","0.4370731276","","false","149","0.4763998188","","main_expt","0.3100291085","","0.4370731276","","0.3447579657","","","","","","",""
"80","","bandit","225","782346","0.0-187.0-0.0","37629236","wem/bandit_single","AJWES6SFIP3AT","gain","6","","75","K","2","","1","0","0","0.4606741766","","false","150","0.4534074178","","main_expt","0.3473977335","","0.4606741766","","0.3225325285","","","","","","",""
"1","","bandit","226","784137","0.0-188.0-0.0","37629236","wem/bandit_single","AJWES6SFIP3AT","gain","6","","75","K","2","","1","0","0","0.4831185644","","false","151","0.4518750411","","main_expt","0.3755194153","","0.4831185644","","0.2971371866","","","","","","",""
"31","","bandit","227","785946","0.0-189.0-0.0","37629236","wem/bandit_single","AJWES6SFIP3AT","gain","6","","75","K","2","","1","0","0","0.489350082","","false","152","0.4724220712","","main_expt","0.3931135366","","0.489350082","","0.2436525959","","","","","","",""
"219","","bandit","228","787970","0.0-190.0-0.0","37629236","wem/bandit_single","AJWES6SFIP3AT","gain","6","","75","K","2","","1","0","0","0.4874668037","","false","153","0.4655138208","","main_expt","0.3704791656","","0.4874668037","","0.2745817176","","","","","","",""
"179","","bandit","229","789922","0.0-191.0-0.0","37629236","wem/bandit_single","AJWES6SFIP3AT","gain","6","","75","K","2","","0","0","1","0.4906252114","","false","154","0.466892577","","main_expt","0.3918087328","","0.4906252114","","0.2354012901","","","","","","",""
"53","","bandit","230","791743","0.0-192.0-0.0","37629236","wem/bandit_single","AJWES6SFIP3AT","gain","6","","75","K","2","","0","0","1","0.4807331657","","false","155","0.4696525674","","main_expt","0.3629162862","","0.4807331657","","0.2125693007","","","","","","",""
"416","","bandit","231","793924","0.0-193.0-0.0","37629236","wem/bandit_single","AJWES6SFIP3AT","gain","6","","72","H","0","img/none_selected.jpg","0","0","1","0.4798639378","","false","156","0.4798639378","","main_expt","0.3329402669","","0.4886913858","","0.2344806361","","","","","","",""
"126","","bandit","232","795814","0.0-194.0-0.0","37629236","wem/bandit_single","AJWES6SFIP3AT","gain","6","","76","L","3","","0","0","1","0.1314384861","","false","157","0.4706110477","","main_expt","0.2681960896","","0.4791259403","","0.1314384861","","","","","","",""
"88","","bandit","233","797674","0.0-195.0-0.0","37629236","wem/bandit_single","AJWES6SFIP3AT","gain","6","","76","L","3","","1","0","0","0.181857365","","false","158","0.4469873257","","main_expt","0.2540197996","","0.4733263956","","0.181857365","","","","","","",""
"18","","bandit","234","799499","0.0-196.0-0.0","37629236","wem/bandit_single","AJWES6SFIP3AT","gain","6","","76","L","3","","0","0","1","0.158015958","","false","159","0.4239904196","","main_expt","0.2609952623","","0.4815819336","","0.158015958","","","","","","",""
"77","","bandit","235","801365","0.0-197.0-0.0","37629236","wem/bandit_single","AJWES6SFIP3AT","gain","6","","76","L","3","","0","0","1","0.141078422","","false","160","0.4459131135","","main_expt","0.2023108268","","0.4721468952","","0.141078422","","","","","","",""
"145","","bandit","236","803304","0.0-198.0-0.0","37629236","wem/bandit_single","AJWES6SFIP3AT","gain","6","","74","J","1","","0","0","1","0.2500661268","","false","161","0.4186734055","","main_expt","0.2500661268","","0.4711146003","","0.1347361735","","","","","","",""
"81","","bandit","237","805164","0.0-199.0-0.0","37629236","wem/bandit_single","AJWES6SFIP3AT","gain","6","","74","J","1","","0","0","1","0.2540596089","","false","162","0.3857154427","","main_expt","0.2540596089","","0.4712261849","","0.09535719087","","","","","","",""
"96","","bandit","238","807036","0.0-200.0-0.0","37629236","wem/bandit_single","AJWES6SFIP3AT","gain","6","","75","K","2","","1","0","0","0.4845321786","","false","163","0.4174701589","","main_expt","0.2601053227","","0.4845321786","","0.08326456225","","","","","","",""
"112","","bandit","239","808924","0.0-201.0-0.0","37629236","wem/bandit_single","AJWES6SFIP3AT","gain","6","","75","K","2","","1","0","0","0.4759389929","","false","164","0.3890878976","","main_expt","0.2541421927","","0.4759389929","","0.09053498257","","","","","","",""
"70","","bandit","240","810765","0.0-202.0-0.0","37629236","wem/bandit_single","AJWES6SFIP3AT","gain","6","","75","K","2","","1","0","0","0.4720948066","","false","165","0.4138915172","","main_expt","0.2481661974","","0.4720948066","","0.08506048778","","","","","","",""
"35","","bandit","241","812594","0.0-203.0-0.0","37629236","wem/bandit_single","AJWES6SFIP3AT","gain","6","","75","K","2","","0","0","1","0.4785392204","","false","166","0.3965001983","","main_expt","0.2774316831","","0.4785392204","","0.1313511463","","","","","","",""
"714","","bandit","242","815090","0.0-204.0-0.0","37629236","wem/bandit_single","AJWES6SFIP3AT","gain","6","","74","J","1","","1","0","0","0.2487678046","","false","167","0.3565429409","","main_expt","0.2487678046","","0.4807372421","","0.1176964862","","","","","","",""
"122","","bandit","243","816982","0.0-205.0-0.0","37629236","wem/bandit_single","AJWES6SFIP3AT","gain","6","","74","J","1","","0","0","1","0.3058486258","","false","168","0.3697134737","","main_expt","0.3058486258","","0.4679921472","","0.08442850793","","","","","","",""
"1","","bandit","244","818752","0.0-206.0-0.0","37629236","wem/bandit_single","AJWES6SFIP3AT","gain","6","","72","H","0","img/none_selected.jpg","0","0","1","0.3754926497","","false","169","0.3754926497","","main_expt","0.3196595105","","0.4504326489","","0.08508452716","","","","","","",""
"151","","bandit","245","820673","0.0-207.0-0.0","37629236","wem/bandit_single","AJWES6SFIP3AT","gain","6","","74","J","1","","1","0","0","0.2675331271","","false","170","0.3688606114","","main_expt","0.2675331271","","0.4575738232","","0.06647736925","","","","","","",""
"163","","bandit","246","822613","0.0-208.0-0.0","37629236","wem/bandit_single","AJWES6SFIP3AT","gain","6","","74","J","1","","0","0","1","0.2898788388","","false","171","0.3548436987","","main_expt","0.2898788388","","0.4515033555","","0.05048422731","","","","","","",""
"59","","bandit","247","824442","0.0-209.0-0.0","37629236","wem/bandit_single","AJWES6SFIP3AT","gain","6","","76","L","3","","0","0","1","0.05782489063","","false","172","0.3789739593","","main_expt","0.3066863737","","0.4804896953","","0.05782489063","","","","","","",""
"170","","bandit","248","826375","0.0-210.0-0.0","37629236","wem/bandit_single","AJWES6SFIP3AT","gain","6","","76","L","3","","0","0","1","0.05297704283","","false","173","0.361488512","","main_expt","0.2694007619","","0.4915792717","","0.05297704283","","","","","","",""
"197","","bandit","249","828346","0.0-211.0-0.0","37629236","wem/bandit_single","AJWES6SFIP3AT","gain","6","","75","K","2","","0","0","1","0.4861742571","","false","174","0.3460135238","","main_expt","0.2754062015","","0.4861742571","","0.05353397103","","","","","","",""
"70","","bandit","250","830196","0.0-212.0-0.0","37629236","wem/bandit_single","AJWES6SFIP3AT","gain","6","","74","J","1","","0","0","1","0.296446081","","false","175","0.3522158256","","main_expt","0.296446081","","0.4817940596","","0.03778759003","","","","","","",""
"174","","bandit","251","832142","0.0-213.0-0.0","37629236","wem/bandit_single","AJWES6SFIP3AT","gain","6","","72","H","0","img/none_selected.jpg","0","0","1","0.2998164985","","false","176","0.2998164985","","main_expt","0.3058710094","","0.4757066075","","0.02527008277","","","","","","",""
"130","","bandit","252","834044","0.0-214.0-0.0","37629236","wem/bandit_single","AJWES6SFIP3AT","gain","6","","72","H","0","img/none_selected.jpg","1","0","0","0.2523084086","","false","177","0.2523084086","","main_expt","0.2349503117","","0.4781570811","","0.03305249037","","","","","","",""
"76","","bandit","253","835891","0.0-215.0-0.0","37629236","wem/bandit_single","AJWES6SFIP3AT","gain","6","","72","H","0","img/none_selected.jpg","0","0","1","0.304071788","","false","178","0.304071788","","main_expt","0.2619038699","","0.4800614517","","0.03386287722","","","","","","",""
"130","","bandit","254","837784","0.0-216.0-0.0","37629236","wem/bandit_single","AJWES6SFIP3AT","gain","6","","72","H","0","img/none_selected.jpg","1","0","0","0.2871062198","","false","179","0.2871062198","","main_expt","0.2830684205","","0.4829502963","","0.04065763291","","","","","","",""
"32","","bandit","255","839594","0.0-217.0-0.0","37629236","wem/bandit_single","AJWES6SFIP3AT","gain","6","","72","H","0","img/none_selected.jpg","0","0","1","0.2266659288","","false","180","0.2266659288","","main_expt","0.3534450431","","0.4858173281","","0.05743716857","","","","","","",""
"186","","bandit","256","841556","0.0-218.0-0.0","37629236","wem/bandit_single","AJWES6SFIP3AT","gain","6","","72","H","0","img/none_selected.jpg","0","0","1","0.221928096","","false","181","0.221928096","","main_expt","0.3212605574","","0.4744777914","","0.04418568229","","","","","","",""
"405","","bandit","257","843754","0.0-219.0-0.0","37629236","wem/bandit_single","AJWES6SFIP3AT","gain","6","","72","H","0","img/none_selected.jpg","1","0","0","0.2300829386","","false","182","0.2300829386","","main_expt","0.3315430587","","0.4845259409","","0.08176319179","","","","","","",""
"143","","bandit","258","845684","0.0-220.0-0.0","37629236","wem/bandit_single","AJWES6SFIP3AT","gain","6","","72","H","0","img/none_selected.jpg","0","0","1","0.236046558","","false","183","0.236046558","","main_expt","0.3284942609","","0.481953826","","0.127405614","","","","","","",""
"161","","bandit","259","847625","0.0-221.0-0.0","37629236","wem/bandit_single","AJWES6SFIP3AT","gain","6","","74","J","1","","0","0","1","0.3122619856","","false","184","0.2923178249","","main_expt","0.3122619856","","0.4855041368","","0.08615736955","","","","","","",""
"104","","bandit","260","849502","0.0-222.0-0.0","37629236","wem/bandit_single","AJWES6SFIP3AT","gain","6","","75","K","2","","1","0","0","0.4698046591","","false","185","0.2808840613","","main_expt","0.2923416166","","0.4698046591","","0.1184297318","","","","","","",""
"158","","bandit","261","851436","0.0-223.0-0.0","37629236","wem/bandit_single","AJWES6SFIP3AT","gain","6","","75","K","2","","0","0","1","0.4595088788","","false","186","0.2016881086","","main_expt","0.2743414945","","0.4595088788","","0.1909222977","","","","","","",""
"90","","bandit","262","853313","0.0-224.0-0.0","37629236","wem/bandit_single","AJWES6SFIP3AT","gain","6","","75","K","2","","0","0","1","0.4646501277","","false","187","0.2403842116","","main_expt","0.3313242874","","0.4646501277","","0.156943311","","","","","","",""
"1769","","bandit","263","856843","0.0-225.0-0.0","37629236","wem/bandit_single","AJWES6SFIP3AT","gain","6","","75","K","2","","1","0","0","0.4587354039","","false","188","0.2559443775","","main_expt","0.3665806697","","0.4587354039","","0.139104156","","","","","","",""
"11","","bandit","264","858626","0.0-226.0-0.0","37629236","wem/bandit_single","AJWES6SFIP3AT","gain","6","","75","K","2","","0","0","1","0.4433819168","","false","189","0.2450962267","","main_expt","0.3982105691","","0.4433819168","","0.1984961232","","","","","","",""
"35","","bandit","265","860444","0.0-227.0-0.0","37629236","wem/bandit_single","AJWES6SFIP3AT","gain","6","","76","L","3","","1","0","0","0.3152507924","","false","190","0.2520413598","","main_expt","0.4063069195","","0.441597313","","0.3152507924","","","","","","",""
"211","","bandit","266","862433","0.0-228.0-0.0","37629236","wem/bandit_single","AJWES6SFIP3AT","gain","6","","76","L","3","","0","0","1","0.34868685","","false","191","0.3069822625","","main_expt","0.4073058099","","0.4447050695","","0.34868685","","","","","","",""
"68","","bandit","267","864295","0.0-229.0-0.0","37629236","wem/bandit_single","AJWES6SFIP3AT","gain","6","","76","L","3","","1","0","0","0.3244392246","","false","192","0.269658105","","main_expt","0.3597632315","","0.3903647542","","0.3244392246","","","","","","",""
"133","","bandit","268","866214","0.0-230.0-0.0","37629236","wem/bandit_single","AJWES6SFIP3AT","gain","6","","76","L","3","","0","0","1","0.3077199203","","false","193","0.2337652902","","main_expt","0.3512918873","","0.37796371","","0.3077199203","","","","","","",""
"109","","bandit","269","868128","0.0-231.0-0.0","37629236","wem/bandit_single","AJWES6SFIP3AT","gain","6","","72","H","0","img/none_selected.jpg","0","0","1","0.232364398","","false","194","0.232364398","","main_expt","0.2959519196","","0.4130200877","","0.3089314305","","","","","","",""
"13","","bandit","270","869914","0.0-232.0-0.0","37629236","wem/bandit_single","AJWES6SFIP3AT","gain","6","","74","J","1","","1","0","0","0.335494982","","false","195","0.3001816851","","main_expt","0.335494982","","0.4247195967","","0.2747286701","","","","","","",""
"227","","bandit","271","871922","0.0-233.0-0.0","37629236","wem/bandit_single","AJWES6SFIP3AT","gain","6","","74","J","1","","0","0","1","0.349715921","","false","196","0.3408234979","","main_expt","0.349715921","","0.4243543636","","0.234477082","","","","","","",""
"206","","bandit","272","873908","0.0-234.0-0.0","37629236","wem/bandit_single","AJWES6SFIP3AT","gain","6","","74","J","1","","0","0","1","0.301359959","","false","197","0.3048500693","","main_expt","0.301359959","","0.3856928417","","0.2134381397","","","","","","",""
"89","","bandit","273","875773","0.0-235.0-0.0","37629236","wem/bandit_single","AJWES6SFIP3AT","gain","6","","75","K","2","","1","0","0","0.3619593125","","false","198","0.320222978","","main_expt","0.2948231879","","0.3619593125","","0.1732682886","","","","","","",""
"49","","bandit","274","877584","0.0-236.0-0.0","37629236","wem/bandit_single","AJWES6SFIP3AT","gain","6","","75","K","2","","0","0","1","0.367752629","","false","199","0.3267381451","","main_expt","0.2739130918","","0.367752629","","0.1702760897","","","","","","",""
"57","","bandit","275","879413","0.0-237.0-0.0","37629236","wem/bandit_single","AJWES6SFIP3AT","gain","6","","75","K","2","","0","0","1","0.3243939248","","false","200","0.3471124056","","main_expt","0.2519174554","","0.3243939248","","0.1149890083","","","","","","",""
"101","","bandit","276","881290","0.0-238.0-0.0","37629236","wem/bandit_single","AJWES6SFIP3AT","gain","6","","74","J","1","","1","0","0","0.2607800984","","false","201","0.377370495","","main_expt","0.2607800984","","0.309205964","","0.1378425817","","","","","","",""
"112","","bandit","277","883186","0.0-239.0-0.0","37629236","wem/bandit_single","AJWES6SFIP3AT","gain","6","","74","J","1","","0","0","1","0.2144757733","","false","202","0.4118986778","","main_expt","0.2144757733","","0.2762714965","","0.1351165101","","","","","","",""
"25","","bandit","278","885005","0.0-240.0-0.0","37629236","wem/bandit_single","AJWES6SFIP3AT","gain","6","","72","H","0","img/none_selected.jpg","1","0","0","0.4232074982","","false","203","0.4232074982","","main_expt","0.3006883459","","0.296808735","","0.105254576","","","","","","",""
"3","","bandit","279","886810","0.0-241.0-0.0","37629236","wem/bandit_single","AJWES6SFIP3AT","gain","6","","72","H","0","img/none_selected.jpg","1","0","0","0.422672589","","false","204","0.422672589","","main_expt","0.3059688055","","0.3198559136","","0.09939331469","","","","","","",""
"9","","bandit","280","888612","0.0-242.0-0.0","37629236","wem/bandit_single","AJWES6SFIP3AT","gain","6","","72","H","0","img/none_selected.jpg","0","0","1","0.4290364806","","false","205","0.4290364806","","main_expt","0.2810212056","","0.3814451683","","0.1099723927","","","","","","",""
"2","","bandit","281","890396","0.0-243.0-0.0","37629236","wem/bandit_single","AJWES6SFIP3AT","gain","6","","72","H","0","img/none_selected.jpg","1","0","0","0.4412489094","","false","206","0.4412489094","","main_expt","0.2427537705","","0.3836436308","","0.1203356594","","","","","","",""
"36","","bandit","282","892201","0.0-244.0-0.0","37629236","wem/bandit_single","AJWES6SFIP3AT","gain","6","","72","H","0","img/none_selected.jpg","0","0","1","0.461161346","","false","207","0.461161346","","main_expt","0.2312113295","","0.3943212714","","0.1887874267","","","","","","",""
"59","","bandit","283","894034","0.0-245.0-0.0","37629236","wem/bandit_single","AJWES6SFIP3AT","gain","6","","72","H","0","img/none_selected.jpg","0","0","1","0.4749000037","","false","208","0.4749000037","","main_expt","0.2502246517","","0.4100076043","","0.1570662604","","","","","","",""
"276","","bandit","284","896095","0.0-246.0-0.0","37629236","wem/bandit_single","AJWES6SFIP3AT","gain","6","","72","H","0","img/none_selected.jpg","0","0","1","0.4677638209","","false","209","0.4677638209","","main_expt","0.2378747501","","0.4207901851","","0.2050570797","","","","","","",""
"219","","bandit","285","898087","0.0-247.0-0.0","37629236","wem/bandit_single","AJWES6SFIP3AT","gain","6","","75","K","2","","0","0","1","0.4261573075","","false","210","0.4507398287","","main_expt","0.2323826376","","0.4261573075","","0.1803355731","","","","","","",""
"135","","bandit","286","899995","0.0-248.0-0.0","37629236","wem/bandit_single","AJWES6SFIP3AT","gain","6","","76","L","3","","0","0","1","0.2066302241","","false","211","0.4275102647","","main_expt","0.2346446126","","0.3677002177","","0.2066302241","","","","","","",""
"28","","bandit","287","901804","0.0-249.0-0.0","37629236","wem/bandit_single","AJWES6SFIP3AT","gain","6","","74","J","1","","0","0","1","0.2017096022","","false","212","0.4147803006","","main_expt","0.2017096022","","0.4030871251","","0.2190460355","","","","","","",""
"122","","bandit","288","903703","0.0-250.0-0.0","37629236","wem/bandit_single","AJWES6SFIP3AT","gain","6","","75","K","2","","1","0","0","0.3616850983","","false","213","0.4119553225","","main_expt","0.2149770465","","0.3616850983","","0.2433731683","","","","","","",""
"119","","bandit","289","905595","0.0-251.0-0.0","37629236","wem/bandit_single","AJWES6SFIP3AT","gain","6","","75","K","2","","1","0","0","0.3380837625","","false","214","0.4097086646","","main_expt","0.2323699387","","0.3380837625","","0.2355486522","","","","","","",""
"202","","bandit","290","907586","0.0-252.0-0.0","37629236","wem/bandit_single","AJWES6SFIP3AT","gain","6","","75","K","2","","1","0","0","0.3788103814","","false","215","0.4553079268","","main_expt","0.1880023584","","0.3788103814","","0.2493822419","","","","","","",""
"42","","bandit","291","909427","0.0-253.0-0.0","37629236","wem/bandit_single","AJWES6SFIP3AT","gain","6","","75","K","2","","0","0","1","0.3844600678","","false","216","0.4360341733","","main_expt","0.2305078945","","0.3844600678","","0.2455091026","","","","","","",""
"86","","bandit","292","911312","0.0-254.0-0.0","37629236","wem/bandit_single","AJWES6SFIP3AT","gain","6","","75","K","2","","0","0","1","0.3747540642","","false","217","0.4337093526","","main_expt","0.2042922501","","0.3747540642","","0.193913996","","","","","","",""
"139","","bandit","293","913234","0.0-255.0-0.0","37629236","wem/bandit_single","AJWES6SFIP3AT","gain","6","","72","H","0","img/none_selected.jpg","1","0","0","0.4646024675","","false","218","0.4646024675","","main_expt","0.1827914188","","0.373903774","","0.2375794361","","","","","","",""
"96","","bandit","294","915114","0.0-256.0-0.0","37629236","wem/bandit_single","AJWES6SFIP3AT","gain","6","","72","H","0","img/none_selected.jpg","0","0","1","0.4630893692","","false","219","0.4630893692","","main_expt","0.2630445196","","0.3735380413","","0.2477723709","","","","","","",""
"84","","bandit","295","916973","0.0-257.0-0.0","37629236","wem/bandit_single","AJWES6SFIP3AT","gain","6","","72","H","0","img/none_selected.jpg","0","0","1","0.4683356487","","false","220","0.4683356487","","main_expt","0.311946342","","0.383917491","","0.2543503475","","","","","","",""
"119","","bandit","296","918862","0.0-258.0-0.0","37629236","wem/bandit_single","AJWES6SFIP3AT","gain","6","","74","J","1","","1","0","0","0.2972788283","","false","221","0.4682635517","","main_expt","0.2972788283","","0.3479973737","","0.2776519347","","","","","","",""
"0","","bandit","297","920636","0.0-259.0-0.0","37629236","wem/bandit_single","AJWES6SFIP3AT","gain","6","","74","J","1","","0","0","1","0.3550400804","","false","222","0.4771668828","","main_expt","0.3550400804","","0.3845595158","","0.2291835432","","","","","","",""
"1","","bandit","298","922412","0.0-260.0-0.0","37629236","wem/bandit_single","AJWES6SFIP3AT","gain","6","","74","J","1","","1","0","0","0.3246239653","","false","223","0.4773959318","","main_expt","0.3246239653","","0.368723436","","0.2266132179","","","","","","",""
"85","","bandit","299","924271","0.0-261.0-0.0","37629236","wem/bandit_single","AJWES6SFIP3AT","gain","6","","74","J","1","","0","0","1","0.351266899","","false","224","0.4567335023","","main_expt","0.351266899","","0.3566991655","","0.2124948974","","","","","","",""
"11","","bandit","300","926054","0.0-262.0-0.0","37629236","wem/bandit_single","AJWES6SFIP3AT","gain","6","","74","J","1","","1","0","0","0.3617362435","","false","225","0.4545703871","","main_expt","0.3617362435","","0.3557331736","","0.2168010387","","","","","","",""
"44","","bandit","301","927871","0.0-263.0-0.0","37629236","wem/bandit_single","AJWES6SFIP3AT","gain","6","","74","J","1","","0","0","1","0.3625162538","","false","226","0.4563055184","","main_expt","0.3625162538","","0.3620904828","","0.2286352314","","","","","","",""
"180","","bandit","302","929823","0.0-264.0-0.0","37629236","wem/bandit_single","AJWES6SFIP3AT","gain","6","","76","L","3","","0","0","1","0.2349833204","","false","227","0.4414344485","","main_expt","0.3638477037","","0.3794330306","","0.2349833204","","","","","","",""
"26","","bandit","303","931634","0.0-265.0-0.0","37629236","wem/bandit_single","AJWES6SFIP3AT","gain","6","","75","K","2","","0","0","1","0.3480060926","","false","228","0.4509897562","","main_expt","0.321865515","","0.3480060926","","0.2376541641","","","","","","",""
"246","","bandit","304","933661","0.0-266.0-0.0","37629236","wem/bandit_single","AJWES6SFIP3AT","gain","6","","72","H","0","img/none_selected.jpg","0","0","1","0.4355264455","","false","229","0.4355264455","","main_expt","0.2574970425","","0.3197951212","","0.2141250471","","","","","","",""
"1","","bandit","305","935438","0.0-267.0-0.0","37629236","wem/bandit_single","AJWES6SFIP3AT","gain","6","","74","J","1","","1","0","0","0.3167366343","","false","230","0.4393215817","","main_expt","0.3167366343","","0.2360623461","","0.1986478114","","","","","","",""
"262","","bandit","306","937473","0.0-268.0-0.0","37629236","wem/bandit_single","AJWES6SFIP3AT","gain","6","","74","J","1","","0","0","1","0.359889087","","false","231","0.426442838","","main_expt","0.359889087","","0.228441671","","0.1632677176","","","","","","",""
"289","","bandit","307","939532","0.0-269.0-0.0","37629236","wem/bandit_single","AJWES6SFIP3AT","gain","6","","74","J","1","","0","0","1","0.3765691143","","false","232","0.4455015341","","main_expt","0.3765691143","","0.2233622879","","0.1437929512","","","","","","",""
"276","","bandit","308","941582","0.0-270.0-0.0","37629236","wem/bandit_single","AJWES6SFIP3AT","gain","6","","75","K","2","","0","0","1","0.1782647691","","false","233","0.4370113712","","main_expt","0.351320345","","0.1782647691","","0.2490618922","","","","","","",""
"8","","bandit","309","943365","0.0-271.0-0.0","37629236","wem/bandit_single","AJWES6SFIP3AT","gain","6","","72","H","0","img/none_selected.jpg","1","0","0","0.4228056097","","false","234","0.4228056097","","main_expt","0.2997083133","","0.1971530904","","0.2811602772","","","","","","",""
"133","","bandit","310","945272","0.0-272.0-0.0","37629236","wem/bandit_single","AJWES6SFIP3AT","gain","6","","72","H","0","img/none_selected.jpg","1","0","0","0.4176536857","","false","235","0.4176536857","","main_expt","0.3526624454","","0.2109348075","","0.332316849","","","","","","",""
"168","","bandit","311","947203","0.0-273.0-0.0","37629236","wem/bandit_single","AJWES6SFIP3AT","gain","6","","72","H","0","img/none_selected.jpg","0","0","1","0.419442654","","false","236","0.419442654","","main_expt","0.3050627859","","0.1891579582","","0.3059905229","","","","","","",""
"145","","bandit","312","949123","0.0-274.0-0.0","37629236","wem/bandit_single","AJWES6SFIP3AT","gain","6","","72","H","0","img/none_selected.jpg","1","0","0","0.4082659589","","false","237","0.4082659589","","main_expt","0.312969263","","0.1278978542","","0.3058344165","","","","","","",""
"0","","bandit","313","950929","0.0-275.0-0.0","37629236","wem/bandit_single","AJWES6SFIP3AT","gain","6","","72","H","0","img/none_selected.jpg","1","0","0","0.4108407801","","false","238","0.4108407801","","main_expt","0.380225341","","0.1509653188","","0.2931512536","","","","","","",""
"113","","bandit","314","952825","0.0-276.0-0.0","37629236","wem/bandit_single","AJWES6SFIP3AT","gain","6","","72","H","0","img/none_selected.jpg","1","0","0","0.4378360478","","false","239","0.4378360478","","main_expt","0.3657076542","","0.1919733462","","0.2922133777","","","","","","",""
"6","","bandit","315","954616","0.0-277.0-0.0","37629236","wem/bandit_single","AJWES6SFIP3AT","gain","6","","72","H","0","img/none_selected.jpg","1","0","0","0.4467030129","","false","240","0.4467030129","","main_expt","0.3815359164","","0.1751407906","","0.3452033359","","","","","","",""
"104","","bandit","316","956504","0.0-278.0-0.0","37629236","wem/bandit_single","AJWES6SFIP3AT","gain","6","","72","H","0","img/none_selected.jpg","0","0","1","0.4705393647","","false","241","0.4705393647","","main_expt","0.3251101936","","0.1759125222","","0.3682897549","","","","","","",""
"66","","bandit","317","958352","0.0-279.0-0.0","37629236","wem/bandit_single","AJWES6SFIP3AT","gain","6","","72","H","0","img/none_selected.jpg","1","0","0","0.4610792938","","false","242","0.4610792938","","main_expt","0.3212185421","","0.2137068054","","0.3628947189","","","","","","",""
"634","","bandit","318","960787","0.0-280.0-0.0","37629236","wem/bandit_single","AJWES6SFIP3AT","gain","6","","72","H","0","img/none_selected.jpg","0","0","1","0.4437729889","","false","243","0.4437729889","","main_expt","0.3270030252","","0.2179170348","","0.3766569032","","","","","","",""
"275","","bandit","319","962853","0.0-281.0-0.0","37629236","wem/bandit_single","AJWES6SFIP3AT","gain","6","","72","H","0","img/none_selected.jpg","0","0","1","0.4199869792","","false","244","0.4199869792","","main_expt","0.309973419","","0.2426329099","","0.377991886","","","","","","",""
"814","","bandit","320","965432","0.0-282.0-0.0","37629236","wem/bandit_single","AJWES6SFIP3AT","gain","6","","72","H","0","img/none_selected.jpg","0","0","1","0.4183767379","","false","245","0.4183767379","","main_expt","0.3342881273","","0.2351694379","","0.304751896","","","","","","",""
"368","","bandit","321","967563","0.0-283.0-0.0","37629236","wem/bandit_single","AJWES6SFIP3AT","gain","6","","72","H","0","img/none_selected.jpg","0","0","1","0.4292136751","","false","246","0.4292136751","","main_expt","0.3149240913","","0.2111663312","","0.3348187262","","","","","","",""
"586","","bandit","322","969934","0.0-284.0-0.0","37629236","wem/bandit_single","AJWES6SFIP3AT","gain","6","","74","J","1","","0","0","1","0.296458043","","false","247","0.4577956797","","main_expt","0.296458043","","0.1899020887","","0.3307987246","","","","","","",""
"243","","bandit","323","971954","0.0-285.0-0.0","37629236","wem/bandit_single","AJWES6SFIP3AT","gain","6","","75","K","2","","0","0","1","0.2151484255","","false","248","0.4586239927","","main_expt","0.3038576119","","0.2151484255","","0.3774544282","","","","","","",""
"176","","bandit","324","973913","0.0-286.0-0.0","37629236","wem/bandit_single","AJWES6SFIP3AT","gain","6","","76","L","3","","0","0","1","0.3553688181","","false","249","0.4709187109","","main_expt","0.3383832125","","0.2454548658","","0.3553688181","","","","","","",""
"106","","bandit","325","975796","0.0-287.0-0.0","37629236","wem/bandit_single","AJWES6SFIP3AT","gain","6","","76","L","3","","0","0","1","0.3209961504","","false","250","0.4742496359","","main_expt","0.3505221498","","0.1973527755","","0.3209961504","","","","","","",""
"290","","bandit","326","977875","0.0-288.0-0.0","37629236","wem/bandit_single","AJWES6SFIP3AT","gain","6","","72","H","0","img/none_selected.jpg","1","0","0","0.4684276702","","false","251","0.4684276702","","main_expt","0.3439557404","","0.2459600056","","0.2938420796","","","","","","",""
"67","","bandit","327","979727","0.0-289.0-0.0","37629236","wem/bandit_single","AJWES6SFIP3AT","gain","6","","72","H","0","img/none_selected.jpg","0","0","1","0.465775704","","false","252","0.465775704","","main_expt","0.3394881367","","0.2361341643","","0.2377141092","","","","","","",""
"434","","bandit","328","981923","0.0-290.0-0.0","37629236","wem/bandit_single","AJWES6SFIP3AT","gain","6","","72","H","0","img/none_selected.jpg","0","0","1","0.4739398589","","false","253","0.4739398589","","main_expt","0.3195186677","","0.2263014677","","0.28098189","","","","","","",""
"1248","","bandit","329","984946","0.0-291.0-0.0","37629236","wem/bandit_single","AJWES6SFIP3AT","gain","6","","74","J","1","","1","0","0","0.3607388593","","false","254","0.4709597483","","main_expt","0.3607388593","","0.2384195691","","0.36168886","","","","","","",""
"61","","bandit","330","986782","0.0-292.0-0.0","37629236","wem/bandit_single","AJWES6SFIP3AT","gain","6","","74","J","1","","1","0","0","0.3801942793","","false","255","0.468651231","","main_expt","0.3801942793","","0.2186709452","","0.3196270919","","","","","","",""
"223","","bandit","331","988782","0.0-293.0-0.0","37629236","wem/bandit_single","AJWES6SFIP3AT","gain","6","","74","J","1","","1","0","0","0.2987962353","","false","256","0.4837462493","","main_expt","0.2987962353","","0.1625458568","","0.3201998045","","","","","","",""
"26","","bandit","332","990586","0.0-294.0-0.0","37629236","wem/bandit_single","AJWES6SFIP3AT","gain","6","","74","J","1","","0","0","1","0.272571782","","false","257","0.4842399178","","main_expt","0.272571782","","0.159361747","","0.3576002339","","","","","","",""
"489","","bandit","333","992863","0.0-295.0-0.0","37629236","wem/bandit_single","AJWES6SFIP3AT","gain","6","","74","J","1","","1","0","0","0.2593204486","","false","258","0.4878873921","","main_expt","0.2593204486","","0.1556255119","","0.3715220428","","","","","","",""
"284","","bandit","334","994931","0.0-296.0-0.0","37629236","wem/bandit_single","AJWES6SFIP3AT","gain","6","","74","J","1","","0","0","1","0.2951424317","","false","259","0.4869160663","","main_expt","0.2951424317","","0.1256368346","","0.3730860303","","","","","","",""
"81","","bandit","335","996783","0.0-297.0-0.0","37629236","wem/bandit_single","AJWES6SFIP3AT","gain","6","","74","J","1","","1","0","0","0.2369093976","","false","260","0.4912834456","","main_expt","0.2369093976","","0.1449854444","","0.3724964978","","","","","","",""
"46","","bandit","336","998615","0.0-298.0-0.0","37629236","wem/bandit_single","AJWES6SFIP3AT","gain","6","","74","J","1","","0","0","1","0.2234433316","","false","261","0.4907072989","","main_expt","0.2234433316","","0.1647157085","","0.3574286068","","","","","","",""
"200","","bandit","337","1000603","0.0-299.0-0.0","37629236","wem/bandit_single","AJWES6SFIP3AT","gain","6","","74","J","1","","0","0","1","0.215626833","","false","262","0.4904114062","","main_expt","0.215626833","","0.1586541082","","0.4204463107","","","","","","",""
"3","","bandit","338","1002401","0.0-300.0-0.0","37629236","wem/bandit_single","AJWES6SFIP3AT","gain","6","","75","K","2","","0","0","1","0.1683870388","","false","263","0.4900075499","","main_expt","0.2227197798","","0.1683870388","","0.4244263348","","","","","","",""
"86","","bandit","339","1004261","0.0-301.0-0.0","37629236","wem/bandit_single","AJWES6SFIP3AT","gain","6","","76","L","3","","0","0","1","0.4217668892","","false","264","0.4922230388","","main_expt","0.2113558788","","0.2205087037","","0.4217668892","","","","","","",""
"12","","bandit","340","1006036","0.0-302.0-0.0","37629236","wem/bandit_single","AJWES6SFIP3AT","gain","6","","72","H","0","img/none_selected.jpg","1","0","0","0.4892111554","","false","265","0.4892111554","","main_expt","0.1814287308","","0.1554736059","","0.3908218086","","","","","","",""
"354","","bandit","341","1008153","0.0-303.0-0.0","37629236","wem/bandit_single","AJWES6SFIP3AT","gain","6","","72","H","0","img/none_selected.jpg","1","0","0","0.4894097466","","false","266","0.4894097466","","main_expt","0.2579261203","","0.1556775797","","0.350583855","","","","","","",""
"196","","bandit","342","1010143","0.0-304.0-0.0","37629236","wem/bandit_single","AJWES6SFIP3AT","gain","6","","72","H","0","img/none_selected.jpg","0","0","1","0.4898547377","","false","267","0.4898547377","","main_expt","0.3033521226","","0.1732223335","","0.2971845499","","","","","","",""
"19","","bandit","343","1011947","0.0-305.0-0.0","37629236","wem/bandit_single","AJWES6SFIP3AT","gain","6","","76","L","3","","0","0","1","0.3271935382","","false","268","0.4960714099","","main_expt","0.2697057224","","0.1670192172","","0.3271935382","","","","","","",""
"131","","bandit","344","1013853","0.0-306.0-0.0","37629236","wem/bandit_single","AJWES6SFIP3AT","gain","6","","75","K","2","","0","0","1","0.1666577124","","false","269","0.4951393121","","main_expt","0.3075876552","","0.1666577124","","0.2912245063","","","","","","",""
"21","","bandit","345","1015653","0.0-307.0-0.0","37629236","wem/bandit_single","AJWES6SFIP3AT","gain","6","","74","J","1","","0","0","1","0.3437361696","","false","270","0.4903783272","","main_expt","0.3437361696","","0.1133531577","","0.3007980493","","","","","","",""
"176","","bandit","346","1017622","0.0-308.0-0.0","37629236","wem/bandit_single","AJWES6SFIP3AT","gain","6","","72","H","0","img/none_selected.jpg","0","0","1","0.4932948231","","false","271","0.4932948231","","main_expt","0.2596534978","","0.1453503833","","0.3025875308","","","","","","",""
"8572","","bandit","347","1027991","0.0-309.0-0.0","37629236","wem/bandit_single","AJWES6SFIP3AT","gain","6","","75","K","2","","1","0","0","0.1542373291","","false","272","0.4950636705","","main_expt","0.2680739133","","0.1542373291","","0.2608882705","","","","","","",""
"19","","bandit","348","1029793","0.0-310.0-0.0","37629236","wem/bandit_single","AJWES6SFIP3AT","gain","6","","75","K","2","","0","0","1","0.1312836042","","false","273","0.4866982898","","main_expt","0.2287209558","","0.1312836042","","0.2985246063","","","","","","",""
"13","","bandit","349","1031583","0.0-311.0-0.0","37629236","wem/bandit_single","AJWES6SFIP3AT","gain","6","","75","K","2","","1","0","0","0.1616535947","","false","274","0.4654226264","","main_expt","0.2659047846","","0.1616535947","","0.296104213","","","","","","",""
"69","","bandit","350","1033431","0.0-312.0-0.0","37629236","wem/bandit_single","AJWES6SFIP3AT","gain","6","","75","K","2","","0","0","1","0.163822666","","false","275","0.4633702838","","main_expt","0.2303642271","","0.163822666","","0.2897414639","","","","","","",""
"164","","bandit","351","1035370","0.0-313.0-0.0","37629236","wem/bandit_single","AJWES6SFIP3AT","gain","6","","76","L","3","","1","0","0","0.296822441","","false","276","0.4741710053","","main_expt","0.2631654739","","0.1500588852","","0.296822441","","","","","","",""
"58","","bandit","352","1037193","0.0-314.0-0.0","37629236","wem/bandit_single","AJWES6SFIP3AT","gain","6","","76","L","3","","0","0","1","0.2769528726","","false","277","0.4821206929","","main_expt","0.2660527836","","0.1975700973","","0.2769528726","","","","","","",""
"105","","bandit","353","1039073","0.0-315.0-0.0","37629236","wem/bandit_single","AJWES6SFIP3AT","gain","6","","76","L","3","","0","0","1","0.3356585436","","false","278","0.4704549119","","main_expt","0.2869547209","","0.1355298524","","0.3356585436","","","","","","",""
"3","","bandit","354","1040854","0.0-316.0-0.0","37629236","wem/bandit_single","AJWES6SFIP3AT","gain","6","","72","H","0","img/none_selected.jpg","0","0","1","0.4749598821","","false","279","0.4749598821","","main_expt","0.3594721793","","0.1437345226","","0.3222384225","","","","","","",""
"4","","bandit","355","1042631","0.0-317.0-0.0","37629236","wem/bandit_single","AJWES6SFIP3AT","gain","6","","74","J","1","","0","0","1","0.3903699723","","false","280","0.4385317488","","main_expt","0.3903699723","","0.126787642","","0.27346357","","","","","","",""
"190","","bandit","356","1044583","0.0-318.0-0.0","37629236","wem/bandit_single","AJWES6SFIP3AT","gain","6","","75","K","2","","0","0","1","0.1765789866","","false","281","0.4397970497","","main_expt","0.4583904318","","0.1765789866","","0.3633072925","","","","","","",""
"16","","bandit","357","1046397","0.0-319.0-0.0","37629236","wem/bandit_single","AJWES6SFIP3AT","gain","6","","72","H","0","img/none_selected.jpg","1","0","0","0.4485424667","","false","282","0.4485424667","","main_expt","0.4689346609","","0.1659157347","","0.3269934488","","","","","","",""
"167","","bandit","358","1048344","0.0-320.0-0.0","37629236","wem/bandit_single","AJWES6SFIP3AT","gain","6","","72","H","0","img/none_selected.jpg","0","0","1","0.4460930912","","false","283","0.4460930912","","main_expt","0.460541741","","0.1876778028","","0.324321327","","","","","","",""
"125","","bandit","359","1050242","0.0-321.0-0.0","37629236","wem/bandit_single","AJWES6SFIP3AT","gain","6","","74","J","1","","0","0","1","0.4485703909","","false","284","0.46041158","","main_expt","0.4485703909","","0.2072959333","","0.2677217275","","","","","","",""
"7","","bandit","360","1052015","0.0-322.0-0.0","37629236","wem/bandit_single","AJWES6SFIP3AT","gain","6","","75","K","2","","0","0","1","0.2171876524","","false","285","0.4722631388","","main_expt","0.4493749552","","0.2171876524","","0.2832280908","","","","","","",""
"40","","bandit","361","1053832","0.0-323.0-0.0","37629236","wem/bandit_single","AJWES6SFIP3AT","gain","6","","76","L","3","","0","0","1","0.3338799161","","false","286","0.4710864859","","main_expt","0.4223312446","","0.224404947","","0.3338799161","","","","","","",""
"61","","bandit","362","1055661","0.0-324.0-0.0","37629236","wem/bandit_single","AJWES6SFIP3AT","gain","6","","72","H","0","img/none_selected.jpg","1","0","0","0.4400158941","","false","287","0.4400158941","","main_expt","0.457140216","","0.2249093708","","0.3484096991","","","","","","",""
"157","","bandit","363","1057592","0.0-325.0-0.0","37629236","wem/bandit_single","AJWES6SFIP3AT","gain","6","","72","H","0","img/none_selected.jpg","1","0","0","0.4036546776","","false","288","0.4036546776","","main_expt","0.4411377771","","0.2219747159","","0.3215301514","","","","","","",""
"50","","bandit","364","1059412","0.0-326.0-0.0","37629236","wem/bandit_single","AJWES6SFIP3AT","gain","6","","72","H","0","img/none_selected.jpg","1","0","0","0.4324218596","","false","289","0.4324218596","","main_expt","0.4501271696","","0.2183007497","","0.2965974011","","","","","","",""
"11","","bandit","365","1061191","0.0-327.0-0.0","37629236","wem/bandit_single","AJWES6SFIP3AT","gain","6","","72","H","0","img/none_selected.jpg","1","0","0","0.4536473803","","false","290","0.4536473803","","main_expt","0.4436507911","","0.2481136515","","0.2926361454","","","","","","",""
"127","","bandit","366","1063093","0.0-328.0-0.0","37629236","wem/bandit_single","AJWES6SFIP3AT","gain","6","","72","H","0","img/none_selected.jpg","1","0","0","0.4634661847","","false","291","0.4634661847","","main_expt","0.4381939672","","0.2972088317","","0.243163711","","","","","","",""
"185","","bandit","367","1065052","0.0-329.0-0.0","37629236","wem/bandit_single","AJWES6SFIP3AT","gain","6","","72","H","0","img/none_selected.jpg","1","0","0","0.4609966616","","false","292","0.4609966616","","main_expt","0.4101305143","","0.2998647236","","0.2064952975","","","","","","",""
"102","","bandit","368","1066933","0.0-330.0-0.0","37629236","wem/bandit_single","AJWES6SFIP3AT","gain","6","","72","H","0","img/none_selected.jpg","0","0","1","0.4648618971","","false","293","0.4648618971","","main_expt","0.4297915702","","0.2861810992","","0.2099334792","","","","","","",""
"124","","bandit","369","1068832","0.0-331.0-0.0","37629236","wem/bandit_single","AJWES6SFIP3AT","gain","6","","72","H","0","img/none_selected.jpg","0","0","1","0.4582487824","","false","294","0.4582487824","","main_expt","0.4537219743","","0.345484004","","0.2507358833","","","","","","",""
"17","","bandit","370","1070632","0.0-332.0-0.0","37629236","wem/bandit_single","AJWES6SFIP3AT","gain","6","","74","J","1","","1","0","0","0.4694953972","","false","295","0.4482247061","","main_expt","0.4694953972","","0.3251772281","","0.2494268831","","","","","","",""
"90","","bandit","371","1072512","0.0-333.0-0.0","37629236","wem/bandit_single","AJWES6SFIP3AT","gain","6","","74","J","1","","1","0","0","0.4880383038","","false","296","0.42326912","","main_expt","0.4880383038","","0.2953905587","","0.2867080039","","","","","","",""
"194","","bandit","372","1074487","0.0-334.0-0.0","37629236","wem/bandit_single","AJWES6SFIP3AT","gain","6","","74","J","1","","0","0","1","0.4916251568","","false","297","0.4151021773","","main_expt","0.4916251568","","0.2717848064","","0.2983387387","","","","","","",""
"214","","bandit","373","1076492","0.0-335.0-0.0","37629236","wem/bandit_single","AJWES6SFIP3AT","gain","6","","75","K","2","","0","0","1","0.2682571213","","false","298","0.4270228344","","main_expt","0.4921476303","","0.2682571213","","0.2982690602","","","","","","",""
