"rt","responses","trial_type","trial_index","time_elapsed","internal_node_id","subjID","study","MID","cond","drift","key_press","respCharCode","respKey","respChoiceNum","respChoice","gems","bombs","no_reward","GemPrChosen","BombPrChosen","practice","trial_counter","WinPr_0","LosePr_0","trial_label","WinPr_1","LosePr_1","WinPr_2","LosePr_2","WinPr_3","LosePr_3","Q0","Q1","Q2","gender","age","ethnicity"
"6239","{""Q0"":""AC5UD8N187QD6""}","survey-text","0","6245","0.0-0.0","37819703","wem/bandit_single","AC5UD8N187QD6","gain","4","","","","","","","","","","","","","","","","","","","","","","","","","","",""
"1260","","text","1","8510","0.0-1.0","37819703","wem/bandit_single","AC5UD8N187QD6","gain","4","32","","","","","","","","","","","","","","","","","","","","","","","","","",""
"2732","","text","2","11243","0.0-2.0","37819703","wem/bandit_single","AC5UD8N187QD6","gain","4","32","","","","","","","","","","","","","","","","","","","","","","","","","",""
"9959","","text","3","21204","0.0-3.0","37819703","wem/bandit_single","AC5UD8N187QD6","gain","4","32","","","","","","","","","","","","","","","","","","","","","","","","","",""
"6813","","text","4","28019","0.0-4.0","37819703","wem/bandit_single","AC5UD8N187QD6","gain","4","32","","","","","","","","","","","","","","","","","","","","","","","","","",""
"5103","","text","5","33124","0.0-5.0","37819703","wem/bandit_single","AC5UD8N187QD6","gain","4","32","","","","","","","","","","","","","","","","","","","","","","","","","",""
"2796","","text","6","35922","0.0-6.0","37819703","wem/bandit_single","AC5UD8N187QD6","gain","4","32","","","","","","","","","","","","","","","","","","","","","","","","","",""
"2006","","text","7","37930","0.0-7.0","37819703","wem/bandit_single","AC5UD8N187QD6","gain","4","32","","","","","","","","","","","","","","","","","","","","","","","","","",""
"1815","","text","8","39746","0.0-8.0","37819703","wem/bandit_single","AC5UD8N187QD6","gain","4","32","","","","","","","","","","","","","","","","","","","","","","","","","",""
"4184","","text","9","43931","0.0-9.0","37819703","wem/bandit_single","AC5UD8N187QD6","gain","4","32","","","","","","","","","","","","","","","","","","","","","","","","","",""
"7036","","text","10","50969","0.0-10.0","37819703","wem/bandit_single","AC5UD8N187QD6","gain","4","32","","","","","","","","","","","","","","","","","","","","","","","","","",""
"11503","","text","11","62473","0.0-11.0","37819703","wem/bandit_single","AC5UD8N187QD6","gain","4","32","","","","","","","","","","","","","","","","","","","","","","","","","",""
"2204","","bandit","12","66192","0.0-12.0-0.0","37819703","wem/bandit_single","AC5UD8N187QD6","gain","4","","74","J","0","img/none_selected_demo.jpg","0","0","1","0","0","true","0","0","0","","","","","","","","","","","","",""
"687","","bandit","13","68642","0.0-13.0-0.0","37819703","wem/bandit_single","AC5UD8N187QD6","gain","4","","75","K","0","img/none_selected_demo.jpg","0","0","1","0","0","true","0","0","0","","","","","","","","","","","","",""
"1918","","text","14","70816","0.0-14.0","37819703","wem/bandit_single","AC5UD8N187QD6","gain","4","32","","","","","","","","","","","","","","","","","","","","","","","","","",""
"1175","","text","15","71992","0.0-15.0","37819703","wem/bandit_single","AC5UD8N187QD6","gain","4","32","","","","","","","","","","","","","","","","","","","","","","","","","",""
"1743","","text","16","73737","0.0-16.0","37819703","wem/bandit_single","AC5UD8N187QD6","gain","4","32","","","","","","","","","","","","","","","","","","","","","","","","","",""
"4567","","text","17","78306","0.0-17.0","37819703","wem/bandit_single","AC5UD8N187QD6","gain","4","32","","","","","","","","","","","","","","","","","","","","","","","","","",""
"1525","","bandit","18","81343","0.0-18.0-0.0","37819703","wem/bandit_single","AC5UD8N187QD6","gain","4","","74","J","0","img/none_selected_demo.jpg","1","0","0","0.8","0","true","0","0.8","0","80_20_practice","0.2","0","","","","","","","","","",""
"538","","bandit","19","83647","0.0-18.0-1.0","37819703","wem/bandit_single","AC5UD8N187QD6","gain","4","","74","J","0","img/none_selected_demo.jpg","0","0","1","0.8","0","true","0","0.8","0","80_20_practice","0.2","0","","","","","","","","","",""
"187","","bandit","20","85598","0.0-18.0-2.0","37819703","wem/bandit_single","AC5UD8N187QD6","gain","4","","74","J","0","img/none_selected_demo.jpg","1","0","0","0.8","0","true","0","0.8","0","80_20_practice","0.2","0","","","","","","","","","",""
"273","","bandit","21","87636","0.0-18.0-3.0","37819703","wem/bandit_single","AC5UD8N187QD6","gain","4","","74","J","0","img/none_selected_demo.jpg","0","0","1","0.8","0","true","0","0.8","0","80_20_practice","0.2","0","","","","","","","","","",""
"116","","bandit","22","89516","0.0-18.0-4.0","37819703","wem/bandit_single","AC5UD8N187QD6","gain","4","","75","K","1","","0","0","1","0.2","0","true","0","0.8","0","80_20_practice","0.2","0","","","","","","","","","",""
"110","","bandit","23","91391","0.0-18.0-5.0","37819703","wem/bandit_single","AC5UD8N187QD6","gain","4","","75","K","1","","1","0","0","0.2","0","true","0","0.8","0","80_20_practice","0.2","0","","","","","","","","","",""
"218","","bandit","24","93370","0.0-18.0-6.0","37819703","wem/bandit_single","AC5UD8N187QD6","gain","4","","75","K","1","","0","0","1","0.2","0","true","0","0.8","0","80_20_practice","0.2","0","","","","","","","","","",""
"92","","bandit","25","95228","0.0-18.0-7.0","37819703","wem/bandit_single","AC5UD8N187QD6","gain","4","","74","J","0","img/none_selected_demo.jpg","1","0","0","0.8","0","true","0","0.8","0","80_20_practice","0.2","0","","","","","","","","","",""
"99","","bandit","26","97091","0.0-18.0-8.0","37819703","wem/bandit_single","AC5UD8N187QD6","gain","4","","74","J","0","img/none_selected_demo.jpg","1","0","0","0.8","0","true","0","0.8","0","80_20_practice","0.2","0","","","","","","","","","",""
"156","","bandit","27","99012","0.0-18.0-9.0","37819703","wem/bandit_single","AC5UD8N187QD6","gain","4","","74","J","0","img/none_selected_demo.jpg","1","0","0","0.8","0","true","0","0.8","0","80_20_practice","0.2","0","","","","","","","","","",""
"75","","bandit","28","100852","0.0-18.0-10.0","37819703","wem/bandit_single","AC5UD8N187QD6","gain","4","","74","J","0","img/none_selected_demo.jpg","1","0","0","0.8","0","true","0","0.8","0","80_20_practice","0.2","0","","","","","","","","","",""
"99","","bandit","29","102715","0.0-18.0-11.0","37819703","wem/bandit_single","AC5UD8N187QD6","gain","4","","74","J","0","img/none_selected_demo.jpg","1","0","0","0.8","0","true","0","0.8","0","80_20_practice","0.2","0","","","","","","","","","",""
"1602","","bandit","30","106083","0.0-18.0-12.0","37819703","wem/bandit_single","AC5UD8N187QD6","gain","4","","74","J","0","img/none_selected_demo.jpg","1","0","0","0.8","0","true","0","0.8","0","80_20_practice","0.2","0","","","","","","","","","",""
"179","","bandit","31","108021","0.0-18.0-13.0","37819703","wem/bandit_single","AC5UD8N187QD6","gain","4","","74","J","0","img/none_selected_demo.jpg","1","0","0","0.8","0","true","0","0.8","0","80_20_practice","0.2","0","","","","","","","","","",""
"138","","bandit","32","109925","0.0-18.0-14.0","37819703","wem/bandit_single","AC5UD8N187QD6","gain","4","","74","J","0","img/none_selected_demo.jpg","1","0","0","0.8","0","true","0","0.8","0","80_20_practice","0.2","0","","","","","","","","","",""
"201","","bandit","33","111893","0.0-18.0-15.0","37819703","wem/bandit_single","AC5UD8N187QD6","gain","4","","74","J","0","img/none_selected_demo.jpg","1","0","0","0.8","0","true","0","0.8","0","80_20_practice","0.2","0","","","","","","","","","",""
"284","","bandit","34","113942","0.0-18.0-16.0","37819703","wem/bandit_single","AC5UD8N187QD6","gain","4","","74","J","0","img/none_selected_demo.jpg","0","0","1","0.8","0","true","0","0.8","0","80_20_practice","0.2","0","","","","","","","","","",""
"63","","bandit","35","115771","0.0-18.0-17.0","37819703","wem/bandit_single","AC5UD8N187QD6","gain","4","","74","J","0","img/none_selected_demo.jpg","1","0","0","0.8","0","true","0","0.8","0","80_20_practice","0.2","0","","","","","","","","","",""
"43","","bandit","36","117576","0.0-18.0-18.0","37819703","wem/bandit_single","AC5UD8N187QD6","gain","4","","74","J","0","img/none_selected_demo.jpg","1","0","0","0.8","0","true","0","0.8","0","80_20_practice","0.2","0","","","","","","","","","",""
"70","","bandit","37","119407","0.0-18.0-19.0","37819703","wem/bandit_single","AC5UD8N187QD6","gain","4","","74","J","0","img/none_selected_demo.jpg","0","0","1","0.8","0","true","0","0.8","0","80_20_practice","0.2","0","","","","","","","","","",""
"1754","","text","38","121414","0.0-19.0","37819703","wem/bandit_single","AC5UD8N187QD6","gain","4","32","","","","","","","","","","","","","","","","","","","","","","","","","",""
"1054","","bandit","39","123974","0.0-20.0-0.0","37819703","wem/bandit_single","AC5UD8N187QD6","gain","4","","74","J","0","img/none_selected_demo.jpg","0","0","1","0","0","true","0","0","0","","0","0","","","","","","","","","",""
"5185","","text","40","129414","0.0-21.0","37819703","wem/bandit_single","AC5UD8N187QD6","gain","4","32","","","","","","","","","","","","","","","","","","","","","","","","","",""
"2023","","text","41","131438","0.0-22.0","37819703","wem/bandit_single","AC5UD8N187QD6","gain","4","32","","","","","","","","","","","","","","","","","","","","","","","","","",""
"1719","","text","42","133159","0.0-23.0","37819703","wem/bandit_single","AC5UD8N187QD6","gain","4","32","","","","","","","","","","","","","","","","","","","","","","","","","",""
"2982","","text","43","136142","0.0-24.0","37819703","wem/bandit_single","AC5UD8N187QD6","gain","4","32","","","","","","","","","","","","","","","","","","","","","","","","","",""
"2871","","text","44","139014","0.0-25.0","37819703","wem/bandit_single","AC5UD8N187QD6","gain","4","32","","","","","","","","","","","","","","","","","","","","","","","","","",""
"1838","","text","45","140854","0.0-26.0","37819703","wem/bandit_single","AC5UD8N187QD6","gain","4","32","","","","","","","","","","","","","","","","","","","","","","","","","",""
"2222","","text","46","143078","0.0-27.0","37819703","wem/bandit_single","AC5UD8N187QD6","gain","4","32","","","","","","","","","","","","","","","","","","","","","","","","","",""
"1576","","text","47","144655","0.0-28.0","37819703","wem/bandit_single","AC5UD8N187QD6","gain","4","32","","","","","","","","","","","","","","","","","","","","","","","","","",""
"3285","","text","48","147942","0.0-29.0","37819703","wem/bandit_single","AC5UD8N187QD6","gain","4","32","","","","","","","","","","","","","","","","","","","","","","","","","",""
"2286","","text","49","150229","0.0-30.0","37819703","wem/bandit_single","AC5UD8N187QD6","gain","4","32","","","","","","","","","","","","","","","","","","","","","","","","","",""
"10159","","text","50","160390","0.0-31.0","37819703","wem/bandit_single","AC5UD8N187QD6","gain","4","32","","","","","","","","","","","","","","","","","","","","","","","","","",""
"893","","bandit","51","162795","0.0-32.0-0.0","37819703","wem/bandit_single","AC5UD8N187QD6","gain","4","","72","H","0","img/none_selected.jpg","1","0","0","0.8","0","true","0","0.8","0","full_practice","0.2","0","0.6","0","0.2","0","","","","","",""
"218","","bandit","52","164774","0.0-32.0-1.0","37819703","wem/bandit_single","AC5UD8N187QD6","gain","4","","72","H","0","img/none_selected.jpg","1","0","0","0.8","0","true","0","0.8","0","full_practice","0.2","0","0.6","0","0.2","0","","","","","",""
"309","","bandit","53","166847","0.0-32.0-2.0","37819703","wem/bandit_single","AC5UD8N187QD6","gain","4","","72","H","0","img/none_selected.jpg","0","0","1","0.8","0","true","0","0.8","0","full_practice","0.2","0","0.6","0","0.2","0","","","","","",""
"83","","bandit","54","168697","0.0-32.0-3.0","37819703","wem/bandit_single","AC5UD8N187QD6","gain","4","","74","J","1","","1","0","0","0.2","0","true","0","0.8","0","full_practice","0.2","0","0.6","0","0.2","0","","","","","",""
"278","","bandit","55","170735","0.0-32.0-4.0","37819703","wem/bandit_single","AC5UD8N187QD6","gain","4","","74","J","1","","0","0","1","0.2","0","true","0","0.8","0","full_practice","0.2","0","0.6","0","0.2","0","","","","","",""
"181","","bandit","56","172681","0.0-32.0-5.0","37819703","wem/bandit_single","AC5UD8N187QD6","gain","4","","74","J","1","","0","0","1","0.2","0","true","0","0.8","0","full_practice","0.2","0","0.6","0","0.2","0","","","","","",""
"261","","bandit","57","174707","0.0-32.0-6.0","37819703","wem/bandit_single","AC5UD8N187QD6","gain","4","","75","K","2","","1","0","0","0.6","0","true","0","0.8","0","full_practice","0.2","0","0.6","0","0.2","0","","","","","",""
"351","","bandit","58","176826","0.0-32.0-7.0","37819703","wem/bandit_single","AC5UD8N187QD6","gain","4","","75","K","2","","0","0","1","0.6","0","true","0","0.8","0","full_practice","0.2","0","0.6","0","0.2","0","","","","","",""
"232","","bandit","59","178822","0.0-32.0-8.0","37819703","wem/bandit_single","AC5UD8N187QD6","gain","4","","75","K","2","","0","0","1","0.6","0","true","0","0.8","0","full_practice","0.2","0","0.6","0","0.2","0","","","","","",""
"79","","bandit","60","180662","0.0-32.0-9.0","37819703","wem/bandit_single","AC5UD8N187QD6","gain","4","","76","L","3","","1","0","0","0.2","0","true","0","0.8","0","full_practice","0.2","0","0.6","0","0.2","0","","","","","",""
"19","","bandit","61","182450","0.0-32.0-10.0","37819703","wem/bandit_single","AC5UD8N187QD6","gain","4","","76","L","3","","0","0","1","0.2","0","true","0","0.8","0","full_practice","0.2","0","0.6","0","0.2","0","","","","","",""
"42","","bandit","62","184256","0.0-32.0-11.0","37819703","wem/bandit_single","AC5UD8N187QD6","gain","4","","76","L","3","","0","0","1","0.2","0","true","0","0.8","0","full_practice","0.2","0","0.6","0","0.2","0","","","","","",""
"89","","bandit","63","186113","0.0-32.0-12.0","37819703","wem/bandit_single","AC5UD8N187QD6","gain","4","","76","L","3","","0","0","1","0.2","0","true","0","0.8","0","full_practice","0.2","0","0.6","0","0.2","0","","","","","",""
"99","","bandit","64","187976","0.0-32.0-13.0","37819703","wem/bandit_single","AC5UD8N187QD6","gain","4","","72","H","0","img/none_selected.jpg","1","0","0","0.8","0","true","0","0.8","0","full_practice","0.2","0","0.6","0","0.2","0","","","","","",""
"66","","bandit","65","189805","0.0-32.0-14.0","37819703","wem/bandit_single","AC5UD8N187QD6","gain","4","","72","H","0","img/none_selected.jpg","1","0","0","0.8","0","true","0","0.8","0","full_practice","0.2","0","0.6","0","0.2","0","","","","","",""
"67","","bandit","66","191639","0.0-32.0-15.0","37819703","wem/bandit_single","AC5UD8N187QD6","gain","4","","72","H","0","img/none_selected.jpg","1","0","0","0.8","0","true","0","0.8","0","full_practice","0.2","0","0.6","0","0.2","0","","","","","",""
"52","","bandit","67","193457","0.0-32.0-16.0","37819703","wem/bandit_single","AC5UD8N187QD6","gain","4","","72","H","0","img/none_selected.jpg","0","0","1","0.8","0","true","0","0.8","0","full_practice","0.2","0","0.6","0","0.2","0","","","","","",""
"119","","bandit","68","195343","0.0-32.0-17.0","37819703","wem/bandit_single","AC5UD8N187QD6","gain","4","","72","H","0","img/none_selected.jpg","1","0","0","0.8","0","true","0","0.8","0","full_practice","0.2","0","0.6","0","0.2","0","","","","","",""
"22","","bandit","69","197126","0.0-32.0-18.0","37819703","wem/bandit_single","AC5UD8N187QD6","gain","4","","72","H","0","img/none_selected.jpg","1","0","0","0.8","0","true","0","0.8","0","full_practice","0.2","0","0.6","0","0.2","0","","","","","",""
"62","","bandit","70","198953","0.0-32.0-19.0","37819703","wem/bandit_single","AC5UD8N187QD6","gain","4","","72","H","0","img/none_selected.jpg","1","0","0","0.8","0","true","0","0.8","0","full_practice","0.2","0","0.6","0","0.2","0","","","","","",""
"1391","","text","71","200604","0.0-33.0","37819703","wem/bandit_single","AC5UD8N187QD6","gain","4","32","","","","","","","","","","","","","","","","","","","","","","","","","",""
"9624","","text","72","211230","0.0-34.0","37819703","wem/bandit_single","AC5UD8N187QD6","gain","4","32","","","","","","","","","","","","","","","","","","","","","","","","","",""
"2579","","text","73","213812","0.0-35.0","37819703","wem/bandit_single","AC5UD8N187QD6","gain","4","32","","","","","","","","","","","","","","","","","","","","","","","","","",""
"3269","","text","74","217083","0.0-36.0","37819703","wem/bandit_single","AC5UD8N187QD6","gain","4","32","","","","","","","","","","","","","","","","","","","","","","","","","",""
"2374","","text","75","219459","0.0-37.0","37819703","wem/bandit_single","AC5UD8N187QD6","gain","4","32","","","","","","","","","","","","","","","","","","","","","","","","","",""
"1887","","bandit","76","222854","0.0-38.0-0.0","37819703","wem/bandit_single","AC5UD8N187QD6","gain","4","","72","H","0","img/none_selected.jpg","0","0","1","0.1534711312","","false","1","0.1534711312","","main_expt","0.2633340886","","0.1530555908","","0.04789219489","","","","","","",""
"322","","bandit","77","224941","0.0-39.0-0.0","37819703","wem/bandit_single","AC5UD8N187QD6","gain","4","","72","H","0","img/none_selected.jpg","0","0","1","0.1140054314","","false","2","0.1140054314","","main_expt","0.288049036","","0.103598712","","0.06526788736","","","","","","",""
"316","","bandit","78","227025","0.0-40.0-0.0","37819703","wem/bandit_single","AC5UD8N187QD6","gain","4","","74","J","1","","0","0","1","0.2979487298","","false","3","0.1012650834","","main_expt","0.2979487298","","0.08136741005","","0.04764418461","","","","","","",""
"98","","bandit","79","228889","0.0-41.0-0.0","37819703","wem/bandit_single","AC5UD8N187QD6","gain","4","","74","J","1","","0","0","1","0.3306303211","","false","4","0.09541256236","","main_expt","0.3306303211","","0.08723083084","","0.05056035824","","","","","","",""
"178","","bandit","80","230828","0.0-42.0-0.0","37819703","wem/bandit_single","AC5UD8N187QD6","gain","4","","75","K","2","","0","0","1","0.1255982651","","false","5","0.07842998328","","main_expt","0.2438199519","","0.1255982651","","0.05944929255","","","","","","",""
"175","","bandit","81","232765","0.0-43.0-0.0","37819703","wem/bandit_single","AC5UD8N187QD6","gain","4","","76","L","3","","0","0","1","0.09562353852","","false","6","0.09158282766","","main_expt","0.2362074668","","0.09044777998","","0.09562353852","","","","","","",""
"133","","bandit","82","234664","0.0-44.0-0.0","37819703","wem/bandit_single","AC5UD8N187QD6","gain","4","","76","L","3","","0","0","1","0.08069121891","","false","7","0.09712353232","","main_expt","0.2591683673","","0.1067491613","","0.08069121891","","","","","","",""
"162","","bandit","83","236590","0.0-45.0-0.0","37819703","wem/bandit_single","AC5UD8N187QD6","gain","4","","75","K","2","","0","0","1","0.15597148","","false","8","0.08440361392","","main_expt","0.2299415188","","0.15597148","","0.07203927837","","","","","","",""
"33","","bandit","84","238391","0.0-46.0-0.0","37819703","wem/bandit_single","AC5UD8N187QD6","gain","4","","72","H","0","img/none_selected.jpg","0","0","1","0.102519384","","false","9","0.102519384","","main_expt","0.2057198223","","0.2250404859","","0.08219025907","","","","","","",""
"91","","bandit","85","240243","0.0-47.0-0.0","37819703","wem/bandit_single","AC5UD8N187QD6","gain","4","","72","H","0","img/none_selected.jpg","0","0","1","0.06157476224","","false","10","0.06157476224","","main_expt","0.2002554128","","0.2205918947","","0.06517742799","","","","","","",""
"70","","bandit","86","242077","0.0-48.0-0.0","37819703","wem/bandit_single","AC5UD8N187QD6","gain","4","","74","J","1","","0","0","1","0.2390702858","","false","11","0.05516119966","","main_expt","0.2390702858","","0.1999173076","","0.0549201251","","","","","","",""
"773","","bandit","87","244614","0.0-49.0-0.0","37819703","wem/bandit_single","AC5UD8N187QD6","gain","4","","74","J","1","","0","0","1","0.2309669968","","false","12","0.04311537102","","main_expt","0.2309669968","","0.2006159367","","0.0630283727","","","","","","",""
"108","","bandit","88","246489","0.0-50.0-0.0","37819703","wem/bandit_single","AC5UD8N187QD6","gain","4","","75","K","2","","0","0","1","0.202674457","","false","13","0.03895599675","","main_expt","0.2667386483","","0.202674457","","0.07136250487","","","","","","",""
"224","","bandit","89","248479","0.0-51.0-0.0","37819703","wem/bandit_single","AC5UD8N187QD6","gain","4","","75","K","2","","1","0","0","0.152812741","","false","14","0.03256744162","","main_expt","0.2057326914","","0.152812741","","0.07333211558","","","","","","",""
"91","","bandit","90","250332","0.0-52.0-0.0","37819703","wem/bandit_single","AC5UD8N187QD6","gain","4","","75","K","2","","0","0","1","0.1648564856","","false","15","0.01982065674","","main_expt","0.2081585857","","0.1648564856","","0.1154740655","","","","","","",""
"51","","bandit","91","252145","0.0-53.0-0.0","37819703","wem/bandit_single","AC5UD8N187QD6","gain","4","","75","K","2","","0","0","1","0.1619055423","","false","16","0.04082574049","","main_expt","0.1909184248","","0.1619055423","","0.1011313391","","","","","","",""
"95","","bandit","92","254006","0.0-54.0-0.0","37819703","wem/bandit_single","AC5UD8N187QD6","gain","4","","75","K","2","","0","0","1","0.1651197045","","false","17","0.0363298649","","main_expt","0.2198432556","","0.1651197045","","0.1447019112","","","","","","",""
"99","","bandit","93","255866","0.0-55.0-0.0","37819703","wem/bandit_single","AC5UD8N187QD6","gain","4","","76","L","3","","0","0","1","0.1039364862","","false","18","0.07917382237","","main_expt","0.2347766335","","0.1079041081","","0.1039364862","","","","","","",""
"19","","bandit","94","257651","0.0-56.0-0.0","37819703","wem/bandit_single","AC5UD8N187QD6","gain","4","","76","L","3","","0","0","1","0.08759831402","","false","19","0.08476555987","","main_expt","0.24668571","","0.1059999363","","0.08759831402","","","","","","",""
"94","","bandit","95","259509","0.0-57.0-0.0","37819703","wem/bandit_single","AC5UD8N187QD6","gain","4","","76","L","3","","0","0","1","0.08010338479","","false","20","0.04047152317","","main_expt","0.2355281317","","0.1197169881","","0.08010338479","","","","","","",""
"13","","bandit","96","261285","0.0-58.0-0.0","37819703","wem/bandit_single","AC5UD8N187QD6","gain","4","","75","K","2","","0","0","1","0.1338215077","","false","21","0.07021106672","","main_expt","0.2290721377","","0.1338215077","","0.07820488182","","","","","","",""
"36","","bandit","97","263085","0.0-59.0-0.0","37819703","wem/bandit_single","AC5UD8N187QD6","gain","4","","75","K","2","","1","0","0","0.1691749215","","false","22","0.08794503477","","main_expt","0.1982968879","","0.1691749215","","0.06301774499","","","","","","",""
"100","","bandit","98","264947","0.0-60.0-0.0","37819703","wem/bandit_single","AC5UD8N187QD6","gain","4","","75","K","2","","0","0","1","0.2100599157","","false","23","0.07274518233","","main_expt","0.1991555028","","0.2100599157","","0.04380944514","","","","","","",""
"21","","bandit","99","266731","0.0-61.0-0.0","37819703","wem/bandit_single","AC5UD8N187QD6","gain","4","","75","K","2","","0","0","1","0.1763606332","","false","24","0.09602528561","","main_expt","0.1700743611","","0.1763606332","","0.04485861341","","","","","","",""
"37","","bandit","100","268536","0.0-62.0-0.0","37819703","wem/bandit_single","AC5UD8N187QD6","gain","4","","75","K","2","","0","0","1","0.1155065599","","false","25","0.07148754983","","main_expt","0.2303117276","","0.1155065599","","0.08350983839","","","","","","",""
"97","","bandit","101","270399","0.0-63.0-0.0","37819703","wem/bandit_single","AC5UD8N187QD6","gain","4","","75","K","2","","0","0","1","0.08411514459","","false","26","0.05591681381","","main_expt","0.2615068669","","0.08411514459","","0.04946014148","","","","","","",""
"17","","bandit","102","272181","0.0-64.0-0.0","37819703","wem/bandit_single","AC5UD8N187QD6","gain","4","","72","H","0","img/none_selected.jpg","0","0","1","0.06488914964","","false","27","0.06488914964","","main_expt","0.2108316327","","0.1192049255","","0.07008172503","","","","","","",""
"44","","bandit","103","273992","0.0-65.0-0.0","37819703","wem/bandit_single","AC5UD8N187QD6","gain","4","","72","H","0","img/none_selected.jpg","0","0","1","0.07067710387","","false","28","0.07067710387","","main_expt","0.2616222854","","0.1530516972","","0.09766989806","","","","","","",""
"24","","bandit","104","275780","0.0-66.0-0.0","37819703","wem/bandit_single","AC5UD8N187QD6","gain","4","","72","H","0","img/none_selected.jpg","1","0","0","0.06184318105","","false","29","0.06184318105","","main_expt","0.2754145478","","0.1243035263","","0.1020433103","","","","","","",""
"4","","bandit","105","277547","0.0-67.0-0.0","37819703","wem/bandit_single","AC5UD8N187QD6","gain","4","","72","H","0","img/none_selected.jpg","0","0","1","0.06562203124","","false","30","0.06562203124","","main_expt","0.3091083038","","0.2106934108","","0.1128186897","","","","","","",""
"69","","bandit","106","279383","0.0-68.0-0.0","37819703","wem/bandit_single","AC5UD8N187QD6","gain","4","","72","H","0","img/none_selected.jpg","0","0","1","0.06340423818","","false","31","0.06340423818","","main_expt","0.3032558385","","0.269819176","","0.1021038766","","","","","","",""
"89","","bandit","107","281237","0.0-69.0-0.0","37819703","wem/bandit_single","AC5UD8N187QD6","gain","4","","72","H","0","img/none_selected.jpg","0","0","1","0.08582013972","","false","32","0.08582013972","","main_expt","0.3160124579","","0.2415851803","","0.1010238501","","","","","","",""
"68","","bandit","108","283071","0.0-70.0-0.0","37819703","wem/bandit_single","AC5UD8N187QD6","gain","4","","72","H","0","img/none_selected.jpg","1","0","0","0.1020351259","","false","33","0.1020351259","","main_expt","0.355825184","","0.2754451294","","0.0674926465","","","","","","",""
"97","","bandit","109","284934","0.0-71.0-0.0","37819703","wem/bandit_single","AC5UD8N187QD6","gain","4","","72","H","0","img/none_selected.jpg","0","0","1","0.07925884201","","false","34","0.07925884201","","main_expt","0.3380280112","","0.3566428969","","0.1007783216","","","","","","",""
"66","","bandit","110","286762","0.0-72.0-0.0","37819703","wem/bandit_single","AC5UD8N187QD6","gain","4","","76","L","3","","0","0","1","0.09542819821","","false","35","0.06071167626","","main_expt","0.3772093912","","0.2652811253","","0.09542819821","","","","","","",""
"459","","bandit","111","288992","0.0-73.0-0.0","37819703","wem/bandit_single","AC5UD8N187QD6","gain","4","","75","K","2","","0","0","1","0.2472166127","","false","36","0.05331310492","","main_expt","0.3916459715","","0.2472166127","","0.07425724813","","","","","","",""
"49","","bandit","112","290809","0.0-74.0-0.0","37819703","wem/bandit_single","AC5UD8N187QD6","gain","4","","72","H","0","img/none_selected.jpg","0","0","1","0.08395737389","","false","37","0.08395737389","","main_expt","0.3724196513","","0.2941536534","","0.07325651263","","","","","","",""
"142","","bandit","113","292717","0.0-75.0-0.0","37819703","wem/bandit_single","AC5UD8N187QD6","gain","4","","75","K","2","","0","0","1","0.2850199379","","false","38","0.07562804978","","main_expt","0.3885064771","","0.2850199379","","0.06058557764","","","","","","",""
"65","","bandit","114","294547","0.0-76.0-0.0","37819703","wem/bandit_single","AC5UD8N187QD6","gain","4","","72","H","0","img/none_selected.jpg","0","0","1","0.06339693541","","false","39","0.06339693541","","main_expt","0.4332305888","","0.2308750992","","0.05480529152","","","","","","",""
"61","","bandit","115","296375","0.0-77.0-0.0","37819703","wem/bandit_single","AC5UD8N187QD6","gain","4","","72","H","0","img/none_selected.jpg","0","0","1","0.07741261751","","false","40","0.07741261751","","main_expt","0.4320021358","","0.2166928419","","0.08480448704","","","","","","",""
"73","","bandit","116","298217","0.0-78.0-0.0","37819703","wem/bandit_single","AC5UD8N187QD6","gain","4","","75","K","2","","0","0","1","0.222341992","","false","41","0.08199889575","","main_expt","0.4378374231","","0.222341992","","0.07863220129","","","","","","",""
"113","","bandit","117","300090","0.0-79.0-0.0","37819703","wem/bandit_single","AC5UD8N187QD6","gain","4","","74","J","1","","0","0","1","0.4138470733","","false","42","0.1252939417","","main_expt","0.4138470733","","0.2420609394","","0.07947159818","","","","","","",""
"110","","bandit","118","301966","0.0-80.0-0.0","37819703","wem/bandit_single","AC5UD8N187QD6","gain","4","","74","J","1","","0","0","1","0.3618848001","","false","43","0.1464491551","","main_expt","0.3618848001","","0.2683234569","","0.0747194724","","","","","","",""
"179","","bandit","119","303907","0.0-81.0-0.0","37819703","wem/bandit_single","AC5UD8N187QD6","gain","4","","76","L","3","","0","0","1","0.06873866496","","false","44","0.1846315016","","main_expt","0.3902132048","","0.2592073096","","0.06873866496","","","","","","",""
"227","","bandit","120","305901","0.0-82.0-0.0","37819703","wem/bandit_single","AC5UD8N187QD6","gain","4","","76","L","3","","0","0","1","0.05624711086","","false","45","0.1454302639","","main_expt","0.370584769","","0.258850709","","0.05624711086","","","","","","",""
"146","","bandit","121","307811","0.0-83.0-0.0","37819703","wem/bandit_single","AC5UD8N187QD6","gain","4","","72","H","0","img/none_selected.jpg","0","0","1","0.1420401956","","false","46","0.1420401956","","main_expt","0.3416192418","","0.2162528617","","0.06710767933","","","","","","",""
"52","","bandit","122","309622","0.0-84.0-0.0","37819703","wem/bandit_single","AC5UD8N187QD6","gain","4","","72","H","0","img/none_selected.jpg","1","0","0","0.2049545467","","false","47","0.2049545467","","main_expt","0.3254497978","","0.1380472806","","0.05828218186","","","","","","",""
"257","","bandit","123","311642","0.0-85.0-0.0","37819703","wem/bandit_single","AC5UD8N187QD6","gain","4","","72","H","0","img/none_selected.jpg","0","0","1","0.1608881285","","false","48","0.1608881285","","main_expt","0.3438960799","","0.1673270425","","0.1161016377","","","","","","",""
"151","","bandit","124","313557","0.0-86.0-0.0","37819703","wem/bandit_single","AC5UD8N187QD6","gain","4","","75","K","2","","0","0","1","0.1637821127","","false","49","0.2001806823","","main_expt","0.3405395495","","0.1637821127","","0.1135844416","","","","","","",""
"65","","bandit","125","315386","0.0-87.0-0.0","37819703","wem/bandit_single","AC5UD8N187QD6","gain","4","","72","H","0","img/none_selected.jpg","0","0","1","0.2061381611","","false","50","0.2061381611","","main_expt","0.3305224856","","0.1826101584","","0.1646239324","","","","","","",""
"77","","bandit","126","317223","0.0-88.0-0.0","37819703","wem/bandit_single","AC5UD8N187QD6","gain","4","","72","H","0","img/none_selected.jpg","0","0","1","0.2369791141","","false","51","0.2369791141","","main_expt","0.2304924019","","0.2270371056","","0.1699716213","","","","","","",""
"138","","bandit","127","319125","0.0-89.0-0.0","37819703","wem/bandit_single","AC5UD8N187QD6","gain","4","","75","K","2","","1","0","0","0.2203225001","","false","52","0.2378663067","","main_expt","0.2832256505","","0.2203225001","","0.1762937123","","","","","","",""
"105","","bandit","128","320993","0.0-90.0-0.0","37819703","wem/bandit_single","AC5UD8N187QD6","gain","4","","75","K","2","","0","0","1","0.2776849753","","false","53","0.2063519028","","main_expt","0.2391441838","","0.2776849753","","0.2287193473","","","","","","",""
"213","","bandit","129","322972","0.0-91.0-0.0","37819703","wem/bandit_single","AC5UD8N187QD6","gain","4","","75","K","2","","0","0","1","0.2454572706","","false","54","0.2439582882","","main_expt","0.2697071588","","0.2454572706","","0.2356834932","","","","","","",""
"179","","bandit","130","324918","0.0-92.0-0.0","37819703","wem/bandit_single","AC5UD8N187QD6","gain","4","","75","K","2","","0","0","1","0.2382153161","","false","55","0.2381950618","","main_expt","0.2875326611","","0.2382153161","","0.306547883","","","","","","",""
"188","","bandit","131","326868","0.0-93.0-0.0","37819703","wem/bandit_single","AC5UD8N187QD6","gain","4","","75","K","2","","0","0","1","0.1960908288","","false","56","0.1800346575","","main_expt","0.2854258916","","0.1960908288","","0.2853582168","","","","","","",""
"210","","bandit","132","328842","0.0-94.0-0.0","37819703","wem/bandit_single","AC5UD8N187QD6","gain","4","","74","J","1","","0","0","1","0.3445045135","","false","57","0.2336203315","","main_expt","0.3445045135","","0.2042340564","","0.2834250679","","","","","","",""
"93","","bandit","133","330699","0.0-95.0-0.0","37819703","wem/bandit_single","AC5UD8N187QD6","gain","4","","76","L","3","","0","0","1","0.2690284398","","false","58","0.189887459","","main_expt","0.3390226593","","0.1490893454","","0.2690284398","","","","","","",""
"20","","bandit","134","332487","0.0-96.0-0.0","37819703","wem/bandit_single","AC5UD8N187QD6","gain","4","","76","L","3","","1","0","0","0.2616697142","","false","59","0.1548607402","","main_expt","0.2666291788","","0.1581154669","","0.2616697142","","","","","","",""
"40","","bandit","135","334293","0.0-97.0-0.0","37819703","wem/bandit_single","AC5UD8N187QD6","gain","4","","76","L","3","","0","0","1","0.2704186185","","false","60","0.1233285174","","main_expt","0.246985882","","0.1715954381","","0.2704186185","","","","","","",""
"508","","bandit","136","336563","0.0-98.0-0.0","37819703","wem/bandit_single","AC5UD8N187QD6","gain","4","","76","L","3","","1","0","0","0.3376037184","","false","61","0.186549837","","main_expt","0.2171589204","","0.1999420892","","0.3376037184","","","","","","",""
"75","","bandit","137","338402","0.0-99.0-0.0","37819703","wem/bandit_single","AC5UD8N187QD6","gain","4","","76","L","3","","0","0","1","0.3098521258","","false","62","0.1420872584","","main_expt","0.2677831299","","0.1539309088","","0.3098521258","","","","","","",""
"323","","bandit","138","340491","0.0-100.0-0.0","37819703","wem/bandit_single","AC5UD8N187QD6","gain","4","","76","L","3","","0","0","1","0.3137631198","","false","63","0.151707711","","main_expt","0.2303454974","","0.1085632924","","0.3137631198","","","","","","",""
"162","","bandit","139","342419","0.0-101.0-0.0","37819703","wem/bandit_single","AC5UD8N187QD6","gain","4","","76","L","3","","0","0","1","0.3179430645","","false","64","0.1474827626","","main_expt","0.196947777","","0.1370187426","","0.3179430645","","","","","","",""
"32","","bandit","140","344217","0.0-102.0-0.0","37819703","wem/bandit_single","AC5UD8N187QD6","gain","4","","72","H","0","img/none_selected.jpg","1","0","0","0.1746529425","","false","65","0.1746529425","","main_expt","0.1645630622","","0.1322062037","","0.2980330155","","","","","","",""
"60","","bandit","141","346040","0.0-103.0-0.0","37819703","wem/bandit_single","AC5UD8N187QD6","gain","4","","72","H","0","img/none_selected.jpg","0","0","1","0.1310865155","","false","66","0.1310865155","","main_expt","0.1533283495","","0.1496501041","","0.2537140377","","","","","","",""
"564","","bandit","142","348370","0.0-104.0-0.0","37819703","wem/bandit_single","AC5UD8N187QD6","gain","4","","72","H","0","img/none_selected.jpg","0","0","1","0.1370872981","","false","67","0.1370872981","","main_expt","0.1708403009","","0.1626820295","","0.2153704701","","","","","","",""
"260","","bandit","143","350395","0.0-105.0-0.0","37819703","wem/bandit_single","AC5UD8N187QD6","gain","4","","72","H","0","img/none_selected.jpg","1","0","0","0.09914494933","","false","68","0.09914494933","","main_expt","0.1887917493","","0.1989514297","","0.2417705853","","","","","","",""
"136","","bandit","144","352299","0.0-106.0-0.0","37819703","wem/bandit_single","AC5UD8N187QD6","gain","4","","72","H","0","img/none_selected.jpg","0","0","1","0.1092411584","","false","69","0.1092411584","","main_expt","0.2160515082","","0.1888867792","","0.3235463827","","","","","","",""
"812","","bandit","145","354876","0.0-107.0-0.0","37819703","wem/bandit_single","AC5UD8N187QD6","gain","4","","72","H","0","img/none_selected.jpg","0","0","1","0.1213917008","","false","70","0.1213917008","","main_expt","0.2778565133","","0.1767550628","","0.3647615206","","","","","","",""
"157","","bandit","146","356797","0.0-108.0-0.0","37819703","wem/bandit_single","AC5UD8N187QD6","gain","4","","72","H","0","img/none_selected.jpg","1","0","0","0.1479005197","","false","71","0.1479005197","","main_expt","0.2623699359","","0.1253641033","","0.3472934012","","","","","","",""
"130","","bandit","147","358689","0.0-109.0-0.0","37819703","wem/bandit_single","AC5UD8N187QD6","gain","4","","72","H","0","img/none_selected.jpg","0","0","1","0.1931369739","","false","72","0.1931369739","","main_expt","0.2574081817","","0.1319365506","","0.2965124106","","","","","","",""
"268","","bandit","148","360721","0.0-110.0-0.0","37819703","wem/bandit_single","AC5UD8N187QD6","gain","4","","72","H","0","img/none_selected.jpg","0","0","1","0.1900103681","","false","73","0.1900103681","","main_expt","0.2503470883","","0.1061905376","","0.2823595977","","","","","","",""
"60","","bandit","149","362544","0.0-111.0-0.0","37819703","wem/bandit_single","AC5UD8N187QD6","gain","4","","72","H","0","img/none_selected.jpg","0","0","1","0.1344428369","","false","74","0.1344428369","","main_expt","0.2710758316","","0.1303083533","","0.2835749375","","","","","","",""
"166","","bandit","150","364472","0.0-112.0-0.0","37819703","wem/bandit_single","AC5UD8N187QD6","gain","4","","74","J","1","","0","0","1","0.260759121","","false","75","0.1528357022","","main_expt","0.260759121","","0.1359111238","","0.3526847528","","","","","","",""
"239","","bandit","151","366473","0.0-113.0-0.0","37819703","wem/bandit_single","AC5UD8N187QD6","gain","4","","74","J","1","","1","0","0","0.2610050464","","false","76","0.1898592508","","main_expt","0.2610050464","","0.1128391495","","0.3434196486","","","","","","",""
"220","","bandit","152","368459","0.0-114.0-0.0","37819703","wem/bandit_single","AC5UD8N187QD6","gain","4","","74","J","1","","0","0","1","0.1920601856","","false","77","0.191464519","","main_expt","0.1920601856","","0.1118044987","","0.3073782559","","","","","","",""
"220","","bandit","153","370439","0.0-115.0-0.0","37819703","wem/bandit_single","AC5UD8N187QD6","gain","4","","74","J","1","","0","0","1","0.1726035312","","false","78","0.2665821314","","main_expt","0.1726035312","","0.1315400358","","0.3200097729","","","","","","",""
"126","","bandit","154","372331","0.0-116.0-0.0","37819703","wem/bandit_single","AC5UD8N187QD6","gain","4","","74","J","1","","0","0","1","0.1974193715","","false","79","0.2510402579","","main_expt","0.1974193715","","0.1421279646","","0.3406321397","","","","","","",""
"146","","bandit","155","374241","0.0-117.0-0.0","37819703","wem/bandit_single","AC5UD8N187QD6","gain","4","","75","K","2","","0","0","1","0.1666910293","","false","80","0.2803090616","","main_expt","0.1771423485","","0.1666910293","","0.2934749235","","","","","","",""
"132","","bandit","156","376132","0.0-118.0-0.0","37819703","wem/bandit_single","AC5UD8N187QD6","gain","4","","75","K","2","","0","0","1","0.1514130178","","false","81","0.3053401272","","main_expt","0.1689426189","","0.1514130178","","0.3080678564","","","","","","",""
"63","","bandit","157","377954","0.0-119.0-0.0","37819703","wem/bandit_single","AC5UD8N187QD6","gain","4","","75","K","2","","0","0","1","0.1667518413","","false","82","0.3079009489","","main_expt","0.2008945118","","0.1667518413","","0.3118316764","","","","","","",""
"193","","bandit","158","379911","0.0-120.0-0.0","37819703","wem/bandit_single","AC5UD8N187QD6","gain","4","","75","K","2","","0","0","1","0.1620161121","","false","83","0.3294465445","","main_expt","0.2679993971","","0.1620161121","","0.2539803618","","","","","","",""
"751","","bandit","159","382426","0.0-121.0-0.0","37819703","wem/bandit_single","AC5UD8N187QD6","gain","4","","76","L","3","","0","0","1","0.2665148507","","false","84","0.3567704092","","main_expt","0.2187304288","","0.1920696542","","0.2665148507","","","","","","",""
"185","","bandit","160","384376","0.0-122.0-0.0","37819703","wem/bandit_single","AC5UD8N187QD6","gain","4","","76","L","3","","0","0","1","0.2638978108","","false","85","0.3637986046","","main_expt","0.2668074714","","0.1790321084","","0.2638978108","","","","","","",""
"197","","bandit","161","386336","0.0-123.0-0.0","37819703","wem/bandit_single","AC5UD8N187QD6","gain","4","","74","J","1","","0","0","1","0.3011617684","","false","86","0.3661817966","","main_expt","0.3011617684","","0.1644507099","","0.2430370424","","","","","","",""
"91","","bandit","162","388196","0.0-124.0-0.0","37819703","wem/bandit_single","AC5UD8N187QD6","gain","4","","72","H","0","img/none_selected.jpg","0","0","1","0.349996741","","false","87","0.349996741","","main_expt","0.2866912597","","0.1731377232","","0.2369050713","","","","","","",""
"129","","bandit","163","390088","0.0-125.0-0.0","37819703","wem/bandit_single","AC5UD8N187QD6","gain","4","","72","H","0","img/none_selected.jpg","0","0","1","0.3021468993","","false","88","0.3021468993","","main_expt","0.2921806028","","0.1562940882","","0.2322244834","","","","","","",""
"78","","bandit","164","391928","0.0-126.0-0.0","37819703","wem/bandit_single","AC5UD8N187QD6","gain","4","","74","J","1","","1","0","0","0.2877077994","","false","89","0.2752269066","","main_expt","0.2877077994","","0.1344734597","","0.214722025","","","","","","",""
"109","","bandit","165","393803","0.0-127.0-0.0","37819703","wem/bandit_single","AC5UD8N187QD6","gain","4","","74","J","1","","0","0","1","0.2390413286","","false","90","0.3172240337","","main_expt","0.2390413286","","0.1192135027","","0.1767670318","","","","","","",""
"121","","bandit","166","395690","0.0-128.0-0.0","37819703","wem/bandit_single","AC5UD8N187QD6","gain","4","","72","H","0","img/none_selected.jpg","1","0","0","0.3049723864","","false","91","0.3049723864","","main_expt","0.2582098676","","0.1639104845","","0.1391375388","","","","","","",""
"57","","bandit","167","397512","0.0-129.0-0.0","37819703","wem/bandit_single","AC5UD8N187QD6","gain","4","","74","J","1","","1","0","0","0.3066747335","","false","92","0.3261529518","","main_expt","0.3066747335","","0.1960431165","","0.1283323985","","","","","","",""
"953","","bandit","168","400229","0.0-130.0-0.0","37819703","wem/bandit_single","AC5UD8N187QD6","gain","4","","72","H","0","img/none_selected.jpg","0","0","1","0.3550538726","","false","93","0.3550538726","","main_expt","0.3051362106","","0.2137056669","","0.07538544447","","","","","","",""
"1240","","bandit","169","403236","0.0-131.0-0.0","37819703","wem/bandit_single","AC5UD8N187QD6","gain","4","","74","J","1","","1","0","0","0.3433649514","","false","94","0.3335231974","","main_expt","0.3433649514","","0.2188004936","","0.07407963518","","","","","","",""
"241","","bandit","170","405238","0.0-132.0-0.0","37819703","wem/bandit_single","AC5UD8N187QD6","gain","4","","74","J","1","","0","0","1","0.3638642947","","false","95","0.3060397856","","main_expt","0.3638642947","","0.2442185641","","0.06265185683","","","","","","",""
"142","","bandit","171","407142","0.0-133.0-0.0","37819703","wem/bandit_single","AC5UD8N187QD6","gain","4","","74","J","1","","0","0","1","0.3433071503","","false","96","0.3420618169","","main_expt","0.3433071503","","0.2062156096","","0.0626930361","","","","","","",""
"198","","bandit","172","409104","0.0-134.0-0.0","37819703","wem/bandit_single","AC5UD8N187QD6","gain","4","","72","H","0","img/none_selected.jpg","1","0","0","0.3451805041","","false","97","0.3451805041","","main_expt","0.3287523936","","0.1824441478","","0.03702031205","","","","","","",""
"51","","bandit","173","410922","0.0-135.0-0.0","37819703","wem/bandit_single","AC5UD8N187QD6","gain","4","","74","J","1","","1","0","0","0.3384657171","","false","98","0.3067376926","","main_expt","0.3384657171","","0.1741419228","","0.02896114516","","","","","","",""
"609","","bandit","174","413295","0.0-136.0-0.0","37819703","wem/bandit_single","AC5UD8N187QD6","gain","4","","72","H","0","img/none_selected.jpg","0","0","1","0.2980645096","","false","99","0.2980645096","","main_expt","0.3929596429","","0.1402348549","","0.04301278827","","","","","","",""
"85","","bandit","175","415141","0.0-137.0-0.0","37819703","wem/bandit_single","AC5UD8N187QD6","gain","4","","74","J","1","","0","0","1","0.3972918561","","false","100","0.2862788702","","main_expt","0.3972918561","","0.1856728267","","0.03198738169","","","","","","",""
"150","","bandit","176","417057","0.0-138.0-0.0","37819703","wem/bandit_single","AC5UD8N187QD6","gain","4","","75","K","2","","0","0","1","0.1731032509","","false","101","0.2622165861","","main_expt","0.4064604032","","0.1731032509","","0.03387094668","","","","","","",""
"115","","bandit","177","418938","0.0-139.0-0.0","37819703","wem/bandit_single","AC5UD8N187QD6","gain","4","","76","L","3","","1","0","0","0.0235124197","","false","102","0.3261799811","","main_expt","0.4273413635","","0.1387116465","","0.0235124197","","","","","","",""
"234","","bandit","178","420936","0.0-140.0-0.0","37819703","wem/bandit_single","AC5UD8N187QD6","gain","4","","76","L","3","","0","0","1","0.02482610326","","false","103","0.334814711","","main_expt","0.4566487837","","0.1880660303","","0.02482610326","","","","","","",""
"140","","bandit","179","422839","0.0-141.0-0.0","37819703","wem/bandit_single","AC5UD8N187QD6","gain","4","","74","J","1","","0","0","1","0.459539636","","false","104","0.3486298313","","main_expt","0.459539636","","0.142060421","","0.03330094042","","","","","","",""
"165","","bandit","180","424766","0.0-142.0-0.0","37819703","wem/bandit_single","AC5UD8N187QD6","gain","4","","72","H","0","img/none_selected.jpg","1","0","0","0.3538911629","","false","105","0.3538911629","","main_expt","0.4462881264","","0.1839839798","","0.06543537915","","","","","","",""
"111","","bandit","181","426646","0.0-143.0-0.0","37819703","wem/bandit_single","AC5UD8N187QD6","gain","4","","76","L","3","","0","0","1","0.07051160025","","false","106","0.3886974852","","main_expt","0.4417011126","","0.1691947451","","0.07051160025","","","","","","",""
"110","","bandit","182","428521","0.0-144.0-0.0","37819703","wem/bandit_single","AC5UD8N187QD6","gain","4","","72","H","0","img/none_selected.jpg","0","0","1","0.3489433712","","false","107","0.3489433712","","main_expt","0.4419194373","","0.180010917","","0.08830456602","","","","","","",""
"169","","bandit","183","430454","0.0-145.0-0.0","37819703","wem/bandit_single","AC5UD8N187QD6","gain","4","","76","L","3","","0","0","1","0.05921849724","","false","108","0.3901728218","","main_expt","0.4061848383","","0.1338722415","","0.05921849724","","","","","","",""
"181","","bandit","184","432398","0.0-146.0-0.0","37819703","wem/bandit_single","AC5UD8N187QD6","gain","4","","72","H","0","img/none_selected.jpg","1","0","0","0.4006799949","","false","109","0.4006799949","","main_expt","0.3906669636","","0.1350853679","","0.04581125366","","","","","","",""
"189","","bandit","185","434355","0.0-147.0-0.0","37819703","wem/bandit_single","AC5UD8N187QD6","gain","4","","74","J","1","","0","0","1","0.3969614195","","false","110","0.3867714499","","main_expt","0.3969614195","","0.184551263","","0.08345510588","","","","","","",""
"224","","bandit","186","436343","0.0-148.0-0.0","37819703","wem/bandit_single","AC5UD8N187QD6","gain","4","","72","H","0","img/none_selected.jpg","0","0","1","0.4252141842","","false","111","0.4252141842","","main_expt","0.370186674","","0.2635344293","","0.07355878572","","","","","","",""
"129","","bandit","187","438236","0.0-149.0-0.0","37819703","wem/bandit_single","AC5UD8N187QD6","gain","4","","72","H","0","img/none_selected.jpg","0","0","1","0.4197282726","","false","112","0.4197282726","","main_expt","0.3488043283","","0.2972025743","","0.09226575929","","","","","","",""
"476","","bandit","188","440479","0.0-150.0-0.0","37819703","wem/bandit_single","AC5UD8N187QD6","gain","4","","72","H","0","img/none_selected.jpg","0","0","1","0.4371411526","","false","113","0.4371411526","","main_expt","0.2886117592","","0.2853398636","","0.07711661396","","","","","","",""
"174","","bandit","189","442424","0.0-151.0-0.0","37819703","wem/bandit_single","AC5UD8N187QD6","gain","4","","74","J","1","","1","0","0","0.3507025671","","false","114","0.4523407119","","main_expt","0.3507025671","","0.2354235092","","0.09366406151","","","","","","",""
"468","","bandit","190","444653","0.0-152.0-0.0","37819703","wem/bandit_single","AC5UD8N187QD6","gain","4","","74","J","1","","1","0","0","0.3308051733","","false","115","0.4544977282","","main_expt","0.3308051733","","0.2228923984","","0.09297781317","","","","","","",""
"261","","bandit","191","446679","0.0-153.0-0.0","37819703","wem/bandit_single","AC5UD8N187QD6","gain","4","","74","J","1","","0","0","1","0.2696902145","","false","116","0.4458191396","","main_expt","0.2696902145","","0.182615248","","0.09292735615","","","","","","",""
"148","","bandit","192","448586","0.0-154.0-0.0","37819703","wem/bandit_single","AC5UD8N187QD6","gain","4","","75","K","2","","0","0","1","0.1702457594","","false","117","0.4384124693","","main_expt","0.3048340551","","0.1702457594","","0.1277349031","","","","","","",""
"134","","bandit","193","450487","0.0-155.0-0.0","37819703","wem/bandit_single","AC5UD8N187QD6","gain","4","","76","L","3","","0","0","1","0.1057820856","","false","118","0.4590850855","","main_expt","0.2682044258","","0.2075823826","","0.1057820856","","","","","","",""
"153","","bandit","194","452407","0.0-156.0-0.0","37819703","wem/bandit_single","AC5UD8N187QD6","gain","4","","76","L","3","","0","0","1","0.08453932314","","false","119","0.4718937063","","main_expt","0.2314514612","","0.2281388084","","0.08453932314","","","","","","",""
"595","","bandit","195","454771","0.0-157.0-0.0","37819703","wem/bandit_single","AC5UD8N187QD6","gain","4","","72","H","0","img/none_selected.jpg","0","0","1","0.4645470247","","false","120","0.4645470247","","main_expt","0.197474053","","0.2620651535","","0.1106897037","","","","","","",""
"279","","bandit","196","456813","0.0-158.0-0.0","37819703","wem/bandit_single","AC5UD8N187QD6","gain","4","","74","J","1","","0","0","1","0.1819521248","","false","121","0.4422277234","","main_expt","0.1819521248","","0.2953433235","","0.1200625234","","","","","","",""
"90","","bandit","197","458672","0.0-159.0-0.0","37819703","wem/bandit_single","AC5UD8N187QD6","gain","4","","74","J","1","","1","0","0","0.171732915","","false","122","0.4150525319","","main_expt","0.171732915","","0.2702367277","","0.1570760405","","","","","","",""
"67","","bandit","198","460500","0.0-160.0-0.0","37819703","wem/bandit_single","AC5UD8N187QD6","gain","4","","72","H","0","img/none_selected.jpg","1","0","0","0.4356762379","","false","123","0.4356762379","","main_expt","0.1577660673","","0.3190818872","","0.1616024906","","","","","","",""
"228","","bandit","199","462496","0.0-161.0-0.0","37819703","wem/bandit_single","AC5UD8N187QD6","gain","4","","74","J","1","","0","0","1","0.1384195938","","false","124","0.4475351861","","main_expt","0.1384195938","","0.3415455108","","0.1371750093","","","","","","",""
"692","","bandit","200","464952","0.0-162.0-0.0","37819703","wem/bandit_single","AC5UD8N187QD6","gain","4","","72","H","0","img/none_selected.jpg","1","0","0","0.4310995666","","false","125","0.4310995666","","main_expt","0.1367208018","","0.3955313072","","0.1293707667","","","","","","",""
"361","","bandit","201","467077","0.0-163.0-0.0","37819703","wem/bandit_single","AC5UD8N187QD6","gain","4","","74","J","1","","0","0","1","0.14570125","","false","126","0.4246911586","","main_expt","0.14570125","","0.4150522509","","0.1231453761","","","","","","",""
"162","","bandit","202","469010","0.0-164.0-0.0","37819703","wem/bandit_single","AC5UD8N187QD6","gain","4","","72","H","0","img/none_selected.jpg","0","0","1","0.3855858577","","false","127","0.3855858577","","main_expt","0.116128816","","0.3803228979","","0.1044431599","","","","","","",""
"200","","bandit","203","470975","0.0-165.0-0.0","37819703","wem/bandit_single","AC5UD8N187QD6","gain","4","","74","J","1","","0","0","1","0.1118736017","","false","128","0.3886900275","","main_expt","0.1118736017","","0.4028097642","","0.07509994275","","","","","","",""
"136","","bandit","204","472876","0.0-166.0-0.0","37819703","wem/bandit_single","AC5UD8N187QD6","gain","4","","74","J","1","","0","0","1","0.1153634536","","false","129","0.3712880315","","main_expt","0.1153634536","","0.3759087187","","0.07499531951","","","","","","",""
"151","","bandit","205","474791","0.0-167.0-0.0","37819703","wem/bandit_single","AC5UD8N187QD6","gain","4","","72","H","0","img/none_selected.jpg","0","0","1","0.3163545042","","false","130","0.3163545042","","main_expt","0.09323577747","","0.3578404683","","0.06898381409","","","","","","",""
"97","","bandit","206","476655","0.0-168.0-0.0","37819703","wem/bandit_single","AC5UD8N187QD6","gain","4","","74","J","1","","0","0","1","0.1064947735","","false","131","0.3203759455","","main_expt","0.1064947735","","0.3874222675","","0.08255272978","","","","","","",""
"203","","bandit","207","478623","0.0-169.0-0.0","37819703","wem/bandit_single","AC5UD8N187QD6","gain","4","","72","H","0","img/none_selected.jpg","0","0","1","0.3128419263","","false","132","0.3128419263","","main_expt","0.1574274544","","0.3773694481","","0.06266196304","","","","","","",""
"105","","bandit","208","480492","0.0-170.0-0.0","37819703","wem/bandit_single","AC5UD8N187QD6","gain","4","","75","K","2","","0","0","1","0.3961249281","","false","133","0.3057041938","","main_expt","0.1613106331","","0.3961249281","","0.06584579886","","","","","","",""
"118","","bandit","209","482372","0.0-171.0-0.0","37819703","wem/bandit_single","AC5UD8N187QD6","gain","4","","76","L","3","","0","0","1","0.05935363428","","false","134","0.2816585421","","main_expt","0.1660744508","","0.4152923946","","0.05935363428","","","","","","",""
"101","","bandit","210","484233","0.0-172.0-0.0","37819703","wem/bandit_single","AC5UD8N187QD6","gain","4","","72","H","0","img/none_selected.jpg","1","0","0","0.2955422992","","false","135","0.2955422992","","main_expt","0.1973964499","","0.4424865849","","0.05732645975","","","","","","",""
"205","","bandit","211","486204","0.0-173.0-0.0","37819703","wem/bandit_single","AC5UD8N187QD6","gain","4","","72","H","0","img/none_selected.jpg","0","0","1","0.3509846551","","false","136","0.3509846551","","main_expt","0.1813196928","","0.4465543098","","0.07342087183","","","","","","",""
"33","","bandit","212","488009","0.0-174.0-0.0","37819703","wem/bandit_single","AC5UD8N187QD6","gain","4","","74","J","1","","0","0","1","0.1859539446","","false","137","0.3344410146","","main_expt","0.1859539446","","0.4520996047","","0.07676045657","","","","","","",""
"65","","bandit","213","489837","0.0-175.0-0.0","37819703","wem/bandit_single","AC5UD8N187QD6","gain","4","","72","H","0","img/none_selected.jpg","0","0","1","0.2657268636","","false","138","0.2657268636","","main_expt","0.1014888705","","0.428300575","","0.09127868582","","","","","","",""
"101","","bandit","214","491701","0.0-176.0-0.0","37819703","wem/bandit_single","AC5UD8N187QD6","gain","4","","72","H","0","img/none_selected.jpg","0","0","1","0.2267955479","","false","139","0.2267955479","","main_expt","0.09034098631","","0.419833238","","0.1057771966","","","","","","",""
"66","","bandit","215","493535","0.0-177.0-0.0","37819703","wem/bandit_single","AC5UD8N187QD6","gain","4","","74","J","1","","0","0","1","0.09102227313","","false","140","0.2278141127","","main_expt","0.09102227313","","0.423721229","","0.1134354218","","","","","","",""
"680","","bandit","216","495979","0.0-178.0-0.0","37819703","wem/bandit_single","AC5UD8N187QD6","gain","4","","72","H","0","img/none_selected.jpg","0","0","1","0.23653477","","false","141","0.23653477","","main_expt","0.1095349378","","0.4382479885","","0.1205694848","","","","","","",""
"282","","bandit","217","498027","0.0-179.0-0.0","37819703","wem/bandit_single","AC5UD8N187QD6","gain","4","","72","H","0","img/none_selected.jpg","0","0","1","0.2155890047","","false","142","0.2155890047","","main_expt","0.1184068784","","0.4247465964","","0.1423721259","","","","","","",""
"49","","bandit","218","499845","0.0-180.0-0.0","37819703","wem/bandit_single","AC5UD8N187QD6","gain","4","","74","J","1","","0","0","1","0.1056920569","","false","143","0.2203428631","","main_expt","0.1056920569","","0.3978340057","","0.1199770031","","","","","","",""
"847","","bandit","219","502462","0.0-181.0-0.0","37819703","wem/bandit_single","AC5UD8N187QD6","gain","4","","75","K","2","","1","0","0","0.4094639435","","false","144","0.1834171178","","main_expt","0.1563123998","","0.4094639435","","0.1431068991","","","","","","",""
"105","","bandit","220","504332","0.0-182.0-0.0","37819703","wem/bandit_single","AC5UD8N187QD6","gain","4","","76","L","3","","0","0","1","0.1630017245","","false","145","0.2064693802","","main_expt","0.09088636348","","0.4198905501","","0.1630017245","","","","","","",""
"448","","bandit","221","506547","0.0-183.0-0.0","37819703","wem/bandit_single","AC5UD8N187QD6","gain","4","","75","K","2","","0","0","1","0.4050886303","","false","146","0.1342941172","","main_expt","0.0827806059","","0.4050886303","","0.145034553","","","","","","",""
"619","","bandit","222","508935","0.0-184.0-0.0","37819703","wem/bandit_single","AC5UD8N187QD6","gain","4","","75","K","2","","1","0","0","0.3785891444","","false","147","0.1515740161","","main_expt","0.1149215639","","0.3785891444","","0.1488017726","","","","","","",""
"213","","bandit","223","510912","0.0-185.0-0.0","37819703","wem/bandit_single","AC5UD8N187QD6","gain","4","","75","K","2","","0","0","1","0.3854511928","","false","148","0.1212747878","","main_expt","0.1099148444","","0.3854511928","","0.1582677895","","","","","","",""
"84","","bandit","224","512766","0.0-186.0-0.0","37819703","wem/bandit_single","AC5UD8N187QD6","gain","4","","76","L","3","","0","0","1","0.1647072654","","false","149","0.08453377975","","main_expt","0.1127327795","","0.3928641012","","0.1647072654","","","","","","",""
"135","","bandit","225","514670","0.0-187.0-0.0","37819703","wem/bandit_single","AC5UD8N187QD6","gain","4","","76","L","3","","0","0","1","0.1333243968","","false","150","0.1060211344","","main_expt","0.1477728786","","0.3981420368","","0.1333243968","","","","","","",""
"45","","bandit","226","516487","0.0-188.0-0.0","37819703","wem/bandit_single","AC5UD8N187QD6","gain","4","","75","K","2","","0","0","1","0.3954234158","","false","151","0.06473992137","","main_expt","0.1634569086","","0.3954234158","","0.1232516149","","","","","","",""
"59","","bandit","227","518316","0.0-189.0-0.0","37819703","wem/bandit_single","AC5UD8N187QD6","gain","4","","75","K","2","","0","0","1","0.3684376671","","false","152","0.07847139908","","main_expt","0.2119786212","","0.3684376671","","0.1218764731","","","","","","",""
"95","","bandit","228","520179","0.0-190.0-0.0","37819703","wem/bandit_single","AC5UD8N187QD6","gain","4","","74","J","1","","1","0","0","0.190815194","","false","153","0.06170083269","","main_expt","0.190815194","","0.3586265296","","0.1181944444","","","","","","",""
"88","","bandit","229","522037","0.0-191.0-0.0","37819703","wem/bandit_single","AC5UD8N187QD6","gain","4","","74","J","1","","0","0","1","0.2539230859","","false","154","0.07752027139","","main_expt","0.2539230859","","0.3711835277","","0.1524072167","","","","","","",""
"128","","bandit","230","523929","0.0-192.0-0.0","37819703","wem/bandit_single","AC5UD8N187QD6","gain","4","","74","J","1","","0","0","1","0.2214647723","","false","155","0.07430376846","","main_expt","0.2214647723","","0.3296220366","","0.2181316645","","","","","","",""
"253","","bandit","231","525949","0.0-193.0-0.0","37819703","wem/bandit_single","AC5UD8N187QD6","gain","4","","72","H","0","img/none_selected.jpg","0","0","1","0.05925504694","","false","156","0.05925504694","","main_expt","0.1812397975","","0.287903252","","0.213475765","","","","","","",""
"70","","bandit","232","527789","0.0-194.0-0.0","37819703","wem/bandit_single","AC5UD8N187QD6","gain","4","","74","J","1","","0","0","1","0.1447548225","","false","157","0.0737155059","","main_expt","0.1447548225","","0.296290929","","0.2264995707","","","","","","",""
"151","","bandit","233","529708","0.0-195.0-0.0","37819703","wem/bandit_single","AC5UD8N187QD6","gain","4","","75","K","2","","1","0","0","0.2721348168","","false","158","0.05755321342","","main_expt","0.1458137519","","0.2721348168","","0.2991482761","","","","","","",""
"73","","bandit","234","531551","0.0-196.0-0.0","37819703","wem/bandit_single","AC5UD8N187QD6","gain","4","","75","K","2","","0","0","1","0.2765185667","","false","159","0.1007830752","","main_expt","0.1035755389","","0.2765185667","","0.3365391658","","","","","","",""
"204","","bandit","235","533524","0.0-197.0-0.0","37819703","wem/bandit_single","AC5UD8N187QD6","gain","4","","75","K","2","","0","0","1","0.3162688162","","false","160","0.06149362121","","main_expt","0.1142027444","","0.3162688162","","0.313402929","","","","","","",""
"309","","bandit","236","535602","0.0-198.0-0.0","37819703","wem/bandit_single","AC5UD8N187QD6","gain","4","","75","K","2","","0","0","1","0.3302336848","","false","161","0.09516109007","","main_expt","0.1510988582","","0.3302336848","","0.3529908654","","","","","","",""
"711","","bandit","237","538082","0.0-199.0-0.0","37819703","wem/bandit_single","AC5UD8N187QD6","gain","4","","76","L","3","","0","0","1","0.3608295961","","false","162","0.08429007215","","main_expt","0.1720124831","","0.3622896815","","0.3608295961","","","","","","",""
"98","","bandit","238","539950","0.0-200.0-0.0","37819703","wem/bandit_single","AC5UD8N187QD6","gain","4","","75","K","2","","0","0","1","0.3696580379","","false","163","0.1199893575","","main_expt","0.2119433459","","0.3696580379","","0.4197284319","","","","","","",""
"95","","bandit","239","541812","0.0-201.0-0.0","37819703","wem/bandit_single","AC5UD8N187QD6","gain","4","","74","J","1","","0","0","1","0.2413639604","","false","164","0.1353867718","","main_expt","0.2413639604","","0.3217553384","","0.4162507976","","","","","","",""
"79","","bandit","240","543659","0.0-202.0-0.0","37819703","wem/bandit_single","AC5UD8N187QD6","gain","4","","72","H","0","img/none_selected.jpg","0","0","1","0.08700720397","","false","165","0.08700720397","","main_expt","0.3231443763","","0.2370356752","","0.424344073","","","","","","",""
"258","","bandit","241","545685","0.0-203.0-0.0","37819703","wem/bandit_single","AC5UD8N187QD6","gain","4","","74","J","1","","1","0","0","0.2907209657","","false","166","0.09613155095","","main_expt","0.2907209657","","0.1952619304","","0.4385436022","","","","","","",""
"133","","bandit","242","547589","0.0-204.0-0.0","37819703","wem/bandit_single","AC5UD8N187QD6","gain","4","","75","K","2","","0","0","1","0.2008635704","","false","167","0.08740230362","","main_expt","0.2386263765","","0.2008635704","","0.4428370211","","","","","","",""
"121","","bandit","243","549473","0.0-205.0-0.0","37819703","wem/bandit_single","AC5UD8N187QD6","gain","4","","74","J","1","","0","0","1","0.2802872421","","false","168","0.1033010443","","main_expt","0.2802872421","","0.2872582577","","0.4475632301","","","","","","",""
"226","","bandit","244","551465","0.0-206.0-0.0","37819703","wem/bandit_single","AC5UD8N187QD6","gain","4","","74","J","1","","0","0","1","0.2858578204","","false","169","0.1288835215","","main_expt","0.2858578204","","0.2478638945","","0.4358894507","","","","","","",""
"349","","bandit","245","553582","0.0-207.0-0.0","37819703","wem/bandit_single","AC5UD8N187QD6","gain","4","","75","K","2","","0","0","1","0.2335785199","","false","170","0.0821831217","","main_expt","0.3542119366","","0.2335785199","","0.4401344765","","","","","","",""
"181","","bandit","246","555530","0.0-208.0-0.0","37819703","wem/bandit_single","AC5UD8N187QD6","gain","4","","74","J","1","","0","0","1","0.363516632","","false","171","0.08448133796","","main_expt","0.363516632","","0.263029084","","0.4182824287","","","","","","",""
"167","","bandit","247","557469","0.0-209.0-0.0","37819703","wem/bandit_single","AC5UD8N187QD6","gain","4","","76","L","3","","0","0","1","0.4206293302","","false","172","0.1142172702","","main_expt","0.3285232471","","0.282237019","","0.4206293302","","","","","","",""
"124","","bandit","248","559367","0.0-210.0-0.0","37819703","wem/bandit_single","AC5UD8N187QD6","gain","4","","72","H","0","img/none_selected.jpg","0","0","1","0.1585219493","","false","173","0.1585219493","","main_expt","0.3379934215","","0.2798091978","","0.4424673434","","","","","","",""
"92","","bandit","249","561225","0.0-211.0-0.0","37819703","wem/bandit_single","AC5UD8N187QD6","gain","4","","74","J","1","","0","0","1","0.2937018888","","false","174","0.2167008269","","main_expt","0.2937018888","","0.2782342077","","0.4470793942","","","","","","",""
"160","","bandit","250","563157","0.0-212.0-0.0","37819703","wem/bandit_single","AC5UD8N187QD6","gain","4","","75","K","2","","1","0","0","0.3095951925","","false","175","0.2564405216","","main_expt","0.2691073907","","0.3095951925","","0.4466152725","","","","","","",""
"122","","bandit","251","565044","0.0-213.0-0.0","37819703","wem/bandit_single","AC5UD8N187QD6","gain","4","","75","K","2","","0","0","1","0.3149167583","","false","176","0.2740916264","","main_expt","0.2797966768","","0.3149167583","","0.4622816701","","","","","","",""
"338","","bandit","252","567145","0.0-214.0-0.0","37819703","wem/bandit_single","AC5UD8N187QD6","gain","4","","75","K","2","","0","0","1","0.3057016371","","false","177","0.2701885048","","main_expt","0.2956207272","","0.3057016371","","0.4791174255","","","","","","",""
"69","","bandit","253","568978","0.0-215.0-0.0","37819703","wem/bandit_single","AC5UD8N187QD6","gain","4","","74","J","1","","0","0","1","0.2903749226","","false","178","0.2525299603","","main_expt","0.2903749226","","0.2973749651","","0.4878404122","","","","","","",""
"929","","bandit","254","571673","0.0-216.0-0.0","37819703","wem/bandit_single","AC5UD8N187QD6","gain","4","","72","H","0","img/none_selected.jpg","1","0","0","0.2923151224","","false","179","0.2923151224","","main_expt","0.2324022499","","0.3205080684","","0.4871204803","","","","","","",""
"639","","bandit","255","574082","0.0-217.0-0.0","37819703","wem/bandit_single","AC5UD8N187QD6","gain","4","","76","L","3","","0","0","1","0.4783768728","","false","180","0.2712435876","","main_expt","0.157369965","","0.3668921479","","0.4783768728","","","","","","",""
"145","","bandit","256","575998","0.0-218.0-0.0","37819703","wem/bandit_single","AC5UD8N187QD6","gain","4","","75","K","2","","0","0","1","0.36743573","","false","181","0.2911825171","","main_expt","0.1928111427","","0.36743573","","0.4791844977","","","","","","",""
"88","","bandit","257","577849","0.0-219.0-0.0","37819703","wem/bandit_single","AC5UD8N187QD6","gain","4","","72","H","0","img/none_selected.jpg","0","0","1","0.2812290194","","false","182","0.2812290194","","main_expt","0.1831473083","","0.3444330154","","0.4796326775","","","","","","",""
"196","","bandit","258","579811","0.0-220.0-0.0","37819703","wem/bandit_single","AC5UD8N187QD6","gain","4","","74","J","1","","0","0","1","0.1367876881","","false","183","0.2998653002","","main_expt","0.1367876881","","0.376594699","","0.4610412729","","","","","","",""
"50","","bandit","259","581627","0.0-221.0-0.0","37819703","wem/bandit_single","AC5UD8N187QD6","gain","4","","75","K","2","","1","0","0","0.3576767422","","false","184","0.3019566185","","main_expt","0.1225312115","","0.3576767422","","0.4654872089","","","","","","",""
"71","","bandit","260","583469","0.0-222.0-0.0","37819703","wem/bandit_single","AC5UD8N187QD6","gain","4","","75","K","2","","0","0","1","0.3420219295","","false","185","0.3297019868","","main_expt","0.1342014861","","0.3420219295","","0.4579605539","","","","","","",""
"185","","bandit","261","585419","0.0-223.0-0.0","37819703","wem/bandit_single","AC5UD8N187QD6","gain","4","","75","K","2","","0","0","1","0.3398722127","","false","186","0.3522504082","","main_expt","0.1302900424","","0.3398722127","","0.4285966985","","","","","","",""
"93","","bandit","262","587282","0.0-224.0-0.0","37819703","wem/bandit_single","AC5UD8N187QD6","gain","4","","72","H","0","img/none_selected.jpg","1","0","0","0.3716798598","","false","187","0.3716798598","","main_expt","0.1721475048","","0.3329123812","","0.4348535533","","","","","","",""
"197","","bandit","263","589245","0.0-225.0-0.0","37819703","wem/bandit_single","AC5UD8N187QD6","gain","4","","72","H","0","img/none_selected.jpg","0","0","1","0.3516931858","","false","188","0.3516931858","","main_expt","0.194848396","","0.3185375489","","0.4485299143","","","","","","",""
"98","","bandit","264","591115","0.0-226.0-0.0","37819703","wem/bandit_single","AC5UD8N187QD6","gain","4","","75","K","2","","0","0","1","0.2819885058","","false","189","0.311825216","","main_expt","0.2010474049","","0.2819885058","","0.4108460603","","","","","","",""
"94","","bandit","265","592977","0.0-227.0-0.0","37819703","wem/bandit_single","AC5UD8N187QD6","gain","4","","75","K","2","","1","0","0","0.2938453289","","false","190","0.3228194114","","main_expt","0.2388592571","","0.2938453289","","0.4276881046","","","","","","",""
"85","","bandit","266","594829","0.0-228.0-0.0","37819703","wem/bandit_single","AC5UD8N187QD6","gain","4","","75","K","2","","1","0","0","0.3252392313","","false","191","0.3070679034","","main_expt","0.2125939305","","0.3252392313","","0.4252680513","","","","","","",""
"72","","bandit","267","596661","0.0-229.0-0.0","37819703","wem/bandit_single","AC5UD8N187QD6","gain","4","","75","K","2","","0","0","1","0.2886148476","","false","192","0.3224985291","","main_expt","0.2494953747","","0.2886148476","","0.4128843357","","","","","","",""
"71","","bandit","268","598498","0.0-230.0-0.0","37819703","wem/bandit_single","AC5UD8N187QD6","gain","4","","75","K","2","","0","0","1","0.2985788169","","false","193","0.3869795439","","main_expt","0.2831479201","","0.2985788169","","0.3935422506","","","","","","",""
"30","","bandit","269","600297","0.0-231.0-0.0","37819703","wem/bandit_single","AC5UD8N187QD6","gain","4","","72","H","0","img/none_selected.jpg","1","0","0","0.4012627402","","false","194","0.4012627402","","main_expt","0.3119862296","","0.2480640489","","0.3844836544","","","","","","",""
"63","","bandit","270","602125","0.0-232.0-0.0","37819703","wem/bandit_single","AC5UD8N187QD6","gain","4","","72","H","0","img/none_selected.jpg","1","0","0","0.3984750166","","false","195","0.3984750166","","main_expt","0.3216729489","","0.2512767584","","0.3676726872","","","","","","",""
"26","","bandit","271","603925","0.0-233.0-0.0","37819703","wem/bandit_single","AC5UD8N187QD6","gain","4","","72","H","0","img/none_selected.jpg","1","0","0","0.354698241","","false","196","0.354698241","","main_expt","0.3321806914","","0.2465093633","","0.3789354293","","","","","","",""
"39","","bandit","272","605730","0.0-234.0-0.0","37819703","wem/bandit_single","AC5UD8N187QD6","gain","4","","72","H","0","img/none_selected.jpg","1","0","0","0.388220233","","false","197","0.388220233","","main_expt","0.3046277309","","0.2064088789","","0.3163718389","","","","","","",""
"13","","bandit","273","607512","0.0-235.0-0.0","37819703","wem/bandit_single","AC5UD8N187QD6","gain","4","","72","H","0","img/none_selected.jpg","1","0","0","0.3702696144","","false","198","0.3702696144","","main_expt","0.2780350238","","0.1991167995","","0.3791854339","","","","","","",""
"23","","bandit","274","609306","0.0-236.0-0.0","37819703","wem/bandit_single","AC5UD8N187QD6","gain","4","","72","H","0","img/none_selected.jpg","1","0","0","0.3901406761","","false","199","0.3901406761","","main_expt","0.2933352516","","0.217931059","","0.3677616307","","","","","","",""
"30","","bandit","275","611105","0.0-237.0-0.0","37819703","wem/bandit_single","AC5UD8N187QD6","gain","4","","72","H","0","img/none_selected.jpg","1","0","0","0.3606677237","","false","200","0.3606677237","","main_expt","0.2826656477","","0.1684289921","","0.3696360463","","","","","","",""
"37","","bandit","276","612910","0.0-238.0-0.0","37819703","wem/bandit_single","AC5UD8N187QD6","gain","4","","72","H","0","img/none_selected.jpg","0","0","1","0.3608273241","","false","201","0.3608273241","","main_expt","0.2337361703","","0.1526494416","","0.3685313937","","","","","","",""
"93","","bandit","277","614768","0.0-239.0-0.0","37819703","wem/bandit_single","AC5UD8N187QD6","gain","4","","74","J","1","","0","0","1","0.1697000529","","false","202","0.3495453025","","main_expt","0.1697000529","","0.1474087426","","0.354480527","","","","","","",""
"127","","bandit","278","616666","0.0-240.0-0.0","37819703","wem/bandit_single","AC5UD8N187QD6","gain","4","","75","K","2","","0","0","1","0.1499100939","","false","203","0.3660628182","","main_expt","0.1941246875","","0.1499100939","","0.3420940801","","","","","","",""
"21","","bandit","279","618455","0.0-241.0-0.0","37819703","wem/bandit_single","AC5UD8N187QD6","gain","4","","76","L","3","","0","0","1","0.3365711719","","false","204","0.337040125","","main_expt","0.2006574904","","0.173155318","","0.3365711719","","","","","","",""
"58","","bandit","280","620283","0.0-242.0-0.0","37819703","wem/bandit_single","AC5UD8N187QD6","gain","4","","75","K","2","","0","0","1","0.1813441082","","false","205","0.303371863","","main_expt","0.1905393187","","0.1813441082","","0.3517226909","","","","","","",""
"628","","bandit","281","622680","0.0-243.0-0.0","37819703","wem/bandit_single","AC5UD8N187QD6","gain","4","","75","K","2","","0","0","1","0.1491413167","","false","206","0.256221391","","main_expt","0.1715448013","","0.1491413167","","0.3476038752","","","","","","",""
"725","","bandit","282","625170","0.0-244.0-0.0","37819703","wem/bandit_single","AC5UD8N187QD6","gain","4","","74","J","1","","0","0","1","0.1857981004","","false","207","0.2368802791","","main_expt","0.1857981004","","0.08847738283","","0.3349551135","","","","","","",""
"84","","bandit","283","627022","0.0-245.0-0.0","37819703","wem/bandit_single","AC5UD8N187QD6","gain","4","","72","H","0","img/none_selected.jpg","0","0","1","0.1949321076","","false","208","0.1949321076","","main_expt","0.2102455122","","0.1283817583","","0.342580335","","","","","","",""
"78","","bandit","284","628864","0.0-246.0-0.0","37819703","wem/bandit_single","AC5UD8N187QD6","gain","4","","72","H","0","img/none_selected.jpg","0","0","1","0.1838736563","","false","209","0.1838736563","","main_expt","0.2400108979","","0.116273769","","0.3043768385","","","","","","",""
"69","","bandit","285","630696","0.0-247.0-0.0","37819703","wem/bandit_single","AC5UD8N187QD6","gain","4","","72","H","0","img/none_selected.jpg","0","0","1","0.2021797606","","false","210","0.2021797606","","main_expt","0.2756077388","","0.1255054793","","0.2578785415","","","","","","",""
"159","","bandit","286","632623","0.0-248.0-0.0","37819703","wem/bandit_single","AC5UD8N187QD6","gain","4","","75","K","2","","0","0","1","0.1183517879","","false","211","0.1724183734","","main_expt","0.2509099491","","0.1183517879","","0.2684152162","","","","","","",""
"77","","bandit","287","634464","0.0-249.0-0.0","37819703","wem/bandit_single","AC5UD8N187QD6","gain","4","","75","K","2","","0","0","1","0.05794836862","","false","212","0.1730984207","","main_expt","0.1980821896","","0.05794836862","","0.2734791169","","","","","","",""
"699","","bandit","288","636929","0.0-250.0-0.0","37819703","wem/bandit_single","AC5UD8N187QD6","gain","4","","75","K","2","","0","0","1","0.05975327623","","false","213","0.1324166562","","main_expt","0.1925164192","","0.05975327623","","0.2278558496","","","","","","",""
"45","","bandit","289","638747","0.0-251.0-0.0","37819703","wem/bandit_single","AC5UD8N187QD6","gain","4","","75","K","2","","0","0","1","0.08438277685","","false","214","0.1503769339","","main_expt","0.2265747235","","0.08438277685","","0.3028606466","","","","","","",""
"216","","bandit","290","640726","0.0-252.0-0.0","37819703","wem/bandit_single","AC5UD8N187QD6","gain","4","","75","K","2","","0","0","1","0.06249742642","","false","215","0.1957560139","","main_expt","0.2019374621","","0.06249742642","","0.2931323275","","","","","","",""
"136","","bandit","291","642631","0.0-253.0-0.0","37819703","wem/bandit_single","AC5UD8N187QD6","gain","4","","74","J","1","","0","0","1","0.1789305456","","false","216","0.2405167914","","main_expt","0.1789305456","","0.03962767808","","0.3496422565","","","","","","",""
"87","","bandit","292","644489","0.0-254.0-0.0","37819703","wem/bandit_single","AC5UD8N187QD6","gain","4","","75","K","2","","0","0","1","0.04234009702","","false","217","0.1730494568","","main_expt","0.1749198907","","0.04234009702","","0.3773047798","","","","","","",""
"510","","bandit","293","646771","0.0-255.0-0.0","37819703","wem/bandit_single","AC5UD8N187QD6","gain","4","","76","L","3","","0","0","1","0.3416605923","","false","218","0.194438436","","main_expt","0.1735363699","","0.03503126556","","0.3416605923","","","","","","",""
"141","","bandit","294","648679","0.0-256.0-0.0","37819703","wem/bandit_single","AC5UD8N187QD6","gain","4","","75","K","2","","0","0","1","0.04555228435","","false","219","0.1883779435","","main_expt","0.2007391453","","0.04555228435","","0.3559276739","","","","","","",""
"189","","bandit","295","650636","0.0-257.0-0.0","37819703","wem/bandit_single","AC5UD8N187QD6","gain","4","","75","K","2","","0","0","1","0.03183460319","","false","220","0.146052069","","main_expt","0.2082644318","","0.03183460319","","0.3535435837","","","","","","",""
"195","","bandit","296","652603","0.0-258.0-0.0","37819703","wem/bandit_single","AC5UD8N187QD6","gain","4","","75","K","2","","0","0","1","0.05071015327","","false","221","0.1494285134","","main_expt","0.1821586712","","0.05071015327","","0.3418709783","","","","","","",""
"560","","bandit","297","654925","0.0-259.0-0.0","37819703","wem/bandit_single","AC5UD8N187QD6","gain","4","","74","J","1","","0","0","1","0.2158533928","","false","222","0.182387278","","main_expt","0.2158533928","","0.04027023507","","0.3004905908","","","","","","",""
"134","","bandit","298","656822","0.0-260.0-0.0","37819703","wem/bandit_single","AC5UD8N187QD6","gain","4","","72","H","0","img/none_selected.jpg","0","0","1","0.198140534","","false","223","0.198140534","","main_expt","0.1832968935","","0.05247893246","","0.3691689592","","","","","","",""
"300","","bandit","299","658890","0.0-261.0-0.0","37819703","wem/bandit_single","AC5UD8N187QD6","gain","4","","74","J","1","","0","0","1","0.1701073256","","false","224","0.1957066115","","main_expt","0.1701073256","","0.06352932029","","0.2915556832","","","","","","",""
"73","","bandit","300","660726","0.0-262.0-0.0","37819703","wem/bandit_single","AC5UD8N187QD6","gain","4","","75","K","2","","0","0","1","0.04388745626","","false","225","0.2132826896","","main_expt","0.1599508429","","0.04388745626","","0.3175642321","","","","","","",""
"291","","bandit","301","662782","0.0-263.0-0.0","37819703","wem/bandit_single","AC5UD8N187QD6","gain","4","","76","L","3","","0","0","1","0.2803716623","","false","226","0.2679811769","","main_expt","0.1801289829","","0.0536624769","","0.2803716623","","","","","","",""
"313","","bandit","302","664863","0.0-264.0-0.0","37819703","wem/bandit_single","AC5UD8N187QD6","gain","4","","75","K","2","","0","0","1","0.07211167966","","false","227","0.2101601544","","main_expt","0.1920788888","","0.07211167966","","0.2506224893","","","","","","",""
"50","","bandit","303","666680","0.0-265.0-0.0","37819703","wem/bandit_single","AC5UD8N187QD6","gain","4","","74","J","1","","0","0","1","0.1540575712","","false","228","0.1808571688","","main_expt","0.1540575712","","0.04486621846","","0.2890404278","","","","","","",""
"101","","bandit","304","668549","0.0-266.0-0.0","37819703","wem/bandit_single","AC5UD8N187QD6","gain","4","","72","H","0","img/none_selected.jpg","1","0","0","0.1132309001","","false","229","0.1132309001","","main_expt","0.161449161","","0.05387953984","","0.2746035793","","","","","","",""
"89","","bandit","305","670407","0.0-267.0-0.0","37819703","wem/bandit_single","AC5UD8N187QD6","gain","4","","72","H","0","img/none_selected.jpg","0","0","1","0.1450818377","","false","230","0.1450818377","","main_expt","0.1413021421","","0.03848872117","","0.282726532","","","","","","",""
"69","","bandit","306","672247","0.0-268.0-0.0","37819703","wem/bandit_single","AC5UD8N187QD6","gain","4","","72","H","0","img/none_selected.jpg","0","0","1","0.1077137685","","false","231","0.1077137685","","main_expt","0.1745796094","","0.04669383004","","0.3472256411","","","","","","",""
"222","","bandit","307","674238","0.0-269.0-0.0","37819703","wem/bandit_single","AC5UD8N187QD6","gain","4","","72","H","0","img/none_selected.jpg","0","0","1","0.06427161289","","false","232","0.06427161289","","main_expt","0.1680880834","","0.03395804074","","0.3994934702","","","","","","",""
"329","","bandit","308","676334","0.0-270.0-0.0","37819703","wem/bandit_single","AC5UD8N187QD6","gain","4","","72","H","0","img/none_selected.jpg","0","0","1","0.1060089469","","false","233","0.1060089469","","main_expt","0.213250795","","0.05150109453","","0.4029083043","","","","","","",""
"248","","bandit","309","678351","0.0-271.0-0.0","37819703","wem/bandit_single","AC5UD8N187QD6","gain","4","","72","H","0","img/none_selected.jpg","0","0","1","0.1117154146","","false","234","0.1117154146","","main_expt","0.221091899","","0.06099663442","","0.4486287737","","","","","","",""
"253","","bandit","310","680374","0.0-272.0-0.0","37819703","wem/bandit_single","AC5UD8N187QD6","gain","4","","74","J","1","","0","0","1","0.2688923835","","false","235","0.1276115887","","main_expt","0.2688923835","","0.05202127711","","0.4561120354","","","","","","",""
"455","","bandit","311","682597","0.0-273.0-0.0","37819703","wem/bandit_single","AC5UD8N187QD6","gain","4","","75","K","2","","0","0","1","0.07001303924","","false","236","0.1786916187","","main_expt","0.2323123402","","0.07001303924","","0.4375102443","","","","","","",""
"69","","bandit","312","684431","0.0-274.0-0.0","37819703","wem/bandit_single","AC5UD8N187QD6","gain","4","","76","L","3","","0","0","1","0.4582573195","","false","237","0.1896980961","","main_expt","0.174764536","","0.07602679398","","0.4582573195","","","","","","",""
"150","","bandit","313","686352","0.0-275.0-0.0","37819703","wem/bandit_single","AC5UD8N187QD6","gain","4","","74","J","1","","1","0","0","0.1654919337","","false","238","0.2205101014","","main_expt","0.1654919337","","0.08775462142","","0.4463811869","","","","","","",""
"165","","bandit","314","688286","0.0-276.0-0.0","37819703","wem/bandit_single","AC5UD8N187QD6","gain","4","","74","J","1","","0","0","1","0.2402574844","","false","239","0.2661717939","","main_expt","0.2402574844","","0.06721086637","","0.4507479662","","","","","","",""
"94","","bandit","315","690149","0.0-277.0-0.0","37819703","wem/bandit_single","AC5UD8N187QD6","gain","4","","75","K","2","","0","0","1","0.07433064979","","false","240","0.1972661282","","main_expt","0.2445968751","","0.07433064979","","0.4504038859","","","","","","",""
"73","","bandit","316","691987","0.0-278.0-0.0","37819703","wem/bandit_single","AC5UD8N187QD6","gain","4","","74","J","1","","1","0","0","0.2708632627","","false","241","0.1868253343","","main_expt","0.2708632627","","0.08919714094","","0.4346931185","","","","","","",""
"53","","bandit","317","693806","0.0-279.0-0.0","37819703","wem/bandit_single","AC5UD8N187QD6","gain","4","","74","J","1","","0","0","1","0.2047807489","","false","242","0.1649449253","","main_expt","0.2047807489","","0.06159770715","","0.3898892773","","","","","","",""
"111","","bandit","318","695686","0.0-280.0-0.0","37819703","wem/bandit_single","AC5UD8N187QD6","gain","4","","72","H","0","img/none_selected.jpg","0","0","1","0.184368772","","false","243","0.184368772","","main_expt","0.222122474","","0.05299296545","","0.4033463229","","","","","","",""
"67","","bandit","319","697520","0.0-281.0-0.0","37819703","wem/bandit_single","AC5UD8N187QD6","gain","4","","74","J","1","","0","0","1","0.2425992204","","false","244","0.2121467569","","main_expt","0.2425992204","","0.06275569833","","0.4096532456","","","","","","",""
"35","","bandit","320","699326","0.0-282.0-0.0","37819703","wem/bandit_single","AC5UD8N187QD6","gain","4","","75","K","2","","0","0","1","0.06673215917","","false","245","0.1894702338","","main_expt","0.2173978931","","0.06673215917","","0.3779527256","","","","","","",""
"165","","bandit","321","701259","0.0-283.0-0.0","37819703","wem/bandit_single","AC5UD8N187QD6","gain","4","","76","L","3","","1","0","0","0.3953318503","","false","246","0.2018459735","","main_expt","0.2218069129","","0.06500670021","","0.3953318503","","","","","","",""
"68","","bandit","322","703094","0.0-284.0-0.0","37819703","wem/bandit_single","AC5UD8N187QD6","gain","4","","76","L","3","","1","0","0","0.4287890539","","false","247","0.1986179994","","main_expt","0.1888628326","","0.07271559664","","0.4287890539","","","","","","",""
"86","","bandit","323","704951","0.0-285.0-0.0","37819703","wem/bandit_single","AC5UD8N187QD6","gain","4","","76","L","3","","0","0","1","0.4104310255","","false","248","0.1299779064","","main_expt","0.1722509531","","0.09654775784","","0.4104310255","","","","","","",""
"220","","bandit","324","706939","0.0-286.0-0.0","37819703","wem/bandit_single","AC5UD8N187QD6","gain","4","","74","J","1","","0","0","1","0.2541205998","","false","249","0.1590650881","","main_expt","0.2541205998","","0.1179039307","","0.4116337798","","","","","","",""
"107","","bandit","325","708812","0.0-287.0-0.0","37819703","wem/bandit_single","AC5UD8N187QD6","gain","4","","76","L","3","","1","0","0","0.426505214","","false","250","0.1213614167","","main_expt","0.2664885101","","0.1265890049","","0.426505214","","","","","","",""
"103","","bandit","326","710686","0.0-288.0-0.0","37819703","wem/bandit_single","AC5UD8N187QD6","gain","4","","76","L","3","","1","0","0","0.3949293487","","false","251","0.1099334476","","main_expt","0.2519669898","","0.1039398773","","0.3949293487","","","","","","",""
"151","","bandit","327","712608","0.0-289.0-0.0","37819703","wem/bandit_single","AC5UD8N187QD6","gain","4","","76","L","3","","0","0","1","0.3913077142","","false","252","0.1087011898","","main_expt","0.2932098873","","0.107940897","","0.3913077142","","","","","","",""
"51","","bandit","328","714430","0.0-290.0-0.0","37819703","wem/bandit_single","AC5UD8N187QD6","gain","4","","76","L","3","","0","0","1","0.3648650894","","false","253","0.09397011719","","main_expt","0.3179249839","","0.1136461566","","0.3648650894","","","","","","",""
"176","","bandit","329","716375","0.0-291.0-0.0","37819703","wem/bandit_single","AC5UD8N187QD6","gain","4","","75","K","2","","1","0","0","0.1374631792","","false","254","0.08474648857","","main_expt","0.2908620441","","0.1374631792","","0.3452883024","","","","","","",""
"117","","bandit","330","718262","0.0-292.0-0.0","37819703","wem/bandit_single","AC5UD8N187QD6","gain","4","","75","K","2","","0","0","1","0.1453945637","","false","255","0.1025854271","","main_expt","0.3067265453","","0.1453945637","","0.2943306686","","","","","","",""
"102","","bandit","331","720130","0.0-293.0-0.0","37819703","wem/bandit_single","AC5UD8N187QD6","gain","4","","74","J","1","","1","0","0","0.3133222149","","false","256","0.08686152536","","main_expt","0.3133222149","","0.1543600678","","0.3225000795","","","","","","",""
"204","","bandit","332","722105","0.0-294.0-0.0","37819703","wem/bandit_single","AC5UD8N187QD6","gain","4","","74","J","1","","0","0","1","0.3194106209","","false","257","0.08667022303","","main_expt","0.3194106209","","0.107160473","","0.3199750271","","","","","","",""
"984","","bandit","333","724861","0.0-295.0-0.0","37819703","wem/bandit_single","AC5UD8N187QD6","gain","4","","74","J","1","","0","0","1","0.35032938","","false","258","0.1158580788","","main_expt","0.35032938","","0.0567043194","","0.355105101","","","","","","",""
"137","","bandit","334","726767","0.0-296.0-0.0","37819703","wem/bandit_single","AC5UD8N187QD6","gain","4","","72","H","0","img/none_selected.jpg","0","0","1","0.08241329339","","false","259","0.08241329339","","main_expt","0.3856615787","","0.05418204449","","0.3566572827","","","","","","",""
"174","","bandit","335","728705","0.0-297.0-0.0","37819703","wem/bandit_single","AC5UD8N187QD6","gain","4","","76","L","3","","1","0","0","0.3492833521","","false","260","0.09346186364","","main_expt","0.3977147975","","0.0423658587","","0.3492833521","","","","","","",""
"35","","bandit","336","730510","0.0-298.0-0.0","37819703","wem/bandit_single","AC5UD8N187QD6","gain","4","","76","L","3","","1","0","0","0.3406934897","","false","261","0.07434745577","","main_expt","0.4011116255","","0.08097208102","","0.3406934897","","","","","","",""
"141","","bandit","337","732420","0.0-299.0-0.0","37819703","wem/bandit_single","AC5UD8N187QD6","gain","4","","76","L","3","","0","0","1","0.3604065233","","false","262","0.1177047137","","main_expt","0.4149706566","","0.05731993864","","0.3604065233","","","","","","",""
"183","","bandit","338","734376","0.0-300.0-0.0","37819703","wem/bandit_single","AC5UD8N187QD6","gain","4","","76","L","3","","0","0","1","0.3584147688","","false","263","0.09530987449","","main_expt","0.4476629791","","0.07314079116","","0.3584147688","","","","","","",""
"59","","bandit","339","736204","0.0-301.0-0.0","37819703","wem/bandit_single","AC5UD8N187QD6","gain","4","","76","L","3","","0","0","1","0.3723043834","","false","264","0.07595610255","","main_expt","0.4640453953","","0.08382102311","","0.3723043834","","","","","","",""
"136","","bandit","340","738109","0.0-302.0-0.0","37819703","wem/bandit_single","AC5UD8N187QD6","gain","4","","75","K","2","","0","0","1","0.1065624759","","false","265","0.08850347459","","main_expt","0.4465377191","","0.1065624759","","0.316280577","","","","","","",""
"40","","bandit","341","739918","0.0-303.0-0.0","37819703","wem/bandit_single","AC5UD8N187QD6","gain","4","","76","L","3","","0","0","1","0.269287162","","false","266","0.1215706641","","main_expt","0.4183068553","","0.1253885588","","0.269287162","","","","","","",""
"84","","bandit","342","741771","0.0-304.0-0.0","37819703","wem/bandit_single","AC5UD8N187QD6","gain","4","","74","J","1","","0","0","1","0.4268145795","","false","267","0.1841144129","","main_expt","0.4268145795","","0.09016252172","","0.2280314931","","","","","","",""
"105","","bandit","343","743645","0.0-305.0-0.0","37819703","wem/bandit_single","AC5UD8N187QD6","gain","4","","76","L","3","","0","0","1","0.2243604643","","false","268","0.1409141681","","main_expt","0.4319202891","","0.08700052181","","0.2243604643","","","","","","",""
"80","","bandit","344","745488","0.0-306.0-0.0","37819703","wem/bandit_single","AC5UD8N187QD6","gain","4","","76","L","3","","0","0","1","0.2334807581","","false","269","0.1011197226","","main_expt","0.4493038861","","0.09500676271","","0.2334807581","","","","","","",""
"44","","bandit","345","747297","0.0-307.0-0.0","37819703","wem/bandit_single","AC5UD8N187QD6","gain","4","","75","K","2","","0","0","1","0.07607499825","","false","270","0.118556502","","main_expt","0.443059266","","0.07607499825","","0.2376518603","","","","","","",""
"145","","bandit","346","749213","0.0-308.0-0.0","37819703","wem/bandit_single","AC5UD8N187QD6","gain","4","","74","J","1","","0","0","1","0.4362671961","","false","271","0.131750931","","main_expt","0.4362671961","","0.08946946819","","0.2139372972","","","","","","",""
"145","","bandit","347","751121","0.0-309.0-0.0","37819703","wem/bandit_single","AC5UD8N187QD6","gain","4","","72","H","0","img/none_selected.jpg","0","0","1","0.174678733","","false","272","0.174678733","","main_expt","0.4452199348","","0.108288805","","0.157688628","","","","","","",""
"1","","bandit","348","752893","0.0-310.0-0.0","37819703","wem/bandit_single","AC5UD8N187QD6","gain","4","","76","L","3","","0","0","1","0.271098703","","false","273","0.1730415972","","main_expt","0.454652927","","0.105491008","","0.271098703","","","","","","",""
"22","","bandit","349","754687","0.0-311.0-0.0","37819703","wem/bandit_single","AC5UD8N187QD6","gain","4","","76","L","3","","0","0","1","0.2778056479","","false","274","0.1520576313","","main_expt","0.4646374989","","0.1059149547","","0.2778056479","","","","","","",""
"445","","bandit","350","756901","0.0-312.0-0.0","37819703","wem/bandit_single","AC5UD8N187QD6","gain","4","","75","K","2","","0","0","1","0.09894283875","","false","275","0.1007060326","","main_expt","0.4535579815","","0.09894283875","","0.2698457611","","","","","","",""
"95","","bandit","351","758762","0.0-313.0-0.0","37819703","wem/bandit_single","AC5UD8N187QD6","gain","4","","75","K","2","","0","0","1","0.07695295732","","false","276","0.08844777519","","main_expt","0.4319407295","","0.07695295732","","0.2774836338","","","","","","",""
"160","","bandit","352","760695","0.0-314.0-0.0","37819703","wem/bandit_single","AC5UD8N187QD6","gain","4","","75","K","2","","0","0","1","0.0896712608","","false","277","0.1315613084","","main_expt","0.4475260374","","0.0896712608","","0.3222794015","","","","","","",""
"133","","bandit","353","762595","0.0-315.0-0.0","37819703","wem/bandit_single","AC5UD8N187QD6","gain","4","","74","J","1","","0","0","1","0.4553849104","","false","278","0.1508492864","","main_expt","0.4553849104","","0.1343695578","","0.3122447371","","","","","","",""
"521","","bandit","354","764883","0.0-316.0-0.0","37819703","wem/bandit_single","AC5UD8N187QD6","gain","4","","76","L","3","","0","0","1","0.2934764685","","false","279","0.1181182825","","main_expt","0.4621871954","","0.1106050404","","0.2934764685","","","","","","",""
"138","","bandit","355","766790","0.0-317.0-0.0","37819703","wem/bandit_single","AC5UD8N187QD6","gain","4","","76","L","3","","0","0","1","0.290984208","","false","280","0.1244803533","","main_expt","0.4482597109","","0.114105974","","0.290984208","","","","","","",""
"555","","bandit","356","769109","0.0-318.0-0.0","37819703","wem/bandit_single","AC5UD8N187QD6","gain","4","","76","L","3","","1","0","0","0.2974260948","","false","281","0.105821284","","main_expt","0.4347423019","","0.1246337516","","0.2974260948","","","","","","",""
"62","","bandit","357","770940","0.0-319.0-0.0","37819703","wem/bandit_single","AC5UD8N187QD6","gain","4","","76","L","3","","0","0","1","0.2972171025","","false","282","0.1562468179","","main_expt","0.4583393623","","0.079988156","","0.2972171025","","","","","","",""
"86","","bandit","358","772797","0.0-320.0-0.0","37819703","wem/bandit_single","AC5UD8N187QD6","gain","4","","75","K","2","","0","0","1","0.06901380195","","false","283","0.1478322318","","main_expt","0.4497532375","","0.06901380195","","0.2821487798","","","","","","",""
"188","","bandit","359","774753","0.0-321.0-0.0","37819703","wem/bandit_single","AC5UD8N187QD6","gain","4","","74","J","1","","1","0","0","0.4312811421","","false","284","0.1371678423","","main_expt","0.4312811421","","0.05901051183","","0.2739939459","","","","","","",""
"751","","bandit","360","777278","0.0-322.0-0.0","37819703","wem/bandit_single","AC5UD8N187QD6","gain","4","","74","J","1","","0","0","1","0.4599346403","","false","285","0.12762277","","main_expt","0.4599346403","","0.1126944794","","0.2251097973","","","","","","",""
"19","","bandit","361","779067","0.0-323.0-0.0","37819703","wem/bandit_single","AC5UD8N187QD6","gain","4","","76","L","3","","0","0","1","0.2124690726","","false","286","0.1587978561","","main_expt","0.4588450488","","0.09646131279","","0.2124690726","","","","","","",""
"686","","bandit","362","781522","0.0-324.0-0.0","37819703","wem/bandit_single","AC5UD8N187QD6","gain","4","","76","L","3","","0","0","1","0.2311163105","","false","287","0.1262084743","","main_expt","0.4684539465","","0.0795853072","","0.2311163105","","","","","","",""
"721","","bandit","363","784013","0.0-325.0-0.0","37819703","wem/bandit_single","AC5UD8N187QD6","gain","4","","76","L","3","","1","0","0","0.2178761709","","false","288","0.08849331384","","main_expt","0.4555823871","","0.07210460151","","0.2178761709","","","","","","",""
"461","","bandit","364","786245","0.0-326.0-0.0","37819703","wem/bandit_single","AC5UD8N187QD6","gain","4","","76","L","3","","0","0","1","0.2656120211","","false","289","0.1082793638","","main_expt","0.4779982095","","0.08807043944","","0.2656120211","","","","","","",""
"196","","bandit","365","788210","0.0-327.0-0.0","37819703","wem/bandit_single","AC5UD8N187QD6","gain","4","","76","L","3","","0","0","1","0.2756957417","","false","290","0.1591187351","","main_expt","0.4806691972","","0.09097769709","","0.2756957417","","","","","","",""
"72","","bandit","366","790050","0.0-328.0-0.0","37819703","wem/bandit_single","AC5UD8N187QD6","gain","4","","75","K","2","","0","0","1","0.1486720085","","false","291","0.1766493085","","main_expt","0.4856322508","","0.1486720085","","0.3111580235","","","","","","",""
"0","","bandit","367","791820","0.0-329.0-0.0","37819703","wem/bandit_single","AC5UD8N187QD6","gain","4","","76","L","3","","1","0","0","0.3019137931","","false","292","0.1303677554","","main_expt","0.4905538215","","0.166368556","","0.3019137931","","","","","","",""
"261","","bandit","368","793851","0.0-330.0-0.0","37819703","wem/bandit_single","AC5UD8N187QD6","gain","4","","76","L","3","","1","0","0","0.2930542664","","false","293","0.1553518032","","main_expt","0.4915741327","","0.1516979355","","0.2930542664","","","","","","",""
"930","","bandit","369","796542","0.0-331.0-0.0","37819703","wem/bandit_single","AC5UD8N187QD6","gain","4","","76","L","3","","1","0","0","0.294566814","","false","294","0.1586445557","","main_expt","0.4854109815","","0.142642289","","0.294566814","","","","","","",""
"137","","bandit","370","798449","0.0-332.0-0.0","37819703","wem/bandit_single","AC5UD8N187QD6","gain","4","","76","L","3","","0","0","1","0.2590601899","","false","295","0.1474370852","","main_expt","0.4737464351","","0.1038045902","","0.2590601899","","","","","","",""
"87","","bandit","371","800307","0.0-333.0-0.0","37819703","wem/bandit_single","AC5UD8N187QD6","gain","4","","72","H","0","img/none_selected.jpg","1","0","0","0.1281429101","","false","296","0.1281429101","","main_expt","0.4752126994","","0.1055366566","","0.260130188","","","","","","",""
"174","","bandit","372","802251","0.0-334.0-0.0","37819703","wem/bandit_single","AC5UD8N187QD6","gain","4","","72","H","0","img/none_selected.jpg","0","0","1","0.1486346553","","false","297","0.1486346553","","main_expt","0.47087989","","0.07292146603","","0.243487995","","","","","","",""
"133","","bandit","373","804153","0.0-335.0-0.0","37819703","wem/bandit_single","AC5UD8N187QD6","gain","4","","76","L","3","","0","0","1","0.2746908113","","false","298","0.154412059","","main_expt","0.454436629","","0.07361350609","","0.2746908113","","","","","","",""
