"rt","responses","trial_type","trial_index","time_elapsed","internal_node_id","subjID","study","MID","cond","drift","key_press","respCharCode","respKey","respChoiceNum","respChoice","gems","bombs","no_reward","GemPrChosen","BombPrChosen","practice","trial_counter","WinPr_0","LosePr_0","trial_label","WinPr_1","LosePr_1","WinPr_2","LosePr_2","WinPr_3","LosePr_3","Q0","Q1","Q2","gender","age","ethnicity"
"147066","{""Q0"":""A3HIRLDYDLBYDQ""}","survey-text","0","147118","0.0-0.0","38322251","wem/bandit_single","A3HIRLDYDLBYDQ","pain","8","","","","","","","","","","","","","","","","","","","","","","","","","","",""
"22642","","text","1","170774","0.0-1.0","38322251","wem/bandit_single","A3HIRLDYDLBYDQ","pain","8","32","","","","","","","","","","","","","","","","","","","","","","","","","",""
"5982","","text","2","176760","0.0-2.0","38322251","wem/bandit_single","A3HIRLDYDLBYDQ","pain","8","32","","","","","","","","","","","","","","","","","","","","","","","","","",""
"87631","","text","3","264393","0.0-3.0","38322251","wem/bandit_single","A3HIRLDYDLBYDQ","pain","8","32","","","","","","","","","","","","","","","","","","","","","","","","","",""
"15318","","text","4","279713","0.0-4.0","38322251","wem/bandit_single","A3HIRLDYDLBYDQ","pain","8","32","","","","","","","","","","","","","","","","","","","","","","","","","",""
"16985","","text","5","296700","0.0-5.0","38322251","wem/bandit_single","A3HIRLDYDLBYDQ","pain","8","32","","","","","","","","","","","","","","","","","","","","","","","","","",""
"19210","","text","6","315912","0.0-6.0","38322251","wem/bandit_single","A3HIRLDYDLBYDQ","pain","8","32","","","","","","","","","","","","","","","","","","","","","","","","","",""
"6155","","text","7","322070","0.0-7.0","38322251","wem/bandit_single","A3HIRLDYDLBYDQ","pain","8","32","","","","","","","","","","","","","","","","","","","","","","","","","",""
"3583","","text","8","325656","0.0-8.0","38322251","wem/bandit_single","A3HIRLDYDLBYDQ","pain","8","32","","","","","","","","","","","","","","","","","","","","","","","","","",""
"6485","","text","9","332143","0.0-9.0","38322251","wem/bandit_single","A3HIRLDYDLBYDQ","pain","8","32","","","","","","","","","","","","","","","","","","","","","","","","","",""
"10494","","text","10","342639","0.0-10.0","38322251","wem/bandit_single","A3HIRLDYDLBYDQ","pain","8","32","","","","","","","","","","","","","","","","","","","","","","","","","",""
"7811","","text","11","350453","0.0-11.0","38322251","wem/bandit_single","A3HIRLDYDLBYDQ","pain","8","32","","","","","","","","","","","","","","","","","","","","","","","","","",""
"1876","","bandit","12","353846","0.0-12.0-0.0","38322251","wem/bandit_single","A3HIRLDYDLBYDQ","pain","8","","74","J","0","img/none_selected_demo.jpg","0","0","1","0","0","true","0","0","0","","","","","","","","","","","","",""
"1730","","bandit","13","357337","0.0-13.0-0.0","38322251","wem/bandit_single","A3HIRLDYDLBYDQ","pain","8","","75","K","0","img/none_selected_demo.jpg","0","0","1","0","0","true","0","0","0","","","","","","","","","","","","",""
"3007","","text","14","360597","0.0-14.0","38322251","wem/bandit_single","A3HIRLDYDLBYDQ","pain","8","32","","","","","","","","","","","","","","","","","","","","","","","","","",""
"16568","","text","15","377167","0.0-15.0","38322251","wem/bandit_single","A3HIRLDYDLBYDQ","pain","8","32","","","","","","","","","","","","","","","","","","","","","","","","","",""
"4300","","text","16","381469","0.0-16.0","38322251","wem/bandit_single","A3HIRLDYDLBYDQ","pain","8","32","","","","","","","","","","","","","","","","","","","","","","","","","",""
"3437","","text","17","384908","0.0-17.0","38322251","wem/bandit_single","A3HIRLDYDLBYDQ","pain","8","32","","","","","","","","","","","","","","","","","","","","","","","","","",""
"1906","","bandit","18","388324","0.0-18.0-0.0","38322251","wem/bandit_single","A3HIRLDYDLBYDQ","pain","8","","74","J","0","img/none_selected_demo.jpg","0","1","0","0","0.8","true","0","0","0.8","80_20_practice","0","0.2","","","","","","","","","",""
"490","","bandit","19","390576","0.0-18.0-1.0","38322251","wem/bandit_single","A3HIRLDYDLBYDQ","pain","8","","75","K","1","","0","0","1","0","0.2","true","0","0","0.8","80_20_practice","0","0.2","","","","","","","","","",""
"6073","","bandit","20","398412","0.0-18.0-2.0","38322251","wem/bandit_single","A3HIRLDYDLBYDQ","pain","8","","74","J","0","img/none_selected_demo.jpg","0","1","0","0","0.8","true","0","0","0.8","80_20_practice","0","0.2","","","","","","","","","",""
"756","","bandit","21","400925","0.0-18.0-3.0","38322251","wem/bandit_single","A3HIRLDYDLBYDQ","pain","8","","75","K","1","","0","0","1","0","0.2","true","0","0","0.8","80_20_practice","0","0.2","","","","","","","","","",""
"160","","bandit","22","402844","0.0-18.0-4.0","38322251","wem/bandit_single","A3HIRLDYDLBYDQ","pain","8","","74","J","0","img/none_selected_demo.jpg","0","1","0","0","0.8","true","0","0","0.8","80_20_practice","0","0.2","","","","","","","","","",""
"42","","bandit","23","404646","0.0-18.0-5.0","38322251","wem/bandit_single","A3HIRLDYDLBYDQ","pain","8","","75","K","1","","0","0","1","0","0.2","true","0","0","0.8","80_20_practice","0","0.2","","","","","","","","","",""
"127","","bandit","24","406532","0.0-18.0-6.0","38322251","wem/bandit_single","A3HIRLDYDLBYDQ","pain","8","","74","J","0","img/none_selected_demo.jpg","0","1","0","0","0.8","true","0","0","0.8","80_20_practice","0","0.2","","","","","","","","","",""
"114","","bandit","25","408405","0.0-18.0-7.0","38322251","wem/bandit_single","A3HIRLDYDLBYDQ","pain","8","","75","K","1","","0","0","1","0","0.2","true","0","0","0.8","80_20_practice","0","0.2","","","","","","","","","",""
"12847","","bandit","26","423010","0.0-18.0-8.0","38322251","wem/bandit_single","A3HIRLDYDLBYDQ","pain","8","","74","J","0","img/none_selected_demo.jpg","0","1","0","0","0.8","true","0","0","0.8","80_20_practice","0","0.2","","","","","","","","","",""
"804","","bandit","27","425575","0.0-18.0-9.0","38322251","wem/bandit_single","A3HIRLDYDLBYDQ","pain","8","","75","K","1","","0","0","1","0","0.2","true","0","0","0.8","80_20_practice","0","0.2","","","","","","","","","",""
"308","","bandit","28","427645","0.0-18.0-10.0","38322251","wem/bandit_single","A3HIRLDYDLBYDQ","pain","8","","74","J","0","img/none_selected_demo.jpg","0","1","0","0","0.8","true","0","0","0.8","80_20_practice","0","0.2","","","","","","","","","",""
"350","","bandit","29","429757","0.0-18.0-11.0","38322251","wem/bandit_single","A3HIRLDYDLBYDQ","pain","8","","75","K","1","","0","0","1","0","0.2","true","0","0","0.8","80_20_practice","0","0.2","","","","","","","","","",""
"159","","bandit","30","431674","0.0-18.0-12.0","38322251","wem/bandit_single","A3HIRLDYDLBYDQ","pain","8","","74","J","0","img/none_selected_demo.jpg","0","1","0","0","0.8","true","0","0","0.8","80_20_practice","0","0.2","","","","","","","","","",""
"131","","bandit","31","433568","0.0-18.0-13.0","38322251","wem/bandit_single","A3HIRLDYDLBYDQ","pain","8","","75","K","1","","0","0","1","0","0.2","true","0","0","0.8","80_20_practice","0","0.2","","","","","","","","","",""
"167","","bandit","32","435499","0.0-18.0-14.0","38322251","wem/bandit_single","A3HIRLDYDLBYDQ","pain","8","","74","J","0","img/none_selected_demo.jpg","0","1","0","0","0.8","true","0","0","0.8","80_20_practice","0","0.2","","","","","","","","","",""
"112","","bandit","33","437371","0.0-18.0-15.0","38322251","wem/bandit_single","A3HIRLDYDLBYDQ","pain","8","","75","K","1","","0","0","1","0","0.2","true","0","0","0.8","80_20_practice","0","0.2","","","","","","","","","",""
"210","","bandit","34","439340","0.0-18.0-16.0","38322251","wem/bandit_single","A3HIRLDYDLBYDQ","pain","8","","74","J","0","img/none_selected_demo.jpg","0","1","0","0","0.8","true","0","0","0.8","80_20_practice","0","0.2","","","","","","","","","",""
"133","","bandit","35","441236","0.0-18.0-17.0","38322251","wem/bandit_single","A3HIRLDYDLBYDQ","pain","8","","75","K","1","","0","0","1","0","0.2","true","0","0","0.8","80_20_practice","0","0.2","","","","","","","","","",""
"3415","","bandit","36","446410","0.0-18.0-18.0","38322251","wem/bandit_single","A3HIRLDYDLBYDQ","pain","8","","74","J","0","img/none_selected_demo.jpg","0","0","1","0","0.8","true","0","0","0.8","80_20_practice","0","0.2","","","","","","","","","",""
"2049","","bandit","37","450218","0.0-18.0-19.0","38322251","wem/bandit_single","A3HIRLDYDLBYDQ","pain","8","","74","J","0","img/none_selected_demo.jpg","0","1","0","0","0.8","true","0","0","0.8","80_20_practice","0","0.2","","","","","","","","","",""
"3852","","text","38","454325","0.0-19.0","38322251","wem/bandit_single","A3HIRLDYDLBYDQ","pain","8","32","","","","","","","","","","","","","","","","","","","","","","","","","",""
"2449","","bandit","39","458280","0.0-20.0-0.0","38322251","wem/bandit_single","A3HIRLDYDLBYDQ","pain","8","","74","J","0","img/none_selected_demo.jpg","0","0","1","0","0","true","0","0","0","","0","0","","","","","","","","","",""
"7088","","text","40","465623","0.0-21.0","38322251","wem/bandit_single","A3HIRLDYDLBYDQ","pain","8","32","","","","","","","","","","","","","","","","","","","","","","","","","",""
"5217","","text","41","470843","0.0-22.0","38322251","wem/bandit_single","A3HIRLDYDLBYDQ","pain","8","32","","","","","","","","","","","","","","","","","","","","","","","","","",""
"2835","","text","42","473682","0.0-23.0","38322251","wem/bandit_single","A3HIRLDYDLBYDQ","pain","8","32","","","","","","","","","","","","","","","","","","","","","","","","","",""
"4593","","text","43","478278","0.0-24.0","38322251","wem/bandit_single","A3HIRLDYDLBYDQ","pain","8","32","","","","","","","","","","","","","","","","","","","","","","","","","",""
"26700","","text","44","504981","0.0-25.0","38322251","wem/bandit_single","A3HIRLDYDLBYDQ","pain","8","32","","","","","","","","","","","","","","","","","","","","","","","","","",""
"5019","","text","45","510003","0.0-26.0","38322251","wem/bandit_single","A3HIRLDYDLBYDQ","pain","8","32","","","","","","","","","","","","","","","","","","","","","","","","","",""
"3693","","text","46","513698","0.0-27.0","38322251","wem/bandit_single","A3HIRLDYDLBYDQ","pain","8","32","","","","","","","","","","","","","","","","","","","","","","","","","",""
"3655","","text","47","517356","0.0-28.0","38322251","wem/bandit_single","A3HIRLDYDLBYDQ","pain","8","32","","","","","","","","","","","","","","","","","","","","","","","","","",""
"5403","","text","48","522762","0.0-29.0","38322251","wem/bandit_single","A3HIRLDYDLBYDQ","pain","8","32","","","","","","","","","","","","","","","","","","","","","","","","","",""
"2197","","text","49","524962","0.0-30.0","38322251","wem/bandit_single","A3HIRLDYDLBYDQ","pain","8","32","","","","","","","","","","","","","","","","","","","","","","","","","",""
"12246","","text","50","537212","0.0-31.0","38322251","wem/bandit_single","A3HIRLDYDLBYDQ","pain","8","32","","","","","","","","","","","","","","","","","","","","","","","","","",""
"1809","","bandit","51","540529","0.0-32.0-0.0","38322251","wem/bandit_single","A3HIRLDYDLBYDQ","pain","8","","72","H","0","img/none_selected.jpg","0","1","0","0","0.8","true","0","0","0.8","full_practice","0","0.2","0","0.6","0","0.2","","","","","",""
"313","","bandit","52","542601","0.0-32.0-1.0","38322251","wem/bandit_single","A3HIRLDYDLBYDQ","pain","8","","74","J","1","","0","0","1","0","0.2","true","0","0","0.8","full_practice","0","0.2","0","0.6","0","0.2","","","","","",""
"1311","","bandit","53","545672","0.0-32.0-2.0","38322251","wem/bandit_single","A3HIRLDYDLBYDQ","pain","8","","75","K","2","","0","1","0","0","0.6","true","0","0","0.8","full_practice","0","0.2","0","0.6","0","0.2","","","","","",""
"315","","bandit","54","547746","0.0-32.0-3.0","38322251","wem/bandit_single","A3HIRLDYDLBYDQ","pain","8","","76","L","3","","0","1","0","0","0.2","true","0","0","0.8","full_practice","0","0.2","0","0.6","0","0.2","","","","","",""
"843","","bandit","55","550349","0.0-32.0-4.0","38322251","wem/bandit_single","A3HIRLDYDLBYDQ","pain","8","","72","H","0","img/none_selected.jpg","0","1","0","0","0.8","true","0","0","0.8","full_practice","0","0.2","0","0.6","0","0.2","","","","","",""
"1140","","bandit","56","553250","0.0-32.0-5.0","38322251","wem/bandit_single","A3HIRLDYDLBYDQ","pain","8","","74","J","1","","0","0","1","0","0.2","true","0","0","0.8","full_practice","0","0.2","0","0.6","0","0.2","","","","","",""
"463","","bandit","57","555473","0.0-32.0-6.0","38322251","wem/bandit_single","A3HIRLDYDLBYDQ","pain","8","","75","K","2","","0","1","0","0","0.6","true","0","0","0.8","full_practice","0","0.2","0","0.6","0","0.2","","","","","",""
"470","","bandit","58","557704","0.0-32.0-7.0","38322251","wem/bandit_single","A3HIRLDYDLBYDQ","pain","8","","76","L","3","","0","0","1","0","0.2","true","0","0","0.8","full_practice","0","0.2","0","0.6","0","0.2","","","","","",""
"3421","","bandit","59","562884","0.0-32.0-8.0","38322251","wem/bandit_single","A3HIRLDYDLBYDQ","pain","8","","74","J","1","","0","0","1","0","0.2","true","0","0","0.8","full_practice","0","0.2","0","0.6","0","0.2","","","","","",""
"229","","bandit","60","564873","0.0-32.0-9.0","38322251","wem/bandit_single","A3HIRLDYDLBYDQ","pain","8","","72","H","0","img/none_selected.jpg","0","1","0","0","0.8","true","0","0","0.8","full_practice","0","0.2","0","0.6","0","0.2","","","","","",""
"513","","bandit","61","567152","0.0-32.0-10.0","38322251","wem/bandit_single","A3HIRLDYDLBYDQ","pain","8","","76","L","3","","0","1","0","0","0.2","true","0","0","0.8","full_practice","0","0.2","0","0.6","0","0.2","","","","","",""
"114","","bandit","62","569024","0.0-32.0-11.0","38322251","wem/bandit_single","A3HIRLDYDLBYDQ","pain","8","","75","K","2","","0","1","0","0","0.6","true","0","0","0.8","full_practice","0","0.2","0","0.6","0","0.2","","","","","",""
"2252","","bandit","63","573034","0.0-32.0-12.0","38322251","wem/bandit_single","A3HIRLDYDLBYDQ","pain","8","","74","J","1","","0","0","1","0","0.2","true","0","0","0.8","full_practice","0","0.2","0","0.6","0","0.2","","","","","",""
"16","","bandit","64","574811","0.0-32.0-13.0","38322251","wem/bandit_single","A3HIRLDYDLBYDQ","pain","8","","75","K","2","","0","1","0","0","0.6","true","0","0","0.8","full_practice","0","0.2","0","0.6","0","0.2","","","","","",""
"1510","","bandit","65","578081","0.0-32.0-14.0","38322251","wem/bandit_single","A3HIRLDYDLBYDQ","pain","8","","72","H","0","img/none_selected.jpg","0","1","0","0","0.8","true","0","0","0.8","full_practice","0","0.2","0","0.6","0","0.2","","","","","",""
"1630","","bandit","66","581474","0.0-32.0-15.0","38322251","wem/bandit_single","A3HIRLDYDLBYDQ","pain","8","","76","L","3","","0","1","0","0","0.2","true","0","0","0.8","full_practice","0","0.2","0","0.6","0","0.2","","","","","",""
"1505","","bandit","67","584739","0.0-32.0-16.0","38322251","wem/bandit_single","A3HIRLDYDLBYDQ","pain","8","","74","J","1","","0","0","1","0","0.2","true","0","0","0.8","full_practice","0","0.2","0","0.6","0","0.2","","","","","",""
"525","","bandit","68","587025","0.0-32.0-17.0","38322251","wem/bandit_single","A3HIRLDYDLBYDQ","pain","8","","76","L","3","","0","0","1","0","0.2","true","0","0","0.8","full_practice","0","0.2","0","0.6","0","0.2","","","","","",""
"59","","bandit","69","588843","0.0-32.0-18.0","38322251","wem/bandit_single","A3HIRLDYDLBYDQ","pain","8","","72","H","0","img/none_selected.jpg","0","0","1","0","0.8","true","0","0","0.8","full_practice","0","0.2","0","0.6","0","0.2","","","","","",""
"1591","","bandit","70","592192","0.0-32.0-19.0","38322251","wem/bandit_single","A3HIRLDYDLBYDQ","pain","8","","74","J","1","","0","0","1","0","0.2","true","0","0","0.8","full_practice","0","0.2","0","0.6","0","0.2","","","","","",""
"4574","","text","71","597027","0.0-33.0","38322251","wem/bandit_single","A3HIRLDYDLBYDQ","pain","8","32","","","","","","","","","","","","","","","","","","","","","","","","","",""
"17441","","text","72","615474","0.0-34.0","38322251","wem/bandit_single","A3HIRLDYDLBYDQ","pain","8","32","","","","","","","","","","","","","","","","","","","","","","","","","",""
"5002","","text","73","620480","0.0-35.0","38322251","wem/bandit_single","A3HIRLDYDLBYDQ","pain","8","32","","","","","","","","","","","","","","","","","","","","","","","","","",""
"4724","","text","74","625208","0.0-36.0","38322251","wem/bandit_single","A3HIRLDYDLBYDQ","pain","8","32","","","","","","","","","","","","","","","","","","","","","","","","","",""
"6054","","text","75","631266","0.0-37.0","38322251","wem/bandit_single","A3HIRLDYDLBYDQ","pain","8","32","","","","","","","","","","","","","","","","","","","","","","","","","",""
"3326","","bandit","76","636101","0.0-38.0-0.0","38322251","wem/bandit_single","A3HIRLDYDLBYDQ","pain","8","","75","K","2","","0","0","1","","0.2726752288","false","1","","0.2895646149","main_expt","","0.461186604","","0.2726752288","","0.4519399214","","","","","",""
"250","","bandit","77","638112","0.0-39.0-0.0","38322251","wem/bandit_single","A3HIRLDYDLBYDQ","pain","8","","76","L","3","","0","0","1","","0.4414774062","false","2","","0.3162770887","main_expt","","0.4745384616","","0.2373300031","","0.4414774062","","","","","",""
"487","","bandit","78","640359","0.0-40.0-0.0","38322251","wem/bandit_single","A3HIRLDYDLBYDQ","pain","8","","72","H","0","img/none_selected.jpg","0","1","0","","0.3445892231","false","3","","0.3445892231","main_expt","","0.476270309","","0.2268539811","","0.4248782664","","","","","",""
"224","","bandit","79","642344","0.0-41.0-0.0","38322251","wem/bandit_single","A3HIRLDYDLBYDQ","pain","8","","72","H","0","img/none_selected.jpg","0","0","1","","0.318720175","false","4","","0.318720175","main_expt","","0.4750198572","","0.2312911009","","0.3797460064","","","","","",""
"424","","bandit","80","644528","0.0-42.0-0.0","38322251","wem/bandit_single","A3HIRLDYDLBYDQ","pain","8","","74","J","1","","0","0","1","","0.4711191004","false","5","","0.2768356494","main_expt","","0.4711191004","","0.1875260819","","0.3747955817","","","","","",""
"1182","","bandit","81","647470","0.0-43.0-0.0","38322251","wem/bandit_single","A3HIRLDYDLBYDQ","pain","8","","75","K","2","","0","0","1","","0.190272436","false","6","","0.2660169375","main_expt","","0.4561500297","","0.190272436","","0.3434652127","","","","","",""
"168","","bandit","82","649399","0.0-44.0-0.0","38322251","wem/bandit_single","A3HIRLDYDLBYDQ","pain","8","","76","L","3","","0","1","0","","0.3450192323","false","7","","0.3364590491","main_expt","","0.4549462182","","0.1912500229","","0.3450192323","","","","","",""
"207","","bandit","83","651364","0.0-45.0-0.0","38322251","wem/bandit_single","A3HIRLDYDLBYDQ","pain","8","","76","L","3","","0","0","1","","0.3319287687","false","8","","0.2814314702","main_expt","","0.4738433377","","0.2317086102","","0.3319287687","","","","","",""
"585","","bandit","84","653709","0.0-46.0-0.0","38322251","wem/bandit_single","A3HIRLDYDLBYDQ","pain","8","","74","J","1","","0","1","0","","0.4719526371","false","9","","0.172204453","main_expt","","0.4719526371","","0.2732709622","","0.3592879842","","","","","",""
"1004","","bandit","85","656474","0.0-47.0-0.0","38322251","wem/bandit_single","A3HIRLDYDLBYDQ","pain","8","","74","J","1","","0","0","1","","0.4102917743","false","10","","0.1714760066","main_expt","","0.4102917743","","0.2369361721","","0.4119036765","","","","","",""
"276","","bandit","86","658510","0.0-48.0-0.0","38322251","wem/bandit_single","A3HIRLDYDLBYDQ","pain","8","","72","H","0","img/none_selected.jpg","0","1","0","","0.1477319919","false","11","","0.1477319919","main_expt","","0.4247485268","","0.2428480584","","0.440335537","","","","","",""
"728","","bandit","87","661000","0.0-49.0-0.0","38322251","wem/bandit_single","A3HIRLDYDLBYDQ","pain","8","","75","K","2","","0","0","1","","0.3127978045","false","12","","0.1195530135","main_expt","","0.3805001106","","0.3127978045","","0.4198069009","","","","","",""
"165","","bandit","88","662925","0.0-50.0-0.0","38322251","wem/bandit_single","A3HIRLDYDLBYDQ","pain","8","","76","L","3","","0","0","1","","0.4095272681","false","13","","0.1097065617","main_expt","","0.3922463094","","0.3411181312","","0.4095272681","","","","","",""
"465","","bandit","89","665150","0.0-51.0-0.0","38322251","wem/bandit_single","A3HIRLDYDLBYDQ","pain","8","","72","H","0","img/none_selected.jpg","0","1","0","","0.1146709003","false","14","","0.1146709003","main_expt","","0.3385893542","","0.3547490374","","0.4393311008","","","","","",""
"324","","bandit","90","667233","0.0-52.0-0.0","38322251","wem/bandit_single","A3HIRLDYDLBYDQ","pain","8","","72","H","0","img/none_selected.jpg","0","0","1","","0.105598426","false","15","","0.105598426","main_expt","","0.2580729479","","0.3447780093","","0.4232641195","","","","","",""
"315","","bandit","91","669310","0.0-53.0-0.0","38322251","wem/bandit_single","A3HIRLDYDLBYDQ","pain","8","","74","J","1","","0","0","1","","0.3126944558","false","16","","0.1085338479","main_expt","","0.3126944558","","0.3451486401","","0.408879381","","","","","",""
"226","","bandit","92","671302","0.0-54.0-0.0","38322251","wem/bandit_single","A3HIRLDYDLBYDQ","pain","8","","75","K","2","","0","0","1","","0.3788599072","false","17","","0.1267686316","main_expt","","0.3693960878","","0.3788599072","","0.376774317","","","","","",""
"103","","bandit","93","673166","0.0-55.0-0.0","38322251","wem/bandit_single","A3HIRLDYDLBYDQ","pain","8","","76","L","3","","0","1","0","","0.4245824949","false","18","","0.2161611973","main_expt","","0.3881723811","","0.3977159439","","0.4245824949","","","","","",""
"178","","bandit","94","675104","0.0-56.0-0.0","38322251","wem/bandit_single","A3HIRLDYDLBYDQ","pain","8","","76","L","3","","0","1","0","","0.4391895307","false","19","","0.2028493804","main_expt","","0.3762380044","","0.3885232362","","0.4391895307","","","","","",""
"269","","bandit","95","677133","0.0-57.0-0.0","38322251","wem/bandit_single","A3HIRLDYDLBYDQ","pain","8","","76","L","3","","0","0","1","","0.4621127774","false","20","","0.2258994585","main_expt","","0.3842023068","","0.3985462001","","0.4621127774","","","","","",""
"307","","bandit","96","679202","0.0-58.0-0.0","38322251","wem/bandit_single","A3HIRLDYDLBYDQ","pain","8","","74","J","1","","0","0","1","","0.3509270449","false","21","","0.1591174119","main_expt","","0.3509270449","","0.349749023","","0.4621164646","","","","","",""
"1364","","bandit","97","682325","0.0-59.0-0.0","38322251","wem/bandit_single","A3HIRLDYDLBYDQ","pain","8","","75","K","2","","0","1","0","","0.3437713834","false","22","","0.1526874152","main_expt","","0.3777441782","","0.3437713834","","0.4347396303","","","","","",""
"345","","bandit","98","684429","0.0-60.0-0.0","38322251","wem/bandit_single","A3HIRLDYDLBYDQ","pain","8","","75","K","2","","0","1","0","","0.3608333873","false","23","","0.1461335862","main_expt","","0.3799964268","","0.3608333873","","0.43496863","","","","","",""
"312","","bandit","99","686502","0.0-61.0-0.0","38322251","wem/bandit_single","A3HIRLDYDLBYDQ","pain","8","","75","K","2","","0","0","1","","0.3832767268","false","24","","0.194032511","main_expt","","0.4097073291","","0.3832767268","","0.43684491","","","","","",""
"142","","bandit","100","688406","0.0-62.0-0.0","38322251","wem/bandit_single","A3HIRLDYDLBYDQ","pain","8","","72","H","0","img/none_selected.jpg","0","0","1","","0.1913779305","false","25","","0.1913779305","main_expt","","0.4196977393","","0.3839685871","","0.3785768995","","","","","",""
"321","","bandit","101","690487","0.0-63.0-0.0","38322251","wem/bandit_single","A3HIRLDYDLBYDQ","pain","8","","74","J","1","","0","0","1","","0.3798545817","false","26","","0.2830828826","main_expt","","0.3798545817","","0.3871157951","","0.3754964585","","","","","",""
"464","","bandit","102","692710","0.0-64.0-0.0","38322251","wem/bandit_single","A3HIRLDYDLBYDQ","pain","8","","76","L","3","","0","0","1","","0.3964499655","false","27","","0.3268824087","main_expt","","0.3531061786","","0.4093540125","","0.3964499655","","","","","",""
"462","","bandit","103","694932","0.0-65.0-0.0","38322251","wem/bandit_single","A3HIRLDYDLBYDQ","pain","8","","75","K","2","","0","1","0","","0.3781829904","false","28","","0.3092871108","main_expt","","0.3327392046","","0.3781829904","","0.4243602908","","","","","",""
"154","","bandit","104","696846","0.0-66.0-0.0","38322251","wem/bandit_single","A3HIRLDYDLBYDQ","pain","8","","75","K","2","","0","1","0","","0.3633234486","false","29","","0.299803321","main_expt","","0.2799969064","","0.3633234486","","0.4296462108","","","","","",""
"385","","bandit","105","698991","0.0-67.0-0.0","38322251","wem/bandit_single","A3HIRLDYDLBYDQ","pain","8","","74","J","1","","0","0","1","","0.225268033","false","30","","0.3318792252","main_expt","","0.225268033","","0.395486831","","0.4442153724","","","","","",""
"303","","bandit","106","701055","0.0-68.0-0.0","38322251","wem/bandit_single","A3HIRLDYDLBYDQ","pain","8","","72","H","0","img/none_selected.jpg","0","0","1","","0.3274080626","false","31","","0.3274080626","main_expt","","0.2195205817","","0.353932484","","0.4425075274","","","","","",""
"462","","bandit","107","703275","0.0-69.0-0.0","38322251","wem/bandit_single","A3HIRLDYDLBYDQ","pain","8","","72","H","0","img/none_selected.jpg","0","1","0","","0.3233555863","false","32","","0.3233555863","main_expt","","0.2569702332","","0.3902442546","","0.4038806219","","","","","",""
"202","","bandit","108","705237","0.0-70.0-0.0","38322251","wem/bandit_single","A3HIRLDYDLBYDQ","pain","8","","72","H","0","img/none_selected.jpg","0","1","0","","0.3836123675","false","33","","0.3836123675","main_expt","","0.2914027765","","0.3727342875","","0.4283701542","","","","","",""
"288","","bandit","109","707285","0.0-71.0-0.0","38322251","wem/bandit_single","A3HIRLDYDLBYDQ","pain","8","","72","H","0","img/none_selected.jpg","0","0","1","","0.4200589335","false","34","","0.4200589335","main_expt","","0.2667004126","","0.3940120807","","0.4332078231","","","","","",""
"416","","bandit","110","709460","0.0-72.0-0.0","38322251","wem/bandit_single","A3HIRLDYDLBYDQ","pain","8","","76","L","3","","0","0","1","","0.3861361583","false","35","","0.4280145355","main_expt","","0.3112773703","","0.3682756201","","0.3861361583","","","","","",""
"283","","bandit","111","711502","0.0-73.0-0.0","38322251","wem/bandit_single","A3HIRLDYDLBYDQ","pain","8","","75","K","2","","0","1","0","","0.4136743311","false","36","","0.3696194815","main_expt","","0.3158013471","","0.4136743311","","0.3176889815","","","","","",""
"398","","bandit","112","713661","0.0-74.0-0.0","38322251","wem/bandit_single","A3HIRLDYDLBYDQ","pain","8","","75","K","2","","0","1","0","","0.449594317","false","37","","0.3567242832","main_expt","","0.3348696363","","0.449594317","","0.3333355096","","","","","",""
"256128","","bandit","113","971551","0.0-75.0-0.0","38322251","wem/bandit_single","A3HIRLDYDLBYDQ","pain","8","","74","J","1","","0","0","1","","0.2967031697","false","38","","0.3139752797","main_expt","","0.2967031697","","0.4427192246","","0.3613286773","","","","","",""
"1479","","bandit","114","974792","0.0-76.0-0.0","38322251","wem/bandit_single","A3HIRLDYDLBYDQ","pain","8","","75","K","2","","0","0","1","","0.4375360897","false","39","","0.2884672813","main_expt","","0.2816090282","","0.4375360897","","0.3354588101","","","","","",""
"2273","","bandit","115","978825","0.0-77.0-0.0","38322251","wem/bandit_single","A3HIRLDYDLBYDQ","pain","8","","76","L","3","","0","0","1","","0.4044898685","false","40","","0.3253538103","main_expt","","0.2900329111","","0.452648821","","0.4044898685","","","","","",""
"110","","bandit","116","980696","0.0-78.0-0.0","38322251","wem/bandit_single","A3HIRLDYDLBYDQ","pain","8","","72","H","0","img/none_selected.jpg","0","0","1","","0.2782289032","false","41","","0.2782289032","main_expt","","0.3160732104","","0.4689255384","","0.3615903795","","","","","",""
"1000","","bandit","117","983457","0.0-79.0-0.0","38322251","wem/bandit_single","A3HIRLDYDLBYDQ","pain","8","","74","J","1","","0","0","1","","0.370849222","false","42","","0.2378060085","main_expt","","0.370849222","","0.470096522","","0.3239257876","","","","","",""
"559","","bandit","118","985776","0.0-80.0-0.0","38322251","wem/bandit_single","A3HIRLDYDLBYDQ","pain","8","","75","K","2","","0","1","0","","0.4349244256","false","43","","0.2250536993","main_expt","","0.385301305","","0.4349244256","","0.2907144625","","","","","",""
"371","","bandit","119","987906","0.0-81.0-0.0","38322251","wem/bandit_single","A3HIRLDYDLBYDQ","pain","8","","75","K","2","","0","1","0","","0.4316966947","false","44","","0.2132249492","main_expt","","0.416838688","","0.4316966947","","0.2937558929","","","","","",""
"390","","bandit","120","990056","0.0-82.0-0.0","38322251","wem/bandit_single","A3HIRLDYDLBYDQ","pain","8","","75","K","2","","0","0","1","","0.4526201082","false","45","","0.2669052982","main_expt","","0.3927526088","","0.4526201082","","0.3667346614","","","","","",""
"555","","bandit","121","992373","0.0-83.0-0.0","38322251","wem/bandit_single","A3HIRLDYDLBYDQ","pain","8","","72","H","0","img/none_selected.jpg","0","1","0","","0.259601005","false","46","","0.259601005","main_expt","","0.3789336214","","0.4696962879","","0.4084803937","","","","","",""
"204","","bandit","122","994336","0.0-84.0-0.0","38322251","wem/bandit_single","A3HIRLDYDLBYDQ","pain","8","","72","H","0","img/none_selected.jpg","0","0","1","","0.2442503122","false","47","","0.2442503122","main_expt","","0.3994803113","","0.4591824552","","0.3956447052","","","","","",""
"505","","bandit","123","996604","0.0-85.0-0.0","38322251","wem/bandit_single","A3HIRLDYDLBYDQ","pain","8","","76","L","3","","0","1","0","","0.3859230678","false","48","","0.2427668164","main_expt","","0.3570668153","","0.4548607847","","0.3859230678","","","","","",""
"226","","bandit","124","998596","0.0-86.0-0.0","38322251","wem/bandit_single","A3HIRLDYDLBYDQ","pain","8","","76","L","3","","0","1","0","","0.394993817","false","49","","0.218731525","main_expt","","0.3500417472","","0.4625410341","","0.394993817","","","","","",""
"341","","bandit","125","1000698","0.0-87.0-0.0","38322251","wem/bandit_single","A3HIRLDYDLBYDQ","pain","8","","76","L","3","","0","0","1","","0.4358915385","false","50","","0.2187604329","main_expt","","0.3110114061","","0.4620574215","","0.4358915385","","","","","",""
"495","","bandit","126","1002954","0.0-88.0-0.0","38322251","wem/bandit_single","A3HIRLDYDLBYDQ","pain","8","","74","J","1","","0","1","0","","0.3165374422","false","51","","0.2764450854","main_expt","","0.3165374422","","0.4573118055","","0.4437026926","","","","","",""
"334","","bandit","127","1005047","0.0-89.0-0.0","38322251","wem/bandit_single","A3HIRLDYDLBYDQ","pain","8","","74","J","1","","0","0","1","","0.3212783944","false","52","","0.2735561336","main_expt","","0.3212783944","","0.4577170033","","0.4357441266","","","","","",""
"232","","bandit","128","1007040","0.0-90.0-0.0","38322251","wem/bandit_single","A3HIRLDYDLBYDQ","pain","8","","75","K","2","","0","1","0","","0.4599667981","false","53","","0.2558353256","main_expt","","0.3079714244","","0.4599667981","","0.3926545571","","","","","",""
"17026","","bandit","129","1025826","0.0-91.0-0.0","38322251","wem/bandit_single","A3HIRLDYDLBYDQ","pain","8","","76","L","3","","0","1","0","","0.3841940555","false","54","","0.2856473895","main_expt","","0.3538619638","","0.4598989899","","0.3841940555","","","","","",""
"251","","bandit","130","1027839","0.0-92.0-0.0","38322251","wem/bandit_single","A3HIRLDYDLBYDQ","pain","8","","76","L","3","","0","0","1","","0.3733442546","false","55","","0.3110799389","main_expt","","0.3390258849","","0.4371040197","","0.3733442546","","","","","",""
"24","","bandit","131","1029624","0.0-93.0-0.0","38322251","wem/bandit_single","A3HIRLDYDLBYDQ","pain","8","","75","K","2","","0","1","0","","0.3889704242","false","56","","0.2862995849","main_expt","","0.3282580673","","0.3889704242","","0.3500738246","","","","","",""
"196","","bandit","132","1031584","0.0-94.0-0.0","38322251","wem/bandit_single","A3HIRLDYDLBYDQ","pain","8","","75","K","2","","0","0","1","","0.4089883961","false","57","","0.3029349154","main_expt","","0.3014999451","","0.4089883961","","0.3265916347","","","","","",""
"2","","bandit","133","1033346","0.0-95.0-0.0","38322251","wem/bandit_single","A3HIRLDYDLBYDQ","pain","8","","74","J","1","","0","0","1","","0.2895525025","false","58","","0.282602966","main_expt","","0.2895525025","","0.3682078294","","0.3203483638","","","","","",""
"309","","bandit","134","1035414","0.0-96.0-0.0","38322251","wem/bandit_single","A3HIRLDYDLBYDQ","pain","8","","72","H","0","img/none_selected.jpg","0","0","1","","0.3271218703","false","59","","0.3271218703","main_expt","","0.2538740387","","0.426053772","","0.258324817","","","","","",""
"56","","bandit","135","1037232","0.0-97.0-0.0","38322251","wem/bandit_single","A3HIRLDYDLBYDQ","pain","8","","72","H","0","img/none_selected.jpg","0","0","1","","0.2978757068","false","60","","0.2978757068","main_expt","","0.2509640494","","0.4175969639","","0.2527557167","","","","","",""
"138","","bandit","136","1039132","0.0-98.0-0.0","38322251","wem/bandit_single","A3HIRLDYDLBYDQ","pain","8","","75","K","2","","0","0","1","","0.4124946444","false","61","","0.1922553384","main_expt","","0.1930295055","","0.4124946444","","0.2925705146","","","","","",""
"305","","bandit","137","1041198","0.0-99.0-0.0","38322251","wem/bandit_single","A3HIRLDYDLBYDQ","pain","8","","74","J","1","","0","0","1","","0.1259826115","false","62","","0.1408400783","main_expt","","0.1259826115","","0.4077217862","","0.310648962","","","","","",""
"256","","bandit","138","1043215","0.0-100.0-0.0","38322251","wem/bandit_single","A3HIRLDYDLBYDQ","pain","8","","76","L","3","","0","1","0","","0.3175489896","false","63","","0.1779610645","main_expt","","0.1388804293","","0.4258821936","","0.3175489896","","","","","",""
"1543","","bandit","139","1046518","0.0-101.0-0.0","38322251","wem/bandit_single","A3HIRLDYDLBYDQ","pain","8","","76","L","3","","0","0","1","","0.2756852574","false","64","","0.1733040919","main_expt","","0.1412297375","","0.4314195329","","0.2756852574","","","","","",""
"1985","","bandit","140","1050264","0.0-102.0-0.0","38322251","wem/bandit_single","A3HIRLDYDLBYDQ","pain","8","","74","J","1","","0","0","1","","0.07856201072","false","65","","0.1669650696","main_expt","","0.07856201072","","0.4174082156","","0.2798966648","","","","","",""
"102","","bandit","141","1052127","0.0-103.0-0.0","38322251","wem/bandit_single","A3HIRLDYDLBYDQ","pain","8","","75","K","2","","0","1","0","","0.4396479182","false","66","","0.1439674443","main_expt","","0.04493535693","","0.4396479182","","0.2440426105","","","","","",""
"62","","bandit","142","1053951","0.0-104.0-0.0","38322251","wem/bandit_single","A3HIRLDYDLBYDQ","pain","8","","75","K","2","","0","0","1","","0.4080198752","false","67","","0.1892066175","main_expt","","0.06268984171","","0.4080198752","","0.2630461485","","","","","",""
"166","","bandit","143","1055877","0.0-105.0-0.0","38322251","wem/bandit_single","A3HIRLDYDLBYDQ","pain","8","","72","H","0","img/none_selected.jpg","0","1","0","","0.1994174399","false","68","","0.1994174399","main_expt","","0.0976634122","","0.4137299856","","0.2456224984","","","","","",""
"182","","bandit","144","1057823","0.0-106.0-0.0","38322251","wem/bandit_single","A3HIRLDYDLBYDQ","pain","8","","72","H","0","img/none_selected.jpg","0","0","1","","0.1624567358","false","69","","0.1624567358","main_expt","","0.1303859095","","0.3938947582","","0.328759159","","","","","",""
"296","","bandit","145","1059877","0.0-107.0-0.0","38322251","wem/bandit_single","A3HIRLDYDLBYDQ","pain","8","","74","J","1","","0","0","1","","0.09159795462","false","70","","0.203142037","main_expt","","0.09159795462","","0.3876621225","","0.3063762308","","","","","",""
"346","","bandit","146","1061984","0.0-108.0-0.0","38322251","wem/bandit_single","A3HIRLDYDLBYDQ","pain","8","","75","K","2","","0","0","1","","0.3788053019","false","71","","0.218187973","main_expt","","0.07422050438","","0.3788053019","","0.3509026903","","","","","",""
"24370","","bandit","147","1088114","0.0-109.0-0.0","38322251","wem/bandit_single","A3HIRLDYDLBYDQ","pain","8","","74","J","1","","0","0","1","","0.05420033029","false","72","","0.2357875668","main_expt","","0.05420033029","","0.3632611749","","0.3695940198","","","","","",""
"1226","","bandit","148","1091101","0.0-110.0-0.0","38322251","wem/bandit_single","A3HIRLDYDLBYDQ","pain","8","","75","K","2","","0","0","1","","0.3121818875","false","73","","0.1951490082","main_expt","","0.04794676006","","0.3121818875","","0.3532210052","","","","","",""
"113","","bandit","149","1092974","0.0-111.0-0.0","38322251","wem/bandit_single","A3HIRLDYDLBYDQ","pain","8","","76","L","3","","0","0","1","","0.3780170277","false","74","","0.208621177","main_expt","","0.03645121522","","0.3385624816","","0.3780170277","","","","","",""
"15","","bandit","150","1094749","0.0-112.0-0.0","38322251","wem/bandit_single","A3HIRLDYDLBYDQ","pain","8","","72","H","0","img/none_selected.jpg","0","1","0","","0.2016482668","false","75","","0.2016482668","main_expt","","0.04346784694","","0.3393964734","","0.3141643986","","","","","",""
"338","","bandit","151","1096847","0.0-113.0-0.0","38322251","wem/bandit_single","A3HIRLDYDLBYDQ","pain","8","","72","H","0","img/none_selected.jpg","0","0","1","","0.2495615647","false","76","","0.2495615647","main_expt","","0.05697420644","","0.3489067358","","0.3520496016","","","","","",""
"328","","bandit","152","1098938","0.0-114.0-0.0","38322251","wem/bandit_single","A3HIRLDYDLBYDQ","pain","8","","74","J","1","","0","0","1","","0.05831686642","false","77","","0.2225386599","main_expt","","0.05831686642","","0.3502211764","","0.2628688268","","","","","",""
"195","","bandit","153","1100894","0.0-115.0-0.0","38322251","wem/bandit_single","A3HIRLDYDLBYDQ","pain","8","","75","K","2","","0","0","1","","0.2979424841","false","78","","0.2525784454","main_expt","","0.0396837938","","0.2979424841","","0.2856335909","","","","","",""
"319","","bandit","154","1102973","0.0-116.0-0.0","38322251","wem/bandit_single","A3HIRLDYDLBYDQ","pain","8","","76","L","3","","0","0","1","","0.3052483479","false","79","","0.2691825077","main_expt","","0.03651397352","","0.2779986596","","0.3052483479","","","","","",""
"865","","bandit","155","1105597","0.0-117.0-0.0","38322251","wem/bandit_single","A3HIRLDYDLBYDQ","pain","8","","74","J","1","","0","0","1","","0.0570793957","false","80","","0.2749696362","main_expt","","0.0570793957","","0.2681941829","","0.2809417262","","","","","",""
"696","","bandit","156","1108053","0.0-118.0-0.0","38322251","wem/bandit_single","A3HIRLDYDLBYDQ","pain","8","","75","K","2","","0","0","1","","0.2536714586","false","81","","0.291945729","main_expt","","0.05597964966","","0.2536714586","","0.2639407754","","","","","",""
"266","","bandit","157","1110081","0.0-119.0-0.0","38322251","wem/bandit_single","A3HIRLDYDLBYDQ","pain","8","","74","J","1","","0","0","1","","0.0589745046","false","82","","0.2804178179","main_expt","","0.0589745046","","0.1904528106","","0.3352417475","","","","","",""
"132","","bandit","158","1111974","0.0-120.0-0.0","38322251","wem/bandit_single","A3HIRLDYDLBYDQ","pain","8","","72","H","0","img/none_selected.jpg","0","0","1","","0.2253075454","false","83","","0.2253075454","main_expt","","0.04461225985","","0.2497062266","","0.3246721101","","","","","",""
"407","","bandit","159","1114141","0.0-121.0-0.0","38322251","wem/bandit_single","A3HIRLDYDLBYDQ","pain","8","","76","L","3","","0","0","1","","0.3082112656","false","84","","0.2475548924","main_expt","","0.04600221485","","0.2960017758","","0.3082112656","","","","","",""
"439","","bandit","160","1116341","0.0-122.0-0.0","38322251","wem/bandit_single","A3HIRLDYDLBYDQ","pain","8","","74","J","1","","0","0","1","","0.04782026086","false","85","","0.2443994903","main_expt","","0.04782026086","","0.2677312645","","0.2733186338","","","","","",""
"72","","bandit","161","1118173","0.0-123.0-0.0","38322251","wem/bandit_single","A3HIRLDYDLBYDQ","pain","8","","75","K","2","","0","0","1","","0.2764415163","false","86","","0.2112262296","main_expt","","0.05551660222","","0.2764415163","","0.2595222796","","","","","",""
"1760","","bandit","162","1121695","0.0-124.0-0.0","38322251","wem/bandit_single","A3HIRLDYDLBYDQ","pain","8","","74","J","1","","0","0","1","","0.04708869331","false","87","","0.2188998383","main_expt","","0.04708869331","","0.324022149","","0.2256999028","","","","","",""
"662","","bandit","163","1124117","0.0-125.0-0.0","38322251","wem/bandit_single","A3HIRLDYDLBYDQ","pain","8","","72","H","0","img/none_selected.jpg","0","0","1","","0.2197891412","false","88","","0.2197891412","main_expt","","0.02844544313","","0.3109963835","","0.1990670624","","","","","",""
"25","","bandit","164","1125906","0.0-126.0-0.0","38322251","wem/bandit_single","A3HIRLDYDLBYDQ","pain","8","","76","L","3","","0","0","1","","0.2125628639","false","89","","0.1264972534","main_expt","","0.02947982339","","0.324941543","","0.2125628639","","","","","",""
"414","","bandit","165","1128082","0.0-127.0-0.0","38322251","wem/bandit_single","A3HIRLDYDLBYDQ","pain","8","","75","K","2","","0","1","0","","0.3309337967","false","90","","0.09492746395","main_expt","","0.01544371513","","0.3309337967","","0.2335475446","","","","","",""
"299","","bandit","166","1130141","0.0-128.0-0.0","38322251","wem/bandit_single","A3HIRLDYDLBYDQ","pain","8","","75","K","2","","0","0","1","","0.2419508287","false","91","","0.0779798764","main_expt","","0.02662688154","","0.2419508287","","0.2803997126","","","","","",""
"254","","bandit","167","1132161","0.0-129.0-0.0","38322251","wem/bandit_single","A3HIRLDYDLBYDQ","pain","8","","74","J","1","","0","0","1","","0.03471523835","false","92","","0.1178574791","main_expt","","0.03471523835","","0.2040869203","","0.2771315147","","","","","",""
"242","","bandit","168","1134164","0.0-130.0-0.0","38322251","wem/bandit_single","A3HIRLDYDLBYDQ","pain","8","","72","H","0","img/none_selected.jpg","0","0","1","","0.1199697814","false","93","","0.1199697814","main_expt","","0.0252433293","","0.1936143615","","0.3069544445","","","","","",""
"2840","","bandit","169","1138764","0.0-131.0-0.0","38322251","wem/bandit_single","A3HIRLDYDLBYDQ","pain","8","","72","H","0","img/none_selected.jpg","0","0","1","","0.1351842626","false","94","","0.1351842626","main_expt","","0.02873343753","","0.2296452841","","0.2585327286","","","","","",""
"1016","","bandit","170","1141541","0.0-132.0-0.0","38322251","wem/bandit_single","A3HIRLDYDLBYDQ","pain","8","","74","J","1","","0","0","1","","0.03754278977","false","95","","0.1229387465","main_expt","","0.03754278977","","0.3009770616","","0.2043747222","","","","","",""
"558","","bandit","171","1143863","0.0-133.0-0.0","38322251","wem/bandit_single","A3HIRLDYDLBYDQ","pain","8","","75","K","2","","0","1","0","","0.3664634414","false","96","","0.1341504272","main_expt","","0.02045008397","","0.3664634414","","0.2149370614","","","","","",""
"13982","","bandit","172","1159607","0.0-134.0-0.0","38322251","wem/bandit_single","A3HIRLDYDLBYDQ","pain","8","","72","H","0","img/none_selected.jpg","0","0","1","","0.08646330057","false","97","","0.08646330057","main_expt","","0.01282395838","","0.3476641925","","0.1294523689","","","","","",""
"19","","bandit","173","1161390","0.0-135.0-0.0","38322251","wem/bandit_single","A3HIRLDYDLBYDQ","pain","8","","74","J","1","","0","0","1","","0.02206163243","false","98","","0.07731746448","main_expt","","0.02206163243","","0.3885632826","","0.1653870254","","","","","",""
"636","","bandit","174","1163789","0.0-136.0-0.0","38322251","wem/bandit_single","A3HIRLDYDLBYDQ","pain","8","","75","K","2","","0","0","1","","0.3222143249","false","99","","0.05048608161","main_expt","","0.03016500256","","0.3222143249","","0.187235433","","","","","",""
"2002","","bandit","175","1167561","0.0-137.0-0.0","38322251","wem/bandit_single","A3HIRLDYDLBYDQ","pain","8","","76","L","3","","0","0","1","","0.1583251777","false","100","","0.03970728334","main_expt","","0.03237578522","","0.3386714995","","0.1583251777","","","","","",""
"209","","bandit","176","1169533","0.0-138.0-0.0","38322251","wem/bandit_single","A3HIRLDYDLBYDQ","pain","8","","72","H","0","img/none_selected.jpg","0","0","1","","0.02108340439","false","101","","0.02108340439","main_expt","","0.03241037075","","0.3131396166","","0.1337381207","","","","","",""
"110","","bandit","177","1171408","0.0-139.0-0.0","38322251","wem/bandit_single","A3HIRLDYDLBYDQ","pain","8","","74","J","1","","0","0","1","","0.06000215667","false","102","","0.05244648731","main_expt","","0.06000215667","","0.3417288757","","0.1163639012","","","","","",""
"3","","bandit","178","1173171","0.0-140.0-0.0","38322251","wem/bandit_single","A3HIRLDYDLBYDQ","pain","8","","75","K","2","","0","0","1","","0.3582654759","false","103","","0.04574159302","main_expt","","0.08726741307","","0.3582654759","","0.1118657557","","","","","",""
"310","","bandit","179","1175243","0.0-141.0-0.0","38322251","wem/bandit_single","A3HIRLDYDLBYDQ","pain","8","","76","L","3","","0","0","1","","0.1501499683","false","104","","0.05033190662","main_expt","","0.1067467257","","0.3409136392","","0.1501499683","","","","","",""
"158","","bandit","180","1177164","0.0-142.0-0.0","38322251","wem/bandit_single","A3HIRLDYDLBYDQ","pain","8","","74","J","1","","0","0","1","","0.1004566838","false","105","","0.1076128494","main_expt","","0.1004566838","","0.3532992837","","0.1354733374","","","","","",""
"254","","bandit","181","1179181","0.0-143.0-0.0","38322251","wem/bandit_single","A3HIRLDYDLBYDQ","pain","8","","72","H","0","img/none_selected.jpg","0","0","1","","0.06740855405","false","106","","0.06740855405","main_expt","","0.1055318719","","0.335683565","","0.1727398631","","","","","",""
"92","","bandit","182","1181034","0.0-144.0-0.0","38322251","wem/bandit_single","A3HIRLDYDLBYDQ","pain","8","","75","K","2","","0","1","0","","0.3924059951","false","107","","0.06658027063","main_expt","","0.1236328269","","0.3924059951","","0.1474174257","","","","","",""
"1285","","bandit","183","1184083","0.0-145.0-0.0","38322251","wem/bandit_single","A3HIRLDYDLBYDQ","pain","8","","75","K","2","","0","1","0","","0.3626054341","false","108","","0.0777756245","main_expt","","0.1301170461","","0.3626054341","","0.1683059408","","","","","",""
"279","","bandit","184","1186125","0.0-146.0-0.0","38322251","wem/bandit_single","A3HIRLDYDLBYDQ","pain","8","","74","J","1","","0","0","1","","0.1507941036","false","109","","0.1117823495","main_expt","","0.1507941036","","0.3806857721","","0.1972223025","","","","","",""
"189","","bandit","185","1188079","0.0-147.0-0.0","38322251","wem/bandit_single","A3HIRLDYDLBYDQ","pain","8","","74","J","1","","0","0","1","","0.1647590848","false","110","","0.08710900622","main_expt","","0.1647590848","","0.3452619283","","0.2085186414","","","","","",""
"138","","bandit","186","1189981","0.0-148.0-0.0","38322251","wem/bandit_single","A3HIRLDYDLBYDQ","pain","8","","72","H","0","img/none_selected.jpg","0","0","1","","0.107183683","false","111","","0.107183683","main_expt","","0.1574612326","","0.3653509784","","0.1811180602","","","","","",""
"44","","bandit","187","1191788","0.0-149.0-0.0","38322251","wem/bandit_single","A3HIRLDYDLBYDQ","pain","8","","72","H","0","img/none_selected.jpg","0","0","1","","0.1099425133","false","112","","0.1099425133","main_expt","","0.1406493921","","0.3435522482","","0.222295219","","","","","",""
"184","","bandit","188","1193735","0.0-150.0-0.0","38322251","wem/bandit_single","A3HIRLDYDLBYDQ","pain","8","","76","L","3","","0","0","1","","0.254178783","false","113","","0.1457634924","main_expt","","0.1367300214","","0.3424956272","","0.254178783","","","","","",""
"140","","bandit","189","1195637","0.0-151.0-0.0","38322251","wem/bandit_single","A3HIRLDYDLBYDQ","pain","8","","76","L","3","","0","0","1","","0.2315882939","false","114","","0.09824844824","main_expt","","0.1534665218","","0.3353894863","","0.2315882939","","","","","",""
"269","","bandit","190","1197670","0.0-152.0-0.0","38322251","wem/bandit_single","A3HIRLDYDLBYDQ","pain","8","","75","K","2","","0","1","0","","0.3965113255","false","115","","0.07202874502","main_expt","","0.1890238391","","0.3965113255","","0.2079629003","","","","","",""
"99","","bandit","191","1199532","0.0-153.0-0.0","38322251","wem/bandit_single","A3HIRLDYDLBYDQ","pain","8","","75","K","2","","0","0","1","","0.3889101716","false","116","","0.08386797302","main_expt","","0.1480670238","","0.3889101716","","0.2117584369","","","","","",""
"157","","bandit","192","1201452","0.0-154.0-0.0","38322251","wem/bandit_single","A3HIRLDYDLBYDQ","pain","8","","74","J","1","","0","0","1","","0.1450369027","false","117","","0.1223406282","main_expt","","0.1450369027","","0.412290601","","0.1897465023","","","","","",""
"753","","bandit","193","1203966","0.0-155.0-0.0","38322251","wem/bandit_single","A3HIRLDYDLBYDQ","pain","8","","74","J","1","","0","0","1","","0.1525061225","false","118","","0.1131974311","main_expt","","0.1525061225","","0.4090296977","","0.2162179109","","","","","",""
"146","","bandit","194","1205877","0.0-156.0-0.0","38322251","wem/bandit_single","A3HIRLDYDLBYDQ","pain","8","","72","H","0","img/none_selected.jpg","0","0","1","","0.1214903214","false","119","","0.1214903214","main_expt","","0.1327940691","","0.3900906375","","0.1954464435","","","","","",""
"228","","bandit","195","1207868","0.0-157.0-0.0","38322251","wem/bandit_single","A3HIRLDYDLBYDQ","pain","8","","76","L","3","","0","0","1","","0.2433439763","false","120","","0.1379734046","main_expt","","0.1517026744","","0.3722828095","","0.2433439763","","","","","",""
"342","","bandit","196","1209972","0.0-158.0-0.0","38322251","wem/bandit_single","A3HIRLDYDLBYDQ","pain","8","","75","K","2","","0","0","1","","0.3593952677","false","121","","0.1537473387","main_expt","","0.09770447215","","0.3593952677","","0.2093375247","","","","","",""
"379","","bandit","197","1212116","0.0-159.0-0.0","38322251","wem/bandit_single","A3HIRLDYDLBYDQ","pain","8","","74","J","1","","0","0","1","","0.1084092314","false","122","","0.1654199468","main_expt","","0.1084092314","","0.3670381393","","0.2030857612","","","","","",""
"12","","bandit","198","1213893","0.0-160.0-0.0","38322251","wem/bandit_single","A3HIRLDYDLBYDQ","pain","8","","72","H","0","img/none_selected.jpg","0","1","0","","0.1908187881","false","123","","0.1908187881","main_expt","","0.1828660492","","0.3587286137","","0.1810532848","","","","","",""
"150","","bandit","199","1215807","0.0-161.0-0.0","38322251","wem/bandit_single","A3HIRLDYDLBYDQ","pain","8","","72","H","0","img/none_selected.jpg","0","1","0","","0.2229551501","false","124","","0.2229551501","main_expt","","0.1743556658","","0.3492740793","","0.1582229448","","","","","",""
"305","","bandit","200","1217878","0.0-162.0-0.0","38322251","wem/bandit_single","A3HIRLDYDLBYDQ","pain","8","","74","J","1","","0","0","1","","0.2091647646","false","125","","0.2354127912","main_expt","","0.2091647646","","0.3031262708","","0.1223239468","","","","","",""
"202","","bandit","201","1219846","0.0-163.0-0.0","38322251","wem/bandit_single","A3HIRLDYDLBYDQ","pain","8","","75","K","2","","0","0","1","","0.3272336491","false","126","","0.25119817","main_expt","","0.2089783764","","0.3272336491","","0.08912034734","","","","","",""
"178","","bandit","202","1221788","0.0-164.0-0.0","38322251","wem/bandit_single","A3HIRLDYDLBYDQ","pain","8","","76","L","3","","0","0","1","","0.05948163","false","127","","0.2312690923","main_expt","","0.21334071","","0.3153677968","","0.05948163","","","","","",""
"141","","bandit","203","1223693","0.0-165.0-0.0","38322251","wem/bandit_single","A3HIRLDYDLBYDQ","pain","8","","72","H","0","img/none_selected.jpg","0","0","1","","0.2741150261","false","128","","0.2741150261","main_expt","","0.1916283041","","0.3317710332","","0.06525821595","","","","","",""
"38","","bandit","204","1225497","0.0-166.0-0.0","38322251","wem/bandit_single","A3HIRLDYDLBYDQ","pain","8","","74","J","1","","0","0","1","","0.1810604207","false","129","","0.2804264122","main_expt","","0.1810604207","","0.3818586719","","0.04677418535","","","","","",""
"164","","bandit","205","1227424","0.0-167.0-0.0","38322251","wem/bandit_single","A3HIRLDYDLBYDQ","pain","8","","75","K","2","","0","0","1","","0.3778611376","false","130","","0.2746384559","main_expt","","0.1492319935","","0.3778611376","","0.04931785787","","","","","",""
"41","","bandit","206","1229229","0.0-168.0-0.0","38322251","wem/bandit_single","A3HIRLDYDLBYDQ","pain","8","","76","L","3","","0","0","1","","0.03231589458","false","131","","0.3052944487","main_expt","","0.129351286","","0.3745485054","","0.03231589458","","","","","",""
"211","","bandit","207","1231204","0.0-169.0-0.0","38322251","wem/bandit_single","A3HIRLDYDLBYDQ","pain","8","","75","K","2","","0","1","0","","0.3901944836","false","132","","0.2871604017","main_expt","","0.1020216346","","0.3901944836","","0.0374336399","","","","","",""
"596","","bandit","208","1233568","0.0-170.0-0.0","38322251","wem/bandit_single","A3HIRLDYDLBYDQ","pain","8","","74","J","1","","0","0","1","","0.1100395313","false","133","","0.2262434135","main_expt","","0.1100395313","","0.3245875462","","0.04583961862","","","","","",""
"416","","bandit","209","1235749","0.0-171.0-0.0","38322251","wem/bandit_single","A3HIRLDYDLBYDQ","pain","8","","72","H","0","img/none_selected.jpg","0","0","1","","0.2020687113","false","134","","0.2020687113","main_expt","","0.1078381017","","0.2794858075","","0.04150300199","","","","","",""
"2141","","bandit","210","1239655","0.0-172.0-0.0","38322251","wem/bandit_single","A3HIRLDYDLBYDQ","pain","8","","72","H","0","img/none_selected.jpg","0","0","1","","0.2168620662","false","135","","0.2168620662","main_expt","","0.1093486249","","0.2867414221","","0.04663842542","","","","","",""
"129","","bandit","211","1241549","0.0-173.0-0.0","38322251","wem/bandit_single","A3HIRLDYDLBYDQ","pain","8","","74","J","1","","0","0","1","","0.1246456113","false","136","","0.151139006","main_expt","","0.1246456113","","0.2388941587","","0.06291357963","","","","","",""
"700","","bandit","212","1244020","0.0-174.0-0.0","38322251","wem/bandit_single","A3HIRLDYDLBYDQ","pain","8","","75","K","2","","0","0","1","","0.2301747732","false","137","","0.1452995234","main_expt","","0.1167447495","","0.2301747732","","0.0848669819","","","","","",""
"114","","bandit","213","1245899","0.0-175.0-0.0","38322251","wem/bandit_single","A3HIRLDYDLBYDQ","pain","8","","76","L","3","","0","0","1","","0.1250360552","false","138","","0.1599176777","main_expt","","0.1357570265","","0.2344721482","","0.1250360552","","","","","",""
"205","","bandit","214","1247869","0.0-176.0-0.0","38322251","wem/bandit_single","A3HIRLDYDLBYDQ","pain","8","","74","J","1","","0","1","0","","0.1616689495","false","139","","0.1704699841","main_expt","","0.1616689495","","0.2351335283","","0.122190115","","","","","",""
"451","","bandit","215","1250082","0.0-177.0-0.0","38322251","wem/bandit_single","A3HIRLDYDLBYDQ","pain","8","","74","J","1","","0","0","1","","0.1979747013","false","140","","0.1142956015","main_expt","","0.1979747013","","0.2876903143","","0.08666030548","","","","","",""
"93","","bandit","216","1251940","0.0-178.0-0.0","38322251","wem/bandit_single","A3HIRLDYDLBYDQ","pain","8","","72","H","0","img/none_selected.jpg","0","0","1","","0.1206890816","false","141","","0.1206890816","main_expt","","0.1708965128","","0.2865732071","","0.09967801986","","","","","",""
"130","","bandit","217","1253836","0.0-179.0-0.0","38322251","wem/bandit_single","A3HIRLDYDLBYDQ","pain","8","","72","H","0","img/none_selected.jpg","0","0","1","","0.1324259923","false","142","","0.1324259923","main_expt","","0.204481367","","0.248943806","","0.1125289611","","","","","",""
"107","","bandit","218","1255708","0.0-180.0-0.0","38322251","wem/bandit_single","A3HIRLDYDLBYDQ","pain","8","","75","K","2","","0","0","1","","0.2839045407","false","143","","0.09892217097","main_expt","","0.1861099789","","0.2839045407","","0.1467602081","","","","","",""
"96","","bandit","219","1257573","0.0-181.0-0.0","38322251","wem/bandit_single","A3HIRLDYDLBYDQ","pain","8","","76","L","3","","0","0","1","","0.1467522766","false","144","","0.1577744197","main_expt","","0.1956465744","","0.3150250783","","0.1467522766","","","","","",""
"441","","bandit","220","1259780","0.0-182.0-0.0","38322251","wem/bandit_single","A3HIRLDYDLBYDQ","pain","8","","74","J","1","","0","0","1","","0.2622876922","false","145","","0.1392006829","main_expt","","0.2622876922","","0.3090395899","","0.118212248","","","","","",""
"163","","bandit","221","1261710","0.0-183.0-0.0","38322251","wem/bandit_single","A3HIRLDYDLBYDQ","pain","8","","72","H","0","img/none_selected.jpg","0","0","1","","0.1262993523","false","146","","0.1262993523","main_expt","","0.304745079","","0.3122039877","","0.1089879874","","","","","",""
"217","","bandit","222","1263691","0.0-184.0-0.0","38322251","wem/bandit_single","A3HIRLDYDLBYDQ","pain","8","","74","J","1","","0","1","0","","0.2888799162","false","147","","0.1970652478","main_expt","","0.2888799162","","0.2959619691","","0.1200469816","","","","","",""
"163","","bandit","223","1265619","0.0-185.0-0.0","38322251","wem/bandit_single","A3HIRLDYDLBYDQ","pain","8","","74","J","1","","0","0","1","","0.2290209364","false","148","","0.2502259542","main_expt","","0.2290209364","","0.2395536641","","0.1276189258","","","","","",""
"393","","bandit","224","1267781","0.0-186.0-0.0","38322251","wem/bandit_single","A3HIRLDYDLBYDQ","pain","8","","75","K","2","","0","1","0","","0.2650868272","false","149","","0.264890558","main_expt","","0.1626908122","","0.2650868272","","0.1280703092","","","","","",""
"87","","bandit","225","1269635","0.0-187.0-0.0","38322251","wem/bandit_single","A3HIRLDYDLBYDQ","pain","8","","75","K","2","","0","0","1","","0.2986082654","false","150","","0.2458403893","main_expt","","0.1958031623","","0.2986082654","","0.1260403861","","","","","",""
"212","","bandit","226","1271613","0.0-188.0-0.0","38322251","wem/bandit_single","A3HIRLDYDLBYDQ","pain","8","","76","L","3","","0","0","1","","0.1472493067","false","151","","0.3021038309","main_expt","","0.2110526716","","0.2843767109","","0.1472493067","","","","","",""
"203","","bandit","227","1273581","0.0-189.0-0.0","38322251","wem/bandit_single","A3HIRLDYDLBYDQ","pain","8","","72","H","0","img/none_selected.jpg","0","0","1","","0.2863751765","false","152","","0.2863751765","main_expt","","0.239542308","","0.2910803031","","0.1256460397","","","","","",""
"225","","bandit","228","1275574","0.0-190.0-0.0","38322251","wem/bandit_single","A3HIRLDYDLBYDQ","pain","8","","74","J","1","","0","0","1","","0.2781725502","false","153","","0.250244768","main_expt","","0.2781725502","","0.2910028656","","0.1567097088","","","","","",""
"160","","bandit","229","1277500","0.0-191.0-0.0","38322251","wem/bandit_single","A3HIRLDYDLBYDQ","pain","8","","75","K","2","","0","0","1","","0.2845613835","false","154","","0.2127808211","main_expt","","0.228047793","","0.2845613835","","0.1473662378","","","","","",""
"169","","bandit","230","1279434","0.0-192.0-0.0","38322251","wem/bandit_single","A3HIRLDYDLBYDQ","pain","8","","76","L","3","","0","0","1","","0.1466549972","false","155","","0.205053704","main_expt","","0.2683949018","","0.2707345723","","0.1466549972","","","","","",""
"236","","bandit","231","1281434","0.0-193.0-0.0","38322251","wem/bandit_single","A3HIRLDYDLBYDQ","pain","8","","72","H","0","img/none_selected.jpg","0","0","1","","0.1648482415","false","156","","0.1648482415","main_expt","","0.3192141369","","0.3156720475","","0.1127453184","","","","","",""
"164","","bandit","232","1283363","0.0-194.0-0.0","38322251","wem/bandit_single","A3HIRLDYDLBYDQ","pain","8","","74","J","1","","0","0","1","","0.3402823895","false","157","","0.1888047422","main_expt","","0.3402823895","","0.3101066834","","0.1577506677","","","","","",""
"244","","bandit","233","1285375","0.0-195.0-0.0","38322251","wem/bandit_single","A3HIRLDYDLBYDQ","pain","8","","72","H","0","img/none_selected.jpg","0","0","1","","0.1759444775","false","158","","0.1759444775","main_expt","","0.2944958958","","0.3236654942","","0.177177298","","","","","",""
"200","","bandit","234","1287341","0.0-196.0-0.0","38322251","wem/bandit_single","A3HIRLDYDLBYDQ","pain","8","","75","K","2","","0","0","1","","0.2735657487","false","159","","0.2066832709","main_expt","","0.3007248388","","0.2735657487","","0.1693510486","","","","","",""
"226","","bandit","235","1289332","0.0-197.0-0.0","38322251","wem/bandit_single","A3HIRLDYDLBYDQ","pain","8","","76","L","3","","0","0","1","","0.1230292859","false","160","","0.2570817279","main_expt","","0.3179332055","","0.2384912546","","0.1230292859","","","","","",""
"202","","bandit","236","1291301","0.0-198.0-0.0","38322251","wem/bandit_single","A3HIRLDYDLBYDQ","pain","8","","74","J","1","","0","1","0","","0.2506164635","false","161","","0.2244749933","main_expt","","0.2506164635","","0.2615252743","","0.07903667538","","","","","",""
"208","","bandit","237","1293284","0.0-199.0-0.0","38322251","wem/bandit_single","A3HIRLDYDLBYDQ","pain","8","","74","J","1","","0","0","1","","0.2858836385","false","162","","0.23263707","main_expt","","0.2858836385","","0.2187643747","","0.1136507332","","","","","",""
"210","","bandit","238","1295258","0.0-200.0-0.0","38322251","wem/bandit_single","A3HIRLDYDLBYDQ","pain","8","","75","K","2","","0","1","0","","0.1909081127","false","163","","0.2287127565","main_expt","","0.2848163613","","0.1909081127","","0.1137116213","","","","","",""
"182","","bandit","239","1297207","0.0-201.0-0.0","38322251","wem/bandit_single","A3HIRLDYDLBYDQ","pain","8","","75","K","2","","0","0","1","","0.1808716434","false","164","","0.2303253206","main_expt","","0.2688566635","","0.1808716434","","0.1254102563","","","","","",""
"232","","bandit","240","1299203","0.0-202.0-0.0","38322251","wem/bandit_single","A3HIRLDYDLBYDQ","pain","8","","76","L","3","","0","0","1","","0.1216805934","false","165","","0.2771057403","main_expt","","0.2921202554","","0.2118073572","","0.1216805934","","","","","",""
"160","","bandit","241","1301131","0.0-203.0-0.0","38322251","wem/bandit_single","A3HIRLDYDLBYDQ","pain","8","","72","H","0","img/none_selected.jpg","0","0","1","","0.2371810998","false","166","","0.2371810998","main_expt","","0.3143591269","","0.2410554973","","0.1291529517","","","","","",""
"176","","bandit","242","1303073","0.0-204.0-0.0","38322251","wem/bandit_single","A3HIRLDYDLBYDQ","pain","8","","74","J","1","","0","1","0","","0.2892924204","false","167","","0.2349122652","main_expt","","0.2892924204","","0.2574005288","","0.1535345887","","","","","",""
"139","","bandit","243","1304978","0.0-205.0-0.0","38322251","wem/bandit_single","A3HIRLDYDLBYDQ","pain","8","","74","J","1","","0","0","1","","0.2786305655","false","168","","0.1959020284","main_expt","","0.2786305655","","0.2729884233","","0.1435034989","","","","","",""
"331","","bandit","244","1307076","0.0-206.0-0.0","38322251","wem/bandit_single","A3HIRLDYDLBYDQ","pain","8","","75","K","2","","0","1","0","","0.2625821735","false","169","","0.1899859579","main_expt","","0.246803054","","0.2625821735","","0.1957458285","","","","","",""
"154","","bandit","245","1308997","0.0-207.0-0.0","38322251","wem/bandit_single","A3HIRLDYDLBYDQ","pain","8","","75","K","2","","0","0","1","","0.3100542845","false","170","","0.2213833812","main_expt","","0.2375021307","","0.3100542845","","0.1308867566","","","","","",""
"425","","bandit","246","1311186","0.0-208.0-0.0","38322251","wem/bandit_single","A3HIRLDYDLBYDQ","pain","8","","76","L","3","","0","1","0","","0.1422271972","false","171","","0.1589997081","main_expt","","0.2965678991","","0.3083945368","","0.1422271972","","","","","",""
"162","","bandit","247","1313115","0.0-209.0-0.0","38322251","wem/bandit_single","A3HIRLDYDLBYDQ","pain","8","","76","L","3","","0","1","0","","0.1541925874","false","172","","0.1669714507","main_expt","","0.2696718616","","0.3929186772","","0.1541925874","","","","","",""
"730","","bandit","248","1315611","0.0-210.0-0.0","38322251","wem/bandit_single","A3HIRLDYDLBYDQ","pain","8","","72","H","0","img/none_selected.jpg","0","1","0","","0.1699847696","false","173","","0.1699847696","main_expt","","0.2576521005","","0.4107736206","","0.1416394444","","","","","",""
"203","","bandit","249","1317579","0.0-211.0-0.0","38322251","wem/bandit_single","A3HIRLDYDLBYDQ","pain","8","","72","H","0","img/none_selected.jpg","0","1","0","","0.202136981","false","174","","0.202136981","main_expt","","0.2839516933","","0.4267170337","","0.1207830423","","","","","",""
"381","","bandit","250","1319725","0.0-212.0-0.0","38322251","wem/bandit_single","A3HIRLDYDLBYDQ","pain","8","","75","K","2","","0","0","1","","0.420504823","false","175","","0.1863880777","main_expt","","0.2932452363","","0.420504823","","0.1636312712","","","","","",""
"152","","bandit","251","1321643","0.0-213.0-0.0","38322251","wem/bandit_single","A3HIRLDYDLBYDQ","pain","8","","74","J","1","","0","0","1","","0.3118313574","false","176","","0.1426909825","main_expt","","0.3118313574","","0.3956962169","","0.186569684","","","","","",""
"195","","bandit","252","1323601","0.0-214.0-0.0","38322251","wem/bandit_single","A3HIRLDYDLBYDQ","pain","8","","76","L","3","","0","0","1","","0.1089038478","false","177","","0.1335645184","main_expt","","0.3378695823","","0.3834761318","","0.1089038478","","","","","",""
"273","","bandit","253","1325643","0.0-215.0-0.0","38322251","wem/bandit_single","A3HIRLDYDLBYDQ","pain","8","","72","H","0","img/none_selected.jpg","0","0","1","","0.09719791569","false","178","","0.09719791569","main_expt","","0.3234122319","","0.4167112469","","0.08465244813","","","","","",""
"251","","bandit","254","1327661","0.0-216.0-0.0","38322251","wem/bandit_single","A3HIRLDYDLBYDQ","pain","8","","72","H","0","img/none_selected.jpg","0","0","1","","0.07123289457","false","179","","0.07123289457","main_expt","","0.3281528324","","0.4370197561","","0.1015747644","","","","","",""
"47","","bandit","255","1329477","0.0-217.0-0.0","38322251","wem/bandit_single","A3HIRLDYDLBYDQ","pain","8","","74","J","1","","0","1","0","","0.340497037","false","180","","0.05555663239","main_expt","","0.340497037","","0.3776598584","","0.1277953302","","","","","",""
"146","","bandit","256","1331389","0.0-218.0-0.0","38322251","wem/bandit_single","A3HIRLDYDLBYDQ","pain","8","","74","J","1","","0","0","1","","0.3007371283","false","181","","0.04396828199","main_expt","","0.3007371283","","0.3636519722","","0.1854921141","","","","","",""
"144","","bandit","257","1333299","0.0-219.0-0.0","38322251","wem/bandit_single","A3HIRLDYDLBYDQ","pain","8","","72","H","0","img/none_selected.jpg","0","0","1","","0.02691259782","false","182","","0.02691259782","main_expt","","0.3190136055","","0.3246411676","","0.2273529654","","","","","",""
"227","","bandit","258","1335291","0.0-220.0-0.0","38322251","wem/bandit_single","A3HIRLDYDLBYDQ","pain","8","","72","H","0","img/none_selected.jpg","0","0","1","","0.04807599522","false","183","","0.04807599522","main_expt","","0.322323442","","0.3187018958","","0.2600234541","","","","","",""
"195","","bandit","259","1337262","0.0-221.0-0.0","38322251","wem/bandit_single","A3HIRLDYDLBYDQ","pain","8","","76","L","3","","0","0","1","","0.2689652485","false","184","","0.05076165442","main_expt","","0.3086696071","","0.3497063737","","0.2689652485","","","","","",""
"271","","bandit","260","1339299","0.0-222.0-0.0","38322251","wem/bandit_single","A3HIRLDYDLBYDQ","pain","8","","75","K","2","","0","1","0","","0.3334532315","false","185","","0.1128087831","main_expt","","0.3146814862","","0.3334532315","","0.2646203852","","","","","",""
"185","","bandit","261","1341250","0.0-223.0-0.0","38322251","wem/bandit_single","A3HIRLDYDLBYDQ","pain","8","","75","K","2","","0","1","0","","0.3511592443","false","186","","0.1592260056","main_expt","","0.3353274036","","0.3511592443","","0.2038557162","","","","","",""
"124","","bandit","262","1343140","0.0-224.0-0.0","38322251","wem/bandit_single","A3HIRLDYDLBYDQ","pain","8","","74","J","1","","0","0","1","","0.331036234","false","187","","0.2195828404","main_expt","","0.331036234","","0.3758503369","","0.2643634763","","","","","",""
"272","","bandit","263","1345180","0.0-225.0-0.0","38322251","wem/bandit_single","A3HIRLDYDLBYDQ","pain","8","","72","H","0","img/none_selected.jpg","0","1","0","","0.214856838","false","188","","0.214856838","main_expt","","0.3061178756","","0.3951098987","","0.2137054787","","","","","",""
"183","","bandit","264","1347130","0.0-226.0-0.0","38322251","wem/bandit_single","A3HIRLDYDLBYDQ","pain","8","","72","H","0","img/none_selected.jpg","0","1","0","","0.2103369464","false","189","","0.2103369464","main_expt","","0.3455914038","","0.3766733461","","0.2349639762","","","","","",""
"173","","bandit","265","1349069","0.0-227.0-0.0","38322251","wem/bandit_single","A3HIRLDYDLBYDQ","pain","8","","72","H","0","img/none_selected.jpg","0","1","0","","0.1932940482","false","190","","0.1932940482","main_expt","","0.3734842368","","0.3974997784","","0.2067261929","","","","","",""
"198","","bandit","266","1351035","0.0-228.0-0.0","38322251","wem/bandit_single","A3HIRLDYDLBYDQ","pain","8","","72","H","0","img/none_selected.jpg","0","0","1","","0.2285646161","false","191","","0.2285646161","main_expt","","0.3648323685","","0.4174686418","","0.275245882","","","","","",""
"262","","bandit","267","1353066","0.0-229.0-0.0","38322251","wem/bandit_single","A3HIRLDYDLBYDQ","pain","8","","76","L","3","","0","1","0","","0.306220044","false","192","","0.2589031043","main_expt","","0.3339781981","","0.3963748123","","0.306220044","","","","","",""
"155","","bandit","268","1354989","0.0-230.0-0.0","38322251","wem/bandit_single","A3HIRLDYDLBYDQ","pain","8","","76","L","3","","0","1","0","","0.3035773814","false","193","","0.2195537535","main_expt","","0.3342714415","","0.3921748604","","0.3035773814","","","","","",""
"295","","bandit","269","1357051","0.0-231.0-0.0","38322251","wem/bandit_single","A3HIRLDYDLBYDQ","pain","8","","76","L","3","","0","0","1","","0.2510827831","false","194","","0.2027550427","main_expt","","0.3241295504","","0.3580841109","","0.2510827831","","","","","",""
"209","","bandit","270","1359026","0.0-232.0-0.0","38322251","wem/bandit_single","A3HIRLDYDLBYDQ","pain","8","","74","J","1","","0","0","1","","0.3116310431","false","195","","0.1862287394","main_expt","","0.3116310431","","0.3508589263","","0.2455858858","","","","","",""
"706","","bandit","271","1361498","0.0-233.0-0.0","38322251","wem/bandit_single","A3HIRLDYDLBYDQ","pain","8","","75","K","2","","0","1","0","","0.3580593089","false","196","","0.1892299528","main_expt","","0.3757707762","","0.3580593089","","0.2514601016","","","","","",""
"313","","bandit","272","1363577","0.0-234.0-0.0","38322251","wem/bandit_single","A3HIRLDYDLBYDQ","pain","8","","75","K","2","","0","0","1","","0.325214339","false","197","","0.2217707201","main_expt","","0.3510132286","","0.325214339","","0.2735270373","","","","","",""
"579","","bandit","273","1365923","0.0-235.0-0.0","38322251","wem/bandit_single","A3HIRLDYDLBYDQ","pain","8","","75","K","2","","0","0","1","","0.3214736551","false","198","","0.2622368769","main_expt","","0.3775824693","","0.3214736551","","0.1856542716","","","","","",""
"162","","bandit","274","1367851","0.0-236.0-0.0","38322251","wem/bandit_single","A3HIRLDYDLBYDQ","pain","8","","74","J","1","","0","0","1","","0.3591355879","false","199","","0.2566369559","main_expt","","0.3591355879","","0.3134841864","","0.1439471636","","","","","",""
"178","","bandit","275","1369797","0.0-237.0-0.0","38322251","wem/bandit_single","A3HIRLDYDLBYDQ","pain","8","","72","H","0","img/none_selected.jpg","0","1","0","","0.2405232655","false","200","","0.2405232655","main_expt","","0.4329566742","","0.3484934822","","0.1920673188","","","","","",""
"216","","bandit","276","1371778","0.0-238.0-0.0","38322251","wem/bandit_single","A3HIRLDYDLBYDQ","pain","8","","72","H","0","img/none_selected.jpg","0","0","1","","0.191632201","false","201","","0.191632201","main_expt","","0.4316294991","","0.3509587021","","0.2139557707","","","","","",""
"267","","bandit","277","1373809","0.0-239.0-0.0","38322251","wem/bandit_single","A3HIRLDYDLBYDQ","pain","8","","76","L","3","","0","0","1","","0.2411081829","false","202","","0.1860277461","main_expt","","0.4446061493","","0.3472711197","","0.2411081829","","","","","",""
"106","","bandit","278","1375683","0.0-240.0-0.0","38322251","wem/bandit_single","A3HIRLDYDLBYDQ","pain","8","","74","J","1","","0","1","0","","0.4350640844","false","203","","0.1959395152","main_expt","","0.4350640844","","0.3501901851","","0.2229679022","","","","","",""
"146","","bandit","279","1377597","0.0-241.0-0.0","38322251","wem/bandit_single","A3HIRLDYDLBYDQ","pain","8","","74","J","1","","0","1","0","","0.4511953558","false","204","","0.1909798814","main_expt","","0.4511953558","","0.4021923856","","0.2094072873","","","","","",""
"325","","bandit","280","1379691","0.0-242.0-0.0","38322251","wem/bandit_single","A3HIRLDYDLBYDQ","pain","8","","75","K","2","","0","1","0","","0.4103624794","false","205","","0.1952925147","main_expt","","0.4444608137","","0.4103624794","","0.2061243076","","","","","",""
"142","","bandit","281","1381602","0.0-243.0-0.0","38322251","wem/bandit_single","A3HIRLDYDLBYDQ","pain","8","","75","K","2","","0","1","0","","0.3884407208","false","206","","0.2333477628","main_expt","","0.4174874576","","0.3884407208","","0.1830656651","","","","","",""
"408","","bandit","282","1383778","0.0-244.0-0.0","38322251","wem/bandit_single","A3HIRLDYDLBYDQ","pain","8","","75","K","2","","0","0","1","","0.4205181933","false","207","","0.2366383375","main_expt","","0.4473837798","","0.4205181933","","0.1806213093","","","","","",""
"225","","bandit","283","1385770","0.0-245.0-0.0","38322251","wem/bandit_single","A3HIRLDYDLBYDQ","pain","8","","76","L","3","","0","1","0","","0.1547428587","false","208","","0.2588239296","main_expt","","0.4423282801","","0.39705837","","0.1547428587","","","","","",""
"121","","bandit","284","1387659","0.0-246.0-0.0","38322251","wem/bandit_single","A3HIRLDYDLBYDQ","pain","8","","76","L","3","","0","0","1","","0.1633509089","false","209","","0.2109346514","main_expt","","0.4495798672","","0.3763678409","","0.1633509089","","","","","",""
"168","","bandit","285","1389595","0.0-247.0-0.0","38322251","wem/bandit_single","A3HIRLDYDLBYDQ","pain","8","","72","H","0","img/none_selected.jpg","0","0","1","","0.2352346414","false","210","","0.2352346414","main_expt","","0.4604116181","","0.329669689","","0.194224154","","","","","",""
"242","","bandit","286","1391601","0.0-248.0-0.0","38322251","wem/bandit_single","A3HIRLDYDLBYDQ","pain","8","","74","J","1","","0","1","0","","0.4515605979","false","211","","0.1919095989","main_expt","","0.4515605979","","0.3234151823","","0.1428536625","","","","","",""
"195","","bandit","287","1393569","0.0-249.0-0.0","38322251","wem/bandit_single","A3HIRLDYDLBYDQ","pain","8","","74","J","1","","0","0","1","","0.3796359761","false","212","","0.2511997366","main_expt","","0.3796359761","","0.346289724","","0.1876263767","","","","","",""
"299","","bandit","288","1395633","0.0-250.0-0.0","38322251","wem/bandit_single","A3HIRLDYDLBYDQ","pain","8","","75","K","2","","0","0","1","","0.3579646626","false","213","","0.2247602752","main_expt","","0.4098311692","","0.3579646626","","0.1767426991","","","","","",""
"315","","bandit","289","1397715","0.0-251.0-0.0","38322251","wem/bandit_single","A3HIRLDYDLBYDQ","pain","8","","76","L","3","","0","0","1","","0.1997003326","false","214","","0.2078026042","main_expt","","0.3758430492","","0.3871938136","","0.1997003326","","","","","",""
"202","","bandit","290","1399683","0.0-252.0-0.0","38322251","wem/bandit_single","A3HIRLDYDLBYDQ","pain","8","","72","H","0","img/none_selected.jpg","0","0","1","","0.2000367883","false","215","","0.2000367883","main_expt","","0.3391734167","","0.4072701047","","0.1753208105","","","","","",""
"529","","bandit","291","1401979","0.0-253.0-0.0","38322251","wem/bandit_single","A3HIRLDYDLBYDQ","pain","8","","74","J","1","","0","1","0","","0.3292806148","false","216","","0.1850279066","main_expt","","0.3292806148","","0.4139997029","","0.1526073348","","","","","",""
"152","","bandit","292","1403899","0.0-254.0-0.0","38322251","wem/bandit_single","A3HIRLDYDLBYDQ","pain","8","","74","J","1","","0","0","1","","0.3672552775","false","217","","0.1862329662","main_expt","","0.3672552775","","0.4058129166","","0.1885901152","","","","","",""
"170","","bandit","293","1405835","0.0-255.0-0.0","38322251","wem/bandit_single","A3HIRLDYDLBYDQ","pain","8","","75","K","2","","0","1","0","","0.3831507141","false","218","","0.2076422808","main_expt","","0.3540988412","","0.3831507141","","0.2068683321","","","","","",""
"424","","bandit","294","1408027","0.0-256.0-0.0","38322251","wem/bandit_single","A3HIRLDYDLBYDQ","pain","8","","75","K","2","","0","0","1","","0.3975704748","false","219","","0.1693095695","main_expt","","0.3705907093","","0.3975704748","","0.1830460615","","","","","",""
"478","","bandit","295","1410274","0.0-257.0-0.0","38322251","wem/bandit_single","A3HIRLDYDLBYDQ","pain","8","","76","L","3","","0","0","1","","0.1510464272","false","220","","0.1643321708","main_expt","","0.4071767116","","0.420208779","","0.1510464272","","","","","",""
"240","","bandit","296","1412281","0.0-258.0-0.0","38322251","wem/bandit_single","A3HIRLDYDLBYDQ","pain","8","","74","J","1","","0","0","1","","0.4000591573","false","221","","0.1755642267","main_expt","","0.4000591573","","0.4277126104","","0.1195154075","","","","","",""
"1983","","bandit","297","1416033","0.0-259.0-0.0","38322251","wem/bandit_single","A3HIRLDYDLBYDQ","pain","8","","72","H","0","img/none_selected.jpg","0","0","1","","0.2047466037","false","222","","0.2047466037","main_expt","","0.4257242725","","0.4098861052","","0.1322821073","","","","","",""
"152","","bandit","298","1417953","0.0-260.0-0.0","38322251","wem/bandit_single","A3HIRLDYDLBYDQ","pain","8","","75","K","2","","0","1","0","","0.3865692481","false","223","","0.1261696039","main_expt","","0.4084538547","","0.3865692481","","0.1634864242","","","","","",""
"204","","bandit","299","1419926","0.0-261.0-0.0","38322251","wem/bandit_single","A3HIRLDYDLBYDQ","pain","8","","75","K","2","","0","0","1","","0.3942994903","false","224","","0.1671605087","main_expt","","0.3756333804","","0.3942994903","","0.1927622759","","","","","",""
"492","","bandit","300","1422185","0.0-262.0-0.0","38322251","wem/bandit_single","A3HIRLDYDLBYDQ","pain","8","","74","J","1","","0","0","1","","0.3977261909","false","225","","0.1498322393","main_expt","","0.3977261909","","0.3444994861","","0.1949177646","","","","","",""
"329","","bandit","301","1424280","0.0-263.0-0.0","38322251","wem/bandit_single","A3HIRLDYDLBYDQ","pain","8","","72","H","0","img/none_selected.jpg","0","0","1","","0.106170416","false","226","","0.106170416","main_expt","","0.3876796808","","0.4042132592","","0.1675301724","","","","","",""
"793","","bandit","302","1426841","0.0-264.0-0.0","38322251","wem/bandit_single","A3HIRLDYDLBYDQ","pain","8","","76","L","3","","0","0","1","","0.163375113","false","227","","0.0897934899","main_expt","","0.3213858912","","0.3906229402","","0.163375113","","","","","",""
"72","","bandit","303","1428682","0.0-265.0-0.0","38322251","wem/bandit_single","A3HIRLDYDLBYDQ","pain","8","","75","K","2","","0","1","0","","0.3417164876","false","228","","0.09443294629","main_expt","","0.3331191915","","0.3417164876","","0.195474145","","","","","",""
"369","","bandit","304","1430820","0.0-266.0-0.0","38322251","wem/bandit_single","A3HIRLDYDLBYDQ","pain","8","","75","K","2","","0","1","0","","0.3222205624","false","229","","0.0848669953","main_expt","","0.308496805","","0.3222205624","","0.2410354958","","","","","",""
"599","","bandit","305","1433185","0.0-267.0-0.0","38322251","wem/bandit_single","A3HIRLDYDLBYDQ","pain","8","","76","L","3","","0","0","1","","0.2567648542","false","230","","0.0701458292","main_expt","","0.2734654059","","0.3442672336","","0.2567648542","","","","","",""
"544","","bandit","306","1435498","0.0-268.0-0.0","38322251","wem/bandit_single","A3HIRLDYDLBYDQ","pain","8","","72","H","0","img/none_selected.jpg","0","0","1","","0.1251282835","false","231","","0.1251282835","main_expt","","0.292212981","","0.3164459362","","0.2304241664","","","","","",""
"246","","bandit","307","1437512","0.0-269.0-0.0","38322251","wem/bandit_single","A3HIRLDYDLBYDQ","pain","8","","74","J","1","","0","1","0","","0.2516656152","false","232","","0.1124912266","main_expt","","0.2516656152","","0.3396906789","","0.2264886823","","","","","",""
"338","","bandit","308","1439616","0.0-270.0-0.0","38322251","wem/bandit_single","A3HIRLDYDLBYDQ","pain","8","","74","J","1","","0","1","0","","0.2563877418","false","233","","0.1535494164","main_expt","","0.2563877418","","0.3008540409","","0.1892320941","","","","","",""
"234","","bandit","309","1441619","0.0-271.0-0.0","38322251","wem/bandit_single","A3HIRLDYDLBYDQ","pain","8","","74","J","1","","0","1","0","","0.283882603","false","234","","0.1389628654","main_expt","","0.283882603","","0.2767988229","","0.1556895318","","","","","",""
"189","","bandit","310","1443576","0.0-272.0-0.0","38322251","wem/bandit_single","A3HIRLDYDLBYDQ","pain","8","","74","J","1","","0","0","1","","0.2758852766","false","235","","0.1680793718","main_expt","","0.2758852766","","0.2507781603","","0.1976044491","","","","","",""
"225","","bandit","311","1445570","0.0-273.0-0.0","38322251","wem/bandit_single","A3HIRLDYDLBYDQ","pain","8","","75","K","2","","0","0","1","","0.3091667607","false","236","","0.2037097706","main_expt","","0.2434452049","","0.3091667607","","0.1468950029","","","","","",""
"208","","bandit","312","1447546","0.0-274.0-0.0","38322251","wem/bandit_single","A3HIRLDYDLBYDQ","pain","8","","76","L","3","","0","0","1","","0.1365515699","false","237","","0.1897176974","main_expt","","0.2405517979","","0.2883211118","","0.1365515699","","","","","",""
"82","","bandit","313","1449403","0.0-275.0-0.0","38322251","wem/bandit_single","A3HIRLDYDLBYDQ","pain","8","","72","H","0","img/none_selected.jpg","0","0","1","","0.2317710791","false","238","","0.2317710791","main_expt","","0.2260832521","","0.2756444762","","0.1527077476","","","","","",""
"569","","bandit","314","1451739","0.0-276.0-0.0","38322251","wem/bandit_single","A3HIRLDYDLBYDQ","pain","8","","72","H","0","img/none_selected.jpg","0","1","0","","0.2206906913","false","239","","0.2206906913","main_expt","","0.2061693665","","0.3061346513","","0.1315224722","","","","","",""
"303","","bandit","315","1453809","0.0-277.0-0.0","38322251","wem/bandit_single","A3HIRLDYDLBYDQ","pain","8","","72","H","0","img/none_selected.jpg","0","0","1","","0.2155283076","false","240","","0.2155283076","main_expt","","0.2203195159","","0.3274201615","","0.1398926963","","","","","",""
"399","","bandit","316","1455978","0.0-278.0-0.0","38322251","wem/bandit_single","A3HIRLDYDLBYDQ","pain","8","","76","L","3","","0","0","1","","0.1698873683","false","241","","0.2386015387","main_expt","","0.2230507071","","0.2838770346","","0.1698873683","","","","","",""
"1044","","bandit","317","1458792","0.0-279.0-0.0","38322251","wem/bandit_single","A3HIRLDYDLBYDQ","pain","8","","76","L","3","","0","1","0","","0.1693915972","false","242","","0.2178179326","main_expt","","0.1834748297","","0.261873528","","0.1693915972","","","","","",""
"800","","bandit","318","1461360","0.0-280.0-0.0","38322251","wem/bandit_single","A3HIRLDYDLBYDQ","pain","8","","76","L","3","","0","0","1","","0.2011280514","false","243","","0.2209910316","main_expt","","0.1450766806","","0.2346518895","","0.2011280514","","","","","",""
"576","","bandit","319","1463707","0.0-281.0-0.0","38322251","wem/bandit_single","A3HIRLDYDLBYDQ","pain","8","","74","J","1","","0","0","1","","0.1407015906","false","244","","0.2202366047","main_expt","","0.1407015906","","0.2253303202","","0.283074141","","","","","",""
"1236","","bandit","320","1466713","0.0-282.0-0.0","38322251","wem/bandit_single","A3HIRLDYDLBYDQ","pain","8","","75","K","2","","0","0","1","","0.2379184421","false","245","","0.2369425358","main_expt","","0.1386250556","","0.2379184421","","0.2960363525","","","","","",""
"239","","bandit","321","1468721","0.0-283.0-0.0","38322251","wem/bandit_single","A3HIRLDYDLBYDQ","pain","8","","72","H","0","img/none_selected.jpg","0","0","1","","0.2437218948","false","246","","0.2437218948","main_expt","","0.1561911267","","0.1704118475","","0.2985154159","","","","","",""
"519","","bandit","322","1471008","0.0-284.0-0.0","38322251","wem/bandit_single","A3HIRLDYDLBYDQ","pain","8","","74","J","1","","0","0","1","","0.251644506","false","247","","0.2573167276","main_expt","","0.251644506","","0.1520093858","","0.3159682012","","","","","",""
"4729","","bandit","323","1477507","0.0-285.0-0.0","38322251","wem/bandit_single","A3HIRLDYDLBYDQ","pain","8","","75","K","2","","0","0","1","","0.1246217458","false","248","","0.255349996","main_expt","","0.2541276422","","0.1246217458","","0.2937445921","","","","","",""
"381","","bandit","324","1479657","0.0-286.0-0.0","38322251","wem/bandit_single","A3HIRLDYDLBYDQ","pain","8","","76","L","3","","0","0","1","","0.2794909668","false","249","","0.2866877344","main_expt","","0.1924412691","","0.1525969556","","0.2794909668","","","","","",""
"51","","bandit","325","1481480","0.0-287.0-0.0","38322251","wem/bandit_single","A3HIRLDYDLBYDQ","pain","8","","72","H","0","img/none_selected.jpg","0","0","1","","0.2330780591","false","250","","0.2330780591","main_expt","","0.1397358892","","0.1500628479","","0.2327966623","","","","","",""
"133","","bandit","326","1483386","0.0-288.0-0.0","38322251","wem/bandit_single","A3HIRLDYDLBYDQ","pain","8","","74","J","1","","0","0","1","","0.1362233376","false","251","","0.2580196572","main_expt","","0.1362233376","","0.1141396938","","0.2595602212","","","","","",""
"141","","bandit","327","1485298","0.0-289.0-0.0","38322251","wem/bandit_single","A3HIRLDYDLBYDQ","pain","8","","75","K","2","","0","0","1","","0.1476089834","false","252","","0.2003146692","main_expt","","0.1796418735","","0.1476089834","","0.2715763176","","","","","",""
"208","","bandit","328","1487282","0.0-290.0-0.0","38322251","wem/bandit_single","A3HIRLDYDLBYDQ","pain","8","","76","L","3","","0","0","1","","0.3146654463","false","253","","0.1651092288","main_expt","","0.1833608075","","0.175183139","","0.3146654463","","","","","",""
"144","","bandit","329","1489202","0.0-291.0-0.0","38322251","wem/bandit_single","A3HIRLDYDLBYDQ","pain","8","","72","H","0","img/none_selected.jpg","0","0","1","","0.1413675546","false","254","","0.1413675546","main_expt","","0.1983034343","","0.1916323123","","0.3037610447","","","","","",""
"245","","bandit","330","1491214","0.0-292.0-0.0","38322251","wem/bandit_single","A3HIRLDYDLBYDQ","pain","8","","75","K","2","","0","0","1","","0.1888714334","false","255","","0.1801919014","main_expt","","0.2286544637","","0.1888714334","","0.287825992","","","","","",""
"322","","bandit","331","1493302","0.0-293.0-0.0","38322251","wem/bandit_single","A3HIRLDYDLBYDQ","pain","8","","74","J","1","","0","0","1","","0.2502735072","false","256","","0.1883387327","main_expt","","0.2502735072","","0.2338577058","","0.2673332977","","","","","",""
"577","","bandit","332","1495646","0.0-294.0-0.0","38322251","wem/bandit_single","A3HIRLDYDLBYDQ","pain","8","","76","L","3","","0","0","1","","0.2867614738","false","257","","0.1757220287","main_expt","","0.2657937058","","0.2235288738","","0.2867614738","","","","","",""
"491","","bandit","333","1497903","0.0-295.0-0.0","38322251","wem/bandit_single","A3HIRLDYDLBYDQ","pain","8","","72","H","0","img/none_selected.jpg","0","0","1","","0.1817694486","false","258","","0.1817694486","main_expt","","0.2326681124","","0.2256298632","","0.2432485896","","","","","",""
"228","","bandit","334","1499897","0.0-296.0-0.0","38322251","wem/bandit_single","A3HIRLDYDLBYDQ","pain","8","","74","J","1","","0","0","1","","0.2128848171","false","259","","0.1938363466","main_expt","","0.2128848171","","0.229367941","","0.2433124215","","","","","",""
"7","","bandit","335","1501671","0.0-297.0-0.0","38322251","wem/bandit_single","A3HIRLDYDLBYDQ","pain","8","","75","K","2","","0","1","0","","0.2585863351","false","260","","0.2129025296","main_expt","","0.261065439","","0.2585863351","","0.202057327","","","","","",""
"176","","bandit","336","1503615","0.0-298.0-0.0","38322251","wem/bandit_single","A3HIRLDYDLBYDQ","pain","8","","75","K","2","","0","0","1","","0.2748644017","false","261","","0.1931457884","main_expt","","0.2693274395","","0.2748644017","","0.163702413","","","","","",""
"304","","bandit","337","1505686","0.0-299.0-0.0","38322251","wem/bandit_single","A3HIRLDYDLBYDQ","pain","8","","72","H","0","img/none_selected.jpg","0","0","1","","0.183306516","false","262","","0.183306516","main_expt","","0.3386888623","","0.288340978","","0.1317961998","","","","","",""
"177","","bandit","338","1507630","0.0-300.0-0.0","38322251","wem/bandit_single","A3HIRLDYDLBYDQ","pain","8","","76","L","3","","0","0","1","","0.09680570831","false","263","","0.1293037787","main_expt","","0.3645909238","","0.3151532186","","0.09680570831","","","","","",""
"185","","bandit","339","1509582","0.0-301.0-0.0","38322251","wem/bandit_single","A3HIRLDYDLBYDQ","pain","8","","74","J","1","","0","1","0","","0.3437159196","false","264","","0.1386072774","main_expt","","0.3437159196","","0.2931268787","","0.08846786375","","","","","",""
"251","","bandit","340","1511600","0.0-302.0-0.0","38322251","wem/bandit_single","A3HIRLDYDLBYDQ","pain","8","","74","J","1","","0","0","1","","0.3644358952","false","265","","0.1511252148","main_expt","","0.3644358952","","0.3131275506","","0.08556864258","","","","","",""
"503","","bandit","341","1513870","0.0-303.0-0.0","38322251","wem/bandit_single","A3HIRLDYDLBYDQ","pain","8","","72","H","0","img/none_selected.jpg","0","0","1","","0.2186772706","false","266","","0.2186772706","main_expt","","0.3904852039","","0.336523231","","0.0706515048","","","","","",""
"1473","","bandit","342","1517110","0.0-304.0-0.0","38322251","wem/bandit_single","A3HIRLDYDLBYDQ","pain","8","","76","L","3","","0","0","1","","0.0747424838","false","267","","0.2625163009","main_expt","","0.3896615427","","0.2850369317","","0.0747424838","","","","","",""
"329","","bandit","343","1519206","0.0-305.0-0.0","38322251","wem/bandit_single","A3HIRLDYDLBYDQ","pain","8","","75","K","2","","0","1","0","","0.3163307124","false","268","","0.3140442454","main_expt","","0.4017278216","","0.3163307124","","0.112617448","","","","","",""
"265","","bandit","344","1521239","0.0-306.0-0.0","38322251","wem/bandit_single","A3HIRLDYDLBYDQ","pain","8","","75","K","2","","0","0","1","","0.2956683275","false","269","","0.3069084364","main_expt","","0.370996795","","0.2956683275","","0.1406639307","","","","","",""
"466","","bandit","345","1523472","0.0-307.0-0.0","38322251","wem/bandit_single","A3HIRLDYDLBYDQ","pain","8","","72","H","0","img/none_selected.jpg","0","1","0","","0.2814908846","false","270","","0.2814908846","main_expt","","0.4255483526","","0.3574655381","","0.1398727949","","","","","",""
"311","","bandit","346","1525557","0.0-308.0-0.0","38322251","wem/bandit_single","A3HIRLDYDLBYDQ","pain","8","","72","H","0","img/none_selected.jpg","0","0","1","","0.3060786573","false","271","","0.3060786573","main_expt","","0.3948114384","","0.3969117111","","0.1430486157","","","","","",""
"793","","bandit","347","1528117","0.0-309.0-0.0","38322251","wem/bandit_single","A3HIRLDYDLBYDQ","pain","8","","75","K","2","","0","0","1","","0.3938657786","false","272","","0.3555003363","main_expt","","0.3713372483","","0.3938657786","","0.1872928851","","","","","",""
"130","","bandit","348","1530014","0.0-310.0-0.0","38322251","wem/bandit_single","A3HIRLDYDLBYDQ","pain","8","","74","J","1","","0","1","0","","0.3650537767","false","273","","0.3980140183","main_expt","","0.3650537767","","0.3903330825","","0.1769074474","","","","","",""
"255","","bandit","349","1532038","0.0-311.0-0.0","38322251","wem/bandit_single","A3HIRLDYDLBYDQ","pain","8","","74","J","1","","0","0","1","","0.3414565802","false","274","","0.4077181827","main_expt","","0.3414565802","","0.4236793781","","0.1820324592","","","","","",""
"659","","bandit","350","1534463","0.0-312.0-0.0","38322251","wem/bandit_single","A3HIRLDYDLBYDQ","pain","8","","76","L","3","","0","0","1","","0.1923133529","false","275","","0.4142369189","main_expt","","0.3027622838","","0.4320968281","","0.1923133529","","","","","",""
"127","","bandit","351","1536357","0.0-313.0-0.0","38322251","wem/bandit_single","A3HIRLDYDLBYDQ","pain","8","","72","H","0","img/none_selected.jpg","0","0","1","","0.4250096067","false","276","","0.4250096067","main_expt","","0.3125082267","","0.4017915655","","0.1917589367","","","","","",""
"425","","bandit","352","1538555","0.0-314.0-0.0","38322251","wem/bandit_single","A3HIRLDYDLBYDQ","pain","8","","74","J","1","","0","0","1","","0.348890663","false","277","","0.4378988515","main_expt","","0.348890663","","0.3548215972","","0.1667093518","","","","","",""
"328","","bandit","353","1540655","0.0-315.0-0.0","38322251","wem/bandit_single","A3HIRLDYDLBYDQ","pain","8","","75","K","2","","0","1","0","","0.3683165275","false","278","","0.4323676568","main_expt","","0.3341457036","","0.3683165275","","0.1695638059","","","","","",""
"287","","bandit","354","1542710","0.0-316.0-0.0","38322251","wem/bandit_single","A3HIRLDYDLBYDQ","pain","8","","75","K","2","","0","0","1","","0.3750953637","false","279","","0.4391545144","main_expt","","0.2341959149","","0.3750953637","","0.1696283439","","","","","",""
"281","","bandit","355","1544760","0.0-317.0-0.0","38322251","wem/bandit_single","A3HIRLDYDLBYDQ","pain","8","","72","H","0","img/none_selected.jpg","0","1","0","","0.4467207207","false","280","","0.4467207207","main_expt","","0.1839622844","","0.3557095414","","0.09227733008","","","","","",""
"222","","bandit","356","1546750","0.0-318.0-0.0","38322251","wem/bandit_single","A3HIRLDYDLBYDQ","pain","8","","72","H","0","img/none_selected.jpg","0","1","0","","0.3922333676","false","281","","0.3922333676","main_expt","","0.1303375237","","0.374333358","","0.08059064446","","","","","",""
"302","","bandit","357","1548822","0.0-319.0-0.0","38322251","wem/bandit_single","A3HIRLDYDLBYDQ","pain","8","","72","H","0","img/none_selected.jpg","0","1","0","","0.4243132136","false","282","","0.4243132136","main_expt","","0.07449941097","","0.3786855632","","0.06236597977","","","","","",""
"197","","bandit","358","1550790","0.0-320.0-0.0","38322251","wem/bandit_single","A3HIRLDYDLBYDQ","pain","8","","72","H","0","img/none_selected.jpg","0","1","0","","0.4187362854","false","283","","0.4187362854","main_expt","","0.08783129911","","0.437514669","","0.07782340279","","","","","",""
"312","","bandit","359","1552870","0.0-321.0-0.0","38322251","wem/bandit_single","A3HIRLDYDLBYDQ","pain","8","","72","H","0","img/none_selected.jpg","0","0","1","","0.422543139","false","284","","0.422543139","main_expt","","0.08228152097","","0.410198323","","0.07564660971","","","","","",""
"532","","bandit","360","1555170","0.0-322.0-0.0","38322251","wem/bandit_single","A3HIRLDYDLBYDQ","pain","8","","76","L","3","","0","0","1","","0.08237135124","false","285","","0.434302279","main_expt","","0.09246744832","","0.3777139522","","0.08237135124","","","","","",""
"498","","bandit","361","1557439","0.0-323.0-0.0","38322251","wem/bandit_single","A3HIRLDYDLBYDQ","pain","8","","75","K","2","","0","0","1","","0.3841171753","false","286","","0.4094725029","main_expt","","0.08394792075","","0.3841171753","","0.05670298638","","","","","",""
"372","","bandit","362","1559582","0.0-324.0-0.0","38322251","wem/bandit_single","A3HIRLDYDLBYDQ","pain","8","","74","J","1","","0","0","1","","0.1021913287","false","287","","0.3778080042","main_expt","","0.1021913287","","0.3641862554","","0.06647452785","","","","","",""
"335","","bandit","363","1561686","0.0-325.0-0.0","38322251","wem/bandit_single","A3HIRLDYDLBYDQ","pain","8","","72","H","0","img/none_selected.jpg","0","0","1","","0.3671495563","false","288","","0.3671495563","main_expt","","0.1188664616","","0.3192590496","","0.04859701272","","","","","",""
"128","","bandit","364","1563582","0.0-326.0-0.0","38322251","wem/bandit_single","A3HIRLDYDLBYDQ","pain","8","","76","L","3","","0","0","1","","0.04246321062","false","289","","0.3622055636","main_expt","","0.1050513492","","0.3384054944","","0.04246321062","","","","","",""
"761","","bandit","365","1566112","0.0-327.0-0.0","38322251","wem/bandit_single","A3HIRLDYDLBYDQ","pain","8","","75","K","2","","0","1","0","","0.329366118","false","290","","0.3616647964","main_expt","","0.1304324694","","0.329366118","","0.08307379137","","","","","",""
"805","","bandit","366","1568686","0.0-328.0-0.0","38322251","wem/bandit_single","A3HIRLDYDLBYDQ","pain","8","","75","K","2","","0","1","0","","0.38061917","false","291","","0.3521760992","main_expt","","0.09707891459","","0.38061917","","0.09664054691","","","","","",""
"400","","bandit","367","1570853","0.0-329.0-0.0","38322251","wem/bandit_single","A3HIRLDYDLBYDQ","pain","8","","75","K","2","","0","1","0","","0.3703624541","false","292","","0.3062989856","main_expt","","0.1166693976","","0.3703624541","","0.1089287446","","","","","",""
"360","","bandit","368","1572983","0.0-330.0-0.0","38322251","wem/bandit_single","A3HIRLDYDLBYDQ","pain","8","","75","K","2","","0","0","1","","0.3554666564","false","293","","0.2594623792","main_expt","","0.1448282665","","0.3554666564","","0.1426967363","","","","","",""
"374","","bandit","369","1575125","0.0-331.0-0.0","38322251","wem/bandit_single","A3HIRLDYDLBYDQ","pain","8","","72","H","0","img/none_selected.jpg","0","1","0","","0.2666401727","false","294","","0.2666401727","main_expt","","0.1486412875","","0.3976604504","","0.08295656842","","","","","",""
"370","","bandit","370","1577264","0.0-332.0-0.0","38322251","wem/bandit_single","A3HIRLDYDLBYDQ","pain","8","","72","H","0","img/none_selected.jpg","0","0","1","","0.2160621863","false","295","","0.2160621863","main_expt","","0.1266024918","","0.3567340825","","0.07441347029","","","","","",""
"205","","bandit","371","1579237","0.0-333.0-0.0","38322251","wem/bandit_single","A3HIRLDYDLBYDQ","pain","8","","74","J","1","","0","0","1","","0.1499702932","false","296","","0.1924669582","main_expt","","0.1499702932","","0.3802278382","","0.08167080543","","","","","",""
"1104","","bandit","372","1582109","0.0-334.0-0.0","38322251","wem/bandit_single","A3HIRLDYDLBYDQ","pain","8","","75","K","2","","0","0","1","","0.3764104085","false","297","","0.2572135825","main_expt","","0.1124444021","","0.3764104085","","0.06721412472","","","","","",""
