"rt","responses","trial_type","trial_index","time_elapsed","internal_node_id","subjID","study","MID","cond","drift","key_press","respCharCode","respKey","respChoiceNum","respChoice","gems","bombs","no_reward","GemPrChosen","BombPrChosen","practice","trial_counter","WinPr_0","LosePr_0","trial_label","WinPr_1","LosePr_1","WinPr_2","LosePr_2","WinPr_3","LosePr_3","Q0","Q1","Q2","gender","age","ethnicity"
"11550","{""Q0"":""A15FXHC1CVNW31""}","survey-text","0","11559","0.0-0.0","38387013","wem/bandit_single","A15FXHC1CVNW31","gain","3","","","","","","","","","","","","","","","","","","","","","","","","","","",""
"1242","","text","1","13806","0.0-1.0","38387013","wem/bandit_single","A15FXHC1CVNW31","gain","3","32","","","","","","","","","","","","","","","","","","","","","","","","","",""
"3183","","text","2","16992","0.0-2.0","38387013","wem/bandit_single","A15FXHC1CVNW31","gain","3","32","","","","","","","","","","","","","","","","","","","","","","","","","",""
"9419","","text","3","26416","0.0-3.0","38387013","wem/bandit_single","A15FXHC1CVNW31","gain","3","32","","","","","","","","","","","","","","","","","","","","","","","","","",""
"4801","","text","4","31224","0.0-4.0","38387013","wem/bandit_single","A15FXHC1CVNW31","gain","3","32","","","","","","","","","","","","","","","","","","","","","","","","","",""
"7498","","text","5","38726","0.0-5.0","38387013","wem/bandit_single","A15FXHC1CVNW31","gain","3","32","","","","","","","","","","","","","","","","","","","","","","","","","",""
"5453","","text","6","44185","0.0-6.0","38387013","wem/bandit_single","A15FXHC1CVNW31","gain","3","32","","","","","","","","","","","","","","","","","","","","","","","","","",""
"4908","","text","7","49099","0.0-7.0","38387013","wem/bandit_single","A15FXHC1CVNW31","gain","3","32","","","","","","","","","","","","","","","","","","","","","","","","","",""
"1175","","text","8","50278","0.0-8.0","38387013","wem/bandit_single","A15FXHC1CVNW31","gain","3","32","","","","","","","","","","","","","","","","","","","","","","","","","",""
"1299","","text","9","51581","0.0-9.0","38387013","wem/bandit_single","A15FXHC1CVNW31","gain","3","32","","","","","","","","","","","","","","","","","","","","","","","","","",""
"1558","","text","10","53141","0.0-10.0","38387013","wem/bandit_single","A15FXHC1CVNW31","gain","3","32","","","","","","","","","","","","","","","","","","","","","","","","","",""
"958","","text","11","54100","0.0-11.0","38387013","wem/bandit_single","A15FXHC1CVNW31","gain","3","32","","","","","","","","","","","","","","","","","","","","","","","","","",""
"2089","","bandit","12","57707","0.0-12.0-0.0","38387013","wem/bandit_single","A15FXHC1CVNW31","gain","3","","74","J","0","img/none_selected_demo.jpg","0","0","1","0","0","true","0","0","0","","","","","","","","","","","","",""
"1742","","bandit","13","61215","0.0-13.0-0.0","38387013","wem/bandit_single","A15FXHC1CVNW31","gain","3","","75","K","0","img/none_selected_demo.jpg","0","0","1","0","0","true","0","0","0","","","","","","","","","","","","",""
"1802","","text","14","63272","0.0-14.0","38387013","wem/bandit_single","A15FXHC1CVNW31","gain","3","32","","","","","","","","","","","","","","","","","","","","","","","","","",""
"1130","","text","15","64406","0.0-15.0","38387013","wem/bandit_single","A15FXHC1CVNW31","gain","3","32","","","","","","","","","","","","","","","","","","","","","","","","","",""
"2837","","text","16","67245","0.0-16.0","38387013","wem/bandit_single","A15FXHC1CVNW31","gain","3","32","","","","","","","","","","","","","","","","","","","","","","","","","",""
"1667","","text","17","68916","0.0-17.0","38387013","wem/bandit_single","A15FXHC1CVNW31","gain","3","32","","","","","","","","","","","","","","","","","","","","","","","","","",""
"250","","bandit","18","70680","0.0-18.0-0.0","38387013","wem/bandit_single","A15FXHC1CVNW31","gain","3","","74","J","0","img/none_selected_demo.jpg","0","0","1","0.8","0","true","0","0.8","0","80_20_practice","0.2","0","","","","","","","","","",""
"955","","bandit","19","73396","0.0-18.0-1.0","38387013","wem/bandit_single","A15FXHC1CVNW31","gain","3","","74","J","0","img/none_selected_demo.jpg","1","0","0","0.8","0","true","0","0.8","0","80_20_practice","0.2","0","","","","","","","","","",""
"23","","bandit","20","75222","0.0-18.0-2.0","38387013","wem/bandit_single","A15FXHC1CVNW31","gain","3","","74","J","0","img/none_selected_demo.jpg","0","0","1","0.8","0","true","0","0.8","0","80_20_practice","0.2","0","","","","","","","","","",""
"256","","bandit","21","77245","0.0-18.0-3.0","38387013","wem/bandit_single","A15FXHC1CVNW31","gain","3","","75","K","1","","0","0","1","0.2","0","true","0","0.8","0","80_20_practice","0.2","0","","","","","","","","","",""
"575","","bandit","22","79582","0.0-18.0-4.0","38387013","wem/bandit_single","A15FXHC1CVNW31","gain","3","","75","K","1","","0","0","1","0.2","0","true","0","0.8","0","80_20_practice","0.2","0","","","","","","","","","",""
"62","","bandit","23","81407","0.0-18.0-5.0","38387013","wem/bandit_single","A15FXHC1CVNW31","gain","3","","75","K","1","","0","0","1","0.2","0","true","0","0.8","0","80_20_practice","0.2","0","","","","","","","","","",""
"135","","bandit","24","83305","0.0-18.0-6.0","38387013","wem/bandit_single","A15FXHC1CVNW31","gain","3","","74","J","0","img/none_selected_demo.jpg","1","0","0","0.8","0","true","0","0.8","0","80_20_practice","0.2","0","","","","","","","","","",""
"214","","bandit","25","85321","0.0-18.0-7.0","38387013","wem/bandit_single","A15FXHC1CVNW31","gain","3","","74","J","0","img/none_selected_demo.jpg","1","0","0","0.8","0","true","0","0.8","0","80_20_practice","0.2","0","","","","","","","","","",""
"2","","bandit","26","87085","0.0-18.0-8.0","38387013","wem/bandit_single","A15FXHC1CVNW31","gain","3","","74","J","0","img/none_selected_demo.jpg","1","0","0","0.8","0","true","0","0.8","0","80_20_practice","0.2","0","","","","","","","","","",""
"712","","bandit","27","89559","0.0-18.0-9.0","38387013","wem/bandit_single","A15FXHC1CVNW31","gain","3","","74","J","0","img/none_selected_demo.jpg","1","0","0","0.8","0","true","0","0.8","0","80_20_practice","0.2","0","","","","","","","","","",""
"348","","bandit","28","91674","0.0-18.0-10.0","38387013","wem/bandit_single","A15FXHC1CVNW31","gain","3","","74","J","0","img/none_selected_demo.jpg","1","0","0","0.8","0","true","0","0.8","0","80_20_practice","0.2","0","","","","","","","","","",""
"145","","bandit","29","93581","0.0-18.0-11.0","38387013","wem/bandit_single","A15FXHC1CVNW31","gain","3","","74","J","0","img/none_selected_demo.jpg","0","0","1","0.8","0","true","0","0.8","0","80_20_practice","0.2","0","","","","","","","","","",""
"184","","bandit","30","95526","0.0-18.0-12.0","38387013","wem/bandit_single","A15FXHC1CVNW31","gain","3","","74","J","0","img/none_selected_demo.jpg","1","0","0","0.8","0","true","0","0.8","0","80_20_practice","0.2","0","","","","","","","","","",""
"3977","","bandit","31","101268","0.0-18.0-13.0","38387013","wem/bandit_single","A15FXHC1CVNW31","gain","3","","74","J","0","img/none_selected_demo.jpg","0","0","1","0.8","0","true","0","0.8","0","80_20_practice","0.2","0","","","","","","","","","",""
"214","","bandit","32","103307","0.0-18.0-14.0","38387013","wem/bandit_single","A15FXHC1CVNW31","gain","3","","74","J","0","img/none_selected_demo.jpg","1","0","0","0.8","0","true","0","0.8","0","80_20_practice","0.2","0","","","","","","","","","",""
"150","","bandit","33","105288","0.0-18.0-15.0","38387013","wem/bandit_single","A15FXHC1CVNW31","gain","3","","74","J","0","img/none_selected_demo.jpg","0","0","1","0.8","0","true","0","0.8","0","80_20_practice","0.2","0","","","","","","","","","",""
"107","","bandit","34","107156","0.0-18.0-16.0","38387013","wem/bandit_single","A15FXHC1CVNW31","gain","3","","74","J","0","img/none_selected_demo.jpg","1","0","0","0.8","0","true","0","0.8","0","80_20_practice","0.2","0","","","","","","","","","",""
"130","","bandit","35","109051","0.0-18.0-17.0","38387013","wem/bandit_single","A15FXHC1CVNW31","gain","3","","74","J","0","img/none_selected_demo.jpg","1","0","0","0.8","0","true","0","0.8","0","80_20_practice","0.2","0","","","","","","","","","",""
"35","","bandit","36","110855","0.0-18.0-18.0","38387013","wem/bandit_single","A15FXHC1CVNW31","gain","3","","74","J","0","img/none_selected_demo.jpg","0","0","1","0.8","0","true","0","0.8","0","80_20_practice","0.2","0","","","","","","","","","",""
"154","","bandit","37","112773","0.0-18.0-19.0","38387013","wem/bandit_single","A15FXHC1CVNW31","gain","3","","74","J","0","img/none_selected_demo.jpg","1","0","0","0.8","0","true","0","0.8","0","80_20_practice","0.2","0","","","","","","","","","",""
"2418","","text","38","115446","0.0-19.0","38387013","wem/bandit_single","A15FXHC1CVNW31","gain","3","32","","","","","","","","","","","","","","","","","","","","","","","","","",""
"2677","","bandit","39","119640","0.0-20.0-0.0","38387013","wem/bandit_single","A15FXHC1CVNW31","gain","3","","74","J","0","img/none_selected_demo.jpg","0","0","1","0","0","true","0","0","0","","0","0","","","","","","","","","",""
"5031","","text","40","124926","0.0-21.0","38387013","wem/bandit_single","A15FXHC1CVNW31","gain","3","32","","","","","","","","","","","","","","","","","","","","","","","","","",""
"3075","","text","41","128006","0.0-22.0","38387013","wem/bandit_single","A15FXHC1CVNW31","gain","3","32","","","","","","","","","","","","","","","","","","","","","","","","","",""
"4390","","text","42","132403","0.0-23.0","38387013","wem/bandit_single","A15FXHC1CVNW31","gain","3","32","","","","","","","","","","","","","","","","","","","","","","","","","",""
"1386","","text","43","133796","0.0-24.0","38387013","wem/bandit_single","A15FXHC1CVNW31","gain","3","32","","","","","","","","","","","","","","","","","","","","","","","","","",""
"14677","","text","44","148477","0.0-25.0","38387013","wem/bandit_single","A15FXHC1CVNW31","gain","3","32","","","","","","","","","","","","","","","","","","","","","","","","","",""
"1201","","text","45","149684","0.0-26.0","38387013","wem/bandit_single","A15FXHC1CVNW31","gain","3","32","","","","","","","","","","","","","","","","","","","","","","","","","",""
"8756","","text","46","158446","0.0-27.0","38387013","wem/bandit_single","A15FXHC1CVNW31","gain","3","32","","","","","","","","","","","","","","","","","","","","","","","","","",""
"3202","","text","47","161653","0.0-28.0","38387013","wem/bandit_single","A15FXHC1CVNW31","gain","3","32","","","","","","","","","","","","","","","","","","","","","","","","","",""
"3165","","text","48","164825","0.0-29.0","38387013","wem/bandit_single","A15FXHC1CVNW31","gain","3","32","","","","","","","","","","","","","","","","","","","","","","","","","",""
"1413","","text","49","166242","0.0-30.0","38387013","wem/bandit_single","A15FXHC1CVNW31","gain","3","32","","","","","","","","","","","","","","","","","","","","","","","","","",""
"1886","","text","50","168132","0.0-31.0","38387013","wem/bandit_single","A15FXHC1CVNW31","gain","3","32","","","","","","","","","","","","","","","","","","","","","","","","","",""
"569","","bandit","51","170221","0.0-32.0-0.0","38387013","wem/bandit_single","A15FXHC1CVNW31","gain","3","","72","H","0","img/none_selected.jpg","1","0","0","0.8","0","true","0","0.8","0","full_practice","0.2","0","0.6","0","0.2","0","","","","","",""
"507","","bandit","52","172522","0.0-32.0-1.0","38387013","wem/bandit_single","A15FXHC1CVNW31","gain","3","","72","H","0","img/none_selected.jpg","1","0","0","0.8","0","true","0","0.8","0","full_practice","0.2","0","0.6","0","0.2","0","","","","","",""
"240","","bandit","53","174525","0.0-32.0-2.0","38387013","wem/bandit_single","A15FXHC1CVNW31","gain","3","","72","H","0","img/none_selected.jpg","1","0","0","0.8","0","true","0","0.8","0","full_practice","0.2","0","0.6","0","0.2","0","","","","","",""
"81","","bandit","54","176370","0.0-32.0-3.0","38387013","wem/bandit_single","A15FXHC1CVNW31","gain","3","","72","H","0","img/none_selected.jpg","1","0","0","0.8","0","true","0","0.8","0","full_practice","0.2","0","0.6","0","0.2","0","","","","","",""
"157","","bandit","55","178290","0.0-32.0-4.0","38387013","wem/bandit_single","A15FXHC1CVNW31","gain","3","","72","H","0","img/none_selected.jpg","1","0","0","0.8","0","true","0","0.8","0","full_practice","0.2","0","0.6","0","0.2","0","","","","","",""
"87","","bandit","56","180152","0.0-32.0-5.0","38387013","wem/bandit_single","A15FXHC1CVNW31","gain","3","","72","H","0","img/none_selected.jpg","1","0","0","0.8","0","true","0","0.8","0","full_practice","0.2","0","0.6","0","0.2","0","","","","","",""
"140","","bandit","57","182087","0.0-32.0-6.0","38387013","wem/bandit_single","A15FXHC1CVNW31","gain","3","","72","H","0","img/none_selected.jpg","1","0","0","0.8","0","true","0","0.8","0","full_practice","0.2","0","0.6","0","0.2","0","","","","","",""
"5","","bandit","58","183859","0.0-32.0-7.0","38387013","wem/bandit_single","A15FXHC1CVNW31","gain","3","","72","H","0","img/none_selected.jpg","1","0","0","0.8","0","true","0","0.8","0","full_practice","0.2","0","0.6","0","0.2","0","","","","","",""
"128","","bandit","59","185747","0.0-32.0-8.0","38387013","wem/bandit_single","A15FXHC1CVNW31","gain","3","","72","H","0","img/none_selected.jpg","1","0","0","0.8","0","true","0","0.8","0","full_practice","0.2","0","0.6","0","0.2","0","","","","","",""
"159","","bandit","60","187668","0.0-32.0-9.0","38387013","wem/bandit_single","A15FXHC1CVNW31","gain","3","","72","H","0","img/none_selected.jpg","1","0","0","0.8","0","true","0","0.8","0","full_practice","0.2","0","0.6","0","0.2","0","","","","","",""
"104","","bandit","61","189539","0.0-32.0-10.0","38387013","wem/bandit_single","A15FXHC1CVNW31","gain","3","","72","H","0","img/none_selected.jpg","1","0","0","0.8","0","true","0","0.8","0","full_practice","0.2","0","0.6","0","0.2","0","","","","","",""
"235","","bandit","62","191539","0.0-32.0-11.0","38387013","wem/bandit_single","A15FXHC1CVNW31","gain","3","","74","J","1","","0","0","1","0.2","0","true","0","0.8","0","full_practice","0.2","0","0.6","0","0.2","0","","","","","",""
"38","","bandit","63","193337","0.0-32.0-12.0","38387013","wem/bandit_single","A15FXHC1CVNW31","gain","3","","75","K","2","","1","0","0","0.6","0","true","0","0.8","0","full_practice","0.2","0","0.6","0","0.2","0","","","","","",""
"50","","bandit","64","195175","0.0-32.0-13.0","38387013","wem/bandit_single","A15FXHC1CVNW31","gain","3","","75","K","2","","1","0","0","0.6","0","true","0","0.8","0","full_practice","0.2","0","0.6","0","0.2","0","","","","","",""
"455","","bandit","65","197395","0.0-32.0-14.0","38387013","wem/bandit_single","A15FXHC1CVNW31","gain","3","","75","K","2","","1","0","0","0.6","0","true","0","0.8","0","full_practice","0.2","0","0.6","0","0.2","0","","","","","",""
"173","","bandit","66","199330","0.0-32.0-15.0","38387013","wem/bandit_single","A15FXHC1CVNW31","gain","3","","76","L","3","","0","0","1","0.2","0","true","0","0.8","0","full_practice","0.2","0","0.6","0","0.2","0","","","","","",""
"119","","bandit","67","201238","0.0-32.0-16.0","38387013","wem/bandit_single","A15FXHC1CVNW31","gain","3","","75","K","2","","1","0","0","0.6","0","true","0","0.8","0","full_practice","0.2","0","0.6","0","0.2","0","","","","","",""
"172","","bandit","68","203179","0.0-32.0-17.0","38387013","wem/bandit_single","A15FXHC1CVNW31","gain","3","","75","K","2","","1","0","0","0.6","0","true","0","0.8","0","full_practice","0.2","0","0.6","0","0.2","0","","","","","",""
"139","","bandit","69","205083","0.0-32.0-18.0","38387013","wem/bandit_single","A15FXHC1CVNW31","gain","3","","75","K","2","","1","0","0","0.6","0","true","0","0.8","0","full_practice","0.2","0","0.6","0","0.2","0","","","","","",""
"62","","bandit","70","206908","0.0-32.0-19.0","38387013","wem/bandit_single","A15FXHC1CVNW31","gain","3","","75","K","2","","1","0","0","0.6","0","true","0","0.8","0","full_practice","0.2","0","0.6","0","0.2","0","","","","","",""
"2159","","text","71","209416","0.0-33.0","38387013","wem/bandit_single","A15FXHC1CVNW31","gain","3","32","","","","","","","","","","","","","","","","","","","","","","","","","",""
"8850","","text","72","219274","0.0-34.0","38387013","wem/bandit_single","A15FXHC1CVNW31","gain","3","32","","","","","","","","","","","","","","","","","","","","","","","","","",""
"5793","","text","73","225075","0.0-35.0","38387013","wem/bandit_single","A15FXHC1CVNW31","gain","3","32","","","","","","","","","","","","","","","","","","","","","","","","","",""
"7696","","text","74","232778","0.0-36.0","38387013","wem/bandit_single","A15FXHC1CVNW31","gain","3","32","","","","","","","","","","","","","","","","","","","","","","","","","",""
"4325","","text","75","237113","0.0-37.0","38387013","wem/bandit_single","A15FXHC1CVNW31","gain","3","32","","","","","","","","","","","","","","","","","","","","","","","","","",""
"1660","","bandit","76","240292","0.0-38.0-0.0","38387013","wem/bandit_single","A15FXHC1CVNW31","gain","3","","72","H","0","img/none_selected.jpg","0","0","1","0.2211287853","","false","1","0.2211287853","","main_expt","0.2015711498","","0.06813583588","","0.3417032333","","","","","","",""
"500","","bandit","77","242561","0.0-39.0-0.0","38387013","wem/bandit_single","A15FXHC1CVNW31","gain","3","","74","J","1","","0","0","1","0.1868286341","","false","2","0.2921894834","","main_expt","0.1868286341","","0.08840771113","","0.3935143322","","","","","","",""
"50","","bandit","78","244506","0.0-40.0-0.0","38387013","wem/bandit_single","A15FXHC1CVNW31","gain","3","","75","K","2","","0","0","1","0.14311428","","false","3","0.2712314767","","main_expt","0.2285659085","","0.14311428","","0.3247841161","","","","","","",""
"411","","bandit","79","246727","0.0-41.0-0.0","38387013","wem/bandit_single","A15FXHC1CVNW31","gain","3","","76","L","3","","1","0","0","0.3524809632","","false","4","0.3501044345","","main_expt","0.2587006496","","0.1389033164","","0.3524809632","","","","","","",""
"165","","bandit","80","249129","0.0-42.0-0.0","38387013","wem/bandit_single","A15FXHC1CVNW31","gain","3","","76","L","3","","0","0","1","0.3243282494","","false","5","0.3826883046","","main_expt","0.2238216231","","0.1064755534","","0.3243282494","","","","","","",""
"151","","bandit","81","251071","0.0-43.0-0.0","38387013","wem/bandit_single","A15FXHC1CVNW31","gain","3","","76","L","3","","0","0","1","0.3856520047","","false","6","0.3538977559","","main_expt","0.2114086621","","0.07607549968","","0.3856520047","","","","","","",""
"977","","bandit","82","253809","0.0-44.0-0.0","38387013","wem/bandit_single","A15FXHC1CVNW31","gain","3","","76","L","3","","0","0","1","0.3595299576","","false","7","0.3911179113","","main_expt","0.225256176","","0.0490522351","","0.3595299576","","","","","","",""
"11","","bandit","83","255653","0.0-45.0-0.0","38387013","wem/bandit_single","A15FXHC1CVNW31","gain","3","","75","K","2","","0","0","1","0.04564729275","","false","8","0.3378010318","","main_expt","0.1920600422","","0.04564729275","","0.2908809246","","","","","","",""
"74","","bandit","84","257490","0.0-46.0-0.0","38387013","wem/bandit_single","A15FXHC1CVNW31","gain","3","","74","J","1","","0","0","1","0.222474992","","false","9","0.3584091786","","main_expt","0.222474992","","0.05361883364","","0.3401169694","","","","","","",""
"61","","bandit","85","259313","0.0-47.0-0.0","38387013","wem/bandit_single","A15FXHC1CVNW31","gain","3","","74","J","1","","0","0","1","0.1720297318","","false","10","0.3822252457","","main_expt","0.1720297318","","0.05689605437","","0.370347707","","","","","","",""
"166","","bandit","86","261241","0.0-48.0-0.0","38387013","wem/bandit_single","A15FXHC1CVNW31","gain","3","","72","H","0","img/none_selected.jpg","0","0","1","0.4003480189","","false","11","0.4003480189","","main_expt","0.1672236423","","0.05596529361","","0.3385652673","","","","","","",""
"46","","bandit","87","263060","0.0-49.0-0.0","38387013","wem/bandit_single","A15FXHC1CVNW31","gain","3","","72","H","0","img/none_selected.jpg","1","0","0","0.4035898181","","false","12","0.4035898181","","main_expt","0.1908353862","","0.07455145674","","0.3433253296","","","","","","",""
"95","","bandit","88","264968","0.0-50.0-0.0","38387013","wem/bandit_single","A15FXHC1CVNW31","gain","3","","72","H","0","img/none_selected.jpg","0","0","1","0.3939267589","","false","13","0.3939267589","","main_expt","0.1373256951","","0.1061797552","","0.3306460316","","","","","","",""
"5","","bandit","89","266740","0.0-51.0-0.0","38387013","wem/bandit_single","A15FXHC1CVNW31","gain","3","","72","H","0","img/none_selected.jpg","0","0","1","0.4058751809","","false","14","0.4058751809","","main_expt","0.1605467602","","0.09003395111","","0.3423394156","","","","","","",""
"130","","bandit","90","268642","0.0-52.0-0.0","38387013","wem/bandit_single","A15FXHC1CVNW31","gain","3","","72","H","0","img/none_selected.jpg","0","0","1","0.3784768297","","false","15","0.3784768297","","main_expt","0.1270826231","","0.09190110762","","0.3514631564","","","","","","",""
"103","","bandit","91","270512","0.0-53.0-0.0","38387013","wem/bandit_single","A15FXHC1CVNW31","gain","3","","74","J","1","","1","0","0","0.1659789958","","false","16","0.3742197382","","main_expt","0.1659789958","","0.1119147711","","0.3763865137","","","","","","",""
"26","","bandit","92","272304","0.0-54.0-0.0","38387013","wem/bandit_single","A15FXHC1CVNW31","gain","3","","74","J","1","","0","0","1","0.1810296119","","false","17","0.3738750299","","main_expt","0.1810296119","","0.1268228496","","0.3613216018","","","","","","",""
"71","","bandit","93","274138","0.0-55.0-0.0","38387013","wem/bandit_single","A15FXHC1CVNW31","gain","3","","74","J","1","","0","0","1","0.2209588372","","false","18","0.30878177","","main_expt","0.2209588372","","0.160542793","","0.3354311471","","","","","","",""
"86","","bandit","94","276023","0.0-56.0-0.0","38387013","wem/bandit_single","A15FXHC1CVNW31","gain","3","","74","J","1","","0","0","1","0.1577150754","","false","19","0.3257740717","","main_expt","0.1577150754","","0.1913020378","","0.3151580681","","","","","","",""
"159","","bandit","95","277944","0.0-57.0-0.0","38387013","wem/bandit_single","A15FXHC1CVNW31","gain","3","","75","K","2","","0","0","1","0.2201213849","","false","20","0.2780557495","","main_expt","0.2368366468","","0.2201213849","","0.2633525784","","","","","","",""
"78","","bandit","96","279783","0.0-58.0-0.0","38387013","wem/bandit_single","A15FXHC1CVNW31","gain","3","","75","K","2","","0","0","1","0.1747441944","","false","21","0.2552615423","","main_expt","0.1692925459","","0.1747441944","","0.2730255539","","","","","","",""
"527","","bandit","97","282070","0.0-59.0-0.0","38387013","wem/bandit_single","A15FXHC1CVNW31","gain","3","","75","K","2","","1","0","0","0.1407764438","","false","22","0.2862558775","","main_expt","0.144462955","","0.1407764438","","0.2366183143","","","","","","",""
"15","","bandit","98","283848","0.0-60.0-0.0","38387013","wem/bandit_single","A15FXHC1CVNW31","gain","3","","75","K","2","","1","0","0","0.1444197889","","false","23","0.290674517","","main_expt","0.1928882479","","0.1444197889","","0.2193011186","","","","","","",""
"151","","bandit","99","285759","0.0-61.0-0.0","38387013","wem/bandit_single","A15FXHC1CVNW31","gain","3","","75","K","2","","0","0","1","0.1898422889","","false","24","0.2669553567","","main_expt","0.2077361259","","0.1898422889","","0.2058852999","","","","","","",""
"110","","bandit","100","287629","0.0-62.0-0.0","38387013","wem/bandit_single","A15FXHC1CVNW31","gain","3","","75","K","2","","0","0","1","0.2319991336","","false","25","0.2134469473","","main_expt","0.2580980749","","0.2319991336","","0.2377147794","","","","","","",""
"117","","bandit","101","289534","0.0-63.0-0.0","38387013","wem/bandit_single","A15FXHC1CVNW31","gain","3","","76","L","3","","0","0","1","0.3017638279","","false","26","0.2027981442","","main_expt","0.2593960467","","0.2140617454","","0.3017638279","","","","","","",""
"57","","bandit","102","291349","0.0-64.0-0.0","38387013","wem/bandit_single","A15FXHC1CVNW31","gain","3","","76","L","3","","0","0","1","0.2647551657","","false","27","0.1669761534","","main_expt","0.2913294918","","0.2186733942","","0.2647551657","","","","","","",""
"24","","bandit","103","293137","0.0-65.0-0.0","38387013","wem/bandit_single","A15FXHC1CVNW31","gain","3","","76","L","3","","1","0","0","0.2864353885","","false","28","0.1301617017","","main_expt","0.2838721205","","0.2573772923","","0.2864353885","","","","","","",""
"102","","bandit","104","295008","0.0-66.0-0.0","38387013","wem/bandit_single","A15FXHC1CVNW31","gain","3","","76","L","3","","1","0","0","0.2669447337","","false","29","0.1540227795","","main_expt","0.2225595658","","0.2563684882","","0.2669447337","","","","","","",""
"117","","bandit","105","296896","0.0-67.0-0.0","38387013","wem/bandit_single","A15FXHC1CVNW31","gain","3","","76","L","3","","0","0","1","0.242519946","","false","30","0.1290956128","","main_expt","0.2450998207","","0.3180657859","","0.242519946","","","","","","",""
"560","","bandit","106","299230","0.0-68.0-0.0","38387013","wem/bandit_single","A15FXHC1CVNW31","gain","3","","76","L","3","","0","0","1","0.1808952067","","false","31","0.157476084","","main_expt","0.2358374841","","0.3391977199","","0.1808952067","","","","","","",""
"42","","bandit","107","301042","0.0-69.0-0.0","38387013","wem/bandit_single","A15FXHC1CVNW31","gain","3","","75","K","2","","1","0","0","0.3655242212","","false","32","0.1667461438","","main_expt","0.2465538883","","0.3655242212","","0.1490402933","","","","","","",""
"48","","bandit","108","302915","0.0-70.0-0.0","38387013","wem/bandit_single","A15FXHC1CVNW31","gain","3","","75","K","2","","0","0","1","0.3476833293","","false","33","0.1698659255","","main_expt","0.2479029149","","0.3476833293","","0.1607825008","","","","","","",""
"89","","bandit","109","304765","0.0-71.0-0.0","38387013","wem/bandit_single","A15FXHC1CVNW31","gain","3","","75","K","2","","1","0","0","0.3287357547","","false","34","0.1830702822","","main_expt","0.1813792252","","0.3287357547","","0.2019438485","","","","","","",""
"34","","bandit","110","306613","0.0-72.0-0.0","38387013","wem/bandit_single","A15FXHC1CVNW31","gain","3","","75","K","2","","0","0","1","0.3568635533","","false","35","0.1648441896","","main_expt","0.1507873856","","0.3568635533","","0.1187506792","","","","","","",""
"9","","bandit","111","308415","0.0-73.0-0.0","38387013","wem/bandit_single","A15FXHC1CVNW31","gain","3","","75","K","2","","0","0","1","0.2559818432","","false","36","0.1702375356","","main_expt","0.185146395","","0.2559818432","","0.107122158","","","","","","",""
"90","","bandit","112","310275","0.0-74.0-0.0","38387013","wem/bandit_single","A15FXHC1CVNW31","gain","3","","76","L","3","","0","0","1","0.1462043769","","false","37","0.1248493821","","main_expt","0.1995500277","","0.2095103509","","0.1462043769","","","","","","",""
"9","","bandit","113","312046","0.0-75.0-0.0","38387013","wem/bandit_single","A15FXHC1CVNW31","gain","3","","76","L","3","","0","0","1","0.1562864446","","false","38","0.1806095344","","main_expt","0.2324476024","","0.1824107212","","0.1562864446","","","","","","",""
"108","","bandit","114","313921","0.0-76.0-0.0","38387013","wem/bandit_single","A15FXHC1CVNW31","gain","3","","74","J","1","","1","0","0","0.2374336796","","false","39","0.1636381498","","main_expt","0.2374336796","","0.180532013","","0.1425148763","","","","","","",""
"77","","bandit","115","315768","0.0-77.0-0.0","38387013","wem/bandit_single","A15FXHC1CVNW31","gain","3","","74","J","1","","0","0","1","0.1871034738","","false","40","0.128328165","","main_expt","0.1871034738","","0.209403608","","0.1332413707","","","","","","",""
"33","","bandit","116","317567","0.0-78.0-0.0","38387013","wem/bandit_single","A15FXHC1CVNW31","gain","3","","74","J","1","","1","0","0","0.1923798107","","false","41","0.1128848486","","main_expt","0.1923798107","","0.1790729352","","0.170838957","","","","","","",""
"2","","bandit","117","319352","0.0-79.0-0.0","38387013","wem/bandit_single","A15FXHC1CVNW31","gain","3","","74","J","1","","0","0","1","0.2175202152","","false","42","0.1024028154","","main_expt","0.2175202152","","0.1586268334","","0.221577246","","","","","","",""
"1672","","bandit","118","322872","0.0-80.0-0.0","38387013","wem/bandit_single","A15FXHC1CVNW31","gain","3","","72","H","0","img/none_selected.jpg","0","0","1","0.1842117743","","false","43","0.1842117743","","main_expt","0.199004634","","0.1953085145","","0.2937465132","","","","","","",""
"169","","bandit","119","324806","0.0-81.0-0.0","38387013","wem/bandit_single","A15FXHC1CVNW31","gain","3","","74","J","1","","0","0","1","0.1979694218","","false","44","0.2398699605","","main_expt","0.1979694218","","0.229373846","","0.2473378206","","","","","","",""
"158","","bandit","120","326729","0.0-82.0-0.0","38387013","wem/bandit_single","A15FXHC1CVNW31","gain","3","","74","J","1","","0","0","1","0.1992427108","","false","45","0.2666943954","","main_expt","0.1992427108","","0.2387173179","","0.2911711657","","","","","","",""
"131","","bandit","121","328632","0.0-83.0-0.0","38387013","wem/bandit_single","A15FXHC1CVNW31","gain","3","","75","K","2","","0","0","1","0.2142046797","","false","46","0.3187479261","","main_expt","0.2240306516","","0.2142046797","","0.2520057509","","","","","","",""
"483","","bandit","122","330877","0.0-84.0-0.0","38387013","wem/bandit_single","A15FXHC1CVNW31","gain","3","","76","L","3","","0","0","1","0.2527148282","","false","47","0.3190608455","","main_expt","0.2065012218","","0.2454335886","","0.2527148282","","","","","","",""
"87","","bandit","123","332727","0.0-85.0-0.0","38387013","wem/bandit_single","A15FXHC1CVNW31","gain","3","","74","J","1","","0","0","1","0.1926440163","","false","48","0.3135096665","","main_expt","0.1926440163","","0.2810950816","","0.273334487","","","","","","",""
"262","","bandit","124","334759","0.0-86.0-0.0","38387013","wem/bandit_single","A15FXHC1CVNW31","gain","3","","74","J","1","","0","0","1","0.1670810943","","false","49","0.3341811191","","main_expt","0.1670810943","","0.2547597437","","0.3181736471","","","","","","",""
"271","","bandit","125","336797","0.0-87.0-0.0","38387013","wem/bandit_single","A15FXHC1CVNW31","gain","3","","72","H","0","img/none_selected.jpg","0","0","1","0.3459923598","","false","50","0.3459923598","","main_expt","0.1198069869","","0.224323175","","0.3806153608","","","","","","",""
"2","","bandit","126","338560","0.0-88.0-0.0","38387013","wem/bandit_single","A15FXHC1CVNW31","gain","3","","74","J","1","","0","0","1","0.103394302","","false","51","0.3331953563","","main_expt","0.103394302","","0.2755477452","","0.3949296296","","","","","","",""
"53","","bandit","127","340377","0.0-89.0-0.0","38387013","wem/bandit_single","A15FXHC1CVNW31","gain","3","","74","J","1","","0","0","1","0.1018912343","","false","52","0.3915962888","","main_expt","0.1018912343","","0.3022170302","","0.3544293331","","","","","","",""
"176","","bandit","128","342326","0.0-90.0-0.0","38387013","wem/bandit_single","A15FXHC1CVNW31","gain","3","","75","K","2","","0","0","1","0.2886203433","","false","53","0.3984086051","","main_expt","0.07233269407","","0.2886203433","","0.3007967805","","","","","","",""
"155","","bandit","129","344246","0.0-91.0-0.0","38387013","wem/bandit_single","A15FXHC1CVNW31","gain","3","","76","L","3","","0","0","1","0.3376398899","","false","54","0.4181407331","","main_expt","0.09210147888","","0.3072524501","","0.3376398899","","","","","","",""
"86","","bandit","130","346094","0.0-92.0-0.0","38387013","wem/bandit_single","A15FXHC1CVNW31","gain","3","","76","L","3","","1","0","0","0.3625264345","","false","55","0.3964386999","","main_expt","0.08866102842","","0.3847595325","","0.3625264345","","","","","","",""
"164","","bandit","131","348032","0.0-93.0-0.0","38387013","wem/bandit_single","A15FXHC1CVNW31","gain","3","","76","L","3","","1","0","0","0.313137485","","false","56","0.4043277199","","main_expt","0.1208391037","","0.4008313728","","0.313137485","","","","","","",""
"141","","bandit","132","349998","0.0-94.0-0.0","38387013","wem/bandit_single","A15FXHC1CVNW31","gain","3","","76","L","3","","1","0","0","0.3287581384","","false","57","0.3232173094","","main_expt","0.1429525169","","0.3763680666","","0.3287581384","","","","","","",""
"13","","bandit","133","351773","0.0-95.0-0.0","38387013","wem/bandit_single","A15FXHC1CVNW31","gain","3","","76","L","3","","0","0","1","0.2891608333","","false","58","0.3352595409","","main_expt","0.1800007821","","0.3630839511","","0.2891608333","","","","","","",""
"56","","bandit","134","353592","0.0-96.0-0.0","38387013","wem/bandit_single","A15FXHC1CVNW31","gain","3","","76","L","3","","0","0","1","0.2228703537","","false","59","0.3423270404","","main_expt","0.1168587732","","0.3166885591","","0.2228703537","","","","","","",""
"104","","bandit","135","355466","0.0-97.0-0.0","38387013","wem/bandit_single","A15FXHC1CVNW31","gain","3","","76","L","3","","0","0","1","0.2694349638","","false","60","0.3326485747","","main_expt","0.08966050757","","0.3339947878","","0.2694349638","","","","","","",""
"64","","bandit","136","357293","0.0-98.0-0.0","38387013","wem/bandit_single","A15FXHC1CVNW31","gain","3","","75","K","2","","0","0","1","0.3559621948","","false","61","0.3239501662","","main_expt","0.06827284498","","0.3559621948","","0.3291501217","","","","","","",""
"2","","bandit","137","359099","0.0-99.0-0.0","38387013","wem/bandit_single","A15FXHC1CVNW31","gain","3","","76","L","3","","1","0","0","0.3516688484","","false","62","0.3140158541","","main_expt","0.0870528816","","0.3565904981","","0.3516688484","","","","","","",""
"105","","bandit","138","361007","0.0-100.0-0.0","38387013","wem/bandit_single","A15FXHC1CVNW31","gain","3","","76","L","3","","0","0","1","0.3662001291","","false","63","0.2896297009","","main_expt","0.07384780705","","0.3766945074","","0.3662001291","","","","","","",""
"16","","bandit","139","362792","0.0-101.0-0.0","38387013","wem/bandit_single","A15FXHC1CVNW31","gain","3","","76","L","3","","1","0","0","0.3986377969","","false","64","0.2848001348","","main_expt","0.09386223648","","0.4038560084","","0.3986377969","","","","","","",""
"136","","bandit","140","364697","0.0-102.0-0.0","38387013","wem/bandit_single","A15FXHC1CVNW31","gain","3","","76","L","3","","0","0","1","0.4284050928","","false","65","0.2621939157","","main_expt","0.08656227431","","0.4081833366","","0.4284050928","","","","","","",""
"95","","bandit","141","366558","0.0-103.0-0.0","38387013","wem/bandit_single","A15FXHC1CVNW31","gain","3","","76","L","3","","1","0","0","0.4295130084","","false","66","0.2218985249","","main_expt","0.1254260964","","0.4111507483","","0.4295130084","","","","","","",""
"166","","bandit","142","368495","0.0-104.0-0.0","38387013","wem/bandit_single","A15FXHC1CVNW31","gain","3","","76","L","3","","0","0","1","0.4192215244","","false","67","0.2203007364","","main_expt","0.0848557225","","0.3731562577","","0.4192215244","","","","","","",""
"178","","bandit","143","370436","0.0-105.0-0.0","38387013","wem/bandit_single","A15FXHC1CVNW31","gain","3","","75","K","2","","0","0","1","0.3471707475","","false","68","0.2163243509","","main_expt","0.1277621339","","0.3471707475","","0.4617344849","","","","","","",""
"181","","bandit","144","372388","0.0-106.0-0.0","38387013","wem/bandit_single","A15FXHC1CVNW31","gain","3","","76","L","3","","1","0","0","0.4496684627","","false","69","0.1552451017","","main_expt","0.1425885083","","0.3163780081","","0.4496684627","","","","","","",""
"170","","bandit","145","374331","0.0-107.0-0.0","38387013","wem/bandit_single","A15FXHC1CVNW31","gain","3","","76","L","3","","1","0","0","0.4572021165","","false","70","0.144295094","","main_expt","0.1765985622","","0.2872849644","","0.4572021165","","","","","","",""
"36","","bandit","146","376133","0.0-108.0-0.0","38387013","wem/bandit_single","A15FXHC1CVNW31","gain","3","","76","L","3","","1","0","0","0.457930868","","false","71","0.1823242822","","main_expt","0.1520060204","","0.300298776","","0.457930868","","","","","","",""
"60","","bandit","147","378006","0.0-109.0-0.0","38387013","wem/bandit_single","A15FXHC1CVNW31","gain","3","","76","L","3","","1","0","0","0.4687468973","","false","72","0.144478384","","main_expt","0.09933583891","","0.3280152389","","0.4687468973","","","","","","",""
"162","","bandit","148","379966","0.0-110.0-0.0","38387013","wem/bandit_single","A15FXHC1CVNW31","gain","3","","76","L","3","","1","0","0","0.4707862587","","false","73","0.1420634247","","main_expt","0.1087995109","","0.2758062481","","0.4707862587","","","","","","",""
"30","","bandit","149","381768","0.0-111.0-0.0","38387013","wem/bandit_single","A15FXHC1CVNW31","gain","3","","76","L","3","","0","0","1","0.4602293826","","false","74","0.1358649702","","main_expt","0.150223613","","0.3370537031","","0.4602293826","","","","","","",""
"10","","bandit","150","383542","0.0-112.0-0.0","38387013","wem/bandit_single","A15FXHC1CVNW31","gain","3","","76","L","3","","0","0","1","0.439891953","","false","75","0.09700523291","","main_expt","0.1945690608","","0.3323795279","","0.439891953","","","","","","",""
"124","","bandit","151","385429","0.0-113.0-0.0","38387013","wem/bandit_single","A15FXHC1CVNW31","gain","3","","76","L","3","","1","0","0","0.4424180744","","false","76","0.07829726083","","main_expt","0.2454913388","","0.3822428931","","0.4424180744","","","","","","",""
"60","","bandit","152","387261","0.0-114.0-0.0","38387013","wem/bandit_single","A15FXHC1CVNW31","gain","3","","76","L","3","","1","0","0","0.4066280348","","false","77","0.08460916486","","main_expt","0.2181262922","","0.4136836411","","0.4066280348","","","","","","",""
"72","","bandit","153","389101","0.0-115.0-0.0","38387013","wem/bandit_single","A15FXHC1CVNW31","gain","3","","76","L","3","","1","0","0","0.3969262671","","false","78","0.0875988483","","main_expt","0.2500794828","","0.4505469687","","0.3969262671","","","","","","",""
"12","","bandit","154","390875","0.0-116.0-0.0","38387013","wem/bandit_single","A15FXHC1CVNW31","gain","3","","76","L","3","","1","0","0","0.4119020232","","false","79","0.06491107755","","main_expt","0.2021405589","","0.4251749511","","0.4119020232","","","","","","",""
"160","","bandit","155","392800","0.0-117.0-0.0","38387013","wem/bandit_single","A15FXHC1CVNW31","gain","3","","76","L","3","","1","0","0","0.3797331509","","false","80","0.1021818806","","main_expt","0.1654874554","","0.3976376265","","0.3797331509","","","","","","",""
"113","","bandit","156","394692","0.0-118.0-0.0","38387013","wem/bandit_single","A15FXHC1CVNW31","gain","3","","76","L","3","","1","0","0","0.4024270851","","false","81","0.07175209231","","main_expt","0.1281487551","","0.409462467","","0.4024270851","","","","","","",""
"139","","bandit","157","396594","0.0-119.0-0.0","38387013","wem/bandit_single","A15FXHC1CVNW31","gain","3","","76","L","3","","0","0","1","0.3976574516","","false","82","0.04651379375","","main_expt","0.1167166884","","0.4541942335","","0.3976574516","","","","","","",""
"48","","bandit","158","398443","0.0-120.0-0.0","38387013","wem/bandit_single","A15FXHC1CVNW31","gain","3","","76","L","3","","1","0","0","0.3749492802","","false","83","0.03148502893","","main_expt","0.1426109787","","0.4452160763","","0.3749492802","","","","","","",""
"107","","bandit","159","400318","0.0-121.0-0.0","38387013","wem/bandit_single","A15FXHC1CVNW31","gain","3","","76","L","3","","0","0","1","0.4021863709","","false","84","0.05186863446","","main_expt","0.121887906","","0.438985114","","0.4021863709","","","","","","",""
"197","","bandit","160","402296","0.0-122.0-0.0","38387013","wem/bandit_single","A15FXHC1CVNW31","gain","3","","76","L","3","","0","0","1","0.3624574422","","false","85","0.04986731509","","main_expt","0.1361926199","","0.4331173667","","0.3624574422","","","","","","",""
"184","","bandit","161","404244","0.0-123.0-0.0","38387013","wem/bandit_single","A15FXHC1CVNW31","gain","3","","76","L","3","","0","0","1","0.387939101","","false","86","0.05891938772","","main_expt","0.1287871674","","0.447547065","","0.387939101","","","","","","",""
"45","","bandit","162","406055","0.0-124.0-0.0","38387013","wem/bandit_single","A15FXHC1CVNW31","gain","3","","76","L","3","","1","0","0","0.3949621072","","false","87","0.06619539979","","main_expt","0.13112728","","0.4451560311","","0.3949621072","","","","","","",""
"26","","bandit","163","407853","0.0-125.0-0.0","38387013","wem/bandit_single","A15FXHC1CVNW31","gain","3","","76","L","3","","0","0","1","0.3789082299","","false","88","0.03553047297","","main_expt","0.1385028762","","0.4010299359","","0.3789082299","","","","","","",""
"113","","bandit","164","409732","0.0-126.0-0.0","38387013","wem/bandit_single","A15FXHC1CVNW31","gain","3","","76","L","3","","1","0","0","0.3718344374","","false","89","0.03983007571","","main_expt","0.1377901848","","0.430672582","","0.3718344374","","","","","","",""
"28","","bandit","165","411523","0.0-127.0-0.0","38387013","wem/bandit_single","A15FXHC1CVNW31","gain","3","","76","L","3","","0","0","1","0.4341719303","","false","90","0.02618566652","","main_expt","0.1642812903","","0.4063924327","","0.4341719303","","","","","","",""
"173","","bandit","166","413464","0.0-128.0-0.0","38387013","wem/bandit_single","A15FXHC1CVNW31","gain","3","","76","L","3","","0","0","1","0.4538289377","","false","91","0.03325063158","","main_expt","0.2115922749","","0.4115689239","","0.4538289377","","","","","","",""
"168","","bandit","167","415413","0.0-129.0-0.0","38387013","wem/bandit_single","A15FXHC1CVNW31","gain","3","","76","L","3","","0","0","1","0.4508501544","","false","92","0.02042352937","","main_expt","0.1819790886","","0.4195244723","","0.4508501544","","","","","","",""
"428","","bandit","168","417612","0.0-130.0-0.0","38387013","wem/bandit_single","A15FXHC1CVNW31","gain","3","","76","L","3","","0","0","1","0.4548943395","","false","93","0.01887694535","","main_expt","0.2039146085","","0.3976010387","","0.4548943395","","","","","","",""
"8213","","bandit","169","427593","0.0-131.0-0.0","38387013","wem/bandit_single","A15FXHC1CVNW31","gain","3","","76","L","3","","1","0","0","0.4646086811","","false","94","0.02367451168","","main_expt","0.2307813202","","0.3668479885","","0.4646086811","","","","","","",""
"9","","bandit","170","429373","0.0-132.0-0.0","38387013","wem/bandit_single","A15FXHC1CVNW31","gain","3","","76","L","3","","0","0","1","0.467541367","","false","95","0.02723032617","","main_expt","0.2213313998","","0.3332342888","","0.467541367","","","","","","",""
"105","","bandit","171","431244","0.0-133.0-0.0","38387013","wem/bandit_single","A15FXHC1CVNW31","gain","3","","75","K","2","","0","0","1","0.2884910782","","false","96","0.02648196594","","main_expt","0.2568515079","","0.2884910782","","0.4642351642","","","","","","",""
"173","","bandit","172","433185","0.0-134.0-0.0","38387013","wem/bandit_single","A15FXHC1CVNW31","gain","3","","76","L","3","","0","0","1","0.4467755515","","false","97","0.01585024216","","main_expt","0.2699845376","","0.2656891479","","0.4467755515","","","","","","",""
"89","","bandit","173","435070","0.0-135.0-0.0","38387013","wem/bandit_single","A15FXHC1CVNW31","gain","3","","76","L","3","","0","0","1","0.4056350907","","false","98","0.01169409205","","main_expt","0.2797451528","","0.2595300749","","0.4056350907","","","","","","",""
"65","","bandit","174","436899","0.0-136.0-0.0","38387013","wem/bandit_single","A15FXHC1CVNW31","gain","3","","76","L","3","","0","0","1","0.339742379","","false","99","0.01197913588","","main_expt","0.3187705275","","0.2519900202","","0.339742379","","","","","","",""
"49","","bandit","175","438718","0.0-137.0-0.0","38387013","wem/bandit_single","A15FXHC1CVNW31","gain","3","","74","J","1","","1","0","0","0.3570824245","","false","100","0.01759776774","","main_expt","0.3570824245","","0.2523409295","","0.3381167522","","","","","","",""
"111","","bandit","176","440660","0.0-138.0-0.0","38387013","wem/bandit_single","A15FXHC1CVNW31","gain","3","","74","J","1","","1","0","0","0.3489468272","","false","101","0.04295615511","","main_expt","0.3489468272","","0.2146893193","","0.2803213009","","","","","","",""
"166","","bandit","177","442594","0.0-139.0-0.0","38387013","wem/bandit_single","A15FXHC1CVNW31","gain","3","","74","J","1","","0","0","1","0.3015799625","","false","102","0.06572998715","","main_expt","0.3015799625","","0.1843767259","","0.317644571","","","","","","",""
"190","","bandit","178","444617","0.0-140.0-0.0","38387013","wem/bandit_single","A15FXHC1CVNW31","gain","3","","74","J","1","","0","0","1","0.2656450655","","false","103","0.1043212589","","main_expt","0.2656450655","","0.2108432206","","0.3024927185","","","","","","",""
"42","","bandit","179","446439","0.0-141.0-0.0","38387013","wem/bandit_single","A15FXHC1CVNW31","gain","3","","74","J","1","","0","0","1","0.261155182","","false","104","0.07063930719","","main_expt","0.261155182","","0.26792014","","0.3339077782","","","","","","",""
"91","","bandit","180","448358","0.0-142.0-0.0","38387013","wem/bandit_single","A15FXHC1CVNW31","gain","3","","76","L","3","","0","0","1","0.2966783269","","false","105","0.09992353171","","main_expt","0.2794756432","","0.3302583292","","0.2966783269","","","","","","",""
"2","","bandit","181","450131","0.0-143.0-0.0","38387013","wem/bandit_single","A15FXHC1CVNW31","gain","3","","74","J","1","","0","0","1","0.2719827923","","false","106","0.1074399807","","main_expt","0.2719827923","","0.3099187861","","0.3722996478","","","","","","",""
"77","","bandit","182","451974","0.0-144.0-0.0","38387013","wem/bandit_single","A15FXHC1CVNW31","gain","3","","72","H","0","img/none_selected.jpg","0","0","1","0.1398361659","","false","107","0.1398361659","","main_expt","0.2614179637","","0.3526315454","","0.3764369168","","","","","","",""
"108","","bandit","183","453862","0.0-145.0-0.0","38387013","wem/bandit_single","A15FXHC1CVNW31","gain","3","","74","J","1","","0","0","1","0.3154283329","","false","108","0.1503356919","","main_expt","0.3154283329","","0.3741147492","","0.3221289315","","","","","","",""
"20","","bandit","184","455654","0.0-146.0-0.0","38387013","wem/bandit_single","A15FXHC1CVNW31","gain","3","","75","K","2","","1","0","0","0.3775387023","","false","109","0.1554773292","","main_expt","0.3965133924","","0.3775387023","","0.3394272446","","","","","","",""
"74","","bandit","185","457495","0.0-147.0-0.0","38387013","wem/bandit_single","A15FXHC1CVNW31","gain","3","","75","K","2","","1","0","0","0.3603169275","","false","110","0.1862379276","","main_expt","0.4096679205","","0.3603169275","","0.3108194313","","","","","","",""
"163","","bandit","186","459500","0.0-148.0-0.0","38387013","wem/bandit_single","A15FXHC1CVNW31","gain","3","","75","K","2","","0","0","1","0.3492898999","","false","111","0.2096222548","","main_expt","0.4107972434","","0.3492898999","","0.2754643313","","","","","","",""
"732","","bandit","187","462002","0.0-149.0-0.0","38387013","wem/bandit_single","A15FXHC1CVNW31","gain","3","","75","K","2","","0","0","1","0.3332089306","","false","112","0.2432579143","","main_expt","0.4229867006","","0.3332089306","","0.2906444469","","","","","","",""
"44","","bandit","188","463810","0.0-150.0-0.0","38387013","wem/bandit_single","A15FXHC1CVNW31","gain","3","","76","L","3","","0","0","1","0.3006146448","","false","113","0.1721880852","","main_expt","0.4045712819","","0.3450976056","","0.3006146448","","","","","","",""
"208","","bandit","189","465800","0.0-151.0-0.0","38387013","wem/bandit_single","A15FXHC1CVNW31","gain","3","","75","K","2","","0","0","1","0.3725565121","","false","114","0.2081909003","","main_expt","0.3821667802","","0.3725565121","","0.2668468313","","","","","","",""
"33","","bandit","190","467610","0.0-152.0-0.0","38387013","wem/bandit_single","A15FXHC1CVNW31","gain","3","","74","J","1","","1","0","0","0.3342096713","","false","115","0.272711811","","main_expt","0.3342096713","","0.3789561431","","0.3032344037","","","","","","",""
"654","","bandit","191","470091","0.0-153.0-0.0","38387013","wem/bandit_single","A15FXHC1CVNW31","gain","3","","74","J","1","","1","0","0","0.3475890958","","false","116","0.2801201945","","main_expt","0.3475890958","","0.3829881954","","0.279678247","","","","","","",""
"30","","bandit","192","471910","0.0-154.0-0.0","38387013","wem/bandit_single","A15FXHC1CVNW31","gain","3","","74","J","1","","0","0","1","0.3545652452","","false","117","0.3615324036","","main_expt","0.3545652452","","0.3872477479","","0.2762620489","","","","","","",""
"81","","bandit","193","473834","0.0-155.0-0.0","38387013","wem/bandit_single","A15FXHC1CVNW31","gain","3","","74","J","1","","1","0","0","0.3542043025","","false","118","0.3615177178","","main_expt","0.3542043025","","0.3952603005","","0.2880572365","","","","","","",""
"101","","bandit","194","475698","0.0-156.0-0.0","38387013","wem/bandit_single","A15FXHC1CVNW31","gain","3","","74","J","1","","1","0","0","0.3471352845","","false","119","0.3875935955","","main_expt","0.3471352845","","0.3838673248","","0.2807620685","","","","","","",""
"44","","bandit","195","477505","0.0-157.0-0.0","38387013","wem/bandit_single","A15FXHC1CVNW31","gain","3","","74","J","1","","1","0","0","0.3343169965","","false","120","0.4052723714","","main_expt","0.3343169965","","0.4148997213","","0.2811576832","","","","","","",""
"125","","bandit","196","479428","0.0-158.0-0.0","38387013","wem/bandit_single","A15FXHC1CVNW31","gain","3","","74","J","1","","0","0","1","0.3595120763","","false","121","0.44462971","","main_expt","0.3595120763","","0.4184259471","","0.3016455194","","","","","","",""
"14","","bandit","197","481212","0.0-159.0-0.0","38387013","wem/bandit_single","A15FXHC1CVNW31","gain","3","","75","K","2","","1","0","0","0.4271141924","","false","122","0.4338931322","","main_expt","0.3296914373","","0.4271141924","","0.3161331551","","","","","","",""
"186","","bandit","198","483163","0.0-160.0-0.0","38387013","wem/bandit_single","A15FXHC1CVNW31","gain","3","","75","K","2","","0","0","1","0.3994299035","","false","123","0.4248885798","","main_expt","0.3369167856","","0.3994299035","","0.2882518765","","","","","","",""
"131","","bandit","199","485062","0.0-161.0-0.0","38387013","wem/bandit_single","A15FXHC1CVNW31","gain","3","","75","K","2","","0","0","1","0.4319292606","","false","124","0.3773411534","","main_expt","0.3181772373","","0.4319292606","","0.3426101702","","","","","","",""
"56","","bandit","200","486892","0.0-162.0-0.0","38387013","wem/bandit_single","A15FXHC1CVNW31","gain","3","","74","J","1","","1","0","0","0.3285823626","","false","125","0.3322500489","","main_expt","0.3285823626","","0.4228137624","","0.3623178769","","","","","","",""
"120","","bandit","201","488777","0.0-163.0-0.0","38387013","wem/bandit_single","A15FXHC1CVNW31","gain","3","","74","J","1","","0","0","1","0.3203566048","","false","126","0.3742157909","","main_expt","0.3203566048","","0.4445824992","","0.3487147863","","","","","","",""
"1","","bandit","202","490540","0.0-164.0-0.0","38387013","wem/bandit_single","A15FXHC1CVNW31","gain","3","","76","L","3","","1","0","0","0.4137567253","","false","127","0.3851047317","","main_expt","0.3852478983","","0.4525048151","","0.4137567253","","","","","","",""
"184","","bandit","203","492492","0.0-165.0-0.0","38387013","wem/bandit_single","A15FXHC1CVNW31","gain","3","","76","L","3","","1","0","0","0.3814482247","","false","128","0.4043255462","","main_expt","0.3389365807","","0.4692783601","","0.3814482247","","","","","","",""
"166","","bandit","204","494427","0.0-166.0-0.0","38387013","wem/bandit_single","A15FXHC1CVNW31","gain","3","","76","L","3","","1","0","0","0.4168244781","","false","129","0.4123407707","","main_expt","0.3137404055","","0.4168961411","","0.4168244781","","","","","","",""
"145","","bandit","205","496341","0.0-167.0-0.0","38387013","wem/bandit_single","A15FXHC1CVNW31","gain","3","","76","L","3","","0","0","1","0.4365918222","","false","130","0.4046971735","","main_expt","0.3258581953","","0.3790243023","","0.4365918222","","","","","","",""
"124","","bandit","206","498251","0.0-168.0-0.0","38387013","wem/bandit_single","A15FXHC1CVNW31","gain","3","","76","L","3","","0","0","1","0.4389841863","","false","131","0.4461276952","","main_expt","0.2883577813","","0.4049885765","","0.4389841863","","","","","","",""
"155","","bandit","207","500185","0.0-169.0-0.0","38387013","wem/bandit_single","A15FXHC1CVNW31","gain","3","","76","L","3","","1","0","0","0.4152650591","","false","132","0.4611465992","","main_expt","0.3560589507","","0.4146365962","","0.4152650591","","","","","","",""
"37","","bandit","208","501986","0.0-170.0-0.0","38387013","wem/bandit_single","A15FXHC1CVNW31","gain","3","","76","L","3","","1","0","0","0.4542457407","","false","133","0.4798080461","","main_expt","0.358394082","","0.3895917514","","0.4542457407","","","","","","",""
"157","","bandit","209","503906","0.0-171.0-0.0","38387013","wem/bandit_single","A15FXHC1CVNW31","gain","3","","76","L","3","","1","0","0","0.4598844585","","false","134","0.4536835414","","main_expt","0.3605573227","","0.4031985028","","0.4598844585","","","","","","",""
"115","","bandit","210","505795","0.0-172.0-0.0","38387013","wem/bandit_single","A15FXHC1CVNW31","gain","3","","76","L","3","","1","0","0","0.4690925783","","false","135","0.4297718384","","main_expt","0.3695471057","","0.3950250086","","0.4690925783","","","","","","",""
"207","","bandit","211","507772","0.0-173.0-0.0","38387013","wem/bandit_single","A15FXHC1CVNW31","gain","3","","76","L","3","","0","0","1","0.4382452635","","false","136","0.4047290025","","main_expt","0.4060603524","","0.3958408827","","0.4382452635","","","","","","",""
"26","","bandit","212","509561","0.0-174.0-0.0","38387013","wem/bandit_single","A15FXHC1CVNW31","gain","3","","76","L","3","","1","0","0","0.4469583278","","false","137","0.4062789173","","main_expt","0.3977168634","","0.4025558346","","0.4469583278","","","","","","",""
"63","","bandit","213","511387","0.0-175.0-0.0","38387013","wem/bandit_single","A15FXHC1CVNW31","gain","3","","76","L","3","","0","0","1","0.44739429","","false","138","0.3893267926","","main_expt","0.3884520433","","0.3901350715","","0.44739429","","","","","","",""
"100","","bandit","214","513262","0.0-176.0-0.0","38387013","wem/bandit_single","A15FXHC1CVNW31","gain","3","","76","L","3","","0","0","1","0.4329330235","","false","139","0.3355070849","","main_expt","0.3517782966","","0.4069565875","","0.4329330235","","","","","","",""
"164","","bandit","215","515194","0.0-177.0-0.0","38387013","wem/bandit_single","A15FXHC1CVNW31","gain","3","","76","L","3","","0","0","1","0.4427321083","","false","140","0.3033729388","","main_expt","0.3147433726","","0.4384632306","","0.4427321083","","","","","","",""
"116","","bandit","216","517073","0.0-178.0-0.0","38387013","wem/bandit_single","A15FXHC1CVNW31","gain","3","","72","H","0","img/none_selected.jpg","1","0","0","0.3495942718","","false","141","0.3495942718","","main_expt","0.315874603","","0.4513823692","","0.4630674526","","","","","","",""
"134","","bandit","217","518968","0.0-179.0-0.0","38387013","wem/bandit_single","A15FXHC1CVNW31","gain","3","","72","H","0","img/none_selected.jpg","1","0","0","0.373744609","","false","142","0.373744609","","main_expt","0.2660579121","","0.4477105457","","0.4678156034","","","","","","",""
"104","","bandit","218","520833","0.0-180.0-0.0","38387013","wem/bandit_single","A15FXHC1CVNW31","gain","3","","72","H","0","img/none_selected.jpg","1","0","0","0.3983109068","","false","143","0.3983109068","","main_expt","0.2791435274","","0.4399018081","","0.4556942345","","","","","","",""
"46","","bandit","219","522640","0.0-181.0-0.0","38387013","wem/bandit_single","A15FXHC1CVNW31","gain","3","","72","H","0","img/none_selected.jpg","1","0","0","0.4290647624","","false","144","0.4290647624","","main_expt","0.3232226047","","0.3929519584","","0.4606745253","","","","","","",""
"151","","bandit","220","524552","0.0-182.0-0.0","38387013","wem/bandit_single","A15FXHC1CVNW31","gain","3","","72","H","0","img/none_selected.jpg","0","0","1","0.4360055891","","false","145","0.4360055891","","main_expt","0.2863527335","","0.3638959839","","0.4493721712","","","","","","",""
"151","","bandit","221","526464","0.0-183.0-0.0","38387013","wem/bandit_single","A15FXHC1CVNW31","gain","3","","72","H","0","img/none_selected.jpg","1","0","0","0.4408793748","","false","146","0.4408793748","","main_expt","0.2399582054","","0.3109408856","","0.411205332","","","","","","",""
"198","","bandit","222","528423","0.0-184.0-0.0","38387013","wem/bandit_single","A15FXHC1CVNW31","gain","3","","72","H","0","img/none_selected.jpg","0","0","1","0.4152856751","","false","147","0.4152856751","","main_expt","0.2186627863","","0.303790043","","0.4091009254","","","","","","",""
"31","","bandit","223","530248","0.0-185.0-0.0","38387013","wem/bandit_single","A15FXHC1CVNW31","gain","3","","72","H","0","img/none_selected.jpg","0","0","1","0.400149315","","false","148","0.400149315","","main_expt","0.233860686","","0.2836070719","","0.3878952866","","","","","","",""
"55","","bandit","224","532074","0.0-186.0-0.0","38387013","wem/bandit_single","A15FXHC1CVNW31","gain","3","","74","J","1","","0","0","1","0.2752018233","","false","149","0.4081055764","","main_expt","0.2752018233","","0.2132997302","","0.39239053","","","","","","",""
"106","","bandit","225","533944","0.0-187.0-0.0","38387013","wem/bandit_single","A15FXHC1CVNW31","gain","3","","72","H","0","img/none_selected.jpg","0","0","1","0.3946041437","","false","150","0.3946041437","","main_expt","0.2306982087","","0.1906505553","","0.3869122725","","","","","","",""
"157","","bandit","226","535864","0.0-188.0-0.0","38387013","wem/bandit_single","A15FXHC1CVNW31","gain","3","","75","K","2","","0","0","1","0.1887938372","","false","151","0.3517385329","","main_expt","0.272940168","","0.1887938372","","0.3562084687","","","","","","",""
"153","","bandit","227","537788","0.0-189.0-0.0","38387013","wem/bandit_single","A15FXHC1CVNW31","gain","3","","76","L","3","","1","0","0","0.3975166132","","false","152","0.33807167","","main_expt","0.246833375","","0.1452925277","","0.3975166132","","","","","","",""
"122","","bandit","228","539689","0.0-190.0-0.0","38387013","wem/bandit_single","A15FXHC1CVNW31","gain","3","","76","L","3","","0","0","1","0.4221253747","","false","153","0.3507556502","","main_expt","0.2555278221","","0.1236287895","","0.4221253747","","","","","","",""
"16","","bandit","229","541472","0.0-191.0-0.0","38387013","wem/bandit_single","A15FXHC1CVNW31","gain","3","","76","L","3","","1","0","0","0.3887365422","","false","154","0.3484399371","","main_expt","0.1964980564","","0.119712108","","0.3887365422","","","","","","",""
"87","","bandit","230","543322","0.0-192.0-0.0","38387013","wem/bandit_single","A15FXHC1CVNW31","gain","3","","76","L","3","","0","0","1","0.3935049101","","false","155","0.4023996329","","main_expt","0.2158986014","","0.1638630184","","0.3935049101","","","","","","",""
"174","","bandit","231","545269","0.0-193.0-0.0","38387013","wem/bandit_single","A15FXHC1CVNW31","gain","3","","76","L","3","","0","0","1","0.4185769797","","false","156","0.3489947109","","main_expt","0.2269609611","","0.138562935","","0.4185769797","","","","","","",""
"100","","bandit","232","547193","0.0-194.0-0.0","38387013","wem/bandit_single","A15FXHC1CVNW31","gain","3","","72","H","0","img/none_selected.jpg","1","0","0","0.3223479281","","false","157","0.3223479281","","main_expt","0.2997599927","","0.1424057266","","0.412821327","","","","","","",""
"28","","bandit","233","548992","0.0-195.0-0.0","38387013","wem/bandit_single","A15FXHC1CVNW31","gain","3","","72","H","0","img/none_selected.jpg","0","0","1","0.3334556671","","false","158","0.3334556671","","main_expt","0.2608946303","","0.1068688432","","0.4433072999","","","","","","",""
"170","","bandit","234","550932","0.0-196.0-0.0","38387013","wem/bandit_single","A15FXHC1CVNW31","gain","3","","72","H","0","img/none_selected.jpg","1","0","0","0.3686402331","","false","159","0.3686402331","","main_expt","0.2927903113","","0.08394897778","","0.4600675837","","","","","","",""
"160","","bandit","235","552866","0.0-197.0-0.0","38387013","wem/bandit_single","A15FXHC1CVNW31","gain","3","","72","H","0","img/none_selected.jpg","0","0","1","0.3711838842","","false","160","0.3711838842","","main_expt","0.3165869591","","0.09909711901","","0.449399373","","","","","","",""
"28","","bandit","236","554663","0.0-198.0-0.0","38387013","wem/bandit_single","A15FXHC1CVNW31","gain","3","","72","H","0","img/none_selected.jpg","0","0","1","0.385982022","","false","161","0.385982022","","main_expt","0.3355773311","","0.09256485174","","0.4303005813","","","","","","",""
"54","","bandit","237","556502","0.0-199.0-0.0","38387013","wem/bandit_single","A15FXHC1CVNW31","gain","3","","74","J","1","","1","0","0","0.3801839585","","false","162","0.3435676447","","main_expt","0.3801839585","","0.07550585721","","0.4319487415","","","","","","",""
"186","","bandit","238","558465","0.0-200.0-0.0","38387013","wem/bandit_single","A15FXHC1CVNW31","gain","3","","74","J","1","","0","0","1","0.3796909961","","false","163","0.3840292687","","main_expt","0.3796909961","","0.08055395315","","0.4459750046","","","","","","",""
"39","","bandit","239","560274","0.0-201.0-0.0","38387013","wem/bandit_single","A15FXHC1CVNW31","gain","3","","72","H","0","img/none_selected.jpg","1","0","0","0.3427058888","","false","164","0.3427058888","","main_expt","0.3657353238","","0.07824920034","","0.4529977304","","","","","","",""
"130","","bandit","240","562169","0.0-202.0-0.0","38387013","wem/bandit_single","A15FXHC1CVNW31","gain","3","","72","H","0","img/none_selected.jpg","0","0","1","0.3258967388","","false","165","0.3258967388","","main_expt","0.3937598932","","0.08439791844","","0.4472909282","","","","","","",""
"157","","bandit","241","564090","0.0-203.0-0.0","38387013","wem/bandit_single","A15FXHC1CVNW31","gain","3","","72","H","0","img/none_selected.jpg","0","0","1","0.2704303424","","false","166","0.2704303424","","main_expt","0.3914196171","","0.05039915739","","0.4399772256","","","","","","",""
"47","","bandit","242","565915","0.0-204.0-0.0","38387013","wem/bandit_single","A15FXHC1CVNW31","gain","3","","74","J","1","","0","0","1","0.3919877423","","false","167","0.3205555932","","main_expt","0.3919877423","","0.05759530337","","0.4636729032","","","","","","",""
"174","","bandit","243","567857","0.0-205.0-0.0","38387013","wem/bandit_single","A15FXHC1CVNW31","gain","3","","75","K","2","","0","0","1","0.04992464654","","false","168","0.3639109947","","main_expt","0.3647459683","","0.04992464654","","0.4437796743","","","","","","",""
"3","","bandit","244","569623","0.0-206.0-0.0","38387013","wem/bandit_single","A15FXHC1CVNW31","gain","3","","76","L","3","","0","0","1","0.456101387","","false","169","0.3733582142","","main_expt","0.4058418149","","0.03416660819","","0.456101387","","","","","","",""
"29","","bandit","245","571428","0.0-207.0-0.0","38387013","wem/bandit_single","A15FXHC1CVNW31","gain","3","","72","H","0","img/none_selected.jpg","0","0","1","0.3832331311","","false","170","0.3832331311","","main_expt","0.3998590153","","0.01917125828","","0.4571218852","","","","","","",""
"86","","bandit","246","573292","0.0-208.0-0.0","38387013","wem/bandit_single","A15FXHC1CVNW31","gain","3","","72","H","0","img/none_selected.jpg","1","0","0","0.3815339887","","false","171","0.3815339887","","main_expt","0.3887500458","","0.02244253376","","0.445510323","","","","","","",""
"104","","bandit","247","575161","0.0-209.0-0.0","38387013","wem/bandit_single","A15FXHC1CVNW31","gain","3","","72","H","0","img/none_selected.jpg","0","0","1","0.3471775219","","false","172","0.3471775219","","main_expt","0.4102182378","","0.02619280326","","0.4280794999","","","","","","",""
"101","","bandit","248","577038","0.0-210.0-0.0","38387013","wem/bandit_single","A15FXHC1CVNW31","gain","3","","72","H","0","img/none_selected.jpg","1","0","0","0.340289466","","false","173","0.340289466","","main_expt","0.3895773165","","0.0218428458","","0.4379780546","","","","","","",""
"127","","bandit","249","578939","0.0-211.0-0.0","38387013","wem/bandit_single","A15FXHC1CVNW31","gain","3","","72","H","0","img/none_selected.jpg","0","0","1","0.3280863639","","false","174","0.3280863639","","main_expt","0.3826402373","","0.02840617367","","0.4160926905","","","","","","",""
"41","","bandit","250","580744","0.0-212.0-0.0","38387013","wem/bandit_single","A15FXHC1CVNW31","gain","3","","72","H","0","img/none_selected.jpg","0","0","1","0.3782643392","","false","175","0.3782643392","","main_expt","0.38572844","","0.0268928826","","0.44195178","","","","","","",""
"308","","bandit","251","582817","0.0-213.0-0.0","38387013","wem/bandit_single","A15FXHC1CVNW31","gain","3","","72","H","0","img/none_selected.jpg","1","0","0","0.3714875018","","false","176","0.3714875018","","main_expt","0.3566605828","","0.04471375276","","0.4469840309","","","","","","",""
"26","","bandit","252","584618","0.0-214.0-0.0","38387013","wem/bandit_single","A15FXHC1CVNW31","gain","3","","72","H","0","img/none_selected.jpg","0","0","1","0.3110573775","","false","177","0.3110573775","","main_expt","0.3736379944","","0.04508647299","","0.4732589693","","","","","","",""
"119","","bandit","253","586511","0.0-215.0-0.0","38387013","wem/bandit_single","A15FXHC1CVNW31","gain","3","","74","J","1","","1","0","0","0.3835263095","","false","178","0.3725785744","","main_expt","0.3835263095","","0.07342594821","","0.4716065645","","","","","","",""
"116","","bandit","254","588390","0.0-216.0-0.0","38387013","wem/bandit_single","A15FXHC1CVNW31","gain","3","","74","J","1","","0","0","1","0.3531759074","","false","179","0.4143512522","","main_expt","0.3531759074","","0.08189943715","","0.4724187392","","","","","","",""
"46","","bandit","255","590211","0.0-217.0-0.0","38387013","wem/bandit_single","A15FXHC1CVNW31","gain","3","","74","J","1","","0","0","1","0.3185705061","","false","180","0.4240428135","","main_expt","0.3185705061","","0.07894611151","","0.4551908631","","","","","","",""
"132","","bandit","256","592129","0.0-218.0-0.0","38387013","wem/bandit_single","A15FXHC1CVNW31","gain","3","","74","J","1","","0","0","1","0.2823592255","","false","181","0.4394908049","","main_expt","0.2823592255","","0.06982230443","","0.456416976","","","","","","",""
"2631","","bandit","257","596567","0.0-219.0-0.0","38387013","wem/bandit_single","A15FXHC1CVNW31","gain","3","","74","J","1","","0","0","1","0.2741397005","","false","182","0.4180692962","","main_expt","0.2741397005","","0.06674639092","","0.4525945541","","","","","","",""
"171","","bandit","258","598515","0.0-220.0-0.0","38387013","wem/bandit_single","A15FXHC1CVNW31","gain","3","","75","K","2","","0","0","1","0.04008595334","","false","183","0.4468782907","","main_expt","0.2936799338","","0.04008595334","","0.4439654651","","","","","","",""
"151","","bandit","259","600473","0.0-221.0-0.0","38387013","wem/bandit_single","A15FXHC1CVNW31","gain","3","","76","L","3","","1","0","0","0.4366406792","","false","184","0.4489540851","","main_expt","0.3027831177","","0.04652727321","","0.4366406792","","","","","","",""
"142","","bandit","260","602385","0.0-222.0-0.0","38387013","wem/bandit_single","A15FXHC1CVNW31","gain","3","","76","L","3","","1","0","0","0.4282468188","","false","185","0.4669005471","","main_expt","0.3180510168","","0.05033673313","","0.4282468188","","","","","","",""
"132","","bandit","261","604289","0.0-223.0-0.0","38387013","wem/bandit_single","A15FXHC1CVNW31","gain","3","","76","L","3","","1","0","0","0.4249990568","","false","186","0.419417397","","main_expt","0.3285352945","","0.03009771755","","0.4249990568","","","","","","",""
"37","","bandit","262","606095","0.0-224.0-0.0","38387013","wem/bandit_single","A15FXHC1CVNW31","gain","3","","76","L","3","","0","0","1","0.4159118542","","false","187","0.3735271503","","main_expt","0.3278715557","","0.02601150791","","0.4159118542","","","","","","",""
"64","","bandit","263","607926","0.0-225.0-0.0","38387013","wem/bandit_single","A15FXHC1CVNW31","gain","3","","76","L","3","","0","0","1","0.4294829221","","false","188","0.3339942922","","main_expt","0.3408065186","","0.02389042297","","0.4294829221","","","","","","",""
"0","","bandit","264","609692","0.0-226.0-0.0","38387013","wem/bandit_single","A15FXHC1CVNW31","gain","3","","76","L","3","","1","0","0","0.4183094629","","false","189","0.3200911101","","main_expt","0.3335894225","","0.02303770395","","0.4183094629","","","","","","",""
"32","","bandit","265","611497","0.0-227.0-0.0","38387013","wem/bandit_single","A15FXHC1CVNW31","gain","3","","76","L","3","","1","0","0","0.3769048436","","false","190","0.379511296","","main_expt","0.2560009578","","0.0156858998","","0.3769048436","","","","","","",""
"170","","bandit","266","613432","0.0-228.0-0.0","38387013","wem/bandit_single","A15FXHC1CVNW31","gain","3","","76","L","3","","0","0","1","0.3654839124","","false","191","0.3475909393","","main_expt","0.2422543603","","0.02184200568","","0.3654839124","","","","","","",""
"131","","bandit","267","615326","0.0-229.0-0.0","38387013","wem/bandit_single","A15FXHC1CVNW31","gain","3","","72","H","0","img/none_selected.jpg","1","0","0","0.3248483226","","false","192","0.3248483226","","main_expt","0.2479432207","","0.04159540118","","0.4158526776","","","","","","",""
"114","","bandit","268","617209","0.0-230.0-0.0","38387013","wem/bandit_single","A15FXHC1CVNW31","gain","3","","72","H","0","img/none_selected.jpg","0","0","1","0.3530355579","","false","193","0.3530355579","","main_expt","0.2198669916","","0.02418359434","","0.4294001388","","","","","","",""
"84","","bandit","269","619089","0.0-231.0-0.0","38387013","wem/bandit_single","A15FXHC1CVNW31","gain","3","","72","H","0","img/none_selected.jpg","0","0","1","0.3613612536","","false","194","0.3613612536","","main_expt","0.1832858475","","0.03036789999","","0.421006879","","","","","","",""
"151","","bandit","270","621006","0.0-232.0-0.0","38387013","wem/bandit_single","A15FXHC1CVNW31","gain","3","","76","L","3","","0","0","1","0.3993762185","","false","195","0.3712676973","","main_expt","0.1758973168","","0.0328032794","","0.3993762185","","","","","","",""
"52","","bandit","271","622824","0.0-233.0-0.0","38387013","wem/bandit_single","A15FXHC1CVNW31","gain","3","","76","L","3","","1","0","0","0.3953591144","","false","196","0.3797177139","","main_expt","0.1472052011","","0.03367124179","","0.3953591144","","","","","","",""
"170","","bandit","272","624768","0.0-234.0-0.0","38387013","wem/bandit_single","A15FXHC1CVNW31","gain","3","","76","L","3","","1","0","0","0.4186523265","","false","197","0.3703437648","","main_expt","0.09357285733","","0.03515804352","","0.4186523265","","","","","","",""
"174","","bandit","273","626710","0.0-235.0-0.0","38387013","wem/bandit_single","A15FXHC1CVNW31","gain","3","","76","L","3","","1","0","0","0.4334783576","","false","198","0.3269028648","","main_expt","0.1466532231","","0.0474911349","","0.4334783576","","","","","","",""
"68","","bandit","274","628540","0.0-236.0-0.0","38387013","wem/bandit_single","A15FXHC1CVNW31","gain","3","","76","L","3","","0","0","1","0.452916177","","false","199","0.2972028605","","main_expt","0.1745555733","","0.04758635843","","0.452916177","","","","","","",""
"33","","bandit","275","630355","0.0-237.0-0.0","38387013","wem/bandit_single","A15FXHC1CVNW31","gain","3","","76","L","3","","0","0","1","0.4652130485","","false","200","0.2548635421","","main_expt","0.1496088854","","0.06637193447","","0.4652130485","","","","","","",""
"139","","bandit","276","632271","0.0-238.0-0.0","38387013","wem/bandit_single","A15FXHC1CVNW31","gain","3","","76","L","3","","1","0","0","0.4544628945","","false","201","0.2360204523","","main_expt","0.1144678821","","0.03961336895","","0.4544628945","","","","","","",""
"105","","bandit","277","634194","0.0-239.0-0.0","38387013","wem/bandit_single","A15FXHC1CVNW31","gain","3","","76","L","3","","1","0","0","0.4346785174","","false","202","0.1847208139","","main_expt","0.08314182588","","0.04217273593","","0.4346785174","","","","","","",""
"41","","bandit","278","636043","0.0-240.0-0.0","38387013","wem/bandit_single","A15FXHC1CVNW31","gain","3","","76","L","3","","1","0","0","0.4340895374","","false","203","0.1740418795","","main_expt","0.1008304514","","0.03601881868","","0.4340895374","","","","","","",""
"33","","bandit","279","637853","0.0-241.0-0.0","38387013","wem/bandit_single","A15FXHC1CVNW31","gain","3","","76","L","3","","0","0","1","0.4398780919","","false","204","0.1469060572","","main_expt","0.1170364225","","0.04663301139","","0.4398780919","","","","","","",""
"112","","bandit","280","639735","0.0-242.0-0.0","38387013","wem/bandit_single","A15FXHC1CVNW31","gain","3","","76","L","3","","0","0","1","0.4001316318","","false","205","0.1162446513","","main_expt","0.1228414706","","0.04643109282","","0.4001316318","","","","","","",""
"116","","bandit","281","641689","0.0-243.0-0.0","38387013","wem/bandit_single","A15FXHC1CVNW31","gain","3","","76","L","3","","1","0","0","0.4347617828","","false","206","0.1289033918","","main_expt","0.1574749647","","0.06886832812","","0.4347617828","","","","","","",""
"133","","bandit","282","643649","0.0-244.0-0.0","38387013","wem/bandit_single","A15FXHC1CVNW31","gain","3","","76","L","3","","0","0","1","0.4383015813","","false","207","0.1261822501","","main_expt","0.1922173773","","0.0600143171","","0.4383015813","","","","","","",""
"18","","bandit","283","645439","0.0-245.0-0.0","38387013","wem/bandit_single","A15FXHC1CVNW31","gain","3","","72","H","0","img/none_selected.jpg","0","0","1","0.1024795668","","false","208","0.1024795668","","main_expt","0.1673160211","","0.04637571639","","0.4038237536","","","","","","",""
"54","","bandit","284","647262","0.0-246.0-0.0","38387013","wem/bandit_single","A15FXHC1CVNW31","gain","3","","74","J","1","","0","0","1","0.1269527993","","false","209","0.1129838087","","main_expt","0.1269527993","","0.04040360689","","0.3890753365","","","","","","",""
"75","","bandit","285","649106","0.0-247.0-0.0","38387013","wem/bandit_single","A15FXHC1CVNW31","gain","3","","75","K","2","","0","0","1","0.02069644656","","false","210","0.1562804612","","main_expt","0.1114377498","","0.02069644656","","0.3792373644","","","","","","",""
"30","","bandit","286","650912","0.0-248.0-0.0","38387013","wem/bandit_single","A15FXHC1CVNW31","gain","3","","76","L","3","","0","0","1","0.3780611868","","false","211","0.1363837251","","main_expt","0.1155820846","","0.03173395488","","0.3780611868","","","","","","",""
"184","","bandit","287","652864","0.0-249.0-0.0","38387013","wem/bandit_single","A15FXHC1CVNW31","gain","3","","76","L","3","","0","0","1","0.3483689532","","false","212","0.09358237554","","main_expt","0.1553323518","","0.02469601981","","0.3483689532","","","","","","",""
"49","","bandit","288","654678","0.0-250.0-0.0","38387013","wem/bandit_single","A15FXHC1CVNW31","gain","3","","76","L","3","","0","0","1","0.2874103991","","false","213","0.05743859841","","main_expt","0.2062901667","","0.04258417901","","0.2874103991","","","","","","",""
"145","","bandit","289","656592","0.0-251.0-0.0","38387013","wem/bandit_single","A15FXHC1CVNW31","gain","3","","72","H","0","img/none_selected.jpg","0","0","1","0.05800100084","","false","214","0.05800100084","","main_expt","0.2076956631","","0.05493755721","","0.2620706088","","","","","","",""
"100","","bandit","290","658461","0.0-252.0-0.0","38387013","wem/bandit_single","A15FXHC1CVNW31","gain","3","","74","J","1","","0","0","1","0.2609492508","","false","215","0.05413405856","","main_expt","0.2609492508","","0.08978059799","","0.2855520155","","","","","","",""
"58","","bandit","291","660285","0.0-253.0-0.0","38387013","wem/bandit_single","A15FXHC1CVNW31","gain","3","","75","K","2","","0","0","1","0.09809121306","","false","216","0.03942357166","","main_expt","0.2500101786","","0.09809121306","","0.2916786734","","","","","","",""
"171","","bandit","292","662224","0.0-254.0-0.0","38387013","wem/bandit_single","A15FXHC1CVNW31","gain","3","","76","L","3","","0","0","1","0.2823685681","","false","217","0.03801572204","","main_expt","0.2748248586","","0.1427848958","","0.2823685681","","","","","","",""
"22","","bandit","293","664021","0.0-255.0-0.0","38387013","wem/bandit_single","A15FXHC1CVNW31","gain","3","","76","L","3","","0","0","1","0.2423520158","","false","218","0.03890441123","","main_expt","0.311954441","","0.1570322525","","0.2423520158","","","","","","",""
"168","","bandit","294","665995","0.0-256.0-0.0","38387013","wem/bandit_single","A15FXHC1CVNW31","gain","3","","72","H","0","img/none_selected.jpg","0","0","1","0.01887456362","","false","219","0.01887456362","","main_expt","0.3632760336","","0.1805036953","","0.2949403562","","","","","","",""
"46","","bandit","295","667802","0.0-257.0-0.0","38387013","wem/bandit_single","A15FXHC1CVNW31","gain","3","","72","H","0","img/none_selected.jpg","0","0","1","0.02149820142","","false","220","0.02149820142","","main_expt","0.3369908474","","0.1305519061","","0.3123592507","","","","","","",""
"101","","bandit","296","669720","0.0-258.0-0.0","38387013","wem/bandit_single","A15FXHC1CVNW31","gain","3","","72","H","0","img/none_selected.jpg","0","0","1","0.03528878979","","false","221","0.03528878979","","main_expt","0.3047504054","","0.09039333473","","0.3184432139","","","","","","",""
"137","","bandit","297","671658","0.0-259.0-0.0","38387013","wem/bandit_single","A15FXHC1CVNW31","gain","3","","74","J","1","","0","0","1","0.3107799438","","false","222","0.03906528797","","main_expt","0.3107799438","","0.0801847008","","0.3596246423","","","","","","",""
"18","","bandit","298","673446","0.0-260.0-0.0","38387013","wem/bandit_single","A15FXHC1CVNW31","gain","3","","75","K","2","","0","0","1","0.08930296305","","false","223","0.04285152396","","main_expt","0.3359374044","","0.08930296305","","0.3048299186","","","","","","",""
"34","","bandit","299","675276","0.0-261.0-0.0","38387013","wem/bandit_single","A15FXHC1CVNW31","gain","3","","75","K","2","","0","0","1","0.0783544472","","false","224","0.03308098724","","main_expt","0.354776332","","0.0783544472","","0.3097637171","","","","","","",""
"141","","bandit","300","677201","0.0-262.0-0.0","38387013","wem/bandit_single","A15FXHC1CVNW31","gain","3","","74","J","1","","1","0","0","0.3747964846","","false","225","0.03318257961","","main_expt","0.3747964846","","0.05733223117","","0.3313621339","","","","","","",""
"139","","bandit","301","679119","0.0-263.0-0.0","38387013","wem/bandit_single","A15FXHC1CVNW31","gain","3","","74","J","1","","0","0","1","0.3530330239","","false","226","0.02568716964","","main_expt","0.3530330239","","0.09472546141","","0.2611013425","","","","","","",""
"127","","bandit","302","681027","0.0-264.0-0.0","38387013","wem/bandit_single","A15FXHC1CVNW31","gain","3","","74","J","1","","1","0","0","0.3299445106","","false","227","0.03534330031","","main_expt","0.3299445106","","0.08353253247","","0.2761398934","","","","","","",""
"154","","bandit","303","682952","0.0-265.0-0.0","38387013","wem/bandit_single","A15FXHC1CVNW31","gain","3","","74","J","1","","1","0","0","0.3286020352","","false","228","0.03702628412","","main_expt","0.3286020352","","0.06220105415","","0.2358148364","","","","","","",""
"143","","bandit","304","684936","0.0-266.0-0.0","38387013","wem/bandit_single","A15FXHC1CVNW31","gain","3","","74","J","1","","1","0","0","0.3178943429","","false","229","0.03077125553","","main_expt","0.3178943429","","0.06639782905","","0.2091128555","","","","","","",""
"131","","bandit","305","686837","0.0-267.0-0.0","38387013","wem/bandit_single","A15FXHC1CVNW31","gain","3","","74","J","1","","0","0","1","0.3254915512","","false","230","0.03752036101","","main_expt","0.3254915512","","0.07029464087","","0.181986641","","","","","","",""
"11","","bandit","306","688618","0.0-268.0-0.0","38387013","wem/bandit_single","A15FXHC1CVNW31","gain","3","","74","J","1","","0","0","1","0.3298497064","","false","231","0.02736090244","","main_expt","0.3298497064","","0.07612781315","","0.1599443191","","","","","","",""
"136","","bandit","307","690911","0.0-269.0-0.0","38387013","wem/bandit_single","A15FXHC1CVNW31","gain","3","","74","J","1","","0","0","1","0.300331178","","false","232","0.02154887034","","main_expt","0.300331178","","0.04325191911","","0.125214013","","","","","","",""
"83","","bandit","308","692785","0.0-270.0-0.0","38387013","wem/bandit_single","A15FXHC1CVNW31","gain","3","","74","J","1","","0","0","1","0.3357562734","","false","233","0.0228348974","","main_expt","0.3357562734","","0.04039924652","","0.134118517","","","","","","",""
"176","","bandit","309","694741","0.0-271.0-0.0","38387013","wem/bandit_single","A15FXHC1CVNW31","gain","3","","76","L","3","","0","0","1","0.1238594142","","false","234","0.01030782054","","main_expt","0.3257461803","","0.0435796211","","0.1238594142","","","","","","",""
"134","","bandit","310","696697","0.0-272.0-0.0","38387013","wem/bandit_single","A15FXHC1CVNW31","gain","3","","75","K","2","","0","0","1","0.02315237623","","false","235","0.02615737471","","main_expt","0.3534766227","","0.02315237623","","0.1141846942","","","","","","",""
"155","","bandit","311","698765","0.0-273.0-0.0","38387013","wem/bandit_single","A15FXHC1CVNW31","gain","3","","72","H","0","img/none_selected.jpg","0","0","1","0.0224272094","","false","236","0.0224272094","","main_expt","0.3733068719","","0.02010779399","","0.1101280349","","","","","","",""
"9","","bandit","312","700542","0.0-274.0-0.0","38387013","wem/bandit_single","A15FXHC1CVNW31","gain","3","","74","J","1","","0","0","1","0.4105295152","","false","237","0.02679999918","","main_expt","0.4105295152","","0.01796146932","","0.09079266978","","","","","","",""
"65","","bandit","313","702378","0.0-275.0-0.0","38387013","wem/bandit_single","A15FXHC1CVNW31","gain","3","","74","J","1","","1","0","0","0.4225156592","","false","238","0.07542988795","","main_expt","0.4225156592","","0.0167141813","","0.1365862295","","","","","","",""
"60","","bandit","314","704217","0.0-276.0-0.0","38387013","wem/bandit_single","A15FXHC1CVNW31","gain","3","","74","J","1","","1","0","0","0.4360895212","","false","239","0.09772903","","main_expt","0.4360895212","","0.03283355296","","0.1846819155","","","","","","",""
"94","","bandit","315","706084","0.0-277.0-0.0","38387013","wem/bandit_single","A15FXHC1CVNW31","gain","3","","74","J","1","","0","0","1","0.423514393","","false","240","0.1044145256","","main_expt","0.423514393","","0.05325110434","","0.1795044078","","","","","","",""
"158","","bandit","316","708060","0.0-278.0-0.0","38387013","wem/bandit_single","A15FXHC1CVNW31","gain","3","","74","J","1","","0","0","1","0.3824942702","","false","241","0.109937241","","main_expt","0.3824942702","","0.04551940083","","0.1522343712","","","","","","",""
"132","","bandit","317","710040","0.0-279.0-0.0","38387013","wem/bandit_single","A15FXHC1CVNW31","gain","3","","74","J","1","","0","0","1","0.3758562762","","false","242","0.09239004846","","main_expt","0.3758562762","","0.05503183359","","0.1433696576","","","","","","",""
"116","","bandit","318","711934","0.0-280.0-0.0","38387013","wem/bandit_single","A15FXHC1CVNW31","gain","3","","74","J","1","","0","0","1","0.2984655584","","false","243","0.1014218366","","main_expt","0.2984655584","","0.04467871076","","0.1427577162","","","","","","",""
"88","","bandit","319","713789","0.0-281.0-0.0","38387013","wem/bandit_single","A15FXHC1CVNW31","gain","3","","74","J","1","","1","0","0","0.2901672904","","false","244","0.192841162","","main_expt","0.2901672904","","0.06552455376","","0.1340795621","","","","","","",""
"72","","bandit","320","715627","0.0-282.0-0.0","38387013","wem/bandit_single","A15FXHC1CVNW31","gain","3","","74","J","1","","0","0","1","0.2495050599","","false","245","0.1953250812","","main_expt","0.2495050599","","0.1005127954","","0.1469719784","","","","","","",""
"124","","bandit","321","717520","0.0-283.0-0.0","38387013","wem/bandit_single","A15FXHC1CVNW31","gain","3","","74","J","1","","0","0","1","0.2406773486","","false","246","0.1865380945","","main_expt","0.2406773486","","0.11534406","","0.140914489","","","","","","",""
"63","","bandit","322","719358","0.0-284.0-0.0","38387013","wem/bandit_single","A15FXHC1CVNW31","gain","3","","74","J","1","","0","0","1","0.2265306157","","false","247","0.221100819","","main_expt","0.2265306157","","0.08579934652","","0.1592666071","","","","","","",""
"89","","bandit","323","721221","0.0-285.0-0.0","38387013","wem/bandit_single","A15FXHC1CVNW31","gain","3","","72","H","0","img/none_selected.jpg","0","0","1","0.2106100544","","false","248","0.2106100544","","main_expt","0.2000380921","","0.08554071629","","0.2210893918","","","","","","",""
"106","","bandit","324","723117","0.0-286.0-0.0","38387013","wem/bandit_single","A15FXHC1CVNW31","gain","3","","75","K","2","","0","0","1","0.07137080198","","false","249","0.2172535859","","main_expt","0.1920984986","","0.07137080198","","0.2306666851","","","","","","",""
"23","","bandit","325","724919","0.0-287.0-0.0","38387013","wem/bandit_single","A15FXHC1CVNW31","gain","3","","76","L","3","","0","0","1","0.2422322172","","false","250","0.1953648199","","main_expt","0.1624135027","","0.06874505311","","0.2422322172","","","","","","",""
"87","","bandit","326","726772","0.0-288.0-0.0","38387013","wem/bandit_single","A15FXHC1CVNW31","gain","3","","76","L","3","","0","0","1","0.2425189851","","false","251","0.2129795833","","main_expt","0.2057369507","","0.04927492375","","0.2425189851","","","","","","",""
"73","","bandit","327","728658","0.0-289.0-0.0","38387013","wem/bandit_single","A15FXHC1CVNW31","gain","3","","75","K","2","","0","0","1","0.0504542679","","false","252","0.2271134102","","main_expt","0.26034901","","0.0504542679","","0.1980379423","","","","","","",""
"102","","bandit","328","730558","0.0-290.0-0.0","38387013","wem/bandit_single","A15FXHC1CVNW31","gain","3","","75","K","2","","0","0","1","0.0313618618","","false","253","0.2152809257","","main_expt","0.1886300366","","0.0313618618","","0.2040952335","","","","","","",""
"48","","bandit","329","732380","0.0-291.0-0.0","38387013","wem/bandit_single","A15FXHC1CVNW31","gain","3","","74","J","1","","0","0","1","0.1978078828","","false","254","0.2065685424","","main_expt","0.1978078828","","0.0191685034","","0.1621407843","","","","","","",""
"79","","bandit","330","734227","0.0-292.0-0.0","38387013","wem/bandit_single","A15FXHC1CVNW31","gain","3","","74","J","1","","1","0","0","0.1544468143","","false","255","0.2000715388","","main_expt","0.1544468143","","0.01882474885","","0.1817956319","","","","","","",""
"51","","bandit","331","736045","0.0-293.0-0.0","38387013","wem/bandit_single","A15FXHC1CVNW31","gain","3","","74","J","1","","0","0","1","0.1552120094","","false","256","0.1997851389","","main_expt","0.1552120094","","0.01765542058","","0.1796151025","","","","","","",""
"179","","bandit","332","738035","0.0-294.0-0.0","38387013","wem/bandit_single","A15FXHC1CVNW31","gain","3","","74","J","1","","0","0","1","0.1337291471","","false","257","0.1965173465","","main_expt","0.1337291471","","0.0162265086","","0.1874922979","","","","","","",""
"113","","bandit","333","739917","0.0-295.0-0.0","38387013","wem/bandit_single","A15FXHC1CVNW31","gain","3","","74","J","1","","0","0","1","0.1279332347","","false","258","0.1816932188","","main_expt","0.1279332347","","0.01630278654","","0.2152410464","","","","","","",""
"67","","bandit","334","741761","0.0-296.0-0.0","38387013","wem/bandit_single","A15FXHC1CVNW31","gain","3","","74","J","1","","0","0","1","0.152418206","","false","259","0.2275026539","","main_expt","0.152418206","","0.0149919991","","0.2311433436","","","","","","",""
"82","","bandit","335","743614","0.0-297.0-0.0","38387013","wem/bandit_single","A15FXHC1CVNW31","gain","3","","74","J","1","","0","0","1","0.1100328583","","false","260","0.1798156178","","main_expt","0.1100328583","","0.02225913397","","0.1621257941","","","","","","",""
"84","","bandit","336","745469","0.0-298.0-0.0","38387013","wem/bandit_single","A15FXHC1CVNW31","gain","3","","74","J","1","","0","0","1","0.1537012171","","false","261","0.187122726","","main_expt","0.1537012171","","0.02865634389","","0.1219102136","","","","","","",""
"63","","bandit","337","747298","0.0-299.0-0.0","38387013","wem/bandit_single","A15FXHC1CVNW31","gain","3","","72","H","0","img/none_selected.jpg","0","0","1","0.1507521212","","false","262","0.1507521212","","main_expt","0.1302597035","","0.03173788073","","0.1667536199","","","","","","",""
"59","","bandit","338","749126","0.0-300.0-0.0","38387013","wem/bandit_single","A15FXHC1CVNW31","gain","3","","72","H","0","img/none_selected.jpg","0","0","1","0.1374951011","","false","263","0.1374951011","","main_expt","0.1297736826","","0.04250990858","","0.1361259709","","","","","","",""
"9","","bandit","339","750908","0.0-301.0-0.0","38387013","wem/bandit_single","A15FXHC1CVNW31","gain","3","","72","H","0","img/none_selected.jpg","0","0","1","0.1158818852","","false","264","0.1158818852","","main_expt","0.1326654045","","0.056503948","","0.1217381733","","","","","","",""
"167","","bandit","340","752908","0.0-302.0-0.0","38387013","wem/bandit_single","A15FXHC1CVNW31","gain","3","","76","L","3","","0","0","1","0.1258265959","","false","265","0.1147359408","","main_expt","0.1586413096","","0.07592662832","","0.1258265959","","","","","","",""
"143","","bandit","341","754817","0.0-303.0-0.0","38387013","wem/bandit_single","A15FXHC1CVNW31","gain","3","","76","L","3","","1","0","0","0.1445769791","","false","266","0.09491002089","","main_expt","0.1496521415","","0.1002340293","","0.1445769791","","","","","","",""
"131","","bandit","342","756719","0.0-304.0-0.0","38387013","wem/bandit_single","A15FXHC1CVNW31","gain","3","","76","L","3","","0","0","1","0.1014120844","","false","267","0.1181284109","","main_expt","0.1410052581","","0.1526998269","","0.1014120844","","","","","","",""
"6","","bandit","343","758500","0.0-305.0-0.0","38387013","wem/bandit_single","A15FXHC1CVNW31","gain","3","","76","L","3","","0","0","1","0.06386630904","","false","268","0.1054434992","","main_expt","0.145208313","","0.1340815566","","0.06386630904","","","","","","",""
"36","","bandit","344","760365","0.0-306.0-0.0","38387013","wem/bandit_single","A15FXHC1CVNW31","gain","3","","76","L","3","","0","0","1","0.03725778621","","false","269","0.1307900039","","main_expt","0.1387339362","","0.1350059692","","0.03725778621","","","","","","",""
"151","","bandit","345","762309","0.0-307.0-0.0","38387013","wem/bandit_single","A15FXHC1CVNW31","gain","3","","76","L","3","","0","0","1","0.02825676517","","false","270","0.1444746669","","main_expt","0.1822325734","","0.1008257698","","0.02825676517","","","","","","",""
"141","","bandit","346","764229","0.0-308.0-0.0","38387013","wem/bandit_single","A15FXHC1CVNW31","gain","3","","75","K","2","","0","0","1","0.1257425884","","false","271","0.1622504114","","main_expt","0.1752825828","","0.1257425884","","0.02967844624","","","","","","",""
"221","","bandit","347","766298","0.0-309.0-0.0","38387013","wem/bandit_single","A15FXHC1CVNW31","gain","3","","75","K","2","","1","0","0","0.1363444874","","false","272","0.1814673171","","main_expt","0.1572277832","","0.1363444874","","0.03051557875","","","","","","",""
"195","","bandit","348","768257","0.0-310.0-0.0","38387013","wem/bandit_single","A15FXHC1CVNW31","gain","3","","75","K","2","","0","0","1","0.1090842693","","false","273","0.1930303076","","main_expt","0.1609880977","","0.1090842693","","0.0408401102","","","","","","",""
"50","","bandit","349","770208","0.0-311.0-0.0","38387013","wem/bandit_single","A15FXHC1CVNW31","gain","3","","75","K","2","","1","0","0","0.1397265487","","false","274","0.1704680895","","main_expt","0.2228580822","","0.1397265487","","0.03240614182","","","","","","",""
"15","","bandit","350","771996","0.0-312.0-0.0","38387013","wem/bandit_single","A15FXHC1CVNW31","gain","3","","75","K","2","","1","0","0","0.210641606","","false","275","0.1785534293","","main_expt","0.2126640298","","0.210641606","","0.04120982645","","","","","","",""
"109","","bandit","351","773875","0.0-313.0-0.0","38387013","wem/bandit_single","A15FXHC1CVNW31","gain","3","","75","K","2","","0","0","1","0.1523626192","","false","276","0.1843971019","","main_expt","0.2006548762","","0.1523626192","","0.04353307789","","","","","","",""
"83","","bandit","352","775739","0.0-314.0-0.0","38387013","wem/bandit_single","A15FXHC1CVNW31","gain","3","","75","K","2","","0","0","1","0.16102954","","false","277","0.2042268453","","main_expt","0.1986275587","","0.16102954","","0.0172565486","","","","","","",""
"85","","bandit","353","777606","0.0-315.0-0.0","38387013","wem/bandit_single","A15FXHC1CVNW31","gain","3","","75","K","2","","0","0","1","0.1166001048","","false","278","0.1609113936","","main_expt","0.1321506531","","0.1166001048","","0.02582715814","","","","","","",""
"136","","bandit","354","779509","0.0-316.0-0.0","38387013","wem/bandit_single","A15FXHC1CVNW31","gain","3","","75","K","2","","0","0","1","0.1427402012","","false","279","0.1604878733","","main_expt","0.2112193978","","0.1427402012","","0.03609925784","","","","","","",""
"28","","bandit","355","781305","0.0-317.0-0.0","38387013","wem/bandit_single","A15FXHC1CVNW31","gain","3","","75","K","2","","1","0","0","0.1524149458","","false","280","0.1678567182","","main_expt","0.1872216356","","0.1524149458","","0.02629944548","","","","","","",""
"37","","bandit","356","783132","0.0-318.0-0.0","38387013","wem/bandit_single","A15FXHC1CVNW31","gain","3","","75","K","2","","1","0","0","0.1638207856","","false","281","0.1338700362","","main_expt","0.1635487084","","0.1638207856","","0.01890368782","","","","","","",""
"71","","bandit","357","784977","0.0-319.0-0.0","38387013","wem/bandit_single","A15FXHC1CVNW31","gain","3","","75","K","2","","0","0","1","0.1055747009","","false","282","0.2010661714","","main_expt","0.1576359327","","0.1055747009","","0.01508823693","","","","","","",""
"8874","","bandit","358","795639","0.0-320.0-0.0","38387013","wem/bandit_single","A15FXHC1CVNW31","gain","3","","74","J","1","","0","0","1","0.21861051","","false","283","0.1763159594","","main_expt","0.21861051","","0.1121395768","","0.01359220223","","","","","","",""
"157","","bandit","359","797573","0.0-321.0-0.0","38387013","wem/bandit_single","A15FXHC1CVNW31","gain","3","","75","K","2","","0","0","1","0.1110051372","","false","284","0.2379754842","","main_expt","0.180487154","","0.1110051372","","0.01691173417","","","","","","",""
"141","","bandit","360","799521","0.0-322.0-0.0","38387013","wem/bandit_single","A15FXHC1CVNW31","gain","3","","75","K","2","","1","0","0","0.1746572204","","false","285","0.2769670592","","main_expt","0.1641106304","","0.1746572204","","0.01734240677","","","","","","",""
"115","","bandit","361","801400","0.0-323.0-0.0","38387013","wem/bandit_single","A15FXHC1CVNW31","gain","3","","75","K","2","","0","0","1","0.2038956484","","false","286","0.3002963297","","main_expt","0.1866508097","","0.2038956484","","0.01574531315","","","","","","",""
"137","","bandit","362","803310","0.0-324.0-0.0","38387013","wem/bandit_single","A15FXHC1CVNW31","gain","3","","75","K","2","","1","0","0","0.2396876396","","false","287","0.2804215723","","main_expt","0.1339791425","","0.2396876396","","0.011703364","","","","","","",""
"8","","bandit","363","805090","0.0-325.0-0.0","38387013","wem/bandit_single","A15FXHC1CVNW31","gain","3","","75","K","2","","1","0","0","0.2300823482","","false","288","0.2873948651","","main_expt","0.1910191906","","0.2300823482","","0.01499165326","","","","","","",""
"13","","bandit","364","806873","0.0-326.0-0.0","38387013","wem/bandit_single","A15FXHC1CVNW31","gain","3","","75","K","2","","0","0","1","0.2697946193","","false","289","0.3383825142","","main_expt","0.1987886011","","0.2697946193","","0.01307353483","","","","","","",""
"174","","bandit","365","808821","0.0-327.0-0.0","38387013","wem/bandit_single","A15FXHC1CVNW31","gain","3","","75","K","2","","0","0","1","0.3030113395","","false","290","0.3597664772","","main_expt","0.2163493667","","0.3030113395","","0.005839555229","","","","","","",""
"110","","bandit","366","810711","0.0-328.0-0.0","38387013","wem/bandit_single","A15FXHC1CVNW31","gain","3","","75","K","2","","0","0","1","0.2903670118","","false","291","0.3684517111","","main_expt","0.1987756658","","0.2903670118","","0.00760433752","","","","","","",""
"964","","bandit","367","813443","0.0-329.0-0.0","38387013","wem/bandit_single","A15FXHC1CVNW31","gain","3","","75","K","2","","0","0","1","0.3219279298","","false","292","0.3471931258","","main_expt","0.1996771378","","0.3219279298","","0.01807310376","","","","","","",""
"2458","","bandit","368","817670","0.0-330.0-0.0","38387013","wem/bandit_single","A15FXHC1CVNW31","gain","3","","75","K","2","","1","0","0","0.2585416619","","false","293","0.3742872252","","main_expt","0.2067525645","","0.2585416619","","0.02882206876","","","","","","",""
"285","","bandit","369","819731","0.0-331.0-0.0","38387013","wem/bandit_single","A15FXHC1CVNW31","gain","3","","75","K","2","","0","0","1","0.3093607287","","false","294","0.3937541296","","main_expt","0.230585761","","0.3093607287","","0.02728804169","","","","","","",""
"10287","","bandit","370","831798","0.0-332.0-0.0","38387013","wem/bandit_single","A15FXHC1CVNW31","gain","3","","75","K","2","","0","0","1","0.315069057","","false","295","0.3331550888","","main_expt","0.1936278336","","0.315069057","","0.01545304162","","","","","","",""
"63","","bandit","371","833641","0.0-333.0-0.0","38387013","wem/bandit_single","A15FXHC1CVNW31","gain","3","","75","K","2","","0","0","1","0.3556215031","","false","296","0.3564327955","","main_expt","0.1733248866","","0.3556215031","","0.01463146341","","","","","","",""
"58","","bandit","372","835475","0.0-334.0-0.0","38387013","wem/bandit_single","A15FXHC1CVNW31","gain","3","","75","K","2","","0","0","1","0.3380436511","","false","297","0.3344242189","","main_expt","0.1762096585","","0.3380436511","","0.03487584845","","","","","","",""
"36","","bandit","373","837291","0.0-335.0-0.0","38387013","wem/bandit_single","A15FXHC1CVNW31","gain","3","","75","K","2","","0","0","1","0.347815101","","false","298","0.3434582948","","main_expt","0.176801175","","0.347815101","","0.04917346329","","","","","","",""
"174","","bandit","374","839234","0.0-336.0-0.0","38387013","wem/bandit_single","A15FXHC1CVNW31","gain","3","","75","K","2","","0","0","1","0.3608262918","","false","299","0.3432424117","","main_expt","0.1784780758","","0.3608262918","","0.05764452585","","","","","","",""
"137","","bandit","375","841139","0.0-337.0-0.0","38387013","wem/bandit_single","A15FXHC1CVNW31","gain","3","","76","L","3","","0","0","1","0.06878401483","","false","300","0.2900759124","","main_expt","0.1781250762","","0.3847884241","","0.06878401483","","","","","","",""
