"rt","responses","trial_type","trial_index","time_elapsed","internal_node_id","subjID","study","MID","cond","drift","key_press","respCharCode","respKey","respChoiceNum","respChoice","gems","bombs","no_reward","GemPrChosen","BombPrChosen","practice","trial_counter","WinPr_0","LosePr_0","trial_label","WinPr_1","LosePr_1","WinPr_2","LosePr_2","WinPr_3","LosePr_3","Q0","Q1","Q2","gender","age","ethnicity"
"20003","{""Q0"":""AX5K9K4XYLXFI""}","survey-text","0","20011","0.0-0.0","38881074","wem/bandit_single","AX5K9K4XYLXFI","gain","1","","","","","","","","","","","","","","","","","","","","","","","","","","",""
"3278","","text","1","24296","0.0-1.0","38881074","wem/bandit_single","AX5K9K4XYLXFI","gain","1","32","","","","","","","","","","","","","","","","","","","","","","","","","",""
"5406","","text","2","29704","0.0-2.0","38881074","wem/bandit_single","AX5K9K4XYLXFI","gain","1","32","","","","","","","","","","","","","","","","","","","","","","","","","",""
"5788","","text","3","35494","0.0-3.0","38881074","wem/bandit_single","AX5K9K4XYLXFI","gain","1","32","","","","","","","","","","","","","","","","","","","","","","","","","",""
"1281","","text","4","36776","0.0-4.0","38881074","wem/bandit_single","AX5K9K4XYLXFI","gain","1","32","","","","","","","","","","","","","","","","","","","","","","","","","",""
"3743","","text","5","40520","0.0-5.0","38881074","wem/bandit_single","AX5K9K4XYLXFI","gain","1","32","","","","","","","","","","","","","","","","","","","","","","","","","",""
"1791","","text","6","42311","0.0-6.0","38881074","wem/bandit_single","AX5K9K4XYLXFI","gain","1","32","","","","","","","","","","","","","","","","","","","","","","","","","",""
"5493","","text","7","47806","0.0-7.0","38881074","wem/bandit_single","AX5K9K4XYLXFI","gain","1","32","","","","","","","","","","","","","","","","","","","","","","","","","",""
"9575","","text","8","57382","0.0-8.0","38881074","wem/bandit_single","AX5K9K4XYLXFI","gain","1","32","","","","","","","","","","","","","","","","","","","","","","","","","",""
"3503","","text","9","60886","0.0-9.0","38881074","wem/bandit_single","AX5K9K4XYLXFI","gain","1","32","","","","","","","","","","","","","","","","","","","","","","","","","",""
"22604","","text","10","83491","0.0-10.0","38881074","wem/bandit_single","AX5K9K4XYLXFI","gain","1","32","","","","","","","","","","","","","","","","","","","","","","","","","",""
"6649","","text","11","90142","0.0-11.0","38881074","wem/bandit_single","AX5K9K4XYLXFI","gain","1","32","","","","","","","","","","","","","","","","","","","","","","","","","",""
"1592","","bandit","12","93245","0.0-12.0-0.0","38881074","wem/bandit_single","AX5K9K4XYLXFI","gain","1","","74","J","0","img/none_selected_demo.jpg","0","0","1","0","0","true","0","0","0","","","","","","","","","","","","",""
"21899","","bandit","13","116904","0.0-13.0-0.0","38881074","wem/bandit_single","AX5K9K4XYLXFI","gain","1","","75","K","0","img/none_selected_demo.jpg","0","0","1","0","0","true","0","0","0","","","","","","","","","","","","",""
"2973","","text","14","120133","0.0-14.0","38881074","wem/bandit_single","AX5K9K4XYLXFI","gain","1","32","","","","","","","","","","","","","","","","","","","","","","","","","",""
"1602","","text","15","121736","0.0-15.0","38881074","wem/bandit_single","AX5K9K4XYLXFI","gain","1","32","","","","","","","","","","","","","","","","","","","","","","","","","",""
"7203","","text","16","128941","0.0-16.0","38881074","wem/bandit_single","AX5K9K4XYLXFI","gain","1","32","","","","","","","","","","","","","","","","","","","","","","","","","",""
"4333","","text","17","133276","0.0-17.0","38881074","wem/bandit_single","AX5K9K4XYLXFI","gain","1","32","","","","","","","","","","","","","","","","","","","","","","","","","",""
"1269","","bandit","18","136051","0.0-18.0-0.0","38881074","wem/bandit_single","AX5K9K4XYLXFI","gain","1","","74","J","0","img/none_selected_demo.jpg","1","0","0","0.8","0","true","0","0.8","0","80_20_practice","0.2","0","","","","","","","","","",""
"596","","bandit","19","138404","0.0-18.0-1.0","38881074","wem/bandit_single","AX5K9K4XYLXFI","gain","1","","74","J","0","img/none_selected_demo.jpg","0","0","1","0.8","0","true","0","0.8","0","80_20_practice","0.2","0","","","","","","","","","",""
"796","","bandit","20","140957","0.0-18.0-2.0","38881074","wem/bandit_single","AX5K9K4XYLXFI","gain","1","","74","J","0","img/none_selected_demo.jpg","1","0","0","0.8","0","true","0","0.8","0","80_20_practice","0.2","0","","","","","","","","","",""
"249","","bandit","21","142963","0.0-18.0-3.0","38881074","wem/bandit_single","AX5K9K4XYLXFI","gain","1","","75","K","1","","0","0","1","0.2","0","true","0","0.8","0","80_20_practice","0.2","0","","","","","","","","","",""
"6193","","bandit","22","150915","0.0-18.0-4.0","38881074","wem/bandit_single","AX5K9K4XYLXFI","gain","1","","74","J","0","img/none_selected_demo.jpg","1","0","0","0.8","0","true","0","0.8","0","80_20_practice","0.2","0","","","","","","","","","",""
"91","","bandit","23","152764","0.0-18.0-5.0","38881074","wem/bandit_single","AX5K9K4XYLXFI","gain","1","","75","K","1","","0","0","1","0.2","0","true","0","0.8","0","80_20_practice","0.2","0","","","","","","","","","",""
"209","","bandit","24","154732","0.0-18.0-6.0","38881074","wem/bandit_single","AX5K9K4XYLXFI","gain","1","","75","K","1","","0","0","1","0.2","0","true","0","0.8","0","80_20_practice","0.2","0","","","","","","","","","",""
"3144","","bandit","25","159635","0.0-18.0-7.0","38881074","wem/bandit_single","AX5K9K4XYLXFI","gain","1","","74","J","0","img/none_selected_demo.jpg","1","0","0","0.8","0","true","0","0.8","0","80_20_practice","0.2","0","","","","","","","","","",""
"1739","","bandit","26","163133","0.0-18.0-8.0","38881074","wem/bandit_single","AX5K9K4XYLXFI","gain","1","","74","J","0","img/none_selected_demo.jpg","1","0","0","0.8","0","true","0","0.8","0","80_20_practice","0.2","0","","","","","","","","","",""
"1896","","bandit","27","166785","0.0-18.0-9.0","38881074","wem/bandit_single","AX5K9K4XYLXFI","gain","1","","74","J","0","img/none_selected_demo.jpg","1","0","0","0.8","0","true","0","0.8","0","80_20_practice","0.2","0","","","","","","","","","",""
"293","","bandit","28","168836","0.0-18.0-10.0","38881074","wem/bandit_single","AX5K9K4XYLXFI","gain","1","","74","J","0","img/none_selected_demo.jpg","1","0","0","0.8","0","true","0","0.8","0","80_20_practice","0.2","0","","","","","","","","","",""
"1090","","bandit","29","171683","0.0-18.0-11.0","38881074","wem/bandit_single","AX5K9K4XYLXFI","gain","1","","74","J","0","img/none_selected_demo.jpg","1","0","0","0.8","0","true","0","0.8","0","80_20_practice","0.2","0","","","","","","","","","",""
"152","","bandit","30","173595","0.0-18.0-12.0","38881074","wem/bandit_single","AX5K9K4XYLXFI","gain","1","","74","J","0","img/none_selected_demo.jpg","1","0","0","0.8","0","true","0","0.8","0","80_20_practice","0.2","0","","","","","","","","","",""
"12663","","bandit","31","188018","0.0-18.0-13.0","38881074","wem/bandit_single","AX5K9K4XYLXFI","gain","1","","74","J","0","img/none_selected_demo.jpg","0","0","1","0.8","0","true","0","0.8","0","80_20_practice","0.2","0","","","","","","","","","",""
"1612","","bandit","32","191387","0.0-18.0-14.0","38881074","wem/bandit_single","AX5K9K4XYLXFI","gain","1","","74","J","0","img/none_selected_demo.jpg","1","0","0","0.8","0","true","0","0.8","0","80_20_practice","0.2","0","","","","","","","","","",""
"251","","bandit","33","193394","0.0-18.0-15.0","38881074","wem/bandit_single","AX5K9K4XYLXFI","gain","1","","74","J","0","img/none_selected_demo.jpg","1","0","0","0.8","0","true","0","0.8","0","80_20_practice","0.2","0","","","","","","","","","",""
"579","","bandit","34","195729","0.0-18.0-16.0","38881074","wem/bandit_single","AX5K9K4XYLXFI","gain","1","","74","J","0","img/none_selected_demo.jpg","1","0","0","0.8","0","true","0","0.8","0","80_20_practice","0.2","0","","","","","","","","","",""
"1297","","bandit","35","198787","0.0-18.0-17.0","38881074","wem/bandit_single","AX5K9K4XYLXFI","gain","1","","75","K","1","","0","0","1","0.2","0","true","0","0.8","0","80_20_practice","0.2","0","","","","","","","","","",""
"1552","","bandit","36","202099","0.0-18.0-18.0","38881074","wem/bandit_single","AX5K9K4XYLXFI","gain","1","","75","K","1","","0","0","1","0.2","0","true","0","0.8","0","80_20_practice","0.2","0","","","","","","","","","",""
"1528","","bandit","37","205385","0.0-18.0-19.0","38881074","wem/bandit_single","AX5K9K4XYLXFI","gain","1","","74","J","0","img/none_selected_demo.jpg","1","0","0","0.8","0","true","0","0.8","0","80_20_practice","0.2","0","","","","","","","","","",""
"112075","","text","38","317714","0.0-19.0","38881074","wem/bandit_single","AX5K9K4XYLXFI","gain","1","32","","","","","","","","","","","","","","","","","","","","","","","","","",""
"1050","","bandit","39","320279","0.0-20.0-0.0","38881074","wem/bandit_single","AX5K9K4XYLXFI","gain","1","","74","J","0","img/none_selected_demo.jpg","0","0","1","0","0","true","0","0","0","","0","0","","","","","","","","","",""
"961","","text","40","321494","0.0-21.0","38881074","wem/bandit_single","AX5K9K4XYLXFI","gain","1","75","","","","","","","","","","","","","","","","","","","","","","","","","",""
"11230","","text","41","332725","0.0-22.0","38881074","wem/bandit_single","AX5K9K4XYLXFI","gain","1","32","","","","","","","","","","","","","","","","","","","","","","","","","",""
"1045","","text","42","333772","0.0-23.0","38881074","wem/bandit_single","AX5K9K4XYLXFI","gain","1","32","","","","","","","","","","","","","","","","","","","","","","","","","",""
"846","","text","43","334620","0.0-24.0","38881074","wem/bandit_single","AX5K9K4XYLXFI","gain","1","32","","","","","","","","","","","","","","","","","","","","","","","","","",""
"1103","","text","44","335724","0.0-25.0","38881074","wem/bandit_single","AX5K9K4XYLXFI","gain","1","32","","","","","","","","","","","","","","","","","","","","","","","","","",""
"1358","","text","45","337085","0.0-26.0","38881074","wem/bandit_single","AX5K9K4XYLXFI","gain","1","32","","","","","","","","","","","","","","","","","","","","","","","","","",""
"788","","text","46","337875","0.0-27.0","38881074","wem/bandit_single","AX5K9K4XYLXFI","gain","1","32","","","","","","","","","","","","","","","","","","","","","","","","","",""
"720","","text","47","338596","0.0-28.0","38881074","wem/bandit_single","AX5K9K4XYLXFI","gain","1","32","","","","","","","","","","","","","","","","","","","","","","","","","",""
"693","","text","48","339291","0.0-29.0","38881074","wem/bandit_single","AX5K9K4XYLXFI","gain","1","32","","","","","","","","","","","","","","","","","","","","","","","","","",""
"1528","","text","49","340820","0.0-30.0","38881074","wem/bandit_single","AX5K9K4XYLXFI","gain","1","32","","","","","","","","","","","","","","","","","","","","","","","","","",""
"1213","","text","50","342035","0.0-31.0","38881074","wem/bandit_single","AX5K9K4XYLXFI","gain","1","32","","","","","","","","","","","","","","","","","","","","","","","","","",""
"4462","","bandit","51","348005","0.0-32.0-0.0","38881074","wem/bandit_single","AX5K9K4XYLXFI","gain","1","","74","J","1","","0","0","1","0.2","0","true","0","0.8","0","full_practice","0.2","0","0.6","0","0.2","0","","","","","",""
"1312","","bandit","52","351075","0.0-32.0-1.0","38881074","wem/bandit_single","AX5K9K4XYLXFI","gain","1","","76","L","3","","1","0","0","0.2","0","true","0","0.8","0","full_practice","0.2","0","0.6","0","0.2","0","","","","","",""
"1009","","bandit","53","353842","0.0-32.0-2.0","38881074","wem/bandit_single","AX5K9K4XYLXFI","gain","1","","74","J","1","","0","0","1","0.2","0","true","0","0.8","0","full_practice","0.2","0","0.6","0","0.2","0","","","","","",""
"738","","bandit","54","356340","0.0-32.0-3.0","38881074","wem/bandit_single","AX5K9K4XYLXFI","gain","1","","75","K","2","","0","0","1","0.6","0","true","0","0.8","0","full_practice","0.2","0","0.6","0","0.2","0","","","","","",""
"1544","","bandit","55","359642","0.0-32.0-4.0","38881074","wem/bandit_single","AX5K9K4XYLXFI","gain","1","","76","L","3","","0","0","1","0.2","0","true","0","0.8","0","full_practice","0.2","0","0.6","0","0.2","0","","","","","",""
"4153","","bandit","56","365553","0.0-32.0-5.0","38881074","wem/bandit_single","AX5K9K4XYLXFI","gain","1","","72","H","0","img/none_selected.jpg","1","0","0","0.8","0","true","0","0.8","0","full_practice","0.2","0","0.6","0","0.2","0","","","","","",""
"1315","","bandit","57","368627","0.0-32.0-6.0","38881074","wem/bandit_single","AX5K9K4XYLXFI","gain","1","","72","H","0","img/none_selected.jpg","1","0","0","0.8","0","true","0","0.8","0","full_practice","0.2","0","0.6","0","0.2","0","","","","","",""
"1417","","bandit","58","371802","0.0-32.0-7.0","38881074","wem/bandit_single","AX5K9K4XYLXFI","gain","1","","72","H","0","img/none_selected.jpg","1","0","0","0.8","0","true","0","0.8","0","full_practice","0.2","0","0.6","0","0.2","0","","","","","",""
"1379","","bandit","59","374939","0.0-32.0-8.0","38881074","wem/bandit_single","AX5K9K4XYLXFI","gain","1","","72","H","0","img/none_selected.jpg","0","0","1","0.8","0","true","0","0.8","0","full_practice","0.2","0","0.6","0","0.2","0","","","","","",""
"1535","","bandit","60","378235","0.0-32.0-9.0","38881074","wem/bandit_single","AX5K9K4XYLXFI","gain","1","","72","H","0","img/none_selected.jpg","1","0","0","0.8","0","true","0","0.8","0","full_practice","0.2","0","0.6","0","0.2","0","","","","","",""
"1354","","bandit","61","381346","0.0-32.0-10.0","38881074","wem/bandit_single","AX5K9K4XYLXFI","gain","1","","72","H","0","img/none_selected.jpg","1","0","0","0.8","0","true","0","0.8","0","full_practice","0.2","0","0.6","0","0.2","0","","","","","",""
"3315","","bandit","62","386420","0.0-32.0-11.0","38881074","wem/bandit_single","AX5K9K4XYLXFI","gain","1","","72","H","0","img/none_selected.jpg","1","0","0","0.8","0","true","0","0.8","0","full_practice","0.2","0","0.6","0","0.2","0","","","","","",""
"1238","","bandit","63","389417","0.0-32.0-12.0","38881074","wem/bandit_single","AX5K9K4XYLXFI","gain","1","","72","H","0","img/none_selected.jpg","1","0","0","0.8","0","true","0","0.8","0","full_practice","0.2","0","0.6","0","0.2","0","","","","","",""
"2306","","bandit","64","393480","0.0-32.0-13.0","38881074","wem/bandit_single","AX5K9K4XYLXFI","gain","1","","72","H","0","img/none_selected.jpg","1","0","0","0.8","0","true","0","0.8","0","full_practice","0.2","0","0.6","0","0.2","0","","","","","",""
"215","","bandit","65","395456","0.0-32.0-14.0","38881074","wem/bandit_single","AX5K9K4XYLXFI","gain","1","","72","H","0","img/none_selected.jpg","1","0","0","0.8","0","true","0","0.8","0","full_practice","0.2","0","0.6","0","0.2","0","","","","","",""
"299","","bandit","66","397512","0.0-32.0-15.0","38881074","wem/bandit_single","AX5K9K4XYLXFI","gain","1","","72","H","0","img/none_selected.jpg","1","0","0","0.8","0","true","0","0.8","0","full_practice","0.2","0","0.6","0","0.2","0","","","","","",""
"5228","","bandit","67","404497","0.0-32.0-16.0","38881074","wem/bandit_single","AX5K9K4XYLXFI","gain","1","","72","H","0","img/none_selected.jpg","1","0","0","0.8","0","true","0","0.8","0","full_practice","0.2","0","0.6","0","0.2","0","","","","","",""
"5434","","bandit","68","411688","0.0-32.0-17.0","38881074","wem/bandit_single","AX5K9K4XYLXFI","gain","1","","72","H","0","img/none_selected.jpg","1","0","0","0.8","0","true","0","0.8","0","full_practice","0.2","0","0.6","0","0.2","0","","","","","",""
"850","","bandit","69","414298","0.0-32.0-18.0","38881074","wem/bandit_single","AX5K9K4XYLXFI","gain","1","","72","H","0","img/none_selected.jpg","0","0","1","0.8","0","true","0","0.8","0","full_practice","0.2","0","0.6","0","0.2","0","","","","","",""
"607","","bandit","70","416664","0.0-32.0-19.0","38881074","wem/bandit_single","AX5K9K4XYLXFI","gain","1","","74","J","1","","0","0","1","0.2","0","true","0","0.8","0","full_practice","0.2","0","0.6","0","0.2","0","","","","","",""
"4583","","text","71","421504","0.0-33.0","38881074","wem/bandit_single","AX5K9K4XYLXFI","gain","1","32","","","","","","","","","","","","","","","","","","","","","","","","","",""
"2302","","text","72","424810","0.0-34.0","38881074","wem/bandit_single","AX5K9K4XYLXFI","gain","1","32","","","","","","","","","","","","","","","","","","","","","","","","","",""
"1101","","text","73","425913","0.0-35.0","38881074","wem/bandit_single","AX5K9K4XYLXFI","gain","1","32","","","","","","","","","","","","","","","","","","","","","","","","","",""
"1717","","text","74","427632","0.0-36.0","38881074","wem/bandit_single","AX5K9K4XYLXFI","gain","1","32","","","","","","","","","","","","","","","","","","","","","","","","","",""
"4766","","text","75","432401","0.0-37.0","38881074","wem/bandit_single","AX5K9K4XYLXFI","gain","1","32","","","","","","","","","","","","","","","","","","","","","","","","","",""
"1508","","bandit","76","435417","0.0-38.0-0.0","38881074","wem/bandit_single","AX5K9K4XYLXFI","gain","1","","74","J","1","","0","0","1","0.04371116513","","false","1","0.1765468105","","main_expt","0.04371116513","","0.1079408374","","0.433486002","","","","","","",""
"1890","","bandit","77","439064","0.0-39.0-0.0","38881074","wem/bandit_single","AX5K9K4XYLXFI","gain","1","","74","J","1","","0","0","1","0.0204546363","","false","2","0.1569258514","","main_expt","0.0204546363","","0.1605706499","","0.4446307222","","","","","","",""
"818","","bandit","78","441638","0.0-40.0-0.0","38881074","wem/bandit_single","AX5K9K4XYLXFI","gain","1","","74","J","1","","0","0","1","0.02109221713","","false","3","0.1639246388","","main_expt","0.02109221713","","0.1829447669","","0.4522438858","","","","","","",""
"174","","bandit","79","443570","0.0-41.0-0.0","38881074","wem/bandit_single","AX5K9K4XYLXFI","gain","1","","72","H","0","img/none_selected.jpg","0","0","1","0.2130332657","","false","4","0.2130332657","","main_expt","0.04448829896","","0.1756642407","","0.4330109471","","","","","","",""
"585","","bandit","80","445914","0.0-42.0-0.0","38881074","wem/bandit_single","AX5K9K4XYLXFI","gain","1","","75","K","2","","0","0","1","0.1349544936","","false","5","0.1939577492","","main_expt","0.03824555068","","0.1349544936","","0.4678508314","","","","","","",""
"2431","","bandit","81","450103","0.0-43.0-0.0","38881074","wem/bandit_single","AX5K9K4XYLXFI","gain","1","","76","L","3","","1","0","0","0.4644602632","","false","6","0.2419857306","","main_expt","0.03028715703","","0.1356037804","","0.4644602632","","","","","","",""
"4146","","bandit","82","456008","0.0-44.0-0.0","38881074","wem/bandit_single","AX5K9K4XYLXFI","gain","1","","76","L","3","","1","0","0","0.4575746565","","false","7","0.2437977828","","main_expt","0.0280090558","","0.1731738011","","0.4575746565","","","","","","",""
"5459","","bandit","83","463226","0.0-45.0-0.0","38881074","wem/bandit_single","AX5K9K4XYLXFI","gain","1","","76","L","3","","0","0","1","0.4508833002","","false","8","0.2910779813","","main_expt","0.01994926529","","0.1697830552","","0.4508833002","","","","","","",""
"1540","","bandit","84","466526","0.0-46.0-0.0","38881074","wem/bandit_single","AX5K9K4XYLXFI","gain","1","","76","L","3","","1","0","0","0.446295775","","false","9","0.3043628405","","main_expt","0.02255652904","","0.1792782501","","0.446295775","","","","","","",""
"603","","bandit","85","468887","0.0-47.0-0.0","38881074","wem/bandit_single","AX5K9K4XYLXFI","gain","1","","76","L","3","","1","0","0","0.4564580261","","false","10","0.3568141906","","main_expt","0.02794315976","","0.1705688187","","0.4564580261","","","","","","",""
"4409","","bandit","86","475057","0.0-48.0-0.0","38881074","wem/bandit_single","AX5K9K4XYLXFI","gain","1","","76","L","3","","1","0","0","0.4233437492","","false","11","0.3439843329","","main_expt","0.02289966844","","0.1974022207","","0.4233437492","","","","","","",""
"9710","","bandit","87","486526","0.0-49.0-0.0","38881074","wem/bandit_single","AX5K9K4XYLXFI","gain","1","","76","L","3","","0","0","1","0.4129107721","","false","12","0.2959247237","","main_expt","0.01510656417","","0.1753487428","","0.4129107721","","","","","","",""
"4403","","bandit","88","492684","0.0-50.0-0.0","38881074","wem/bandit_single","AX5K9K4XYLXFI","gain","1","","76","L","3","","0","0","1","0.4188058581","","false","13","0.2711511111","","main_expt","0.01475809492","","0.1858973774","","0.4188058581","","","","","","",""
"931","","bandit","89","495375","0.0-51.0-0.0","38881074","wem/bandit_single","AX5K9K4XYLXFI","gain","1","","76","L","3","","0","0","1","0.4542155744","","false","14","0.2351285692","","main_expt","0.00909265887","","0.1873997244","","0.4542155744","","","","","","",""
"11774","","bandit","90","508910","0.0-52.0-0.0","38881074","wem/bandit_single","AX5K9K4XYLXFI","gain","1","","76","L","3","","1","0","0","0.4436127815","","false","15","0.3299180318","","main_expt","0.004683339805","","0.2079034381","","0.4436127815","","","","","","",""
"1206","","bandit","91","511875","0.0-53.0-0.0","38881074","wem/bandit_single","AX5K9K4XYLXFI","gain","1","","76","L","3","","1","0","0","0.4255220112","","false","16","0.3382291528","","main_expt","0.007493295572","","0.2116662278","","0.4255220112","","","","","","",""
"7609","","bandit","92","521244","0.0-54.0-0.0","38881074","wem/bandit_single","AX5K9K4XYLXFI","gain","1","","76","L","3","","0","0","1","0.4221090449","","false","17","0.3890963744","","main_expt","0.009835384986","","0.2460799228","","0.4221090449","","","","","","",""
"859","","bandit","93","523862","0.0-55.0-0.0","38881074","wem/bandit_single","AX5K9K4XYLXFI","gain","1","","76","L","3","","0","0","1","0.4157246332","","false","18","0.3102907615","","main_expt","0.01282838009","","0.2725156425","","0.4157246332","","","","","","",""
"641","","bandit","94","526261","0.0-56.0-0.0","38881074","wem/bandit_single","AX5K9K4XYLXFI","gain","1","","76","L","3","","0","0","1","0.4000612909","","false","19","0.2734902963","","main_expt","0.03935122736","","0.319312936","","0.4000612909","","","","","","",""
"3280","","bandit","95","531302","0.0-57.0-0.0","38881074","wem/bandit_single","AX5K9K4XYLXFI","gain","1","","76","L","3","","1","0","0","0.4116546581","","false","20","0.2157414593","","main_expt","0.03712672215","","0.3449168397","","0.4116546581","","","","","","",""
"960","","bandit","96","534021","0.0-58.0-0.0","38881074","wem/bandit_single","AX5K9K4XYLXFI","gain","1","","76","L","3","","1","0","0","0.4276829816","","false","21","0.2148325275","","main_expt","0.02631596187","","0.2668327531","","0.4276829816","","","","","","",""
"4761","","bandit","97","540542","0.0-59.0-0.0","38881074","wem/bandit_single","AX5K9K4XYLXFI","gain","1","","76","L","3","","0","0","1","0.3861543943","","false","22","0.1819582271","","main_expt","0.0338100911","","0.2786929748","","0.3861543943","","","","","","",""
"1488","","bandit","98","543791","0.0-60.0-0.0","38881074","wem/bandit_single","AX5K9K4XYLXFI","gain","1","","76","L","3","","0","0","1","0.3815006395","","false","23","0.1776669961","","main_expt","0.06132921526","","0.2012253143","","0.3815006395","","","","","","",""
"2253","","bandit","99","547804","0.0-61.0-0.0","38881074","wem/bandit_single","AX5K9K4XYLXFI","gain","1","","76","L","3","","1","0","0","0.4063144844","","false","24","0.2595803745","","main_expt","0.06546003458","","0.1363446769","","0.4063144844","","","","","","",""
"5667","","bandit","100","555230","0.0-62.0-0.0","38881074","wem/bandit_single","AX5K9K4XYLXFI","gain","1","","76","L","3","","0","0","1","0.3218764758","","false","25","0.2184946748","","main_expt","0.08327489459","","0.1395957504","","0.3218764758","","","","","","",""
"2775","","bandit","101","559763","0.0-63.0-0.0","38881074","wem/bandit_single","AX5K9K4XYLXFI","gain","1","","76","L","3","","0","0","1","0.3190898414","","false","26","0.2382025465","","main_expt","0.06117167893","","0.1095431569","","0.3190898414","","","","","","",""
"1226","","bandit","102","562748","0.0-64.0-0.0","38881074","wem/bandit_single","AX5K9K4XYLXFI","gain","1","","76","L","3","","1","0","0","0.361309168","","false","27","0.2249508913","","main_expt","0.03494965278","","0.1290148999","","0.361309168","","","","","","",""
"736","","bandit","103","565243","0.0-65.0-0.0","38881074","wem/bandit_single","AX5K9K4XYLXFI","gain","1","","76","L","3","","1","0","0","0.3247985582","","false","28","0.2388683754","","main_expt","0.02964638986","","0.09304199486","","0.3247985582","","","","","","",""
"8735","","bandit","104","575738","0.0-66.0-0.0","38881074","wem/bandit_single","AX5K9K4XYLXFI","gain","1","","76","L","3","","1","0","0","0.3358989687","","false","29","0.238121012","","main_expt","0.03498116837","","0.1042487788","","0.3358989687","","","","","","",""
"1203","","bandit","105","578696","0.0-67.0-0.0","38881074","wem/bandit_single","AX5K9K4XYLXFI","gain","1","","76","L","3","","0","0","1","0.3833706669","","false","30","0.2995264376","","main_expt","0.04244048525","","0.1177759499","","0.3833706669","","","","","","",""
"2610","","bandit","106","583066","0.0-68.0-0.0","38881074","wem/bandit_single","AX5K9K4XYLXFI","gain","1","","76","L","3","","0","0","1","0.365606812","","false","31","0.2738636663","","main_expt","0.06152315655","","0.1177925617","","0.365606812","","","","","","",""
"1115","","bandit","107","585940","0.0-69.0-0.0","38881074","wem/bandit_single","AX5K9K4XYLXFI","gain","1","","76","L","3","","0","0","1","0.3376656117","","false","32","0.3185168498","","main_expt","0.04890303061","","0.08495919706","","0.3376656117","","","","","","",""
"32","","bandit","108","587728","0.0-70.0-0.0","38881074","wem/bandit_single","AX5K9K4XYLXFI","gain","1","","75","K","2","","1","0","0","0.09918690981","","false","33","0.3160257618","","main_expt","0.06913310411","","0.09918690981","","0.3632929272","","","","","","",""
"946","","bandit","109","590433","0.0-71.0-0.0","38881074","wem/bandit_single","AX5K9K4XYLXFI","gain","1","","75","K","2","","0","0","1","0.1267106232","","false","34","0.3411570355","","main_expt","0.07311713639","","0.1267106232","","0.4008603673","","","","","","",""
"1939","","bandit","110","594130","0.0-72.0-0.0","38881074","wem/bandit_single","AX5K9K4XYLXFI","gain","1","","74","J","1","","0","0","1","0.08374615962","","false","35","0.3190481916","","main_expt","0.08374615962","","0.1076928618","","0.4024879816","","","","","","",""
"2022","","bandit","111","597913","0.0-73.0-0.0","38881074","wem/bandit_single","AX5K9K4XYLXFI","gain","1","","74","J","1","","0","0","1","0.08182693844","","false","36","0.3264142162","","main_expt","0.08182693844","","0.1298816773","","0.3740303516","","","","","","",""
"563","","bandit","112","600235","0.0-74.0-0.0","38881074","wem/bandit_single","AX5K9K4XYLXFI","gain","1","","72","H","0","img/none_selected.jpg","1","0","0","0.3198880486","","false","37","0.3198880486","","main_expt","0.1343371601","","0.1459487567","","0.3728306432","","","","","","",""
"1537","","bandit","113","603530","0.0-75.0-0.0","38881074","wem/bandit_single","AX5K9K4XYLXFI","gain","1","","72","H","0","img/none_selected.jpg","1","0","0","0.3683112265","","false","38","0.3683112265","","main_expt","0.155986589","","0.1339045699","","0.3805434418","","","","","","",""
"1910","","bandit","114","607200","0.0-76.0-0.0","38881074","wem/bandit_single","AX5K9K4XYLXFI","gain","1","","72","H","0","img/none_selected.jpg","1","0","0","0.3427238384","","false","39","0.3427238384","","main_expt","0.1477757124","","0.1345127174","","0.3969568822","","","","","","",""
"945","","bandit","115","609904","0.0-77.0-0.0","38881074","wem/bandit_single","AX5K9K4XYLXFI","gain","1","","72","H","0","img/none_selected.jpg","0","0","1","0.3218453083","","false","40","0.3218453083","","main_expt","0.1673850924","","0.1283460502","","0.3988554294","","","","","","",""
"2752","","bandit","116","614417","0.0-78.0-0.0","38881074","wem/bandit_single","AX5K9K4XYLXFI","gain","1","","72","H","0","img/none_selected.jpg","1","0","0","0.3085515908","","false","41","0.3085515908","","main_expt","0.1798739011","","0.120913883","","0.4510691137","","","","","","",""
"1171","","bandit","117","617346","0.0-79.0-0.0","38881074","wem/bandit_single","AX5K9K4XYLXFI","gain","1","","72","H","0","img/none_selected.jpg","1","0","0","0.3072415044","","false","42","0.3072415044","","main_expt","0.1559165864","","0.1045942129","","0.4575220824","","","","","","",""
"1326","","bandit","118","620433","0.0-80.0-0.0","38881074","wem/bandit_single","AX5K9K4XYLXFI","gain","1","","72","H","0","img/none_selected.jpg","1","0","0","0.272500382","","false","43","0.272500382","","main_expt","0.1058033922","","0.09432917568","","0.4425049573","","","","","","",""
"6066","","bandit","119","628257","0.0-81.0-0.0","38881074","wem/bandit_single","AX5K9K4XYLXFI","gain","1","","72","H","0","img/none_selected.jpg","0","0","1","0.2865836788","","false","44","0.2865836788","","main_expt","0.08489334424","","0.07221407183","","0.4232077065","","","","","","",""
"2751","","bandit","120","632768","0.0-82.0-0.0","38881074","wem/bandit_single","AX5K9K4XYLXFI","gain","1","","72","H","0","img/none_selected.jpg","0","0","1","0.2991622886","","false","45","0.2991622886","","main_expt","0.05905190464","","0.05666738762","","0.4098430077","","","","","","",""
"3681","","bandit","121","638208","0.0-83.0-0.0","38881074","wem/bandit_single","AX5K9K4XYLXFI","gain","1","","74","J","1","","0","0","1","0.06331323714","","false","46","0.2531917612","","main_expt","0.06331323714","","0.03432969329","","0.4038708701","","","","","","",""
"2913","","bandit","122","642880","0.0-84.0-0.0","38881074","wem/bandit_single","AX5K9K4XYLXFI","gain","1","","74","J","1","","0","0","1","0.05657329797","","false","47","0.174020607","","main_expt","0.05657329797","","0.03955917442","","0.4162646915","","","","","","",""
"3170","","bandit","123","647809","0.0-85.0-0.0","38881074","wem/bandit_single","AX5K9K4XYLXFI","gain","1","","75","K","2","","0","0","1","0.02792503423","","false","48","0.1890064997","","main_expt","0.04718629669","","0.02792503423","","0.4188900116","","","","","","",""
"1102","","bandit","124","650671","0.0-86.0-0.0","38881074","wem/bandit_single","AX5K9K4XYLXFI","gain","1","","76","L","3","","1","0","0","0.4566014176","","false","49","0.218442061","","main_expt","0.03289244517","","0.03726959289","","0.4566014176","","","","","","",""
"2002","","bandit","125","654430","0.0-87.0-0.0","38881074","wem/bandit_single","AX5K9K4XYLXFI","gain","1","","76","L","3","","1","0","0","0.4447058567","","false","50","0.1635183119","","main_expt","0.03266450512","","0.03358305353","","0.4447058567","","","","","","",""
"2467","","bandit","126","658656","0.0-88.0-0.0","38881074","wem/bandit_single","AX5K9K4XYLXFI","gain","1","","76","L","3","","0","0","1","0.4304926469","","false","51","0.1366577914","","main_expt","0.03026904774","","0.03344521258","","0.4304926469","","","","","","",""
"5416","","bandit","127","665833","0.0-89.0-0.0","38881074","wem/bandit_single","AX5K9K4XYLXFI","gain","1","","76","L","3","","0","0","1","0.4221781581","","false","52","0.1797398031","","main_expt","0.03251993274","","0.04269272659","","0.4221781581","","","","","","",""
"527","","bandit","128","668118","0.0-90.0-0.0","38881074","wem/bandit_single","AX5K9K4XYLXFI","gain","1","","72","H","0","img/none_selected.jpg","0","0","1","0.2893410322","","false","53","0.2893410322","","main_expt","0.03960602941","","0.023815337","","0.3687481665","","","","","","",""
"2699","","bandit","129","672574","0.0-91.0-0.0","38881074","wem/bandit_single","AX5K9K4XYLXFI","gain","1","","74","J","1","","0","0","1","0.05707063203","","false","54","0.2985665456","","main_expt","0.05707063203","","0.02455785224","","0.3458934235","","","","","","",""
"1858","","bandit","130","676191","0.0-92.0-0.0","38881074","wem/bandit_single","AX5K9K4XYLXFI","gain","1","","75","K","2","","0","0","1","0.03998391886","","false","55","0.3336948264","","main_expt","0.04044117434","","0.03998391886","","0.4042580408","","","","","","",""
"2705","","bandit","131","680654","0.0-93.0-0.0","38881074","wem/bandit_single","AX5K9K4XYLXFI","gain","1","","75","K","2","","0","0","1","0.06538112884","","false","56","0.282194417","","main_expt","0.05627119328","","0.06538112884","","0.4471112694","","","","","","",""
"769","","bandit","132","683181","0.0-94.0-0.0","38881074","wem/bandit_single","AX5K9K4XYLXFI","gain","1","","75","K","2","","1","0","0","0.08662171517","","false","57","0.3239389597","","main_expt","0.06172895681","","0.08662171517","","0.4640351361","","","","","","",""
"897","","bandit","133","685837","0.0-95.0-0.0","38881074","wem/bandit_single","AX5K9K4XYLXFI","gain","1","","75","K","2","","0","0","1","0.08191290536","","false","58","0.3114288274","","main_expt","0.0708730922","","0.08191290536","","0.4654795878","","","","","","",""
"3063","","bandit","134","690662","0.0-96.0-0.0","38881074","wem/bandit_single","AX5K9K4XYLXFI","gain","1","","75","K","2","","0","0","1","0.06359390603","","false","59","0.3090129124","","main_expt","0.06307994893","","0.06359390603","","0.477644797","","","","","","",""
"689","","bandit","135","693110","0.0-97.0-0.0","38881074","wem/bandit_single","AX5K9K4XYLXFI","gain","1","","76","L","3","","0","0","1","0.4637057102","","false","60","0.3273240357","","main_expt","0.06865221942","","0.1113565871","","0.4637057102","","","","","","",""
"555","","bandit","136","695422","0.0-98.0-0.0","38881074","wem/bandit_single","AX5K9K4XYLXFI","gain","1","","74","J","1","","0","0","1","0.04710261487","","false","61","0.333760802","","main_expt","0.04710261487","","0.1224908949","","0.4575353452","","","","","","",""
"1409","","bandit","137","698592","0.0-99.0-0.0","38881074","wem/bandit_single","AX5K9K4XYLXFI","gain","1","","72","H","0","img/none_selected.jpg","0","0","1","0.3721083552","","false","62","0.3721083552","","main_expt","0.04180279512","","0.1011510181","","0.4511824808","","","","","","",""
"3758","","bandit","138","704110","0.0-100.0-0.0","38881074","wem/bandit_single","AX5K9K4XYLXFI","gain","1","","72","H","0","img/none_selected.jpg","1","0","0","0.3366911892","","false","63","0.3366911892","","main_expt","0.04669584184","","0.1241823521","","0.4522744543","","","","","","",""
"2903","","bandit","139","708773","0.0-101.0-0.0","38881074","wem/bandit_single","AX5K9K4XYLXFI","gain","1","","72","H","0","img/none_selected.jpg","1","0","0","0.352845708","","false","64","0.352845708","","main_expt","0.04699929359","","0.1277445844","","0.4534383651","","","","","","",""
"2657","","bandit","140","713188","0.0-102.0-0.0","38881074","wem/bandit_single","AX5K9K4XYLXFI","gain","1","","72","H","0","img/none_selected.jpg","0","0","1","0.3797865956","","false","65","0.3797865956","","main_expt","0.06422912444","","0.1594820305","","0.4578128414","","","","","","",""
"305","","bandit","141","715253","0.0-103.0-0.0","38881074","wem/bandit_single","AX5K9K4XYLXFI","gain","1","","75","K","2","","0","0","1","0.1902728197","","false","66","0.3776123686","","main_expt","0.09107067683","","0.1902728197","","0.4675149648","","","","","","",""
"3928","","bandit","142","720941","0.0-104.0-0.0","38881074","wem/bandit_single","AX5K9K4XYLXFI","gain","1","","76","L","3","","1","0","0","0.4801185054","","false","67","0.3520302909","","main_expt","0.1295134299","","0.1915604568","","0.4801185054","","","","","","",""
"5560","","bandit","143","728260","0.0-105.0-0.0","38881074","wem/bandit_single","AX5K9K4XYLXFI","gain","1","","76","L","3","","0","0","1","0.4853911876","","false","68","0.3563070861","","main_expt","0.1501953896","","0.2292904293","","0.4853911876","","","","","","",""
"4341","","bandit","144","734362","0.0-106.0-0.0","38881074","wem/bandit_single","AX5K9K4XYLXFI","gain","1","","76","L","3","","1","0","0","0.45952887","","false","69","0.3773129781","","main_expt","0.2120393587","","0.2982444272","","0.45952887","","","","","","",""
"4802","","bandit","145","740925","0.0-107.0-0.0","38881074","wem/bandit_single","AX5K9K4XYLXFI","gain","1","","76","L","3","","0","0","1","0.4519788387","","false","70","0.3620092878","","main_expt","0.2046372205","","0.2038928517","","0.4519788387","","","","","","",""
"3991","","bandit","146","746675","0.0-108.0-0.0","38881074","wem/bandit_single","AX5K9K4XYLXFI","gain","1","","76","L","3","","1","0","0","0.4644284496","","false","71","0.3689610789","","main_expt","0.1711657315","","0.2470144531","","0.4644284496","","","","","","",""
"749","","bandit","147","749186","0.0-109.0-0.0","38881074","wem/bandit_single","AX5K9K4XYLXFI","gain","1","","76","L","3","","1","0","0","0.4275080271","","false","72","0.335535794","","main_expt","0.1804367846","","0.2339224101","","0.4275080271","","","","","","",""
"1379","","bandit","148","752323","0.0-110.0-0.0","38881074","wem/bandit_single","AX5K9K4XYLXFI","gain","1","","76","L","3","","0","0","1","0.4333248441","","false","73","0.3669127126","","main_expt","0.1582310148","","0.198403553","","0.4333248441","","","","","","",""
"2903","","bandit","149","756986","0.0-111.0-0.0","38881074","wem/bandit_single","AX5K9K4XYLXFI","gain","1","","76","L","3","","0","0","1","0.4272577829","","false","74","0.3360165716","","main_expt","0.1300952354","","0.2162510441","","0.4272577829","","","","","","",""
"5170","","bandit","150","763916","0.0-112.0-0.0","38881074","wem/bandit_single","AX5K9K4XYLXFI","gain","1","","76","L","3","","1","0","0","0.353629049","","false","75","0.3379177146","","main_expt","0.1414689969","","0.2467290531","","0.353629049","","","","","","",""
"3606","","bandit","151","769281","0.0-113.0-0.0","38881074","wem/bandit_single","AX5K9K4XYLXFI","gain","1","","76","L","3","","1","0","0","0.3526453175","","false","76","0.3489784935","","main_expt","0.1315789974","","0.2199510863","","0.3526453175","","","","","","",""
"2393","","bandit","152","773433","0.0-114.0-0.0","38881074","wem/bandit_single","AX5K9K4XYLXFI","gain","1","","76","L","3","","0","0","1","0.397337216","","false","77","0.2843927136","","main_expt","0.1054244057","","0.1600424727","","0.397337216","","","","","","",""
"2947","","bandit","153","778139","0.0-115.0-0.0","38881074","wem/bandit_single","AX5K9K4XYLXFI","gain","1","","76","L","3","","1","0","0","0.3747850168","","false","78","0.2585585406","","main_expt","0.1028875903","","0.1366877547","","0.3747850168","","","","","","",""
"2976","","bandit","154","782874","0.0-116.0-0.0","38881074","wem/bandit_single","AX5K9K4XYLXFI","gain","1","","76","L","3","","0","0","1","0.3500135026","","false","79","0.2211992803","","main_expt","0.1010795136","","0.1608027171","","0.3500135026","","","","","","",""
"5050","","bandit","155","789681","0.0-117.0-0.0","38881074","wem/bandit_single","AX5K9K4XYLXFI","gain","1","","76","L","3","","0","0","1","0.3362224365","","false","80","0.1670678668","","main_expt","0.09661145037","","0.2004121585","","0.3362224365","","","","","","",""
"1537","","bandit","156","792980","0.0-118.0-0.0","38881074","wem/bandit_single","AX5K9K4XYLXFI","gain","1","","76","L","3","","1","0","0","0.3626400229","","false","81","0.1536487801","","main_expt","0.06079528701","","0.2100463009","","0.3626400229","","","","","","",""
"3789","","bandit","157","798530","0.0-119.0-0.0","38881074","wem/bandit_single","AX5K9K4XYLXFI","gain","1","","76","L","3","","0","0","1","0.3433004166","","false","82","0.164055667","","main_expt","0.0561923849","","0.2313995655","","0.3433004166","","","","","","",""
"1257","","bandit","158","801545","0.0-120.0-0.0","38881074","wem/bandit_single","AX5K9K4XYLXFI","gain","1","","76","L","3","","1","0","0","0.3564809269","","false","83","0.1795096781","","main_expt","0.05471979201","","0.1805974068","","0.3564809269","","","","","","",""
"4663","","bandit","159","807971","0.0-121.0-0.0","38881074","wem/bandit_single","AX5K9K4XYLXFI","gain","1","","76","L","3","","0","0","1","0.3403656385","","false","84","0.1568762326","","main_expt","0.04961315052","","0.1351257884","","0.3403656385","","","","","","",""
"2973","","bandit","160","812704","0.0-122.0-0.0","38881074","wem/bandit_single","AX5K9K4XYLXFI","gain","1","","76","L","3","","0","0","1","0.3009252634","","false","85","0.1857208284","","main_expt","0.05195310968","","0.1372280885","","0.3009252634","","","","","","",""
"1327","","bandit","161","815791","0.0-123.0-0.0","38881074","wem/bandit_single","AX5K9K4XYLXFI","gain","1","","76","L","3","","0","0","1","0.3067316121","","false","86","0.2180329602","","main_expt","0.05385113756","","0.1685840628","","0.3067316121","","","","","","",""
"2745","","bandit","162","820296","0.0-124.0-0.0","38881074","wem/bandit_single","AX5K9K4XYLXFI","gain","1","","76","L","3","","0","0","1","0.3073916088","","false","87","0.1893737279","","main_expt","0.08202519069","","0.1654340797","","0.3073916088","","","","","","",""
"8120","","bandit","163","830177","0.0-125.0-0.0","38881074","wem/bandit_single","AX5K9K4XYLXFI","gain","1","","76","L","3","","0","0","1","0.301504441","","false","88","0.2309201776","","main_expt","0.04873944257","","0.1870328522","","0.301504441","","","","","","",""
"3144","","bandit","164","835081","0.0-126.0-0.0","38881074","wem/bandit_single","AX5K9K4XYLXFI","gain","1","","76","L","3","","0","0","1","0.3324072184","","false","89","0.2368651839","","main_expt","0.05553778571","","0.1786415591","","0.3324072184","","","","","","",""
"2016","","bandit","165","838856","0.0-127.0-0.0","38881074","wem/bandit_single","AX5K9K4XYLXFI","gain","1","","76","L","3","","0","0","1","0.3245139686","","false","90","0.2459093935","","main_expt","0.04980790846","","0.2293974223","","0.3245139686","","","","","","",""
"4560","","bandit","166","845175","0.0-128.0-0.0","38881074","wem/bandit_single","AX5K9K4XYLXFI","gain","1","","76","L","3","","0","0","1","0.3310751299","","false","91","0.2371609774","","main_expt","0.05804880768","","0.2407797963","","0.3310751299","","","","","","",""
"6152","","bandit","167","853086","0.0-129.0-0.0","38881074","wem/bandit_single","AX5K9K4XYLXFI","gain","1","","76","L","3","","0","0","1","0.3717444616","","false","92","0.260478489","","main_expt","0.0614883172","","0.2337544695","","0.3717444616","","","","","","",""
"340","","bandit","168","855186","0.0-130.0-0.0","38881074","wem/bandit_single","AX5K9K4XYLXFI","gain","1","","75","K","2","","1","0","0","0.2589688886","","false","93","0.2595992258","","main_expt","0.0764333552","","0.2589688886","","0.3846532122","","","","","","",""
"1056","","bandit","169","858002","0.0-131.0-0.0","38881074","wem/bandit_single","AX5K9K4XYLXFI","gain","1","","75","K","2","","0","0","1","0.2699529923","","false","94","0.206568391","","main_expt","0.1280824273","","0.2699529923","","0.4017211595","","","","","","",""
"253","","bandit","170","860015","0.0-132.0-0.0","38881074","wem/bandit_single","AX5K9K4XYLXFI","gain","1","","74","J","1","","0","0","1","0.1191245721","","false","95","0.1846794781","","main_expt","0.1191245721","","0.2626559999","","0.3736639641","","","","","","",""
"584","","bandit","171","862358","0.0-133.0-0.0","38881074","wem/bandit_single","AX5K9K4XYLXFI","gain","1","","75","K","2","","0","0","1","0.2196428224","","false","96","0.2484851932","","main_expt","0.08526153109","","0.2196428224","","0.3220453652","","","","","","",""
"1420","","bandit","172","865534","0.0-134.0-0.0","38881074","wem/bandit_single","AX5K9K4XYLXFI","gain","1","","72","H","0","img/none_selected.jpg","0","0","1","0.198145661","","false","97","0.198145661","","main_expt","0.0775518538","","0.1922289922","","0.2964534367","","","","","","",""
"400","","bandit","173","867695","0.0-135.0-0.0","38881074","wem/bandit_single","AX5K9K4XYLXFI","gain","1","","76","L","3","","0","0","1","0.3388366936","","false","98","0.1738253929","","main_expt","0.08824897118","","0.2328023708","","0.3388366936","","","","","","",""
"811","","bandit","174","870264","0.0-136.0-0.0","38881074","wem/bandit_single","AX5K9K4XYLXFI","gain","1","","75","K","2","","0","0","1","0.2606341713","","false","99","0.1261523865","","main_expt","0.08912321317","","0.2606341713","","0.4233536788","","","","","","",""
"840","","bandit","175","872863","0.0-137.0-0.0","38881074","wem/bandit_single","AX5K9K4XYLXFI","gain","1","","74","J","1","","0","0","1","0.1217067293","","false","100","0.1368684177","","main_expt","0.1217067293","","0.310387162","","0.3799029244","","","","","","",""
"435","","bandit","176","875057","0.0-138.0-0.0","38881074","wem/bandit_single","AX5K9K4XYLXFI","gain","1","","72","H","0","img/none_selected.jpg","0","0","1","0.1262970555","","false","101","0.1262970555","","main_expt","0.08537200695","","0.3802628165","","0.3644029447","","","","","","",""
"469","","bandit","177","877286","0.0-139.0-0.0","38881074","wem/bandit_single","AX5K9K4XYLXFI","gain","1","","76","L","3","","0","0","1","0.3414838768","","false","102","0.1022564356","","main_expt","0.09606980913","","0.4133848668","","0.3414838768","","","","","","",""
"1009","","bandit","178","880054","0.0-140.0-0.0","38881074","wem/bandit_single","AX5K9K4XYLXFI","gain","1","","75","K","2","","1","0","0","0.4352089555","","false","103","0.07046703442","","main_expt","0.09968925047","","0.4352089555","","0.3691073091","","","","","","",""
"1728","","bandit","179","883541","0.0-141.0-0.0","38881074","wem/bandit_single","AX5K9K4XYLXFI","gain","1","","75","K","2","","0","0","1","0.4248252031","","false","104","0.08582175226","","main_expt","0.1070137741","","0.4248252031","","0.3386210986","","","","","","",""
"938","","bandit","180","886237","0.0-142.0-0.0","38881074","wem/bandit_single","AX5K9K4XYLXFI","gain","1","","74","J","1","","0","0","1","0.1086060941","","false","105","0.08910626196","","main_expt","0.1086060941","","0.4382512542","","0.3517858304","","","","","","",""
"1335","","bandit","181","889334","0.0-143.0-0.0","38881074","wem/bandit_single","AX5K9K4XYLXFI","gain","1","","75","K","2","","1","0","0","0.4551412652","","false","106","0.09380004764","","main_expt","0.1006724549","","0.4551412652","","0.4016578568","","","","","","",""
"1207","","bandit","182","892301","0.0-144.0-0.0","38881074","wem/bandit_single","AX5K9K4XYLXFI","gain","1","","75","K","2","","0","0","1","0.4481373055","","false","107","0.08916311959","","main_expt","0.07769839914","","0.4481373055","","0.3951748439","","","","","","",""
"639","","bandit","183","894701","0.0-145.0-0.0","38881074","wem/bandit_single","AX5K9K4XYLXFI","gain","1","","75","K","2","","0","0","1","0.4611843773","","false","108","0.1635033392","","main_expt","0.09470950607","","0.4611843773","","0.3933810371","","","","","","",""
"480","","bandit","184","896941","0.0-146.0-0.0","38881074","wem/bandit_single","AX5K9K4XYLXFI","gain","1","","75","K","2","","0","0","1","0.416280782","","false","109","0.1923408453","","main_expt","0.1117426234","","0.416280782","","0.3961603237","","","","","","",""
"312","","bandit","185","899013","0.0-147.0-0.0","38881074","wem/bandit_single","AX5K9K4XYLXFI","gain","1","","74","J","1","","0","0","1","0.1190643529","","false","110","0.1668397223","","main_expt","0.1190643529","","0.3959176693","","0.3933476799","","","","","","",""
"528","","bandit","186","901302","0.0-148.0-0.0","38881074","wem/bandit_single","AX5K9K4XYLXFI","gain","1","","76","L","3","","1","0","0","0.3953313537","","false","111","0.1254506171","","main_expt","0.1605091549","","0.3881072513","","0.3953313537","","","","","","",""
"630","","bandit","187","903692","0.0-149.0-0.0","38881074","wem/bandit_single","AX5K9K4XYLXFI","gain","1","","76","L","3","","0","0","1","0.3398422341","","false","112","0.1596839241","","main_expt","0.1531505469","","0.3430735849","","0.3398422341","","","","","","",""
"378","","bandit","188","905830","0.0-150.0-0.0","38881074","wem/bandit_single","AX5K9K4XYLXFI","gain","1","","72","H","0","img/none_selected.jpg","1","0","0","0.1986187203","","false","113","0.1986187203","","main_expt","0.1796188848","","0.3036143476","","0.375538402","","","","","","",""
"589","","bandit","189","908181","0.0-151.0-0.0","38881074","wem/bandit_single","AX5K9K4XYLXFI","gain","1","","76","L","3","","1","0","0","0.3629483147","","false","114","0.2334514198","","main_expt","0.1820080726","","0.3581708668","","0.3629483147","","","","","","",""
"527","","bandit","190","910470","0.0-152.0-0.0","38881074","wem/bandit_single","AX5K9K4XYLXFI","gain","1","","72","H","0","img/none_selected.jpg","0","0","1","0.1892672839","","false","115","0.1892672839","","main_expt","0.2050936175","","0.2948471219","","0.2969550108","","","","","","",""
"374","","bandit","191","912603","0.0-153.0-0.0","38881074","wem/bandit_single","AX5K9K4XYLXFI","gain","1","","76","L","3","","1","0","0","0.260261953","","false","116","0.1507180646","","main_expt","0.2071503316","","0.2711132382","","0.260261953","","","","","","",""
"1104","","bandit","192","915468","0.0-154.0-0.0","38881074","wem/bandit_single","AX5K9K4XYLXFI","gain","1","","76","L","3","","1","0","0","0.2626326191","","false","117","0.1830546279","","main_expt","0.2359882763","","0.3124997295","","0.2626326191","","","","","","",""
"3537","","bandit","193","920764","0.0-155.0-0.0","38881074","wem/bandit_single","AX5K9K4XYLXFI","gain","1","","76","L","3","","0","0","1","0.2933310536","","false","118","0.1415506149","","main_expt","0.2388261631","","0.3888019654","","0.2933310536","","","","","","",""
"4623","","bandit","194","927150","0.0-156.0-0.0","38881074","wem/bandit_single","AX5K9K4XYLXFI","gain","1","","76","L","3","","0","0","1","0.2469992957","","false","119","0.1814909568","","main_expt","0.2470137322","","0.3695751837","","0.2469992957","","","","","","",""
"13590","","bandit","195","942501","0.0-157.0-0.0","38881074","wem/bandit_single","AX5K9K4XYLXFI","gain","1","","76","L","3","","0","0","1","0.2186909282","","false","120","0.1900691043","","main_expt","0.209676098","","0.3471196364","","0.2186909282","","","","","","",""
"12225","","bandit","196","956483","0.0-158.0-0.0","38881074","wem/bandit_single","AX5K9K4XYLXFI","gain","1","","76","L","3","","0","0","1","0.1915374776","","false","121","0.2002257321","","main_expt","0.2058519679","","0.3164400491","","0.1915374776","","","","","","",""
"1154","","bandit","197","959393","0.0-159.0-0.0","38881074","wem/bandit_single","AX5K9K4XYLXFI","gain","1","","72","H","0","img/none_selected.jpg","0","0","1","0.2000360786","","false","122","0.2000360786","","main_expt","0.1409467191","","0.3565888941","","0.1666700693","","","","","","",""
"553","","bandit","198","961707","0.0-160.0-0.0","38881074","wem/bandit_single","AX5K9K4XYLXFI","gain","1","","74","J","1","","0","0","1","0.08785727187","","false","123","0.1656706666","","main_expt","0.08785727187","","0.3293983066","","0.1779758636","","","","","","",""
"633","","bandit","199","964097","0.0-161.0-0.0","38881074","wem/bandit_single","AX5K9K4XYLXFI","gain","1","","75","K","2","","0","0","1","0.3202360925","","false","124","0.2433115295","","main_expt","0.1153756664","","0.3202360925","","0.2483730269","","","","","","",""
"258","","bandit","200","966114","0.0-162.0-0.0","38881074","wem/bandit_single","AX5K9K4XYLXFI","gain","1","","76","L","3","","1","0","0","0.2274485556","","false","125","0.1810024247","","main_expt","0.1211147435","","0.3478690395","","0.2274485556","","","","","","",""
"5784","","bandit","201","973657","0.0-163.0-0.0","38881074","wem/bandit_single","AX5K9K4XYLXFI","gain","1","","76","L","3","","0","0","1","0.2506805994","","false","126","0.2138299762","","main_expt","0.1434737457","","0.3312811416","","0.2506805994","","","","","","",""
"11473","","bandit","202","986891","0.0-164.0-0.0","38881074","wem/bandit_single","AX5K9K4XYLXFI","gain","1","","76","L","3","","0","0","1","0.2520497492","","false","127","0.1993304114","","main_expt","0.1970801631","","0.2641060438","","0.2520497492","","","","","","",""
"199","","bandit","203","988851","0.0-165.0-0.0","38881074","wem/bandit_single","AX5K9K4XYLXFI","gain","1","","72","H","0","img/none_selected.jpg","0","0","1","0.2602773644","","false","128","0.2602773644","","main_expt","0.2891253811","","0.2239657692","","0.1948091286","","","","","","",""
"5607","","bandit","204","996216","0.0-166.0-0.0","38881074","wem/bandit_single","AX5K9K4XYLXFI","gain","1","","74","J","1","","0","0","1","0.2389970352","","false","129","0.2960784606","","main_expt","0.2389970352","","0.2243581634","","0.1749799719","","","","","","",""
"2236","","bandit","205","1000213","0.0-167.0-0.0","38881074","wem/bandit_single","AX5K9K4XYLXFI","gain","1","","75","K","2","","0","0","1","0.2215765871","","false","130","0.2720271615","","main_expt","0.2613596901","","0.2215765871","","0.1950546205","","","","","","",""
"3861","","bandit","206","1005834","0.0-168.0-0.0","38881074","wem/bandit_single","AX5K9K4XYLXFI","gain","1","","75","K","2","","0","0","1","0.1796651873","","false","131","0.2403459828","","main_expt","0.2254289723","","0.1796651873","","0.2501377387","","","","","","",""
"671","","bandit","207","1008264","0.0-169.0-0.0","38881074","wem/bandit_single","AX5K9K4XYLXFI","gain","1","","75","K","2","","0","0","1","0.1946412172","","false","132","0.2261584059","","main_expt","0.2759434303","","0.1946412172","","0.2275015869","","","","","","",""
"591","","bandit","208","1010616","0.0-170.0-0.0","38881074","wem/bandit_single","AX5K9K4XYLXFI","gain","1","","74","J","1","","0","0","1","0.3153186182","","false","133","0.225512635","","main_expt","0.3153186182","","0.2390261597","","0.1961271051","","","","","","",""
"14416","","bandit","209","1026792","0.0-171.0-0.0","38881074","wem/bandit_single","AX5K9K4XYLXFI","gain","1","","74","J","1","","0","0","1","0.2950667763","","false","134","0.2119287539","","main_expt","0.2950667763","","0.227958871","","0.2508816485","","","","","","",""
"136","","bandit","210","1028687","0.0-172.0-0.0","38881074","wem/bandit_single","AX5K9K4XYLXFI","gain","1","","75","K","2","","1","0","0","0.2312014448","","false","135","0.1980603764","","main_expt","0.3307223606","","0.2312014448","","0.3394706536","","","","","","",""
"668","","bandit","211","1031113","0.0-173.0-0.0","38881074","wem/bandit_single","AX5K9K4XYLXFI","gain","1","","75","K","2","","1","0","0","0.27599984","","false","136","0.2325476757","","main_expt","0.3298223854","","0.27599984","","0.2837829406","","","","","","",""
"1085","","bandit","212","1033961","0.0-174.0-0.0","38881074","wem/bandit_single","AX5K9K4XYLXFI","gain","1","","75","K","2","","0","0","1","0.2313694212","","false","137","0.2334264213","","main_expt","0.3330531331","","0.2313694212","","0.3024244849","","","","","","",""
"3958","","bandit","213","1039681","0.0-175.0-0.0","38881074","wem/bandit_single","AX5K9K4XYLXFI","gain","1","","75","K","2","","0","0","1","0.1816115857","","false","138","0.3107735177","","main_expt","0.292929501","","0.1816115857","","0.3473265679","","","","","","",""
"11400","","bandit","214","1052842","0.0-176.0-0.0","38881074","wem/bandit_single","AX5K9K4XYLXFI","gain","1","","75","K","2","","1","0","0","0.1658496667","","false","139","0.3374098654","","main_expt","0.2849421758","","0.1658496667","","0.2828336224","","","","","","",""
"6965","","bandit","215","1061565","0.0-177.0-0.0","38881074","wem/bandit_single","AX5K9K4XYLXFI","gain","1","","75","K","2","","0","0","1","0.1644365985","","false","140","0.3401298673","","main_expt","0.3149573531","","0.1644365985","","0.3238397914","","","","","","",""
"723","","bandit","216","1064048","0.0-178.0-0.0","38881074","wem/bandit_single","AX5K9K4XYLXFI","gain","1","","75","K","2","","0","0","1","0.16055167","","false","141","0.363539884","","main_expt","0.2937847178","","0.16055167","","0.3490905252","","","","","","",""
"6966","","bandit","217","1072775","0.0-179.0-0.0","38881074","wem/bandit_single","AX5K9K4XYLXFI","gain","1","","75","K","2","","0","0","1","0.1426499966","","false","142","0.3207651517","","main_expt","0.2695919138","","0.1426499966","","0.337853111","","","","","","",""
"799","","bandit","218","1075334","0.0-180.0-0.0","38881074","wem/bandit_single","AX5K9K4XYLXFI","gain","1","","76","L","3","","0","0","1","0.3475703167","","false","143","0.2976941359","","main_expt","0.206179854","","0.1133276474","","0.3475703167","","","","","","",""
"4646","","bandit","219","1081739","0.0-181.0-0.0","38881074","wem/bandit_single","AX5K9K4XYLXFI","gain","1","","75","K","2","","0","0","1","0.1351054788","","false","144","0.2405576463","","main_expt","0.2123329462","","0.1351054788","","0.3809945211","","","","","","",""
"4001","","bandit","220","1087503","0.0-182.0-0.0","38881074","wem/bandit_single","AX5K9K4XYLXFI","gain","1","","75","K","2","","0","0","1","0.1703546958","","false","145","0.2513929943","","main_expt","0.2144195617","","0.1703546958","","0.3842622547","","","","","","",""
"557","","bandit","221","1089821","0.0-183.0-0.0","38881074","wem/bandit_single","AX5K9K4XYLXFI","gain","1","","76","L","3","","1","0","0","0.4068715463","","false","146","0.2665850657","","main_expt","0.2264269311","","0.1382352341","","0.4068715463","","","","","","",""
"937","","bandit","222","1092518","0.0-184.0-0.0","38881074","wem/bandit_single","AX5K9K4XYLXFI","gain","1","","76","L","3","","0","0","1","0.3690267696","","false","147","0.2742171136","","main_expt","0.2458089499","","0.1111211324","","0.3690267696","","","","","","",""
"3775","","bandit","223","1098055","0.0-185.0-0.0","38881074","wem/bandit_single","AX5K9K4XYLXFI","gain","1","","76","L","3","","1","0","0","0.3999465919","","false","148","0.2504516377","","main_expt","0.2581131455","","0.1046256567","","0.3999465919","","","","","","",""
"6629","","bandit","224","1106444","0.0-186.0-0.0","38881074","wem/bandit_single","AX5K9K4XYLXFI","gain","1","","75","K","2","","0","0","1","0.09450025474","","false","149","0.2749888299","","main_expt","0.2055420423","","0.09450025474","","0.3823047489","","","","","","",""
"5207","","bandit","225","1113414","0.0-187.0-0.0","38881074","wem/bandit_single","AX5K9K4XYLXFI","gain","1","","75","K","2","","0","0","1","0.08682851814","","false","150","0.2199302859","","main_expt","0.2196547661","","0.08682851814","","0.3970301866","","","","","","",""
"1181","","bandit","226","1116357","0.0-188.0-0.0","38881074","wem/bandit_single","AX5K9K4XYLXFI","gain","1","","75","K","2","","0","0","1","0.0775356828","","false","151","0.228921305","","main_expt","0.2311854424","","0.0775356828","","0.4141828336","","","","","","",""
"1656","","bandit","227","1119772","0.0-189.0-0.0","38881074","wem/bandit_single","AX5K9K4XYLXFI","gain","1","","76","L","3","","1","0","0","0.4233092002","","false","152","0.1858313389","","main_expt","0.2692750042","","0.08719832593","","0.4233092002","","","","","","",""
"1359","","bandit","228","1122892","0.0-190.0-0.0","38881074","wem/bandit_single","AX5K9K4XYLXFI","gain","1","","74","J","1","","1","0","0","0.3209664266","","false","153","0.2253380596","","main_expt","0.3209664266","","0.06950392785","","0.3961827626","","","","","","",""
"49767","","bandit","229","1174422","0.0-191.0-0.0","38881074","wem/bandit_single","AX5K9K4XYLXFI","gain","1","","76","L","3","","0","0","1","0.4023640633","","false","154","0.1787374968","","main_expt","0.2633096479","","0.09734883616","","0.4023640633","","","","","","",""
"4060","","bandit","230","1180242","0.0-192.0-0.0","38881074","wem/bandit_single","AX5K9K4XYLXFI","gain","1","","75","K","2","","0","0","1","0.1078867986","","false","155","0.1026625787","","main_expt","0.2611493198","","0.1078867986","","0.3927422998","","","","","","",""
"153","","bandit","231","1182155","0.0-193.0-0.0","38881074","wem/bandit_single","AX5K9K4XYLXFI","gain","1","","76","L","3","","0","0","1","0.3696188161","","false","156","0.1201393653","","main_expt","0.2556392324","","0.09294383108","","0.3696188161","","","","","","",""
"1020","","bandit","232","1184939","0.0-194.0-0.0","38881074","wem/bandit_single","AX5K9K4XYLXFI","gain","1","","76","L","3","","1","0","0","0.3562863837","","false","157","0.1601810659","","main_expt","0.2237912435","","0.1344904143","","0.3562863837","","","","","","",""
"2606","","bandit","233","1189304","0.0-195.0-0.0","38881074","wem/bandit_single","AX5K9K4XYLXFI","gain","1","","74","J","1","","1","0","0","0.2269937079","","false","158","0.2178666355","","main_expt","0.2269937079","","0.1682501471","","0.3891013447","","","","","","",""
"1449","","bandit","234","1192512","0.0-196.0-0.0","38881074","wem/bandit_single","AX5K9K4XYLXFI","gain","1","","74","J","1","","1","0","0","0.2244600926","","false","159","0.2088119712","","main_expt","0.2244600926","","0.1859978291","","0.3771509201","","","","","","",""
"238","","bandit","235","1194511","0.0-197.0-0.0","38881074","wem/bandit_single","AX5K9K4XYLXFI","gain","1","","74","J","1","","1","0","0","0.231654425","","false","160","0.2853399033","","main_expt","0.231654425","","0.1169857497","","0.3677966378","","","","","","",""
"842","","bandit","236","1197113","0.0-198.0-0.0","38881074","wem/bandit_single","AX5K9K4XYLXFI","gain","1","","74","J","1","","1","0","0","0.2415747561","","false","161","0.2755093387","","main_expt","0.2415747561","","0.1131976547","","0.3691576932","","","","","","",""
"2477","","bandit","237","1201350","0.0-199.0-0.0","38881074","wem/bandit_single","AX5K9K4XYLXFI","gain","1","","74","J","1","","0","0","1","0.1807921844","","false","162","0.2706635439","","main_expt","0.1807921844","","0.1560378341","","0.3102253273","","","","","","",""
"1151","","bandit","238","1204263","0.0-200.0-0.0","38881074","wem/bandit_single","AX5K9K4XYLXFI","gain","1","","74","J","1","","1","0","0","0.1986212186","","false","163","0.2856851073","","main_expt","0.1986212186","","0.1200759877","","0.3361037566","","","","","","",""
"4336","","bandit","239","1210359","0.0-201.0-0.0","38881074","wem/bandit_single","AX5K9K4XYLXFI","gain","1","","74","J","1","","1","0","0","0.1799022971","","false","164","0.3188827228","","main_expt","0.1799022971","","0.1198838954","","0.3097300036","","","","","","",""
"3466","","bandit","240","1215585","0.0-202.0-0.0","38881074","wem/bandit_single","AX5K9K4XYLXFI","gain","1","","74","J","1","","1","0","0","0.2610149466","","false","165","0.3258940933","","main_expt","0.2610149466","","0.1397308529","","0.3234169084","","","","","","",""
"3182","","bandit","241","1220527","0.0-203.0-0.0","38881074","wem/bandit_single","AX5K9K4XYLXFI","gain","1","","74","J","1","","0","0","1","0.2673729835","","false","166","0.3525092479","","main_expt","0.2673729835","","0.1506282743","","0.3201458278","","","","","","",""
"345","","bandit","242","1222630","0.0-204.0-0.0","38881074","wem/bandit_single","AX5K9K4XYLXFI","gain","1","","75","K","2","","0","0","1","0.1407574557","","false","167","0.3919017073","","main_expt","0.169486101","","0.1407574557","","0.366643239","","","","","","",""
"2862","","bandit","243","1227254","0.0-205.0-0.0","38881074","wem/bandit_single","AX5K9K4XYLXFI","gain","1","","74","J","1","","0","0","1","0.1997030364","","false","168","0.3855955566","","main_expt","0.1997030364","","0.1217255528","","0.3877512758","","","","","","",""
"446","","bandit","244","1229462","0.0-206.0-0.0","38881074","wem/bandit_single","AX5K9K4XYLXFI","gain","1","","75","K","2","","0","0","1","0.118108524","","false","169","0.3882436634","","main_expt","0.2391799942","","0.118108524","","0.3733196812","","","","","","",""
"1265","","bandit","245","1232487","0.0-207.0-0.0","38881074","wem/bandit_single","AX5K9K4XYLXFI","gain","1","","75","K","2","","0","0","1","0.0750780909","","false","170","0.4096789578","","main_expt","0.2239577552","","0.0750780909","","0.3616719183","","","","","","",""
"2138","","bandit","246","1236385","0.0-208.0-0.0","38881074","wem/bandit_single","AX5K9K4XYLXFI","gain","1","","76","L","3","","1","0","0","0.3222484871","","false","171","0.4326257363","","main_expt","0.2175962327","","0.07048665386","","0.3222484871","","","","","","",""
"5333","","bandit","247","1243478","0.0-209.0-0.0","38881074","wem/bandit_single","AX5K9K4XYLXFI","gain","1","","75","K","2","","0","0","1","0.09439478605","","false","172","0.4381189537","","main_expt","0.2061205584","","0.09439478605","","0.2849842628","","","","","","",""
"5936","","bandit","248","1251176","0.0-210.0-0.0","38881074","wem/bandit_single","AX5K9K4XYLXFI","gain","1","","76","L","3","","0","0","1","0.2896949147","","false","173","0.3823577146","","main_expt","0.1787022686","","0.05932603211","","0.2896949147","","","","","","",""
"1157","","bandit","249","1254092","0.0-211.0-0.0","38881074","wem/bandit_single","AX5K9K4XYLXFI","gain","1","","76","L","3","","1","0","0","0.260829927","","false","174","0.4155511425","","main_expt","0.1782801474","","0.1019229976","","0.260829927","","","","","","",""
"8233","","bandit","250","1264086","0.0-212.0-0.0","38881074","wem/bandit_single","AX5K9K4XYLXFI","gain","1","","75","K","2","","0","0","1","0.1270031357","","false","175","0.4391025654","","main_expt","0.1723114597","","0.1270031357","","0.1608433896","","","","","","",""
"1600","","bandit","251","1267445","0.0-213.0-0.0","38881074","wem/bandit_single","AX5K9K4XYLXFI","gain","1","","76","L","3","","0","0","1","0.1924323662","","false","176","0.4654332747","","main_expt","0.1714247165","","0.1519507126","","0.1924323662","","","","","","",""
"5863","","bandit","252","1275070","0.0-214.0-0.0","38881074","wem/bandit_single","AX5K9K4XYLXFI","gain","1","","76","L","3","","0","0","1","0.1942299772","","false","177","0.4862166952","","main_expt","0.2003569552","","0.2645819263","","0.1942299772","","","","","","",""
"952","","bandit","253","1277780","0.0-215.0-0.0","38881074","wem/bandit_single","AX5K9K4XYLXFI","gain","1","","76","L","3","","0","0","1","0.2266891382","","false","178","0.4878504479","","main_expt","0.1848954505","","0.2497033982","","0.2266891382","","","","","","",""
"6367","","bandit","254","1285909","0.0-216.0-0.0","38881074","wem/bandit_single","AX5K9K4XYLXFI","gain","1","","76","L","3","","0","0","1","0.193755509","","false","179","0.4925433574","","main_expt","0.120488448","","0.2464833147","","0.193755509","","","","","","",""
"3553","","bandit","255","1291223","0.0-217.0-0.0","38881074","wem/bandit_single","AX5K9K4XYLXFI","gain","1","","76","L","3","","0","0","1","0.2143300014","","false","180","0.4863546804","","main_expt","0.09518531587","","0.191435525","","0.2143300014","","","","","","",""
"4285","","bandit","256","1297269","0.0-218.0-0.0","38881074","wem/bandit_single","AX5K9K4XYLXFI","gain","1","","76","L","3","","0","0","1","0.1996101457","","false","181","0.4898831258","","main_expt","0.1110105533","","0.2095150634","","0.1996101457","","","","","","",""
"1549","","bandit","257","1300584","0.0-219.0-0.0","38881074","wem/bandit_single","AX5K9K4XYLXFI","gain","1","","76","L","3","","0","0","1","0.220362663","","false","182","0.4702328405","","main_expt","0.1321710188","","0.2238619417","","0.220362663","","","","","","",""
"1645","","bandit","258","1303990","0.0-220.0-0.0","38881074","wem/bandit_single","AX5K9K4XYLXFI","gain","1","","76","L","3","","0","0","1","0.2087999581","","false","183","0.4443650637","","main_expt","0.07205074818","","0.172430875","","0.2087999581","","","","","","",""
"521","","bandit","259","1306271","0.0-221.0-0.0","38881074","wem/bandit_single","AX5K9K4XYLXFI","gain","1","","72","H","0","img/none_selected.jpg","1","0","0","0.4395551327","","false","184","0.4395551327","","main_expt","0.08140980564","","0.1537152065","","0.2693368533","","","","","","",""
"2484","","bandit","260","1310515","0.0-222.0-0.0","38881074","wem/bandit_single","AX5K9K4XYLXFI","gain","1","","74","J","1","","0","0","1","0.07005875891","","false","185","0.427498872","","main_expt","0.07005875891","","0.1089078126","","0.3177788722","","","","","","",""
"122","","bandit","261","1312397","0.0-223.0-0.0","38881074","wem/bandit_single","AX5K9K4XYLXFI","gain","1","","72","H","0","img/none_selected.jpg","0","0","1","0.4126395781","","false","186","0.4126395781","","main_expt","0.04712836877","","0.1150542287","","0.3093747324","","","","","","",""
"1014","","bandit","262","1315172","0.0-224.0-0.0","38881074","wem/bandit_single","AX5K9K4XYLXFI","gain","1","","72","H","0","img/none_selected.jpg","0","0","1","0.4059631444","","false","187","0.4059631444","","main_expt","0.07097221374","","0.07877539194","","0.3361469263","","","","","","",""
"2534","","bandit","263","1319467","0.0-225.0-0.0","38881074","wem/bandit_single","AX5K9K4XYLXFI","gain","1","","76","L","3","","0","0","1","0.3096611705","","false","188","0.4007853126","","main_expt","0.04255461481","","0.06234325246","","0.3096611705","","","","","","",""
"489","","bandit","264","1321718","0.0-226.0-0.0","38881074","wem/bandit_single","AX5K9K4XYLXFI","gain","1","","75","K","2","","0","0","1","0.07748383332","","false","189","0.4208201059","","main_expt","0.03834091028","","0.07748383332","","0.298651231","","","","","","",""
"3714","","bandit","265","1327194","0.0-227.0-0.0","38881074","wem/bandit_single","AX5K9K4XYLXFI","gain","1","","75","K","2","","0","0","1","0.08864116925","","false","190","0.4249824956","","main_expt","0.03101500858","","0.08864116925","","0.3361123746","","","","","","",""
"465","","bandit","266","1329419","0.0-228.0-0.0","38881074","wem/bandit_single","AX5K9K4XYLXFI","gain","1","","74","J","1","","0","0","1","0.05137759752","","false","191","0.4519194686","","main_expt","0.05137759752","","0.1114019665","","0.3529126189","","","","","","",""
"2095","","bandit","267","1333274","0.0-229.0-0.0","38881074","wem/bandit_single","AX5K9K4XYLXFI","gain","1","","74","J","1","","0","0","1","0.05101019331","","false","192","0.449072141","","main_expt","0.05101019331","","0.0944181321","","0.3806900048","","","","","","",""
"10385","","bandit","268","1345421","0.0-230.0-0.0","38881074","wem/bandit_single","AX5K9K4XYLXFI","gain","1","","74","J","1","","0","0","1","0.0408087357","","false","193","0.4069092802","","main_expt","0.0408087357","","0.09015445577","","0.3191299148","","","","","","",""
"143","","bandit","269","1347321","0.0-231.0-0.0","38881074","wem/bandit_single","AX5K9K4XYLXFI","gain","1","","75","K","2","","0","0","1","0.09569888082","","false","194","0.399300076","","main_expt","0.04787233925","","0.09569888082","","0.3350705725","","","","","","",""
"4284","","bandit","270","1353366","0.0-232.0-0.0","38881074","wem/bandit_single","AX5K9K4XYLXFI","gain","1","","75","K","2","","1","0","0","0.1521563302","","false","195","0.4028519225","","main_expt","0.07297342555","","0.1521563302","","0.3579412151","","","","","","",""
"2838","","bandit","271","1357964","0.0-233.0-0.0","38881074","wem/bandit_single","AX5K9K4XYLXFI","gain","1","","75","K","2","","0","0","1","0.1612876033","","false","196","0.3708283831","","main_expt","0.1090796252","","0.1612876033","","0.4135102269","","","","","","",""
"638","","bandit","272","1360362","0.0-234.0-0.0","38881074","wem/bandit_single","AX5K9K4XYLXFI","gain","1","","75","K","2","","0","0","1","0.1818980103","","false","197","0.3992028251","","main_expt","0.1141593934","","0.1818980103","","0.4368922102","","","","","","",""
"4775","","bandit","273","1366897","0.0-235.0-0.0","38881074","wem/bandit_single","AX5K9K4XYLXFI","gain","1","","74","J","1","","0","0","1","0.1247063377","","false","198","0.3662313723","","main_expt","0.1247063377","","0.1426991491","","0.4329908538","","","","","","",""
"174","","bandit","274","1368833","0.0-236.0-0.0","38881074","wem/bandit_single","AX5K9K4XYLXFI","gain","1","","75","K","2","","0","0","1","0.1339470975","","false","199","0.3667285709","","main_expt","0.1324590526","","0.1339470975","","0.4458308372","","","","","","",""
"785","","bandit","275","1371380","0.0-237.0-0.0","38881074","wem/bandit_single","AX5K9K4XYLXFI","gain","1","","74","J","1","","0","0","1","0.1062358191","","false","200","0.365396467","","main_expt","0.1062358191","","0.1615481579","","0.4535445428","","","","","","",""
"1947","","bandit","276","1375090","0.0-238.0-0.0","38881074","wem/bandit_single","AX5K9K4XYLXFI","gain","1","","74","J","1","","0","0","1","0.1027729413","","false","201","0.3413602931","","main_expt","0.1027729413","","0.1889616495","","0.4258040833","","","","","","",""
"583","","bandit","277","1377433","0.0-239.0-0.0","38881074","wem/bandit_single","AX5K9K4XYLXFI","gain","1","","75","K","2","","0","0","1","0.2043886565","","false","202","0.3655369163","","main_expt","0.09207086273","","0.2043886565","","0.413157784","","","","","","",""
"1441","","bandit","278","1380636","0.0-240.0-0.0","38881074","wem/bandit_single","AX5K9K4XYLXFI","gain","1","","76","L","3","","0","0","1","0.358983575","","false","203","0.3301706169","","main_expt","0.1409949376","","0.2274570119","","0.358983575","","","","","","",""
"723","","bandit","279","1383121","0.0-241.0-0.0","38881074","wem/bandit_single","AX5K9K4XYLXFI","gain","1","","72","H","0","img/none_selected.jpg","0","0","1","0.3305557625","","false","204","0.3305557625","","main_expt","0.2067441942","","0.1795680912","","0.3354839288","","","","","","",""
"791","","bandit","280","1385675","0.0-242.0-0.0","38881074","wem/bandit_single","AX5K9K4XYLXFI","gain","1","","74","J","1","","0","0","1","0.2171549514","","false","205","0.3332543728","","main_expt","0.2171549514","","0.1823506393","","0.3814446138","","","","","","",""
"550","","bandit","281","1387986","0.0-243.0-0.0","38881074","wem/bandit_single","AX5K9K4XYLXFI","gain","1","","75","K","2","","1","0","0","0.1401809595","","false","206","0.270761893","","main_expt","0.1399251859","","0.1401809595","","0.4069937863","","","","","","",""
"3228","","bandit","282","1393032","0.0-244.0-0.0","38881074","wem/bandit_single","AX5K9K4XYLXFI","gain","1","","75","K","2","","0","0","1","0.1651993972","","false","207","0.2595670132","","main_expt","0.1700254018","","0.1651993972","","0.4261201247","","","","","","",""
"970","","bandit","283","1395761","0.0-245.0-0.0","38881074","wem/bandit_single","AX5K9K4XYLXFI","gain","1","","75","K","2","","1","0","0","0.1803987852","","false","208","0.2772442529","","main_expt","0.1831619311","","0.1803987852","","0.4105702951","","","","","","",""
"734","","bandit","284","1398257","0.0-246.0-0.0","38881074","wem/bandit_single","AX5K9K4XYLXFI","gain","1","","75","K","2","","0","0","1","0.1470434113","","false","209","0.2654441326","","main_expt","0.151215806","","0.1470434113","","0.402481318","","","","","","",""
"711","","bandit","285","1400729","0.0-247.0-0.0","38881074","wem/bandit_single","AX5K9K4XYLXFI","gain","1","","75","K","2","","0","0","1","0.1375860563","","false","210","0.2475709295","","main_expt","0.1841878728","","0.1375860563","","0.4378094136","","","","","","",""
"1021","","bandit","286","1403513","0.0-248.0-0.0","38881074","wem/bandit_single","AX5K9K4XYLXFI","gain","1","","74","J","1","","0","0","1","0.190591144","","false","211","0.1836637302","","main_expt","0.190591144","","0.1181257803","","0.4174257438","","","","","","",""
"1421","","bandit","287","1406695","0.0-249.0-0.0","38881074","wem/bandit_single","AX5K9K4XYLXFI","gain","1","","74","J","1","","0","0","1","0.2024219406","","false","212","0.2018671691","","main_expt","0.2024219406","","0.1284194295","","0.4235695044","","","","","","",""
"1658","","bandit","288","1410113","0.0-250.0-0.0","38881074","wem/bandit_single","AX5K9K4XYLXFI","gain","1","","74","J","1","","0","0","1","0.1985525674","","false","213","0.1807811906","","main_expt","0.1985525674","","0.1088774305","","0.4112054282","","","","","","",""
"2017","","bandit","289","1413896","0.0-251.0-0.0","38881074","wem/bandit_single","AX5K9K4XYLXFI","gain","1","","74","J","1","","0","0","1","0.1940352924","","false","214","0.2432807767","","main_expt","0.1940352924","","0.07230623063","","0.3986702209","","","","","","",""
"1141","","bandit","290","1416800","0.0-252.0-0.0","38881074","wem/bandit_single","AX5K9K4XYLXFI","gain","1","","74","J","1","","0","0","1","0.1155678072","","false","215","0.2167976264","","main_expt","0.1155678072","","0.07963887701","","0.4379561577","","","","","","",""
"4155","","bandit","291","1422715","0.0-253.0-0.0","38881074","wem/bandit_single","AX5K9K4XYLXFI","gain","1","","74","J","1","","0","0","1","0.08288275022","","false","216","0.2963745884","","main_expt","0.08288275022","","0.0792987172","","0.425003275","","","","","","",""
"2548","","bandit","292","1427024","0.0-254.0-0.0","38881074","wem/bandit_single","AX5K9K4XYLXFI","gain","1","","74","J","1","","1","0","0","0.1108164962","","false","217","0.2704200786","","main_expt","0.1108164962","","0.07576557353","","0.4398514333","","","","","","",""
"2823","","bandit","293","1431607","0.0-255.0-0.0","38881074","wem/bandit_single","AX5K9K4XYLXFI","gain","1","","74","J","1","","0","0","1","0.1166222362","","false","218","0.2057322541","","main_expt","0.1166222362","","0.05946619603","","0.4307107256","","","","","","",""
"50","","bandit","294","1433417","0.0-256.0-0.0","38881074","wem/bandit_single","AX5K9K4XYLXFI","gain","1","","75","K","2","","0","0","1","0.07419684477","","false","219","0.2143414454","","main_expt","0.1441412427","","0.07419684477","","0.4236121262","","","","","","",""
"365","","bandit","295","1435542","0.0-257.0-0.0","38881074","wem/bandit_single","AX5K9K4XYLXFI","gain","1","","76","L","3","","1","0","0","0.4020148519","","false","220","0.1630835619","","main_expt","0.1460318591","","0.09297922461","","0.4020148519","","","","","","",""
"1592","","bandit","296","1438897","0.0-258.0-0.0","38881074","wem/bandit_single","AX5K9K4XYLXFI","gain","1","","76","L","3","","0","0","1","0.4073181559","","false","221","0.1536312793","","main_expt","0.1068666799","","0.1429286242","","0.4073181559","","","","","","",""
"4830","","bandit","297","1445487","0.0-259.0-0.0","38881074","wem/bandit_single","AX5K9K4XYLXFI","gain","1","","76","L","3","","1","0","0","0.3651123295","","false","222","0.2214617817","","main_expt","0.1101844092","","0.1708286753","","0.3651123295","","","","","","",""
"5039","","bandit","298","1452287","0.0-260.0-0.0","38881074","wem/bandit_single","AX5K9K4XYLXFI","gain","1","","76","L","3","","1","0","0","0.3836441325","","false","223","0.2273662723","","main_expt","0.0707480467","","0.1461267001","","0.3836441325","","","","","","",""
"2425","","bandit","299","1456472","0.0-261.0-0.0","38881074","wem/bandit_single","AX5K9K4XYLXFI","gain","1","","76","L","3","","0","0","1","0.3982756155","","false","224","0.1894352557","","main_expt","0.06117493494","","0.144808321","","0.3982756155","","","","","","",""
"565","","bandit","300","1458800","0.0-262.0-0.0","38881074","wem/bandit_single","AX5K9K4XYLXFI","gain","1","","76","L","3","","0","0","1","0.3942448394","","false","225","0.1292085382","","main_expt","0.0615688762","","0.1890777341","","0.3942448394","","","","","","",""
"2156","","bandit","301","1462718","0.0-263.0-0.0","38881074","wem/bandit_single","AX5K9K4XYLXFI","gain","1","","72","H","0","img/none_selected.jpg","1","0","0","0.1530858041","","false","226","0.1530858041","","main_expt","0.05052633559","","0.1442837472","","0.4169515918","","","","","","",""
"11346","","bandit","302","1475824","0.0-264.0-0.0","38881074","wem/bandit_single","AX5K9K4XYLXFI","gain","1","","74","J","1","","0","0","1","0.05726050712","","false","227","0.1593334253","","main_expt","0.05726050712","","0.1425852804","","0.4204191544","","","","","","",""
"1292","","bandit","303","1478880","0.0-265.0-0.0","38881074","wem/bandit_single","AX5K9K4XYLXFI","gain","1","","72","H","0","img/none_selected.jpg","0","0","1","0.1247523642","","false","228","0.1247523642","","main_expt","0.0758768547","","0.1116716659","","0.4091886","","","","","","",""
"1099","","bandit","304","1481741","0.0-266.0-0.0","38881074","wem/bandit_single","AX5K9K4XYLXFI","gain","1","","76","L","3","","0","0","1","0.407276644","","false","229","0.1463700977","","main_expt","0.07022353505","","0.1206121499","","0.407276644","","","","","","",""
"488","","bandit","305","1483988","0.0-267.0-0.0","38881074","wem/bandit_single","AX5K9K4XYLXFI","gain","1","","75","K","2","","0","0","1","0.1168532629","","false","230","0.1402324221","","main_expt","0.06577032649","","0.1168532629","","0.4254558538","","","","","","",""
"97","","bandit","306","1485846","0.0-268.0-0.0","38881074","wem/bandit_single","AX5K9K4XYLXFI","gain","1","","74","J","1","","0","0","1","0.06313303242","","false","231","0.1914784592","","main_expt","0.06313303242","","0.0916199044","","0.4259586803","","","","","","",""
"240","","bandit","307","1487847","0.0-269.0-0.0","38881074","wem/bandit_single","AX5K9K4XYLXFI","gain","1","","72","H","0","img/none_selected.jpg","0","0","1","0.1507361932","","false","232","0.1507361932","","main_expt","0.05490827263","","0.09573807812","","0.4429649496","","","","","","",""
"1282","","bandit","308","1490888","0.0-270.0-0.0","38881074","wem/bandit_single","AX5K9K4XYLXFI","gain","1","","75","K","2","","0","0","1","0.1246926578","","false","233","0.1902650793","","main_expt","0.04200611561","","0.1246926578","","0.4456598826","","","","","","",""
"426","","bandit","309","1493077","0.0-271.0-0.0","38881074","wem/bandit_single","AX5K9K4XYLXFI","gain","1","","74","J","1","","0","0","1","0.0550058871","","false","234","0.2663902881","","main_expt","0.0550058871","","0.122457211","","0.4504169918","","","","","","",""
"2316","","bandit","310","1497156","0.0-272.0-0.0","38881074","wem/bandit_single","AX5K9K4XYLXFI","gain","1","","74","J","1","","0","0","1","0.06273227262","","false","235","0.257874652","","main_expt","0.06273227262","","0.1561374187","","0.4255816076","","","","","","",""
"2072","","bandit","311","1500987","0.0-273.0-0.0","38881074","wem/bandit_single","AX5K9K4XYLXFI","gain","1","","75","K","2","","0","0","1","0.1726763947","","false","236","0.2134416149","","main_expt","0.09869136657","","0.1726763947","","0.4262424011","","","","","","",""
"1769","","bandit","312","1504515","0.0-274.0-0.0","38881074","wem/bandit_single","AX5K9K4XYLXFI","gain","1","","76","L","3","","0","0","1","0.4314914545","","false","237","0.1655180868","","main_expt","0.06464195797","","0.163453789","","0.4314914545","","","","","","",""
"8","","bandit","313","1506282","0.0-275.0-0.0","38881074","wem/bandit_single","AX5K9K4XYLXFI","gain","1","","74","J","1","","0","0","1","0.1092425733","","false","238","0.1528926348","","main_expt","0.1092425733","","0.1511244057","","0.4580147213","","","","","","",""
"436","","bandit","314","1508478","0.0-276.0-0.0","38881074","wem/bandit_single","AX5K9K4XYLXFI","gain","1","","72","H","0","img/none_selected.jpg","0","0","1","0.1594670864","","false","239","0.1594670864","","main_expt","0.08920017271","","0.1170855371","","0.4437162142","","","","","","",""
"6957","","bandit","315","1517195","0.0-277.0-0.0","38881074","wem/bandit_single","AX5K9K4XYLXFI","gain","1","","74","J","1","","0","0","1","0.138477068","","false","240","0.104293197","","main_expt","0.138477068","","0.1281478965","","0.4423909474","","","","","","",""
"304","","bandit","316","1519259","0.0-278.0-0.0","38881074","wem/bandit_single","AX5K9K4XYLXFI","gain","1","","74","J","1","","0","0","1","0.1249513709","","false","241","0.07968297136","","main_expt","0.1249513709","","0.1579661802","","0.4542424264","","","","","","",""
"382","","bandit","317","1521404","0.0-279.0-0.0","38881074","wem/bandit_single","AX5K9K4XYLXFI","gain","1","","74","J","1","","0","0","1","0.09754639251","","false","242","0.07079416442","","main_expt","0.09754639251","","0.1345462726","","0.4659063812","","","","","","",""
"2784","","bandit","318","1525948","0.0-280.0-0.0","38881074","wem/bandit_single","AX5K9K4XYLXFI","gain","1","","75","K","2","","0","0","1","0.1793426478","","false","243","0.08709770617","","main_expt","0.1223474156","","0.1793426478","","0.4702771719","","","","","","",""
"2237","","bandit","319","1529950","0.0-281.0-0.0","38881074","wem/bandit_single","AX5K9K4XYLXFI","gain","1","","75","K","2","","0","0","1","0.1623289848","","false","244","0.08252109256","","main_expt","0.1004902073","","0.1623289848","","0.4678480784","","","","","","",""
"13","","bandit","320","1531724","0.0-282.0-0.0","38881074","wem/bandit_single","AX5K9K4XYLXFI","gain","1","","76","L","3","","1","0","0","0.4608336118","","false","245","0.07130924754","","main_expt","0.09372717231","","0.1638267454","","0.4608336118","","","","","","",""
"406","","bandit","321","1533892","0.0-283.0-0.0","38881074","wem/bandit_single","AX5K9K4XYLXFI","gain","1","","76","L","3","","0","0","1","0.4455928316","","false","246","0.06886742221","","main_expt","0.1004977064","","0.1794660524","","0.4455928316","","","","","","",""
"4529","","bandit","322","1540184","0.0-284.0-0.0","38881074","wem/bandit_single","AX5K9K4XYLXFI","gain","1","","74","J","1","","0","0","1","0.09336015453","","false","247","0.064138504","","main_expt","0.09336015453","","0.1751092572","","0.4322927154","","","","","","",""
"3683","","bandit","323","1545629","0.0-285.0-0.0","38881074","wem/bandit_single","AX5K9K4XYLXFI","gain","1","","74","J","1","","0","0","1","0.09552903486","","false","248","0.05051083443","","main_expt","0.09552903486","","0.188480637","","0.4293825987","","","","","","",""
"1558","","bandit","324","1548949","0.0-286.0-0.0","38881074","wem/bandit_single","AX5K9K4XYLXFI","gain","1","","75","K","2","","1","0","0","0.1718025207","","false","249","0.05514480776","","main_expt","0.1087111068","","0.1718025207","","0.4338924945","","","","","","",""
"874","","bandit","325","1551587","0.0-287.0-0.0","38881074","wem/bandit_single","AX5K9K4XYLXFI","gain","1","","75","K","2","","0","0","1","0.1377417152","","false","250","0.02780796002","","main_expt","0.08296073337","","0.1377417152","","0.4356531551","","","","","","",""
"1245","","bandit","326","1554594","0.0-288.0-0.0","38881074","wem/bandit_single","AX5K9K4XYLXFI","gain","1","","76","L","3","","0","0","1","0.4561881598","","false","251","0.02786711831","","main_expt","0.08988728922","","0.1623098307","","0.4561881598","","","","","","",""
"1423","","bandit","327","1557778","0.0-289.0-0.0","38881074","wem/bandit_single","AX5K9K4XYLXFI","gain","1","","74","J","1","","0","0","1","0.07043490844","","false","252","0.03881205422","","main_expt","0.07043490844","","0.1702242208","","0.4517263236","","","","","","",""
"1319","","bandit","328","1560859","0.0-290.0-0.0","38881074","wem/bandit_single","AX5K9K4XYLXFI","gain","1","","74","J","1","","0","0","1","0.06648959932","","false","253","0.03211176865","","main_expt","0.06648959932","","0.1571297736","","0.4280730872","","","","","","",""
"3303","","bandit","329","1565923","0.0-291.0-0.0","38881074","wem/bandit_single","AX5K9K4XYLXFI","gain","1","","74","J","1","","0","0","1","0.04750248463","","false","254","0.02501863174","","main_expt","0.04750248463","","0.1311762281","","0.3976691957","","","","","","",""
"3848","","bandit","330","1571532","0.0-292.0-0.0","38881074","wem/bandit_single","AX5K9K4XYLXFI","gain","1","","75","K","2","","0","0","1","0.1262313745","","false","255","0.03845468041","","main_expt","0.0685067328","","0.1262313745","","0.3920211634","","","","","","",""
"4036","","bandit","331","1577329","0.0-293.0-0.0","38881074","wem/bandit_single","AX5K9K4XYLXFI","gain","1","","74","J","1","","0","0","1","0.06106940649","","false","256","0.03093107714","","main_expt","0.06106940649","","0.08888936201","","0.3802568344","","","","","","",""
"69","","bandit","332","1579163","0.0-294.0-0.0","38881074","wem/bandit_single","AX5K9K4XYLXFI","gain","1","","75","K","2","","0","0","1","0.1016624202","","false","257","0.02284381284","","main_expt","0.03925251802","","0.1016624202","","0.4153547565","","","","","","",""
"404","","bandit","333","1581330","0.0-295.0-0.0","38881074","wem/bandit_single","AX5K9K4XYLXFI","gain","1","","75","K","2","","0","0","1","0.1201960749","","false","258","0.01195927332","","main_expt","0.07528758783","","0.1201960749","","0.412770775","","","","","","",""
"1638","","bandit","334","1584731","0.0-296.0-0.0","38881074","wem/bandit_single","AX5K9K4XYLXFI","gain","1","","75","K","2","","0","0","1","0.09869940493","","false","259","0.009837890866","","main_expt","0.06168900656","","0.09869940493","","0.4364469878","","","","","","",""
"7948","","bandit","335","1594441","0.0-297.0-0.0","38881074","wem/bandit_single","AX5K9K4XYLXFI","gain","1","","74","J","1","","0","0","1","0.05358732337","","false","260","0.01652501309","","main_expt","0.05358732337","","0.140367269","","0.4143686848","","","","","","",""
"7448","","bandit","336","1603651","0.0-298.0-0.0","38881074","wem/bandit_single","AX5K9K4XYLXFI","gain","1","","74","J","1","","0","0","1","0.05974294151","","false","261","0.0246934762","","main_expt","0.05974294151","","0.107121031","","0.3932103286","","","","","","",""
"572","","bandit","337","1605986","0.0-299.0-0.0","38881074","wem/bandit_single","AX5K9K4XYLXFI","gain","1","","75","K","2","","0","0","1","0.142880744","","false","262","0.02217338967","","main_expt","0.0656558392","","0.142880744","","0.4299042069","","","","","","",""
"3014","","bandit","338","1610762","0.0-300.0-0.0","38881074","wem/bandit_single","AX5K9K4XYLXFI","gain","1","","75","K","2","","0","0","1","0.1398656543","","false","263","0.02538488248","","main_expt","0.08006927963","","0.1398656543","","0.3864913748","","","","","","",""
"1725","","bandit","339","1614250","0.0-301.0-0.0","38881074","wem/bandit_single","AX5K9K4XYLXFI","gain","1","","75","K","2","","0","0","1","0.185630342","","false","264","0.03542132602","","main_expt","0.07803510261","","0.185630342","","0.3721946297","","","","","","",""
"3419","","bandit","340","1619433","0.0-302.0-0.0","38881074","wem/bandit_single","AX5K9K4XYLXFI","gain","1","","76","L","3","","1","0","0","0.3326379545","","false","265","0.03052618628","","main_expt","0.08917846028","","0.1483619715","","0.3326379545","","","","","","",""
"948","","bandit","341","1622146","0.0-303.0-0.0","38881074","wem/bandit_single","AX5K9K4XYLXFI","gain","1","","74","J","1","","0","0","1","0.1562168236","","false","266","0.02388326919","","main_expt","0.1562168236","","0.1677753502","","0.3337002386","","","","","","",""
"1403","","bandit","342","1625313","0.0-304.0-0.0","38881074","wem/bandit_single","AX5K9K4XYLXFI","gain","1","","74","J","1","","1","0","0","0.1873085091","","false","267","0.01496915784","","main_expt","0.1873085091","","0.1748953786","","0.3044940876","","","","","","",""
"61","","bandit","343","1627135","0.0-305.0-0.0","38881074","wem/bandit_single","AX5K9K4XYLXFI","gain","1","","74","J","1","","0","0","1","0.1850807086","","false","268","0.01735494223","","main_expt","0.1850807086","","0.152215306","","0.2966269971","","","","","","",""
"545","","bandit","344","1629441","0.0-306.0-0.0","38881074","wem/bandit_single","AX5K9K4XYLXFI","gain","1","","74","J","1","","0","0","1","0.1461958128","","false","269","0.01365938384","","main_expt","0.1461958128","","0.1420691147","","0.2617435325","","","","","","",""
"6125","","bandit","345","1637326","0.0-307.0-0.0","38881074","wem/bandit_single","AX5K9K4XYLXFI","gain","1","","74","J","1","","0","0","1","0.1348565207","","false","270","0.01871615964","","main_expt","0.1348565207","","0.1338049101","","0.2599280147","","","","","","",""
"222","","bandit","346","1639312","0.0-308.0-0.0","38881074","wem/bandit_single","AX5K9K4XYLXFI","gain","1","","76","L","3","","0","0","1","0.2499936179","","false","271","0.01663887187","","main_expt","0.1588166083","","0.1178923734","","0.2499936179","","","","","","",""
"2639","","bandit","347","1643714","0.0-309.0-0.0","38881074","wem/bandit_single","AX5K9K4XYLXFI","gain","1","","76","L","3","","0","0","1","0.2703142459","","false","272","0.01973971225","","main_expt","0.1288650497","","0.1436833609","","0.2703142459","","","","","","",""
"307","","bandit","348","1645785","0.0-310.0-0.0","38881074","wem/bandit_single","AX5K9K4XYLXFI","gain","1","","76","L","3","","0","0","1","0.2835249431","","false","273","0.01954424634","","main_expt","0.1414039315","","0.1917782062","","0.2835249431","","","","","","",""
"291","","bandit","349","1647839","0.0-311.0-0.0","38881074","wem/bandit_single","AX5K9K4XYLXFI","gain","1","","72","H","0","img/none_selected.jpg","0","0","1","0.008862655739","","false","274","0.008862655739","","main_expt","0.1132613661","","0.1657285368","","0.2906451875","","","","","","",""
"1199","","bandit","350","1650801","0.0-312.0-0.0","38881074","wem/bandit_single","AX5K9K4XYLXFI","gain","1","","72","H","0","img/none_selected.jpg","0","0","1","0.0094605031","","false","275","0.0094605031","","main_expt","0.1396690899","","0.1420329436","","0.2670480505","","","","","","",""
"580","","bandit","351","1653145","0.0-313.0-0.0","38881074","wem/bandit_single","AX5K9K4XYLXFI","gain","1","","76","L","3","","0","0","1","0.2358592403","","false","276","0.01191149084","","main_expt","0.1109816737","","0.1369756733","","0.2358592403","","","","","","",""
"2028","","bandit","352","1656936","0.0-314.0-0.0","38881074","wem/bandit_single","AX5K9K4XYLXFI","gain","1","","76","L","3","","0","0","1","0.1877967456","","false","277","0.00904810236","","main_expt","0.08046464388","","0.1781068979","","0.1877967456","","","","","","",""
"1516","","bandit","353","1660215","0.0-315.0-0.0","38881074","wem/bandit_single","AX5K9K4XYLXFI","gain","1","","72","H","0","img/none_selected.jpg","0","0","1","0.007795284796","","false","278","0.007795284796","","main_expt","0.07407019324","","0.248352092","","0.1537245983","","","","","","",""
"1149","","bandit","354","1663127","0.0-316.0-0.0","38881074","wem/bandit_single","AX5K9K4XYLXFI","gain","1","","72","H","0","img/none_selected.jpg","0","0","1","0.01747653863","","false","279","0.01747653863","","main_expt","0.06478755197","","0.263219496","","0.1662011111","","","","","","",""
"302","","bandit","355","1665194","0.0-317.0-0.0","38881074","wem/bandit_single","AX5K9K4XYLXFI","gain","1","","74","J","1","","0","0","1","0.04895059186","","false","280","0.02326096521","","main_expt","0.04895059186","","0.210776847","","0.1622625537","","","","","","",""
"827","","bandit","356","1667782","0.0-318.0-0.0","38881074","wem/bandit_single","AX5K9K4XYLXFI","gain","1","","75","K","2","","0","0","1","0.1901401854","","false","281","0.03290281633","","main_expt","0.04598133094","","0.1901401854","","0.2160365104","","","","","","",""
"1709","","bandit","357","1671255","0.0-319.0-0.0","38881074","wem/bandit_single","AX5K9K4XYLXFI","gain","1","","76","L","3","","1","0","0","0.2031844556","","false","282","0.03647511751","","main_expt","0.0454431083","","0.1692674388","","0.2031844556","","","","","","",""
"747","","bandit","358","1673764","0.0-320.0-0.0","38881074","wem/bandit_single","AX5K9K4XYLXFI","gain","1","","75","K","2","","0","0","1","0.1697823826","","false","283","0.0381479171","","main_expt","0.0377119091","","0.1697823826","","0.236778666","","","","","","",""
"993","","bandit","359","1676519","0.0-321.0-0.0","38881074","wem/bandit_single","AX5K9K4XYLXFI","gain","1","","75","K","2","","1","0","0","0.1647860582","","false","284","0.04237273713","","main_expt","0.0346676025","","0.1647860582","","0.2082896542","","","","","","",""
"548","","bandit","360","1678830","0.0-322.0-0.0","38881074","wem/bandit_single","AX5K9K4XYLXFI","gain","1","","75","K","2","","1","0","0","0.2346467376","","false","285","0.08736605616","","main_expt","0.03394591187","","0.2346467376","","0.1682052712","","","","","","",""
"3077","","bandit","361","1683669","0.0-323.0-0.0","38881074","wem/bandit_single","AX5K9K4XYLXFI","gain","1","","75","K","2","","1","0","0","0.1651037306","","false","286","0.149418319","","main_expt","0.03437308726","","0.1651037306","","0.1287852917","","","","","","",""
"1173","","bandit","362","1686604","0.0-324.0-0.0","38881074","wem/bandit_single","AX5K9K4XYLXFI","gain","1","","75","K","2","","0","0","1","0.113933185","","false","287","0.2149685411","","main_expt","0.043905831","","0.113933185","","0.0739145169","","","","","","",""
"3055","","bandit","363","1691421","0.0-325.0-0.0","38881074","wem/bandit_single","AX5K9K4XYLXFI","gain","1","","75","K","2","","0","0","1","0.08260993421","","false","288","0.181398065","","main_expt","0.02064047927","","0.08260993421","","0.08295252225","","","","","","",""
"6893","","bandit","364","1700077","0.0-326.0-0.0","38881074","wem/bandit_single","AX5K9K4XYLXFI","gain","1","","75","K","2","","0","0","1","0.07260323305","","false","289","0.1523032639","","main_expt","0.0250169619","","0.07260323305","","0.0479508895","","","","","","",""
"1394","","bandit","365","1703236","0.0-327.0-0.0","38881074","wem/bandit_single","AX5K9K4XYLXFI","gain","1","","76","L","3","","0","0","1","0.05498143303","","false","290","0.1404761367","","main_expt","0.04785043425","","0.06306400378","","0.05498143303","","","","","","",""
"1367","","bandit","366","1706362","0.0-328.0-0.0","38881074","wem/bandit_single","AX5K9K4XYLXFI","gain","1","","74","J","1","","0","0","1","0.05997729544","","false","291","0.1639955189","","main_expt","0.05997729544","","0.06173149747","","0.06238518006","","","","","","",""
"266","","bandit","367","1708390","0.0-329.0-0.0","38881074","wem/bandit_single","AX5K9K4XYLXFI","gain","1","","74","J","1","","0","0","1","0.08013724224","","false","292","0.1365824739","","main_expt","0.08013724224","","0.049421281","","0.06246846358","","","","","","",""
"163","","bandit","368","1710315","0.0-330.0-0.0","38881074","wem/bandit_single","AX5K9K4XYLXFI","gain","1","","75","K","2","","0","0","1","0.04661139695","","false","293","0.2190436779","","main_expt","0.08257915178","","0.04661139695","","0.0635142122","","","","","","",""
"64","","bandit","369","1712140","0.0-331.0-0.0","38881074","wem/bandit_single","AX5K9K4XYLXFI","gain","1","","75","K","2","","0","0","1","0.05266196286","","false","294","0.2961987497","","main_expt","0.07979116831","","0.05266196286","","0.1078883856","","","","","","",""
"166","","bandit","370","1714070","0.0-332.0-0.0","38881074","wem/bandit_single","AX5K9K4XYLXFI","gain","1","","76","L","3","","0","0","1","0.1065048767","","false","295","0.3422413176","","main_expt","0.1168190604","","0.0541153793","","0.1065048767","","","","","","",""
"2949","","bandit","371","1718782","0.0-333.0-0.0","38881074","wem/bandit_single","AX5K9K4XYLXFI","gain","1","","76","L","3","","0","0","1","0.1528862056","","false","296","0.3023757447","","main_expt","0.1280513587","","0.03514166697","","0.1528862056","","","","","","",""
"5844","","bandit","372","1726388","0.0-334.0-0.0","38881074","wem/bandit_single","AX5K9K4XYLXFI","gain","1","","74","J","1","","0","0","1","0.1545711336","","false","297","0.3744966898","","main_expt","0.1545711336","","0.0293008482","","0.1655716118","","","","","","",""
"629","","bandit","373","1728779","0.0-335.0-0.0","38881074","wem/bandit_single","AX5K9K4XYLXFI","gain","1","","75","K","2","","0","0","1","0.03311380314","","false","298","0.3702548021","","main_expt","0.1485956324","","0.03311380314","","0.1725180782","","","","","","",""
"2663","","bandit","374","1733204","0.0-336.0-0.0","38881074","wem/bandit_single","AX5K9K4XYLXFI","gain","1","","75","K","2","","0","0","1","0.02365994183","","false","299","0.3675060033","","main_expt","0.1680902507","","0.02365994183","","0.1569797065","","","","","","",""
"323","","bandit","375","1735291","0.0-337.0-0.0","38881074","wem/bandit_single","AX5K9K4XYLXFI","gain","1","","76","L","3","","1","0","0","0.2025314082","","false","300","0.3623977575","","main_expt","0.1461034277","","0.03748312384","","0.2025314082","","","","","","",""
