"rt","responses","trial_type","trial_index","time_elapsed","internal_node_id","subjID","study","MID","cond","drift","key_press","respCharCode","respKey","respChoiceNum","respChoice","gems","bombs","no_reward","GemPrChosen","BombPrChosen","practice","trial_counter","WinPr_0","LosePr_0","trial_label","WinPr_1","LosePr_1","WinPr_2","LosePr_2","WinPr_3","LosePr_3","Q0","Q1","Q2","gender","age","ethnicity"
"19010","{""Q0"":""A3MGO9AP52WQHP""}","survey-text","0","19020","0.0-0.0","40288934","wem/bandit_single","A3MGO9AP52WQHP","pain","7","","","","","","","","","","","","","","","","","","","","","","","","","","",""
"4559","","text","1","24585","0.0-1.0","40288934","wem/bandit_single","A3MGO9AP52WQHP","pain","7","32","","","","","","","","","","","","","","","","","","","","","","","","","",""
"7106","","text","2","31694","0.0-2.0","40288934","wem/bandit_single","A3MGO9AP52WQHP","pain","7","32","","","","","","","","","","","","","","","","","","","","","","","","","",""
"23455","","text","3","55151","0.0-3.0","40288934","wem/bandit_single","A3MGO9AP52WQHP","pain","7","32","","","","","","","","","","","","","","","","","","","","","","","","","",""
"20992","","text","4","76145","0.0-4.0","40288934","wem/bandit_single","A3MGO9AP52WQHP","pain","7","32","","","","","","","","","","","","","","","","","","","","","","","","","",""
"13940","","text","5","90087","0.0-5.0","40288934","wem/bandit_single","A3MGO9AP52WQHP","pain","7","32","","","","","","","","","","","","","","","","","","","","","","","","","",""
"13044","","text","6","103133","0.0-6.0","40288934","wem/bandit_single","A3MGO9AP52WQHP","pain","7","32","","","","","","","","","","","","","","","","","","","","","","","","","",""
"8480","","text","7","111614","0.0-7.0","40288934","wem/bandit_single","A3MGO9AP52WQHP","pain","7","32","","","","","","","","","","","","","","","","","","","","","","","","","",""
"5593","","text","8","117209","0.0-8.0","40288934","wem/bandit_single","A3MGO9AP52WQHP","pain","7","32","","","","","","","","","","","","","","","","","","","","","","","","","",""
"4178","","text","9","121389","0.0-9.0","40288934","wem/bandit_single","A3MGO9AP52WQHP","pain","7","32","","","","","","","","","","","","","","","","","","","","","","","","","",""
"6917","","text","10","128307","0.0-10.0","40288934","wem/bandit_single","A3MGO9AP52WQHP","pain","7","32","","","","","","","","","","","","","","","","","","","","","","","","","",""
"5631","","text","11","133940","0.0-11.0","40288934","wem/bandit_single","A3MGO9AP52WQHP","pain","7","32","","","","","","","","","","","","","","","","","","","","","","","","","",""
"2202","","bandit","12","137653","0.0-12.0-0.0","40288934","wem/bandit_single","A3MGO9AP52WQHP","pain","7","","74","J","0","img/none_selected_demo.jpg","0","0","1","0","0","true","0","0","0","","","","","","","","","","","","",""
"1197","","bandit","13","140609","0.0-13.0-0.0","40288934","wem/bandit_single","A3MGO9AP52WQHP","pain","7","","75","K","0","img/none_selected_demo.jpg","0","0","1","0","0","true","0","0","0","","","","","","","","","","","","",""
"5889","","text","14","146752","0.0-14.0","40288934","wem/bandit_single","A3MGO9AP52WQHP","pain","7","32","","","","","","","","","","","","","","","","","","","","","","","","","",""
"7348","","text","15","154101","0.0-15.0","40288934","wem/bandit_single","A3MGO9AP52WQHP","pain","7","32","","","","","","","","","","","","","","","","","","","","","","","","","",""
"4543","","text","16","158646","0.0-16.0","40288934","wem/bandit_single","A3MGO9AP52WQHP","pain","7","32","","","","","","","","","","","","","","","","","","","","","","","","","",""
"5649","","text","17","164297","0.0-17.0","40288934","wem/bandit_single","A3MGO9AP52WQHP","pain","7","32","","","","","","","","","","","","","","","","","","","","","","","","","",""
"1347","","bandit","18","167152","0.0-18.0-0.0","40288934","wem/bandit_single","A3MGO9AP52WQHP","pain","7","","74","J","0","img/none_selected_demo.jpg","0","0","1","0","0.8","true","0","0","0.8","80_20_practice","0","0.2","","","","","","","","","",""
"311","","bandit","19","169222","0.0-18.0-1.0","40288934","wem/bandit_single","A3MGO9AP52WQHP","pain","7","","74","J","0","img/none_selected_demo.jpg","0","0","1","0","0.8","true","0","0","0.8","80_20_practice","0","0.2","","","","","","","","","",""
"481","","bandit","20","171463","0.0-18.0-2.0","40288934","wem/bandit_single","A3MGO9AP52WQHP","pain","7","","74","J","0","img/none_selected_demo.jpg","0","1","0","0","0.8","true","0","0","0.8","80_20_practice","0","0.2","","","","","","","","","",""
"1050","","bandit","21","174271","0.0-18.0-3.0","40288934","wem/bandit_single","A3MGO9AP52WQHP","pain","7","","74","J","0","img/none_selected_demo.jpg","0","1","0","0","0.8","true","0","0","0.8","80_20_practice","0","0.2","","","","","","","","","",""
"810","","bandit","22","176841","0.0-18.0-4.0","40288934","wem/bandit_single","A3MGO9AP52WQHP","pain","7","","74","J","0","img/none_selected_demo.jpg","0","1","0","0","0.8","true","0","0","0.8","80_20_practice","0","0.2","","","","","","","","","",""
"815","","bandit","23","179415","0.0-18.0-5.0","40288934","wem/bandit_single","A3MGO9AP52WQHP","pain","7","","74","J","0","img/none_selected_demo.jpg","0","1","0","0","0.8","true","0","0","0.8","80_20_practice","0","0.2","","","","","","","","","",""
"834","","bandit","24","182006","0.0-18.0-6.0","40288934","wem/bandit_single","A3MGO9AP52WQHP","pain","7","","74","J","0","img/none_selected_demo.jpg","0","0","1","0","0.8","true","0","0","0.8","80_20_practice","0","0.2","","","","","","","","","",""
"394","","bandit","25","184158","0.0-18.0-7.0","40288934","wem/bandit_single","A3MGO9AP52WQHP","pain","7","","74","J","0","img/none_selected_demo.jpg","0","1","0","0","0.8","true","0","0","0.8","80_20_practice","0","0.2","","","","","","","","","",""
"626","","bandit","26","186543","0.0-18.0-8.0","40288934","wem/bandit_single","A3MGO9AP52WQHP","pain","7","","74","J","0","img/none_selected_demo.jpg","0","1","0","0","0.8","true","0","0","0.8","80_20_practice","0","0.2","","","","","","","","","",""
"419","","bandit","27","188719","0.0-18.0-9.0","40288934","wem/bandit_single","A3MGO9AP52WQHP","pain","7","","74","J","0","img/none_selected_demo.jpg","0","1","0","0","0.8","true","0","0","0.8","80_20_practice","0","0.2","","","","","","","","","",""
"408","","bandit","28","190885","0.0-18.0-10.0","40288934","wem/bandit_single","A3MGO9AP52WQHP","pain","7","","74","J","0","img/none_selected_demo.jpg","0","1","0","0","0.8","true","0","0","0.8","80_20_practice","0","0.2","","","","","","","","","",""
"460","","bandit","29","193103","0.0-18.0-11.0","40288934","wem/bandit_single","A3MGO9AP52WQHP","pain","7","","74","J","0","img/none_selected_demo.jpg","0","0","1","0","0.8","true","0","0","0.8","80_20_practice","0","0.2","","","","","","","","","",""
"1","","bandit","30","194862","0.0-18.0-12.0","40288934","wem/bandit_single","A3MGO9AP52WQHP","pain","7","","74","J","0","img/none_selected_demo.jpg","0","1","0","0","0.8","true","0","0","0.8","80_20_practice","0","0.2","","","","","","","","","",""
"338","","bandit","31","196957","0.0-18.0-13.0","40288934","wem/bandit_single","A3MGO9AP52WQHP","pain","7","","74","J","0","img/none_selected_demo.jpg","0","0","1","0","0.8","true","0","0","0.8","80_20_practice","0","0.2","","","","","","","","","",""
"244","","bandit","32","198958","0.0-18.0-14.0","40288934","wem/bandit_single","A3MGO9AP52WQHP","pain","7","","74","J","0","img/none_selected_demo.jpg","0","0","1","0","0.8","true","0","0","0.8","80_20_practice","0","0.2","","","","","","","","","",""
"72","","bandit","33","200789","0.0-18.0-15.0","40288934","wem/bandit_single","A3MGO9AP52WQHP","pain","7","","74","J","0","img/none_selected_demo.jpg","0","0","1","0","0.8","true","0","0","0.8","80_20_practice","0","0.2","","","","","","","","","",""
"156","","bandit","34","202702","0.0-18.0-16.0","40288934","wem/bandit_single","A3MGO9AP52WQHP","pain","7","","75","K","1","","0","0","1","0","0.2","true","0","0","0.8","80_20_practice","0","0.2","","","","","","","","","",""
"585","","bandit","35","205045","0.0-18.0-17.0","40288934","wem/bandit_single","A3MGO9AP52WQHP","pain","7","","75","K","1","","0","0","1","0","0.2","true","0","0","0.8","80_20_practice","0","0.2","","","","","","","","","",""
"98","","bandit","36","206903","0.0-18.0-18.0","40288934","wem/bandit_single","A3MGO9AP52WQHP","pain","7","","75","K","1","","0","0","1","0","0.2","true","0","0","0.8","80_20_practice","0","0.2","","","","","","","","","",""
"105","","bandit","37","208764","0.0-18.0-19.0","40288934","wem/bandit_single","A3MGO9AP52WQHP","pain","7","","75","K","1","","0","1","0","0","0.2","true","0","0","0.8","80_20_practice","0","0.2","","","","","","","","","",""
"7076","","text","38","216094","0.0-19.0","40288934","wem/bandit_single","A3MGO9AP52WQHP","pain","7","32","","","","","","","","","","","","","","","","","","","","","","","","","",""
"4243","","bandit","39","221843","0.0-20.0-0.0","40288934","wem/bandit_single","A3MGO9AP52WQHP","pain","7","","74","J","0","img/none_selected_demo.jpg","0","0","1","0","0","true","0","0","0","","0","0","","","","","","","","","",""
"8699","","text","40","230798","0.0-21.0","40288934","wem/bandit_single","A3MGO9AP52WQHP","pain","7","32","","","","","","","","","","","","","","","","","","","","","","","","","",""
"6878","","text","41","237678","0.0-22.0","40288934","wem/bandit_single","A3MGO9AP52WQHP","pain","7","32","","","","","","","","","","","","","","","","","","","","","","","","","",""
"4001","","text","42","241682","0.0-23.0","40288934","wem/bandit_single","A3MGO9AP52WQHP","pain","7","32","","","","","","","","","","","","","","","","","","","","","","","","","",""
"8584","","text","43","250269","0.0-24.0","40288934","wem/bandit_single","A3MGO9AP52WQHP","pain","7","32","","","","","","","","","","","","","","","","","","","","","","","","","",""
"16550","","text","44","266822","0.0-25.0","40288934","wem/bandit_single","A3MGO9AP52WQHP","pain","7","32","","","","","","","","","","","","","","","","","","","","","","","","","",""
"4746","","text","45","271571","0.0-26.0","40288934","wem/bandit_single","A3MGO9AP52WQHP","pain","7","32","","","","","","","","","","","","","","","","","","","","","","","","","",""
"6044","","text","46","277617","0.0-27.0","40288934","wem/bandit_single","A3MGO9AP52WQHP","pain","7","32","","","","","","","","","","","","","","","","","","","","","","","","","",""
"4494","","text","47","282114","0.0-28.0","40288934","wem/bandit_single","A3MGO9AP52WQHP","pain","7","32","","","","","","","","","","","","","","","","","","","","","","","","","",""
"4709","","text","48","286824","0.0-29.0","40288934","wem/bandit_single","A3MGO9AP52WQHP","pain","7","32","","","","","","","","","","","","","","","","","","","","","","","","","",""
"3971","","text","49","290797","0.0-30.0","40288934","wem/bandit_single","A3MGO9AP52WQHP","pain","7","32","","","","","","","","","","","","","","","","","","","","","","","","","",""
"4074","","text","50","294874","0.0-31.0","40288934","wem/bandit_single","A3MGO9AP52WQHP","pain","7","32","","","","","","","","","","","","","","","","","","","","","","","","","",""
"972","","bandit","51","297353","0.0-32.0-0.0","40288934","wem/bandit_single","A3MGO9AP52WQHP","pain","7","","74","J","1","","0","0","1","0","0.2","true","0","0","0.8","full_practice","0","0.2","0","0.6","0","0.2","","","","","",""
"82","","bandit","52","299194","0.0-32.0-1.0","40288934","wem/bandit_single","A3MGO9AP52WQHP","pain","7","","74","J","1","","0","0","1","0","0.2","true","0","0","0.8","full_practice","0","0.2","0","0.6","0","0.2","","","","","",""
"95","","bandit","53","301049","0.0-32.0-2.0","40288934","wem/bandit_single","A3MGO9AP52WQHP","pain","7","","74","J","1","","0","0","1","0","0.2","true","0","0","0.8","full_practice","0","0.2","0","0.6","0","0.2","","","","","",""
"84","","bandit","54","302889","0.0-32.0-3.0","40288934","wem/bandit_single","A3MGO9AP52WQHP","pain","7","","74","J","1","","0","0","1","0","0.2","true","0","0","0.8","full_practice","0","0.2","0","0.6","0","0.2","","","","","",""
"97","","bandit","55","304744","0.0-32.0-4.0","40288934","wem/bandit_single","A3MGO9AP52WQHP","pain","7","","74","J","1","","0","0","1","0","0.2","true","0","0","0.8","full_practice","0","0.2","0","0.6","0","0.2","","","","","",""
"170","","bandit","56","306671","0.0-32.0-5.0","40288934","wem/bandit_single","A3MGO9AP52WQHP","pain","7","","72","H","0","img/none_selected.jpg","0","1","0","0","0.8","true","0","0","0.8","full_practice","0","0.2","0","0.6","0","0.2","","","","","",""
"82","","bandit","57","308513","0.0-32.0-6.0","40288934","wem/bandit_single","A3MGO9AP52WQHP","pain","7","","72","H","0","img/none_selected.jpg","0","1","0","0","0.8","true","0","0","0.8","full_practice","0","0.2","0","0.6","0","0.2","","","","","",""
"210","","bandit","58","310479","0.0-32.0-7.0","40288934","wem/bandit_single","A3MGO9AP52WQHP","pain","7","","72","H","0","img/none_selected.jpg","0","1","0","0","0.8","true","0","0","0.8","full_practice","0","0.2","0","0.6","0","0.2","","","","","",""
"76","","bandit","59","312313","0.0-32.0-8.0","40288934","wem/bandit_single","A3MGO9AP52WQHP","pain","7","","72","H","0","img/none_selected.jpg","0","1","0","0","0.8","true","0","0","0.8","full_practice","0","0.2","0","0.6","0","0.2","","","","","",""
"74","","bandit","60","314145","0.0-32.0-9.0","40288934","wem/bandit_single","A3MGO9AP52WQHP","pain","7","","72","H","0","img/none_selected.jpg","0","1","0","0","0.8","true","0","0","0.8","full_practice","0","0.2","0","0.6","0","0.2","","","","","",""
"88","","bandit","61","315994","0.0-32.0-10.0","40288934","wem/bandit_single","A3MGO9AP52WQHP","pain","7","","72","H","0","img/none_selected.jpg","0","1","0","0","0.8","true","0","0","0.8","full_practice","0","0.2","0","0.6","0","0.2","","","","","",""
"72","","bandit","62","317824","0.0-32.0-11.0","40288934","wem/bandit_single","A3MGO9AP52WQHP","pain","7","","72","H","0","img/none_selected.jpg","0","1","0","0","0.8","true","0","0","0.8","full_practice","0","0.2","0","0.6","0","0.2","","","","","",""
"67","","bandit","63","319648","0.0-32.0-12.0","40288934","wem/bandit_single","A3MGO9AP52WQHP","pain","7","","72","H","0","img/none_selected.jpg","0","1","0","0","0.8","true","0","0","0.8","full_practice","0","0.2","0","0.6","0","0.2","","","","","",""
"58","","bandit","64","321465","0.0-32.0-13.0","40288934","wem/bandit_single","A3MGO9AP52WQHP","pain","7","","72","H","0","img/none_selected.jpg","0","1","0","0","0.8","true","0","0","0.8","full_practice","0","0.2","0","0.6","0","0.2","","","","","",""
"33","","bandit","65","323258","0.0-32.0-14.0","40288934","wem/bandit_single","A3MGO9AP52WQHP","pain","7","","72","H","0","img/none_selected.jpg","0","1","0","0","0.8","true","0","0","0.8","full_practice","0","0.2","0","0.6","0","0.2","","","","","",""
"80","","bandit","66","325098","0.0-32.0-15.0","40288934","wem/bandit_single","A3MGO9AP52WQHP","pain","7","","72","H","0","img/none_selected.jpg","0","1","0","0","0.8","true","0","0","0.8","full_practice","0","0.2","0","0.6","0","0.2","","","","","",""
"80","","bandit","67","326937","0.0-32.0-16.0","40288934","wem/bandit_single","A3MGO9AP52WQHP","pain","7","","72","H","0","img/none_selected.jpg","0","1","0","0","0.8","true","0","0","0.8","full_practice","0","0.2","0","0.6","0","0.2","","","","","",""
"65","","bandit","68","328760","0.0-32.0-17.0","40288934","wem/bandit_single","A3MGO9AP52WQHP","pain","7","","72","H","0","img/none_selected.jpg","0","1","0","0","0.8","true","0","0","0.8","full_practice","0","0.2","0","0.6","0","0.2","","","","","",""
"114","","bandit","69","330633","0.0-32.0-18.0","40288934","wem/bandit_single","A3MGO9AP52WQHP","pain","7","","72","H","0","img/none_selected.jpg","0","1","0","0","0.8","true","0","0","0.8","full_practice","0","0.2","0","0.6","0","0.2","","","","","",""
"145","","bandit","70","332538","0.0-32.0-19.0","40288934","wem/bandit_single","A3MGO9AP52WQHP","pain","7","","72","H","0","img/none_selected.jpg","0","1","0","0","0.8","true","0","0","0.8","full_practice","0","0.2","0","0.6","0","0.2","","","","","",""
"3906","","text","71","336701","0.0-33.0","40288934","wem/bandit_single","A3MGO9AP52WQHP","pain","7","32","","","","","","","","","","","","","","","","","","","","","","","","","",""
"17446","","text","72","355151","0.0-34.0","40288934","wem/bandit_single","A3MGO9AP52WQHP","pain","7","32","","","","","","","","","","","","","","","","","","","","","","","","","",""
"7513","","text","73","362667","0.0-35.0","40288934","wem/bandit_single","A3MGO9AP52WQHP","pain","7","32","","","","","","","","","","","","","","","","","","","","","","","","","",""
"7674","","text","74","370345","0.0-36.0","40288934","wem/bandit_single","A3MGO9AP52WQHP","pain","7","32","","","","","","","","","","","","","","","","","","","","","","","","","",""
"7372","","text","75","377720","0.0-37.0","40288934","wem/bandit_single","A3MGO9AP52WQHP","pain","7","32","","","","","","","","","","","","","","","","","","","","","","","","","",""
"811","","bandit","76","380038","0.0-38.0-0.0","40288934","wem/bandit_single","A3MGO9AP52WQHP","pain","7","","72","H","0","img/none_selected.jpg","0","0","1","","0.2046929885","false","1","","0.2046929885","main_expt","","0.05137684772","","0.182860278","","0.4656663819","","","","","",""
"33","","bandit","77","381830","0.0-39.0-0.0","40288934","wem/bandit_single","A3MGO9AP52WQHP","pain","7","","72","H","0","img/none_selected.jpg","0","0","1","","0.1903203277","false","2","","0.1903203277","main_expt","","0.07150319997","","0.1824128093","","0.4696156166","","","","","",""
"123","","bandit","78","383712","0.0-40.0-0.0","40288934","wem/bandit_single","A3MGO9AP52WQHP","pain","7","","72","H","0","img/none_selected.jpg","0","0","1","","0.1806567389","false","3","","0.1806567389","main_expt","","0.080703679","","0.1671989933","","0.477042595","","","","","",""
"270","","bandit","79","385742","0.0-41.0-0.0","40288934","wem/bandit_single","A3MGO9AP52WQHP","pain","7","","72","H","0","img/none_selected.jpg","0","0","1","","0.1746643784","false","4","","0.1746643784","main_expt","","0.09206073837","","0.1769774761","","0.4833388502","","","","","",""
"50","","bandit","80","387551","0.0-42.0-0.0","40288934","wem/bandit_single","A3MGO9AP52WQHP","pain","7","","74","J","1","","0","0","1","","0.09846378213","false","5","","0.1575849224","main_expt","","0.09846378213","","0.1847579949","","0.4679643189","","","","","",""
"80","","bandit","81","389390","0.0-43.0-0.0","40288934","wem/bandit_single","A3MGO9AP52WQHP","pain","7","","74","J","1","","0","0","1","","0.07982937149","false","6","","0.1848921601","main_expt","","0.07982937149","","0.2263389119","","0.4728114282","","","","","",""
"129","","bandit","82","391279","0.0-44.0-0.0","40288934","wem/bandit_single","A3MGO9AP52WQHP","pain","7","","74","J","1","","0","1","0","","0.08361087011","false","7","","0.2090417599","main_expt","","0.08361087011","","0.233500047","","0.4763129956","","","","","",""
"97","","bandit","83","393135","0.0-45.0-0.0","40288934","wem/bandit_single","A3MGO9AP52WQHP","pain","7","","74","J","1","","0","0","1","","0.1210475052","false","8","","0.2340345007","main_expt","","0.1210475052","","0.2213385325","","0.4605171502","","","","","",""
"113","","bandit","84","395007","0.0-46.0-0.0","40288934","wem/bandit_single","A3MGO9AP52WQHP","pain","7","","74","J","1","","0","0","1","","0.1023248189","false","9","","0.2388832632","main_expt","","0.1023248189","","0.216727727","","0.457599345","","","","","",""
"80","","bandit","85","396847","0.0-47.0-0.0","40288934","wem/bandit_single","A3MGO9AP52WQHP","pain","7","","74","J","1","","0","1","0","","0.1311876697","false","10","","0.2336568073","main_expt","","0.1311876697","","0.1757193701","","0.4514273669","","","","","",""
"617","","bandit","86","399222","0.0-48.0-0.0","40288934","wem/bandit_single","A3MGO9AP52WQHP","pain","7","","74","J","1","","0","0","1","","0.1171839072","false","11","","0.2682397485","main_expt","","0.1171839072","","0.221687112","","0.461109344","","","","","",""
"113","","bandit","87","401092","0.0-49.0-0.0","40288934","wem/bandit_single","A3MGO9AP52WQHP","pain","7","","74","J","1","","0","0","1","","0.09103905321","false","12","","0.2855743842","main_expt","","0.09103905321","","0.1693148256","","0.4750360261","","","","","",""
"459","","bandit","88","403310","0.0-50.0-0.0","40288934","wem/bandit_single","A3MGO9AP52WQHP","pain","7","","76","L","3","","0","0","1","","0.4882900813","false","13","","0.2877368863","main_expt","","0.08195125901","","0.1861997022","","0.4882900813","","","","","",""
"74","","bandit","89","405144","0.0-51.0-0.0","40288934","wem/bandit_single","A3MGO9AP52WQHP","pain","7","","76","L","3","","0","1","0","","0.4836145896","false","14","","0.2904717711","main_expt","","0.1022478824","","0.2056371894","","0.4836145896","","","","","",""
"95","","bandit","90","406997","0.0-52.0-0.0","40288934","wem/bandit_single","A3MGO9AP52WQHP","pain","7","","76","L","3","","0","0","1","","0.4841526839","false","15","","0.3145527135","main_expt","","0.1295923723","","0.207651467","","0.4841526839","","","","","",""
"104","","bandit","91","408861","0.0-53.0-0.0","40288934","wem/bandit_single","A3MGO9AP52WQHP","pain","7","","76","L","3","","0","0","1","","0.4733209008","false","16","","0.2919685568","main_expt","","0.1259026636","","0.264879833","","0.4733209008","","","","","",""
"81","","bandit","92","410702","0.0-54.0-0.0","40288934","wem/bandit_single","A3MGO9AP52WQHP","pain","7","","76","L","3","","0","0","1","","0.4548629562","false","17","","0.2437915417","main_expt","","0.08714849596","","0.301226273","","0.4548629562","","","","","",""
"113","","bandit","93","412574","0.0-55.0-0.0","40288934","wem/bandit_single","A3MGO9AP52WQHP","pain","7","","76","L","3","","0","1","0","","0.4423108412","false","18","","0.2139729843","main_expt","","0.06082296625","","0.3355017989","","0.4423108412","","","","","",""
"88","","bandit","94","414420","0.0-56.0-0.0","40288934","wem/bandit_single","A3MGO9AP52WQHP","pain","7","","76","L","3","","0","1","0","","0.4510346454","false","19","","0.2117718275","main_expt","","0.04376078701","","0.4066928382","","0.4510346454","","","","","",""
"91","","bandit","95","416272","0.0-57.0-0.0","40288934","wem/bandit_single","A3MGO9AP52WQHP","pain","7","","76","L","3","","0","0","1","","0.4522943673","false","20","","0.2128214431","main_expt","","0.0431273538","","0.4152799178","","0.4522943673","","","","","",""
"216","","bandit","96","418245","0.0-58.0-0.0","40288934","wem/bandit_single","A3MGO9AP52WQHP","pain","7","","76","L","3","","0","0","1","","0.4213917452","false","21","","0.2557511999","main_expt","","0.05700218709","","0.4005545413","","0.4213917452","","","","","",""
"82","","bandit","97","420085","0.0-59.0-0.0","40288934","wem/bandit_single","A3MGO9AP52WQHP","pain","7","","76","L","3","","0","1","0","","0.4055738921","false","22","","0.2240556206","main_expt","","0.03008320558","","0.4065945052","","0.4055738921","","","","","",""
"95","","bandit","98","421941","0.0-60.0-0.0","40288934","wem/bandit_single","A3MGO9AP52WQHP","pain","7","","76","L","3","","0","1","0","","0.4102744642","false","23","","0.1913455436","main_expt","","0.04675245401","","0.4396923884","","0.4102744642","","","","","",""
"51","","bandit","99","423750","0.0-61.0-0.0","40288934","wem/bandit_single","A3MGO9AP52WQHP","pain","7","","76","L","3","","0","1","0","","0.4215519413","false","24","","0.1767964116","main_expt","","0.02664245213","","0.4414607804","","0.4215519413","","","","","",""
"39","","bandit","100","425549","0.0-62.0-0.0","40288934","wem/bandit_single","A3MGO9AP52WQHP","pain","7","","76","L","3","","0","1","0","","0.4076768117","false","25","","0.1667721477","main_expt","","0.02443183667","","0.430597795","","0.4076768117","","","","","",""
"44","","bandit","101","427353","0.0-63.0-0.0","40288934","wem/bandit_single","A3MGO9AP52WQHP","pain","7","","76","L","3","","0","0","1","","0.3563873355","false","26","","0.132468293","main_expt","","0.02765515704","","0.4049624372","","0.3563873355","","","","","",""
"901","","bandit","102","430013","0.0-64.0-0.0","40288934","wem/bandit_single","A3MGO9AP52WQHP","pain","7","","76","L","3","","0","0","1","","0.3305608977","false","27","","0.1283549716","main_expt","","0.05751586542","","0.3959859591","","0.3305608977","","","","","",""
"65","","bandit","103","431836","0.0-65.0-0.0","40288934","wem/bandit_single","A3MGO9AP52WQHP","pain","7","","76","L","3","","0","0","1","","0.323916825","false","28","","0.1218888314","main_expt","","0.1046410472","","0.4316273603","","0.323916825","","","","","",""
"186","","bandit","104","433781","0.0-66.0-0.0","40288934","wem/bandit_single","A3MGO9AP52WQHP","pain","7","","76","L","3","","0","1","0","","0.3256975875","false","29","","0.08739650486","main_expt","","0.1174110135","","0.4618757987","","0.3256975875","","","","","",""
"65","","bandit","105","435605","0.0-67.0-0.0","40288934","wem/bandit_single","A3MGO9AP52WQHP","pain","7","","76","L","3","","0","1","0","","0.3590663193","false","30","","0.1113113005","main_expt","","0.09344635718","","0.4764599947","","0.3590663193","","","","","",""
"51","","bandit","106","437414","0.0-68.0-0.0","40288934","wem/bandit_single","A3MGO9AP52WQHP","pain","7","","76","L","3","","0","1","0","","0.2794303661","false","31","","0.1234593762","main_expt","","0.07228097062","","0.4870567238","","0.2794303661","","","","","",""
"104","","bandit","107","439276","0.0-69.0-0.0","40288934","wem/bandit_single","A3MGO9AP52WQHP","pain","7","","76","L","3","","0","1","0","","0.2725021833","false","32","","0.1204693509","main_expt","","0.06660380695","","0.4744541924","","0.2725021833","","","","","",""
"88","","bandit","108","441124","0.0-70.0-0.0","40288934","wem/bandit_single","A3MGO9AP52WQHP","pain","7","","76","L","3","","0","0","1","","0.2662358977","false","33","","0.1525092538","main_expt","","0.06161000393","","0.4595636441","","0.2662358977","","","","","",""
"81","","bandit","109","442965","0.0-71.0-0.0","40288934","wem/bandit_single","A3MGO9AP52WQHP","pain","7","","76","L","3","","0","0","1","","0.3062719381","false","34","","0.0933794629","main_expt","","0.08245015188","","0.4700794195","","0.3062719381","","","","","",""
"40","","bandit","110","444764","0.0-72.0-0.0","40288934","wem/bandit_single","A3MGO9AP52WQHP","pain","7","","76","L","3","","0","1","0","","0.3199342551","false","35","","0.06693018499","main_expt","","0.08195488018","","0.46481425","","0.3199342551","","","","","",""
"34","","bandit","111","446556","0.0-73.0-0.0","40288934","wem/bandit_single","A3MGO9AP52WQHP","pain","7","","76","L","3","","0","1","0","","0.3039619122","false","36","","0.09916465935","main_expt","","0.1004102013","","0.4518384169","","0.3039619122","","","","","",""
"218","","bandit","112","448534","0.0-74.0-0.0","40288934","wem/bandit_single","A3MGO9AP52WQHP","pain","7","","76","L","3","","0","0","1","","0.2927636057","false","37","","0.08872434017","main_expt","","0.1390326598","","0.439581627","","0.2927636057","","","","","",""
"207","","bandit","113","450501","0.0-75.0-0.0","40288934","wem/bandit_single","A3MGO9AP52WQHP","pain","7","","76","L","3","","0","0","1","","0.3513205482","false","38","","0.08103487055","main_expt","","0.143322519","","0.3994664239","","0.3513205482","","","","","",""
"82","","bandit","114","452341","0.0-76.0-0.0","40288934","wem/bandit_single","A3MGO9AP52WQHP","pain","7","","76","L","3","","0","1","0","","0.3199725693","false","39","","0.09262773223","main_expt","","0.1439849427","","0.399239641","","0.3199725693","","","","","",""
"104","","bandit","115","454204","0.0-77.0-0.0","40288934","wem/bandit_single","A3MGO9AP52WQHP","pain","7","","76","L","3","","0","0","1","","0.2899826696","false","40","","0.08276392867","main_expt","","0.1813186375","","0.3842971785","","0.2899826696","","","","","",""
"280","","bandit","116","456245","0.0-78.0-0.0","40288934","wem/bandit_single","A3MGO9AP52WQHP","pain","7","","76","L","3","","0","0","1","","0.2470457707","false","41","","0.07889170896","main_expt","","0.182623784","","0.3584077127","","0.2470457707","","","","","",""
"480","","bandit","117","458483","0.0-79.0-0.0","40288934","wem/bandit_single","A3MGO9AP52WQHP","pain","7","","74","J","1","","0","0","1","","0.1310997782","false","42","","0.1007082374","main_expt","","0.1310997782","","0.2940512223","","0.2860815649","","","","","",""
"91","","bandit","118","460333","0.0-80.0-0.0","40288934","wem/bandit_single","A3MGO9AP52WQHP","pain","7","","74","J","1","","0","0","1","","0.1211351308","false","43","","0.04983151166","main_expt","","0.1211351308","","0.3274682868","","0.3649324249","","","","","",""
"89","","bandit","119","462179","0.0-81.0-0.0","40288934","wem/bandit_single","A3MGO9AP52WQHP","pain","7","","74","J","1","","0","0","1","","0.1032393721","false","44","","0.06772206808","main_expt","","0.1032393721","","0.3105097628","","0.3722884938","","","","","",""
"209","","bandit","120","464147","0.0-82.0-0.0","40288934","wem/bandit_single","A3MGO9AP52WQHP","pain","7","","74","J","1","","0","1","0","","0.145243047","false","45","","0.07082322934","main_expt","","0.145243047","","0.3253779088","","0.3589666793","","","","","",""
"95","","bandit","121","466005","0.0-83.0-0.0","40288934","wem/bandit_single","A3MGO9AP52WQHP","pain","7","","74","J","1","","0","0","1","","0.1871821161","false","46","","0.08302100682","main_expt","","0.1871821161","","0.2907447256","","0.309469461","","","","","",""
"88","","bandit","122","467851","0.0-84.0-0.0","40288934","wem/bandit_single","A3MGO9AP52WQHP","pain","7","","74","J","1","","0","1","0","","0.1827431821","false","47","","0.04947507936","main_expt","","0.1827431821","","0.2922490699","","0.3486132663","","","","","",""
"47","","bandit","123","469660","0.0-85.0-0.0","40288934","wem/bandit_single","A3MGO9AP52WQHP","pain","7","","74","J","1","","0","0","1","","0.1863443356","false","48","","0.05970491685","main_expt","","0.1863443356","","0.3012354267","","0.3613151755","","","","","",""
"98","","bandit","124","471516","0.0-86.0-0.0","40288934","wem/bandit_single","A3MGO9AP52WQHP","pain","7","","74","J","1","","0","0","1","","0.2089920758","false","49","","0.05846806591","main_expt","","0.2089920758","","0.3199255499","","0.3810076255","","","","","",""
"167","","bandit","125","473444","0.0-87.0-0.0","40288934","wem/bandit_single","A3MGO9AP52WQHP","pain","7","","72","H","0","img/none_selected.jpg","0","0","1","","0.08078022322","false","50","","0.08078022322","main_expt","","0.2204805957","","0.3246792682","","0.3528158806","","","","","",""
"175","","bandit","126","475378","0.0-88.0-0.0","40288934","wem/bandit_single","A3MGO9AP52WQHP","pain","7","","72","H","0","img/none_selected.jpg","0","0","1","","0.08366705542","false","51","","0.08366705542","main_expt","","0.2796788854","","0.3158487008","","0.4127521961","","","","","",""
"139","","bandit","127","477275","0.0-89.0-0.0","40288934","wem/bandit_single","A3MGO9AP52WQHP","pain","7","","72","H","0","img/none_selected.jpg","0","0","1","","0.1365111474","false","52","","0.1365111474","main_expt","","0.2870992152","","0.2764666405","","0.4034362436","","","","","",""
"169","","bandit","128","479204","0.0-90.0-0.0","40288934","wem/bandit_single","A3MGO9AP52WQHP","pain","7","","72","H","0","img/none_selected.jpg","0","0","1","","0.1238361543","false","53","","0.1238361543","main_expt","","0.3176469779","","0.2740398937","","0.4268522392","","","","","",""
"206","","bandit","129","481171","0.0-91.0-0.0","40288934","wem/bandit_single","A3MGO9AP52WQHP","pain","7","","75","K","2","","0","0","1","","0.2499565254","false","54","","0.1150058699","main_expt","","0.3407727651","","0.2499565254","","0.4471231168","","","","","",""
"69","","bandit","130","483006","0.0-92.0-0.0","40288934","wem/bandit_single","A3MGO9AP52WQHP","pain","7","","75","K","2","","0","0","1","","0.221305586","false","55","","0.1498695165","main_expt","","0.380871147","","0.221305586","","0.4397300441","","","","","",""
"54","","bandit","131","484820","0.0-93.0-0.0","40288934","wem/bandit_single","A3MGO9AP52WQHP","pain","7","","75","K","2","","0","0","1","","0.2513729962","false","56","","0.1559096332","main_expt","","0.3614982187","","0.2513729962","","0.4266514607","","","","","",""
"85","","bandit","132","486667","0.0-94.0-0.0","40288934","wem/bandit_single","A3MGO9AP52WQHP","pain","7","","75","K","2","","0","1","0","","0.254621842","false","57","","0.139260175","main_expt","","0.3219973572","","0.254621842","","0.4351066669","","","","","",""
"127","","bandit","133","488556","0.0-95.0-0.0","40288934","wem/bandit_single","A3MGO9AP52WQHP","pain","7","","75","K","2","","0","0","1","","0.2911199408","false","58","","0.1101041774","main_expt","","0.3136466855","","0.2911199408","","0.4114765848","","","","","",""
"136","","bandit","134","490452","0.0-96.0-0.0","40288934","wem/bandit_single","A3MGO9AP52WQHP","pain","7","","75","K","2","","0","1","0","","0.3260103257","false","59","","0.1619704935","main_expt","","0.3553654786","","0.3260103257","","0.4331866813","","","","","",""
"103","","bandit","135","492314","0.0-97.0-0.0","40288934","wem/bandit_single","A3MGO9AP52WQHP","pain","7","","75","K","2","","0","0","1","","0.3801831719","false","60","","0.1023472493","main_expt","","0.302494743","","0.3801831719","","0.4452666195","","","","","",""
"97","","bandit","136","494171","0.0-98.0-0.0","40288934","wem/bandit_single","A3MGO9AP52WQHP","pain","7","","75","K","2","","0","0","1","","0.4097171909","false","61","","0.1659923055","main_expt","","0.3194951829","","0.4097171909","","0.4533212266","","","","","",""
"64","","bandit","137","495994","0.0-99.0-0.0","40288934","wem/bandit_single","A3MGO9AP52WQHP","pain","7","","76","L","3","","0","1","0","","0.4546633602","false","62","","0.1773336283","main_expt","","0.3491175101","","0.4297251169","","0.4546633602","","","","","",""
"137","","bandit","138","497891","0.0-100.0-0.0","40288934","wem/bandit_single","A3MGO9AP52WQHP","pain","7","","76","L","3","","0","0","1","","0.431915851","false","63","","0.1838898345","main_expt","","0.3618657485","","0.4523537282","","0.431915851","","","","","",""
"144","","bandit","139","499794","0.0-101.0-0.0","40288934","wem/bandit_single","A3MGO9AP52WQHP","pain","7","","76","L","3","","0","1","0","","0.4397857724","false","64","","0.1535376321","main_expt","","0.3331995431","","0.4577822331","","0.4397857724","","","","","",""
"97","","bandit","140","501651","0.0-102.0-0.0","40288934","wem/bandit_single","A3MGO9AP52WQHP","pain","7","","76","L","3","","0","1","0","","0.3803141428","false","65","","0.1696059705","main_expt","","0.3222916502","","0.4366397349","","0.3803141428","","","","","",""
"152","","bandit","141","503562","0.0-103.0-0.0","40288934","wem/bandit_single","A3MGO9AP52WQHP","pain","7","","76","L","3","","0","0","1","","0.4318665216","false","66","","0.1747776373","main_expt","","0.2935747005","","0.4223045317","","0.4318665216","","","","","",""
"89","","bandit","142","505412","0.0-104.0-0.0","40288934","wem/bandit_single","A3MGO9AP52WQHP","pain","7","","76","L","3","","0","1","0","","0.3783394243","false","67","","0.1880318686","main_expt","","0.272098099","","0.453094409","","0.3783394243","","","","","",""
"104","","bandit","143","507275","0.0-105.0-0.0","40288934","wem/bandit_single","A3MGO9AP52WQHP","pain","7","","76","L","3","","0","0","1","","0.3424409758","false","68","","0.1703396733","main_expt","","0.2839543474","","0.4441165928","","0.3424409758","","","","","",""
"137","","bandit","144","509170","0.0-106.0-0.0","40288934","wem/bandit_single","A3MGO9AP52WQHP","pain","7","","76","L","3","","0","0","1","","0.3825588005","false","69","","0.2041307244","main_expt","","0.3106529802","","0.437102529","","0.3825588005","","","","","",""
"154","","bandit","145","511083","0.0-107.0-0.0","40288934","wem/bandit_single","A3MGO9AP52WQHP","pain","7","","76","L","3","","0","0","1","","0.4019939479","false","70","","0.2380468473","main_expt","","0.2152651325","","0.463010405","","0.4019939479","","","","","",""
"85","","bandit","146","512930","0.0-108.0-0.0","40288934","wem/bandit_single","A3MGO9AP52WQHP","pain","7","","76","L","3","","0","0","1","","0.3995375499","false","71","","0.2540220497","main_expt","","0.2150247356","","0.4511055106","","0.3995375499","","","","","",""
"81","","bandit","147","514771","0.0-109.0-0.0","40288934","wem/bandit_single","A3MGO9AP52WQHP","pain","7","","76","L","3","","0","0","1","","0.3655493795","false","72","","0.2877519017","main_expt","","0.2196699897","","0.456238914","","0.3655493795","","","","","",""
"104","","bandit","148","516635","0.0-110.0-0.0","40288934","wem/bandit_single","A3MGO9AP52WQHP","pain","7","","76","L","3","","0","0","1","","0.3443296275","false","73","","0.3090267326","main_expt","","0.2086164273","","0.4499554287","","0.3443296275","","","","","",""
"151","","bandit","149","518546","0.0-111.0-0.0","40288934","wem/bandit_single","A3MGO9AP52WQHP","pain","7","","74","J","1","","0","0","1","","0.2226006448","false","74","","0.3400901674","main_expt","","0.2226006448","","0.4439780401","","0.3647916216","","","","","",""
"184","","bandit","150","520490","0.0-112.0-0.0","40288934","wem/bandit_single","A3MGO9AP52WQHP","pain","7","","74","J","1","","0","1","0","","0.2015377479","false","75","","0.3519214117","main_expt","","0.2015377479","","0.4332341766","","0.3531956798","","","","","",""
"88","","bandit","151","522339","0.0-113.0-0.0","40288934","wem/bandit_single","A3MGO9AP52WQHP","pain","7","","74","J","1","","0","0","1","","0.2614433548","false","76","","0.3621584499","main_expt","","0.2614433548","","0.4241516559","","0.3375826797","","","","","",""
"110","","bandit","152","524209","0.0-114.0-0.0","40288934","wem/bandit_single","A3MGO9AP52WQHP","pain","7","","74","J","1","","0","0","1","","0.3216300101","false","77","","0.3919288513","main_expt","","0.3216300101","","0.404580079","","0.3389323042","","","","","",""
"417","","bandit","153","526386","0.0-115.0-0.0","40288934","wem/bandit_single","A3MGO9AP52WQHP","pain","7","","74","J","1","","0","1","0","","0.3253900192","false","78","","0.3733142104","main_expt","","0.3253900192","","0.4291019186","","0.3633343286","","","","","",""
"129","","bandit","154","528276","0.0-116.0-0.0","40288934","wem/bandit_single","A3MGO9AP52WQHP","pain","7","","74","J","1","","0","1","0","","0.3253799771","false","79","","0.3594898906","main_expt","","0.3253799771","","0.4431072694","","0.35510173","","","","","",""
"149","","bandit","155","530187","0.0-117.0-0.0","40288934","wem/bandit_single","A3MGO9AP52WQHP","pain","7","","74","J","1","","0","0","1","","0.321449248","false","80","","0.3740263767","main_expt","","0.321449248","","0.4443251544","","0.3313699227","","","","","",""
"136","","bandit","156","532082","0.0-118.0-0.0","40288934","wem/bandit_single","A3MGO9AP52WQHP","pain","7","","74","J","1","","0","1","0","","0.3644617874","false","81","","0.4031190442","main_expt","","0.3644617874","","0.4222806544","","0.3545786091","","","","","",""
"112","","bandit","157","533955","0.0-119.0-0.0","40288934","wem/bandit_single","A3MGO9AP52WQHP","pain","7","","74","J","1","","0","0","1","","0.3646727683","false","82","","0.397551472","main_expt","","0.3646727683","","0.4348184101","","0.36958943","","","","","",""
"207","","bandit","158","535921","0.0-120.0-0.0","40288934","wem/bandit_single","A3MGO9AP52WQHP","pain","7","","74","J","1","","0","0","1","","0.3823543101","false","83","","0.4251589807","main_expt","","0.3823543101","","0.4237956171","","0.3818301908","","","","","",""
"72","","bandit","159","537752","0.0-121.0-0.0","40288934","wem/bandit_single","A3MGO9AP52WQHP","pain","7","","74","J","1","","0","1","0","","0.3927357351","false","84","","0.406460911","main_expt","","0.3927357351","","0.4255820551","","0.3841316884","","","","","",""
"172","","bandit","160","539685","0.0-122.0-0.0","40288934","wem/bandit_single","A3MGO9AP52WQHP","pain","7","","74","J","1","","0","1","0","","0.3242792488","false","85","","0.4190094225","main_expt","","0.3242792488","","0.4407045426","","0.3769873451","","","","","",""
"179","","bandit","161","541626","0.0-123.0-0.0","40288934","wem/bandit_single","A3MGO9AP52WQHP","pain","7","","74","J","1","","0","0","1","","0.3257651096","false","86","","0.4006115864","main_expt","","0.3257651096","","0.4276882268","","0.3624331431","","","","","",""
"41","","bandit","162","543426","0.0-124.0-0.0","40288934","wem/bandit_single","A3MGO9AP52WQHP","pain","7","","74","J","1","","0","1","0","","0.3768973447","false","87","","0.3761684651","main_expt","","0.3768973447","","0.4430021271","","0.356636023","","","","","",""
"80","","bandit","163","545266","0.0-125.0-0.0","40288934","wem/bandit_single","A3MGO9AP52WQHP","pain","7","","74","J","1","","0","1","0","","0.3333804566","false","88","","0.3935355307","main_expt","","0.3333804566","","0.4259892117","","0.392705536","","","","","",""
"134","","bandit","164","547162","0.0-126.0-0.0","40288934","wem/bandit_single","A3MGO9AP52WQHP","pain","7","","74","J","1","","0","0","1","","0.3326985542","false","89","","0.3870426381","main_expt","","0.3326985542","","0.4451393147","","0.39579544","","","","","",""
"128","","bandit","165","549055","0.0-127.0-0.0","40288934","wem/bandit_single","A3MGO9AP52WQHP","pain","7","","74","J","1","","0","0","1","","0.3392082427","false","90","","0.3838573884","main_expt","","0.3392082427","","0.4450202473","","0.3832348421","","","","","",""
"130","","bandit","166","550946","0.0-128.0-0.0","40288934","wem/bandit_single","A3MGO9AP52WQHP","pain","7","","74","J","1","","0","0","1","","0.2686139101","false","91","","0.376063899","main_expt","","0.2686139101","","0.428726471","","0.4009824957","","","","","",""
"103","","bandit","167","552810","0.0-129.0-0.0","40288934","wem/bandit_single","A3MGO9AP52WQHP","pain","7","","74","J","1","","0","0","1","","0.247120026","false","92","","0.3877690924","main_expt","","0.247120026","","0.4207086611","","0.360902971","","","","","",""
"80","","bandit","168","554649","0.0-130.0-0.0","40288934","wem/bandit_single","A3MGO9AP52WQHP","pain","7","","74","J","1","","0","1","0","","0.1945967668","false","93","","0.3832772702","main_expt","","0.1945967668","","0.4271109851","","0.4098322422","","","","","",""
"128","","bandit","169","556537","0.0-131.0-0.0","40288934","wem/bandit_single","A3MGO9AP52WQHP","pain","7","","74","J","1","","0","0","1","","0.2059940606","false","94","","0.3569295009","main_expt","","0.2059940606","","0.3988025755","","0.365685068","","","","","",""
"113","","bandit","170","558410","0.0-132.0-0.0","40288934","wem/bandit_single","A3MGO9AP52WQHP","pain","7","","74","J","1","","0","0","1","","0.2276463074","false","95","","0.3462427099","main_expt","","0.2276463074","","0.3413505888","","0.3246475432","","","","","",""
"93","","bandit","171","560265","0.0-133.0-0.0","40288934","wem/bandit_single","A3MGO9AP52WQHP","pain","7","","74","J","1","","0","1","0","","0.3088064785","false","96","","0.2902370181","main_expt","","0.3088064785","","0.2791034264","","0.3155220288","","","","","",""
"401","","bandit","172","562425","0.0-134.0-0.0","40288934","wem/bandit_single","A3MGO9AP52WQHP","pain","7","","74","J","1","","0","0","1","","0.3167474357","false","97","","0.2679909325","main_expt","","0.3167474357","","0.2300358144","","0.2920368253","","","","","",""
"87","","bandit","173","564271","0.0-135.0-0.0","40288934","wem/bandit_single","A3MGO9AP52WQHP","pain","7","","72","H","0","img/none_selected.jpg","0","0","1","","0.1827708427","false","98","","0.1827708427","main_expt","","0.3311058144","","0.245913642","","0.3060047135","","","","","",""
"81","","bandit","174","566113","0.0-136.0-0.0","40288934","wem/bandit_single","A3MGO9AP52WQHP","pain","7","","72","H","0","img/none_selected.jpg","0","0","1","","0.1847148603","false","99","","0.1847148603","main_expt","","0.2831383079","","0.1977736678","","0.2834300817","","","","","",""
"87","","bandit","175","567960","0.0-137.0-0.0","40288934","wem/bandit_single","A3MGO9AP52WQHP","pain","7","","72","H","0","img/none_selected.jpg","0","0","1","","0.230590463","false","100","","0.230590463","main_expt","","0.2697282324","","0.2300987319","","0.3094748938","","","","","",""
"63","","bandit","176","569785","0.0-138.0-0.0","40288934","wem/bandit_single","A3MGO9AP52WQHP","pain","7","","72","H","0","img/none_selected.jpg","0","0","1","","0.2036778932","false","101","","0.2036778932","main_expt","","0.2908511313","","0.2375929523","","0.2776834174","","","","","",""
"94","","bandit","177","571641","0.0-139.0-0.0","40288934","wem/bandit_single","A3MGO9AP52WQHP","pain","7","","74","J","1","","0","0","1","","0.3371086545","false","102","","0.2146692458","main_expt","","0.3371086545","","0.2034833152","","0.2649828438","","","","","",""
"208","","bandit","178","573611","0.0-140.0-0.0","40288934","wem/bandit_single","A3MGO9AP52WQHP","pain","7","","74","J","1","","0","0","1","","0.2925399581","false","103","","0.2194044235","main_expt","","0.2925399581","","0.2510503681","","0.1977849252","","","","","",""
"60","","bandit","179","575433","0.0-141.0-0.0","40288934","wem/bandit_single","A3MGO9AP52WQHP","pain","7","","74","J","1","","0","0","1","","0.229866195","false","104","","0.2869514305","main_expt","","0.229866195","","0.2563420723","","0.164180841","","","","","",""
"135","","bandit","180","577327","0.0-142.0-0.0","40288934","wem/bandit_single","A3MGO9AP52WQHP","pain","7","","74","J","1","","0","0","1","","0.2786648232","false","105","","0.2577924419","main_expt","","0.2786648232","","0.2025228913","","0.1410880488","","","","","",""
"105","","bandit","181","579193","0.0-143.0-0.0","40288934","wem/bandit_single","A3MGO9AP52WQHP","pain","7","","76","L","3","","0","0","1","","0.2151151798","false","106","","0.2984789445","main_expt","","0.2907959635","","0.2288818116","","0.2151151798","","","","","",""
"157","","bandit","182","581112","0.0-144.0-0.0","40288934","wem/bandit_single","A3MGO9AP52WQHP","pain","7","","76","L","3","","0","0","1","","0.2068678097","false","107","","0.2483059356","main_expt","","0.2934471614","","0.2725684277","","0.2068678097","","","","","",""
"39","","bandit","183","582913","0.0-145.0-0.0","40288934","wem/bandit_single","A3MGO9AP52WQHP","pain","7","","76","L","3","","0","1","0","","0.1775779384","false","108","","0.2177203031","main_expt","","0.2761460559","","0.2725367566","","0.1775779384","","","","","",""
"264","","bandit","184","584938","0.0-146.0-0.0","40288934","wem/bandit_single","A3MGO9AP52WQHP","pain","7","","76","L","3","","0","0","1","","0.1633907035","false","109","","0.2155336726","main_expt","","0.3154055318","","0.2645412755","","0.1633907035","","","","","",""
"84","","bandit","185","586785","0.0-147.0-0.0","40288934","wem/bandit_single","A3MGO9AP52WQHP","pain","7","","76","L","3","","0","0","1","","0.1918139944","false","110","","0.2012134729","main_expt","","0.3375256398","","0.2537238549","","0.1918139944","","","","","",""
"62","","bandit","186","588608","0.0-148.0-0.0","40288934","wem/bandit_single","A3MGO9AP52WQHP","pain","7","","76","L","3","","0","1","0","","0.1512725872","false","111","","0.1362677005","main_expt","","0.3575411602","","0.2404930496","","0.1512725872","","","","","",""
"62","","bandit","187","590433","0.0-149.0-0.0","40288934","wem/bandit_single","A3MGO9AP52WQHP","pain","7","","76","L","3","","0","0","1","","0.1579322392","false","112","","0.1146466799","main_expt","","0.3357984678","","0.2031918028","","0.1579322392","","","","","",""
"333","","bandit","188","592529","0.0-150.0-0.0","40288934","wem/bandit_single","A3MGO9AP52WQHP","pain","7","","76","L","3","","0","0","1","","0.1638150459","false","113","","0.1503083978","main_expt","","0.2950954247","","0.2649243105","","0.1638150459","","","","","",""
"127","","bandit","189","594416","0.0-151.0-0.0","40288934","wem/bandit_single","A3MGO9AP52WQHP","pain","7","","76","L","3","","0","0","1","","0.1913716077","false","114","","0.1750780752","main_expt","","0.3242299597","","0.2669290767","","0.1913716077","","","","","",""
"360","","bandit","190","596538","0.0-152.0-0.0","40288934","wem/bandit_single","A3MGO9AP52WQHP","pain","7","","75","K","2","","0","1","0","","0.2538219684","false","115","","0.1486636943","main_expt","","0.3224166769","","0.2538219684","","0.1762938339","","","","","",""
"101","","bandit","191","598399","0.0-153.0-0.0","40288934","wem/bandit_single","A3MGO9AP52WQHP","pain","7","","75","K","2","","0","0","1","","0.2987800907","false","116","","0.149377163","main_expt","","0.3512221687","","0.2987800907","","0.1696576366","","","","","",""
"240","","bandit","192","600400","0.0-154.0-0.0","40288934","wem/bandit_single","A3MGO9AP52WQHP","pain","7","","75","K","2","","0","0","1","","0.2863147972","false","117","","0.1255156769","main_expt","","0.3854596622","","0.2863147972","","0.1743908607","","","","","",""
"55","","bandit","193","602216","0.0-155.0-0.0","40288934","wem/bandit_single","A3MGO9AP52WQHP","pain","7","","75","K","2","","0","0","1","","0.2863485017","false","118","","0.09405737873","main_expt","","0.3311459155","","0.2863485017","","0.2187419408","","","","","",""
"127","","bandit","194","604104","0.0-156.0-0.0","40288934","wem/bandit_single","A3MGO9AP52WQHP","pain","7","","75","K","2","","0","0","1","","0.2704451175","false","119","","0.0580133569","main_expt","","0.3243143835","","0.2704451175","","0.2602037773","","","","","",""
"150","","bandit","195","606015","0.0-157.0-0.0","40288934","wem/bandit_single","A3MGO9AP52WQHP","pain","7","","75","K","2","","0","0","1","","0.2545920365","false","120","","0.04965982272","main_expt","","0.3830596167","","0.2545920365","","0.2665240463","","","","","",""
"80","","bandit","196","607856","0.0-158.0-0.0","40288934","wem/bandit_single","A3MGO9AP52WQHP","pain","7","","75","K","2","","0","1","0","","0.323502768","false","121","","0.05452098248","main_expt","","0.4451194006","","0.323502768","","0.2300357123","","","","","",""
"183","","bandit","197","609800","0.0-159.0-0.0","40288934","wem/bandit_single","A3MGO9AP52WQHP","pain","7","","75","K","2","","0","0","1","","0.3380353075","false","122","","0.0475995955","main_expt","","0.4636898934","","0.3380353075","","0.2071140152","","","","","",""
"109","","bandit","198","611671","0.0-160.0-0.0","40288934","wem/bandit_single","A3MGO9AP52WQHP","pain","7","","75","K","2","","0","0","1","","0.341491638","false","123","","0.04799769062","main_expt","","0.4384370655","","0.341491638","","0.2590656513","","","","","",""
"79","","bandit","199","613511","0.0-161.0-0.0","40288934","wem/bandit_single","A3MGO9AP52WQHP","pain","7","","75","K","2","","0","1","0","","0.3269941981","false","124","","0.06454195205","main_expt","","0.456933673","","0.3269941981","","0.2492473134","","","","","",""
"79","","bandit","200","615351","0.0-162.0-0.0","40288934","wem/bandit_single","A3MGO9AP52WQHP","pain","7","","75","K","2","","0","0","1","","0.3263020805","false","125","","0.0570469748","main_expt","","0.4834692703","","0.3263020805","","0.2569957816","","","","","",""
"136","","bandit","201","617248","0.0-163.0-0.0","40288934","wem/bandit_single","A3MGO9AP52WQHP","pain","7","","75","K","2","","0","0","1","","0.3377655475","false","126","","0.06214194377","main_expt","","0.4895912119","","0.3377655475","","0.2715808503","","","","","",""
"64","","bandit","202","619072","0.0-164.0-0.0","40288934","wem/bandit_single","A3MGO9AP52WQHP","pain","7","","75","K","2","","0","1","0","","0.3489319456","false","127","","0.06219251386","main_expt","","0.4791977258","","0.3489319456","","0.3260406689","","","","","",""
"85","","bandit","203","620920","0.0-165.0-0.0","40288934","wem/bandit_single","A3MGO9AP52WQHP","pain","7","","75","K","2","","0","0","1","","0.3450526125","false","128","","0.06192095676","main_expt","","0.4772399827","","0.3450526125","","0.3487232841","","","","","",""
"29","","bandit","204","622712","0.0-166.0-0.0","40288934","wem/bandit_single","A3MGO9AP52WQHP","pain","7","","75","K","2","","0","0","1","","0.3297424559","false","129","","0.03846933599","main_expt","","0.4688955373","","0.3297424559","","0.3601162145","","","","","",""
"94","","bandit","205","624566","0.0-167.0-0.0","40288934","wem/bandit_single","A3MGO9AP52WQHP","pain","7","","74","J","1","","0","0","1","","0.4651179545","false","130","","0.02330960587","main_expt","","0.4651179545","","0.3731420779","","0.4185413006","","","","","",""
"72","","bandit","206","626400","0.0-168.0-0.0","40288934","wem/bandit_single","A3MGO9AP52WQHP","pain","7","","74","J","1","","0","1","0","","0.4794739162","false","131","","0.03495479357","main_expt","","0.4794739162","","0.325638262","","0.4537663544","","","","","",""
"110","","bandit","207","628272","0.0-169.0-0.0","40288934","wem/bandit_single","A3MGO9AP52WQHP","pain","7","","74","J","1","","0","0","1","","0.4679846252","false","132","","0.02752519027","main_expt","","0.4679846252","","0.3132782049","","0.4489861829","","","","","",""
"142","","bandit","208","630177","0.0-170.0-0.0","40288934","wem/bandit_single","A3MGO9AP52WQHP","pain","7","","74","J","1","","0","1","0","","0.4636487781","false","133","","0.03239645132","main_expt","","0.4636487781","","0.3552481716","","0.4465240103","","","","","",""
"196","","bandit","209","632135","0.0-171.0-0.0","40288934","wem/bandit_single","A3MGO9AP52WQHP","pain","7","","74","J","1","","0","0","1","","0.4578614037","false","134","","0.02361228775","main_expt","","0.4578614037","","0.3478795997","","0.4286255731","","","","","",""
"215","","bandit","210","634109","0.0-172.0-0.0","40288934","wem/bandit_single","A3MGO9AP52WQHP","pain","7","","74","J","1","","0","0","1","","0.4339873336","false","135","","0.01378345967","main_expt","","0.4339873336","","0.3394088604","","0.3969320342","","","","","",""
"127","","bandit","211","636000","0.0-173.0-0.0","40288934","wem/bandit_single","A3MGO9AP52WQHP","pain","7","","74","J","1","","0","0","1","","0.4091277288","false","136","","0.01349892684","main_expt","","0.4091277288","","0.3739095734","","0.3975573163","","","","","",""
"110","","bandit","212","637870","0.0-174.0-0.0","40288934","wem/bandit_single","A3MGO9AP52WQHP","pain","7","","74","J","1","","0","1","0","","0.4024864596","false","137","","0.01373747566","main_expt","","0.4024864596","","0.3319731639","","0.4226438881","","","","","",""
"126","","bandit","213","639760","0.0-175.0-0.0","40288934","wem/bandit_single","A3MGO9AP52WQHP","pain","7","","74","J","1","","0","0","1","","0.3793932322","false","138","","0.009346923256","main_expt","","0.3793932322","","0.3427854578","","0.383622376","","","","","",""
"86","","bandit","214","641607","0.0-176.0-0.0","40288934","wem/bandit_single","A3MGO9AP52WQHP","pain","7","","74","J","1","","0","0","1","","0.3940691536","false","139","","0.005947695369","main_expt","","0.3940691536","","0.2804250852","","0.3892077266","","","","","",""
"198","","bandit","215","643567","0.0-177.0-0.0","40288934","wem/bandit_single","A3MGO9AP52WQHP","pain","7","","74","J","1","","0","0","1","","0.3878174143","false","140","","0.003062149202","main_expt","","0.3878174143","","0.294489168","","0.3721285976","","","","","",""
"54","","bandit","216","645382","0.0-178.0-0.0","40288934","wem/bandit_single","A3MGO9AP52WQHP","pain","7","","74","J","1","","0","0","1","","0.3671315422","false","141","","0.003723800288","main_expt","","0.3671315422","","0.2849233321","","0.403063379","","","","","",""
"46","","bandit","217","647191","0.0-179.0-0.0","40288934","wem/bandit_single","A3MGO9AP52WQHP","pain","7","","74","J","1","","0","1","0","","0.338830911","false","142","","0.003048460602","main_expt","","0.338830911","","0.2605380125","","0.3916907223","","","","","",""
"44","","bandit","218","648997","0.0-180.0-0.0","40288934","wem/bandit_single","A3MGO9AP52WQHP","pain","7","","74","J","1","","0","1","0","","0.2709557481","false","143","","0.002664125267","main_expt","","0.2709557481","","0.3030740536","","0.4212357341","","","","","",""
"184","","bandit","219","650943","0.0-181.0-0.0","40288934","wem/bandit_single","A3MGO9AP52WQHP","pain","7","","74","J","1","","0","0","1","","0.249986241","false","144","","0.0015633636","main_expt","","0.249986241","","0.29766321","","0.3944164323","","","","","",""
"134","","bandit","220","652839","0.0-182.0-0.0","40288934","wem/bandit_single","A3MGO9AP52WQHP","pain","7","","74","J","1","","0","1","0","","0.2694710106","false","145","","0.002084593646","main_expt","","0.2694710106","","0.2862291296","","0.4129391908","","","","","",""
"149","","bandit","221","654751","0.0-183.0-0.0","40288934","wem/bandit_single","A3MGO9AP52WQHP","pain","7","","74","J","1","","0","0","1","","0.3099728414","false","146","","0.0008356934022","main_expt","","0.3099728414","","0.3151642481","","0.4027876266","","","","","",""
"190","","bandit","222","656702","0.0-184.0-0.0","40288934","wem/bandit_single","A3MGO9AP52WQHP","pain","7","","74","J","1","","0","0","1","","0.3010760093","false","147","","0.00187417998","main_expt","","0.3010760093","","0.3261334855","","0.3906291495","","","","","",""
"79","","bandit","223","658541","0.0-185.0-0.0","40288934","wem/bandit_single","A3MGO9AP52WQHP","pain","7","","74","J","1","","0","0","1","","0.2861733563","false","148","","0.001549413081","main_expt","","0.2861733563","","0.3605999671","","0.3718958907","","","","","",""
"62","","bandit","224","660367","0.0-186.0-0.0","40288934","wem/bandit_single","A3MGO9AP52WQHP","pain","7","","74","J","1","","0","0","1","","0.2613296644","false","149","","0.002318569837","main_expt","","0.2613296644","","0.3848975894","","0.3513552953","","","","","",""
"1367","","bandit","225","663496","0.0-187.0-0.0","40288934","wem/bandit_single","A3MGO9AP52WQHP","pain","7","","72","H","0","img/none_selected.jpg","0","0","1","","0.002401941109","false","150","","0.002401941109","main_expt","","0.2955554784","","0.3680345664","","0.3796712552","","","","","",""
"108","","bandit","226","665365","0.0-188.0-0.0","40288934","wem/bandit_single","A3MGO9AP52WQHP","pain","7","","72","H","0","img/none_selected.jpg","0","0","1","","0.002416650241","false","151","","0.002416650241","main_expt","","0.2928365899","","0.3517559312","","0.4275550045","","","","","",""
"30","","bandit","227","667157","0.0-189.0-0.0","40288934","wem/bandit_single","A3MGO9AP52WQHP","pain","7","","72","H","0","img/none_selected.jpg","0","0","1","","0.002533271813","false","152","","0.002533271813","main_expt","","0.3000067833","","0.3963282571","","0.4266807854","","","","","",""
"77","","bandit","228","668998","0.0-190.0-0.0","40288934","wem/bandit_single","A3MGO9AP52WQHP","pain","7","","72","H","0","img/none_selected.jpg","0","0","1","","0.00322942279","false","153","","0.00322942279","main_expt","","0.2757802357","","0.432842039","","0.4633151701","","","","","",""
"62","","bandit","229","670822","0.0-191.0-0.0","40288934","wem/bandit_single","A3MGO9AP52WQHP","pain","7","","72","H","0","img/none_selected.jpg","0","0","1","","0.003404333974","false","154","","0.003404333974","main_expt","","0.3252288772","","0.4134551824","","0.4723469507","","","","","",""
"189","","bandit","230","672773","0.0-192.0-0.0","40288934","wem/bandit_single","A3MGO9AP52WQHP","pain","7","","76","L","3","","0","0","1","","0.4829251431","false","155","","0.008925030754","main_expt","","0.2746928085","","0.426737857","","0.4829251431","","","","","",""
"56","","bandit","231","674592","0.0-193.0-0.0","40288934","wem/bandit_single","A3MGO9AP52WQHP","pain","7","","76","L","3","","0","1","0","","0.4753947098","false","156","","0.005317619152","main_expt","","0.2881451241","","0.4289541051","","0.4753947098","","","","","",""
"84","","bandit","232","676438","0.0-194.0-0.0","40288934","wem/bandit_single","A3MGO9AP52WQHP","pain","7","","76","L","3","","0","1","0","","0.4686295074","false","157","","0.002657446392","main_expt","","0.2861132768","","0.4593738684","","0.4686295074","","","","","",""
"45","","bandit","233","678244","0.0-195.0-0.0","40288934","wem/bandit_single","A3MGO9AP52WQHP","pain","7","","76","L","3","","0","1","0","","0.4746137902","false","158","","0.005349678466","main_expt","","0.2382703247","","0.4716769587","","0.4746137902","","","","","",""
"102","","bandit","234","680110","0.0-196.0-0.0","40288934","wem/bandit_single","A3MGO9AP52WQHP","pain","7","","76","L","3","","0","1","0","","0.4626257703","false","159","","0.00353293949","main_expt","","0.2650616746","","0.4566829936","","0.4626257703","","","","","",""
"53","","bandit","235","681924","0.0-197.0-0.0","40288934","wem/bandit_single","A3MGO9AP52WQHP","pain","7","","76","L","3","","0","1","0","","0.4690497323","false","160","","0.004525880368","main_expt","","0.2841227011","","0.4684401337","","0.4690497323","","","","","",""
"37","","bandit","236","683725","0.0-198.0-0.0","40288934","wem/bandit_single","A3MGO9AP52WQHP","pain","7","","76","L","3","","0","1","0","","0.4605728382","false","161","","0.00364468733","main_expt","","0.3103310899","","0.4327192474","","0.4605728382","","","","","",""
"151","","bandit","237","685640","0.0-199.0-0.0","40288934","wem/bandit_single","A3MGO9AP52WQHP","pain","7","","76","L","3","","0","1","0","","0.4663204896","false","162","","0.004567203872","main_expt","","0.2990864795","","0.4158578039","","0.4663204896","","","","","",""
"83","","bandit","238","687486","0.0-200.0-0.0","40288934","wem/bandit_single","A3MGO9AP52WQHP","pain","7","","76","L","3","","0","0","1","","0.4626626357","false","163","","0.003538815","main_expt","","0.2650304997","","0.4206849782","","0.4626626357","","","","","",""
"116","","bandit","239","689364","0.0-201.0-0.0","40288934","wem/bandit_single","A3MGO9AP52WQHP","pain","7","","76","L","3","","0","1","0","","0.4672680551","false","164","","0.002896615325","main_expt","","0.2877519924","","0.4276923589","","0.4672680551","","","","","",""
"101","","bandit","240","691229","0.0-202.0-0.0","40288934","wem/bandit_single","A3MGO9AP52WQHP","pain","7","","76","L","3","","0","1","0","","0.455015491","false","165","","0.004500484281","main_expt","","0.2818109827","","0.4204466813","","0.455015491","","","","","",""
"815","","bandit","241","693806","0.0-203.0-0.0","40288934","wem/bandit_single","A3MGO9AP52WQHP","pain","7","","76","L","3","","0","0","1","","0.4201800218","false","166","","0.01017739848","main_expt","","0.324785045","","0.4229734844","","0.4201800218","","","","","",""
"503","","bandit","242","696071","0.0-204.0-0.0","40288934","wem/bandit_single","A3MGO9AP52WQHP","pain","7","","76","L","3","","0","0","1","","0.4430085171","false","167","","0.0129517719","main_expt","","0.3339304688","","0.4474449943","","0.4430085171","","","","","",""
"515","","bandit","243","698349","0.0-205.0-0.0","40288934","wem/bandit_single","A3MGO9AP52WQHP","pain","7","","76","L","3","","0","0","1","","0.4526671473","false","168","","0.009045291763","main_expt","","0.3351003476","","0.4458086367","","0.4526671473","","","","","",""
"510","","bandit","244","700621","0.0-206.0-0.0","40288934","wem/bandit_single","A3MGO9AP52WQHP","pain","7","","76","L","3","","0","1","0","","0.4477525289","false","169","","0.01553154223","main_expt","","0.3556935824","","0.4619433307","","0.4477525289","","","","","",""
"350","","bandit","245","702734","0.0-207.0-0.0","40288934","wem/bandit_single","A3MGO9AP52WQHP","pain","7","","76","L","3","","0","0","1","","0.41154262","false","170","","0.01787531072","main_expt","","0.3690608098","","0.4703570947","","0.41154262","","","","","",""
"118","","bandit","246","704614","0.0-208.0-0.0","40288934","wem/bandit_single","A3MGO9AP52WQHP","pain","7","","76","L","3","","0","1","0","","0.37868858","false","171","","0.01316551092","main_expt","","0.3631266209","","0.474742395","","0.37868858","","","","","",""
"181","","bandit","247","706558","0.0-209.0-0.0","40288934","wem/bandit_single","A3MGO9AP52WQHP","pain","7","","76","L","3","","0","0","1","","0.3971498268","false","172","","0.0172037691","main_expt","","0.3392191481","","0.4773845315","","0.3971498268","","","","","",""
"86","","bandit","248","708404","0.0-210.0-0.0","40288934","wem/bandit_single","A3MGO9AP52WQHP","pain","7","","76","L","3","","0","0","1","","0.4319579383","false","173","","0.01427011775","main_expt","","0.2931772585","","0.4680058345","","0.4319579383","","","","","",""
"86","","bandit","249","710253","0.0-211.0-0.0","40288934","wem/bandit_single","A3MGO9AP52WQHP","pain","7","","76","L","3","","0","1","0","","0.4174714043","false","174","","0.01057019218","main_expt","","0.2750831853","","0.4561145842","","0.4174714043","","","","","",""
"174","","bandit","250","712188","0.0-212.0-0.0","40288934","wem/bandit_single","A3MGO9AP52WQHP","pain","7","","76","L","3","","0","0","1","","0.3846013355","false","175","","0.007255369755","main_expt","","0.2997345097","","0.472279608","","0.3846013355","","","","","",""
"157","","bandit","251","714109","0.0-213.0-0.0","40288934","wem/bandit_single","A3MGO9AP52WQHP","pain","7","","76","L","3","","0","1","0","","0.4019342833","false","176","","0.01305273867","main_expt","","0.3402413884","","0.4602447812","","0.4019342833","","","","","",""
"493","","bandit","252","716365","0.0-214.0-0.0","40288934","wem/bandit_single","A3MGO9AP52WQHP","pain","7","","76","L","3","","0","0","1","","0.4211485366","false","177","","0.0133150908","main_expt","","0.3099882557","","0.4343313091","","0.4211485366","","","","","",""
"287","","bandit","253","718414","0.0-215.0-0.0","40288934","wem/bandit_single","A3MGO9AP52WQHP","pain","7","","76","L","3","","0","1","0","","0.4133977621","false","178","","0.01259822705","main_expt","","0.2761175095","","0.4048428007","","0.4133977621","","","","","",""
"346","","bandit","254","720524","0.0-216.0-0.0","40288934","wem/bandit_single","A3MGO9AP52WQHP","pain","7","","76","L","3","","0","1","0","","0.4395013083","false","179","","0.008971211221","main_expt","","0.3053987856","","0.3826353834","","0.4395013083","","","","","",""
"167","","bandit","255","722451","0.0-217.0-0.0","40288934","wem/bandit_single","A3MGO9AP52WQHP","pain","7","","76","L","3","","0","1","0","","0.4385200931","false","180","","0.01053614943","main_expt","","0.291880519","","0.3352628501","","0.4385200931","","","","","",""
"136","","bandit","256","724347","0.0-218.0-0.0","40288934","wem/bandit_single","A3MGO9AP52WQHP","pain","7","","76","L","3","","0","1","0","","0.4225113135","false","181","","0.01184041186","main_expt","","0.298429346","","0.2990499081","","0.4225113135","","","","","",""
"207","","bandit","257","726316","0.0-219.0-0.0","40288934","wem/bandit_single","A3MGO9AP52WQHP","pain","7","","76","L","3","","0","0","1","","0.3723799893","false","182","","0.03042574256","main_expt","","0.3343264324","","0.3698835663","","0.3723799893","","","","","",""
"132","","bandit","258","728213","0.0-220.0-0.0","40288934","wem/bandit_single","A3MGO9AP52WQHP","pain","7","","76","L","3","","0","0","1","","0.3790924375","false","183","","0.03286829004","main_expt","","0.2890729732","","0.3849917371","","0.3790924375","","","","","",""
"95","","bandit","259","730070","0.0-221.0-0.0","40288934","wem/bandit_single","A3MGO9AP52WQHP","pain","7","","76","L","3","","0","0","1","","0.4122006093","false","184","","0.05565884368","main_expt","","0.1975841231","","0.3560661239","","0.4122006093","","","","","",""
"220","","bandit","260","732051","0.0-222.0-0.0","40288934","wem/bandit_single","A3MGO9AP52WQHP","pain","7","","76","L","3","","0","0","1","","0.3681720139","false","185","","0.05703602855","main_expt","","0.213981158","","0.3637043243","","0.3681720139","","","","","",""
"84","","bandit","261","733900","0.0-223.0-0.0","40288934","wem/bandit_single","A3MGO9AP52WQHP","pain","7","","76","L","3","","0","0","1","","0.3735732413","false","186","","0.08167625523","main_expt","","0.1690135127","","0.370254809","","0.3735732413","","","","","",""
"189","","bandit","262","735852","0.0-224.0-0.0","40288934","wem/bandit_single","A3MGO9AP52WQHP","pain","7","","76","L","3","","0","0","1","","0.3763431734","false","187","","0.08146612985","main_expt","","0.2606776113","","0.3451477914","","0.3763431734","","","","","",""
"174","","bandit","263","737787","0.0-225.0-0.0","40288934","wem/bandit_single","A3MGO9AP52WQHP","pain","7","","76","L","3","","0","1","0","","0.3515668436","false","188","","0.09365986726","main_expt","","0.2431197375","","0.3939300048","","0.3515668436","","","","","",""
"198","","bandit","264","739747","0.0-226.0-0.0","40288934","wem/bandit_single","A3MGO9AP52WQHP","pain","7","","76","L","3","","0","1","0","","0.3343836861","false","189","","0.09268069957","main_expt","","0.2308206277","","0.4136030152","","0.3343836861","","","","","",""
"264","","bandit","265","741773","0.0-227.0-0.0","40288934","wem/bandit_single","A3MGO9AP52WQHP","pain","7","","76","L","3","","0","1","0","","0.2525345787","false","190","","0.08594859785","main_expt","","0.2025271702","","0.4261376259","","0.2525345787","","","","","",""
"60","","bandit","266","743594","0.0-228.0-0.0","40288934","wem/bandit_single","A3MGO9AP52WQHP","pain","7","","76","L","3","","0","1","0","","0.2685183708","false","191","","0.08932588753","main_expt","","0.2751540988","","0.3908696756","","0.2685183708","","","","","",""
"152","","bandit","267","745507","0.0-229.0-0.0","40288934","wem/bandit_single","A3MGO9AP52WQHP","pain","7","","76","L","3","","0","1","0","","0.2572514827","false","192","","0.1064261942","main_expt","","0.2569606715","","0.4106222578","","0.2572514827","","","","","",""
"190","","bandit","268","747459","0.0-230.0-0.0","40288934","wem/bandit_single","A3MGO9AP52WQHP","pain","7","","76","L","3","","0","0","1","","0.1969756064","false","193","","0.1536879749","main_expt","","0.2874900681","","0.4282135821","","0.1969756064","","","","","",""
"215","","bandit","269","749436","0.0-231.0-0.0","40288934","wem/bandit_single","A3MGO9AP52WQHP","pain","7","","76","L","3","","0","0","1","","0.2134952627","false","194","","0.1389913839","main_expt","","0.1735349233","","0.4423695223","","0.2134952627","","","","","",""
"180","","bandit","270","751380","0.0-232.0-0.0","40288934","wem/bandit_single","A3MGO9AP52WQHP","pain","7","","76","L","3","","0","1","0","","0.1620875807","false","195","","0.1439418744","main_expt","","0.1922880567","","0.4594299266","","0.1620875807","","","","","",""
"143","","bandit","271","753284","0.0-233.0-0.0","40288934","wem/bandit_single","A3MGO9AP52WQHP","pain","7","","76","L","3","","0","0","1","","0.166822232","false","196","","0.131143091","main_expt","","0.180833075","","0.4446405127","","0.166822232","","","","","",""
"101","","bandit","272","755148","0.0-234.0-0.0","40288934","wem/bandit_single","A3MGO9AP52WQHP","pain","7","","76","L","3","","0","0","1","","0.1951417713","false","197","","0.1358316141","main_expt","","0.2213655201","","0.4559667881","","0.1951417713","","","","","",""
"260","","bandit","273","757171","0.0-235.0-0.0","40288934","wem/bandit_single","A3MGO9AP52WQHP","pain","7","","76","L","3","","0","1","0","","0.1946571809","false","198","","0.1271866158","main_expt","","0.1886922679","","0.4760465659","","0.1946571809","","","","","",""
"294","","bandit","274","759227","0.0-236.0-0.0","40288934","wem/bandit_single","A3MGO9AP52WQHP","pain","7","","76","L","3","","0","1","0","","0.125569753","false","199","","0.1427164763","main_expt","","0.1960792333","","0.4682530898","","0.125569753","","","","","",""
"199","","bandit","275","761188","0.0-237.0-0.0","40288934","wem/bandit_single","A3MGO9AP52WQHP","pain","7","","76","L","3","","0","1","0","","0.110010897","false","200","","0.1465126473","main_expt","","0.2093645874","","0.4722721777","","0.110010897","","","","","",""
"107","","bandit","276","763059","0.0-238.0-0.0","40288934","wem/bandit_single","A3MGO9AP52WQHP","pain","7","","76","L","3","","0","0","1","","0.1280762957","false","201","","0.1271257608","main_expt","","0.1673165995","","0.4739800601","","0.1280762957","","","","","",""
"109","","bandit","277","764932","0.0-239.0-0.0","40288934","wem/bandit_single","A3MGO9AP52WQHP","pain","7","","76","L","3","","0","0","1","","0.1402913484","false","202","","0.08657179739","main_expt","","0.2086438453","","0.479726886","","0.1402913484","","","","","",""
"236","","bandit","278","766930","0.0-240.0-0.0","40288934","wem/bandit_single","A3MGO9AP52WQHP","pain","7","","76","L","3","","0","0","1","","0.2217412738","false","203","","0.09313456927","main_expt","","0.1973992815","","0.4642372742","","0.2217412738","","","","","",""
"295","","bandit","279","768986","0.0-241.0-0.0","40288934","wem/bandit_single","A3MGO9AP52WQHP","pain","7","","76","L","3","","0","0","1","","0.2231628045","false","204","","0.1497906572","main_expt","","0.2256674954","","0.4560882558","","0.2231628045","","","","","",""
"86","","bandit","280","770834","0.0-242.0-0.0","40288934","wem/bandit_single","A3MGO9AP52WQHP","pain","7","","76","L","3","","0","1","0","","0.2170181201","false","205","","0.1829644856","main_expt","","0.2163874892","","0.4525737262","","0.2170181201","","","","","",""
"93","","bandit","281","772690","0.0-243.0-0.0","40288934","wem/bandit_single","A3MGO9AP52WQHP","pain","7","","76","L","3","","0","0","1","","0.2796725078","false","206","","0.1612057882","main_expt","","0.2197086186","","0.4550624295","","0.2796725078","","","","","",""
"70","","bandit","282","774522","0.0-244.0-0.0","40288934","wem/bandit_single","A3MGO9AP52WQHP","pain","7","","76","L","3","","0","0","1","","0.2817680811","false","207","","0.1697938272","main_expt","","0.2065154411","","0.4723612306","","0.2817680811","","","","","",""
"87","","bandit","283","776371","0.0-245.0-0.0","40288934","wem/bandit_single","A3MGO9AP52WQHP","pain","7","","76","L","3","","0","0","1","","0.2823403198","false","208","","0.1559958766","main_expt","","0.1685179651","","0.4766034411","","0.2823403198","","","","","",""
"116","","bandit","284","778250","0.0-246.0-0.0","40288934","wem/bandit_single","A3MGO9AP52WQHP","pain","7","","76","L","3","","0","1","0","","0.3618902866","false","209","","0.1446830505","main_expt","","0.138461816","","0.483515399","","0.3618902866","","","","","",""
"206","","bandit","285","780218","0.0-247.0-0.0","40288934","wem/bandit_single","A3MGO9AP52WQHP","pain","7","","76","L","3","","0","1","0","","0.373554641","false","210","","0.1231196185","main_expt","","0.1494322788","","0.4880418707","","0.373554641","","","","","",""
"78","","bandit","286","782058","0.0-248.0-0.0","40288934","wem/bandit_single","A3MGO9AP52WQHP","pain","7","","76","L","3","","0","0","1","","0.4160488284","false","211","","0.1456244431","main_expt","","0.1799359977","","0.4802592994","","0.4160488284","","","","","",""
"62","","bandit","287","783882","0.0-249.0-0.0","40288934","wem/bandit_single","A3MGO9AP52WQHP","pain","7","","76","L","3","","0","0","1","","0.381710399","false","212","","0.1656867557","main_expt","","0.1810857181","","0.4738887763","","0.381710399","","","","","",""
"238","","bandit","288","785882","0.0-250.0-0.0","40288934","wem/bandit_single","A3MGO9AP52WQHP","pain","7","","76","L","3","","0","0","1","","0.3769148707","false","213","","0.224977978","main_expt","","0.1615137558","","0.4808850683","","0.3769148707","","","","","",""
"103","","bandit","289","787748","0.0-251.0-0.0","40288934","wem/bandit_single","A3MGO9AP52WQHP","pain","7","","76","L","3","","0","1","0","","0.3476207329","false","214","","0.307554285","main_expt","","0.1650702933","","0.4825694391","","0.3476207329","","","","","",""
"213","","bandit","290","789723","0.0-252.0-0.0","40288934","wem/bandit_single","A3MGO9AP52WQHP","pain","7","","76","L","3","","0","1","0","","0.3089741626","false","215","","0.3638187162","main_expt","","0.1804791034","","0.4847107186","","0.3089741626","","","","","",""
"261","","bandit","291","791747","0.0-253.0-0.0","40288934","wem/bandit_single","A3MGO9AP52WQHP","pain","7","","76","L","3","","0","0","1","","0.3674618518","false","216","","0.3543809852","main_expt","","0.1573161505","","0.4809007894","","0.3674618518","","","","","",""
"91","","bandit","292","793602","0.0-254.0-0.0","40288934","wem/bandit_single","A3MGO9AP52WQHP","pain","7","","76","L","3","","0","0","1","","0.3283657719","false","217","","0.3301156576","main_expt","","0.1434716653","","0.4741770765","","0.3283657719","","","","","",""
"93","","bandit","293","795457","0.0-255.0-0.0","40288934","wem/bandit_single","A3MGO9AP52WQHP","pain","7","","76","L","3","","0","1","0","","0.3302734852","false","218","","0.3132999057","main_expt","","0.1911838451","","0.4819245576","","0.3302734852","","","","","",""
"32","","bandit","294","797250","0.0-256.0-0.0","40288934","wem/bandit_single","A3MGO9AP52WQHP","pain","7","","76","L","3","","0","0","1","","0.3554571327","false","219","","0.2205266592","main_expt","","0.1441129831","","0.4793241995","","0.3554571327","","","","","",""
"278","","bandit","295","799291","0.0-257.0-0.0","40288934","wem/bandit_single","A3MGO9AP52WQHP","pain","7","","76","L","3","","0","0","1","","0.319330444","false","220","","0.2167078271","main_expt","","0.1920309772","","0.4713672071","","0.319330444","","","","","",""
"27","","bandit","296","801081","0.0-258.0-0.0","40288934","wem/bandit_single","A3MGO9AP52WQHP","pain","7","","76","L","3","","0","1","0","","0.3105046037","false","221","","0.2038989409","main_expt","","0.1770810464","","0.4728071858","","0.3105046037","","","","","",""
"262","","bandit","297","803104","0.0-259.0-0.0","40288934","wem/bandit_single","A3MGO9AP52WQHP","pain","7","","76","L","3","","0","0","1","","0.2971369975","false","222","","0.18760722","main_expt","","0.1726735039","","0.4742115633","","0.2971369975","","","","","",""
"158","","bandit","298","805026","0.0-260.0-0.0","40288934","wem/bandit_single","A3MGO9AP52WQHP","pain","7","","76","L","3","","0","0","1","","0.2924153056","false","223","","0.1794058889","main_expt","","0.1935596247","","0.4606319974","","0.2924153056","","","","","",""
"159","","bandit","299","806947","0.0-261.0-0.0","40288934","wem/bandit_single","A3MGO9AP52WQHP","pain","7","","76","L","3","","0","0","1","","0.3251713444","false","224","","0.1973287288","main_expt","","0.184290804","","0.4796626282","","0.3251713444","","","","","",""
"157","","bandit","300","808865","0.0-262.0-0.0","40288934","wem/bandit_single","A3MGO9AP52WQHP","pain","7","","76","L","3","","0","0","1","","0.3191667618","false","225","","0.1657141015","main_expt","","0.1182631535","","0.4770938662","","0.3191667618","","","","","",""
"142","","bandit","301","810770","0.0-263.0-0.0","40288934","wem/bandit_single","A3MGO9AP52WQHP","pain","7","","76","L","3","","0","0","1","","0.3163975521","false","226","","0.1333985498","main_expt","","0.1243406576","","0.4753940461","","0.3163975521","","","","","",""
"108","","bandit","302","812642","0.0-264.0-0.0","40288934","wem/bandit_single","A3MGO9AP52WQHP","pain","7","","76","L","3","","0","1","0","","0.3153023093","false","227","","0.1426718429","main_expt","","0.1887705619","","0.4692559414","","0.3153023093","","","","","",""
"102","","bandit","303","814505","0.0-265.0-0.0","40288934","wem/bandit_single","A3MGO9AP52WQHP","pain","7","","76","L","3","","0","1","0","","0.252814401","false","228","","0.1510234048","main_expt","","0.1594511678","","0.4549715312","","0.252814401","","","","","",""
"93","","bandit","304","816360","0.0-266.0-0.0","40288934","wem/bandit_single","A3MGO9AP52WQHP","pain","7","","76","L","3","","0","0","1","","0.2830586582","false","229","","0.1786638104","main_expt","","0.1582092687","","0.4818432606","","0.2830586582","","","","","",""
"187","","bandit","305","818313","0.0-267.0-0.0","40288934","wem/bandit_single","A3MGO9AP52WQHP","pain","7","","76","L","3","","0","0","1","","0.2124451555","false","230","","0.1564383184","main_expt","","0.149178519","","0.4542350274","","0.2124451555","","","","","",""
"95","","bandit","306","820169","0.0-268.0-0.0","40288934","wem/bandit_single","A3MGO9AP52WQHP","pain","7","","76","L","3","","0","0","1","","0.1175217461","false","231","","0.1398607303","main_expt","","0.2063022429","","0.4646494747","","0.1175217461","","","","","",""
"182","","bandit","307","822115","0.0-269.0-0.0","40288934","wem/bandit_single","A3MGO9AP52WQHP","pain","7","","76","L","3","","0","0","1","","0.144677577","false","232","","0.1323980205","main_expt","","0.2424934828","","0.4617677548","","0.144677577","","","","","",""
"136","","bandit","308","824017","0.0-270.0-0.0","40288934","wem/bandit_single","A3MGO9AP52WQHP","pain","7","","76","L","3","","0","0","1","","0.1555092754","false","233","","0.1510374747","main_expt","","0.2404462099","","0.4535872836","","0.1555092754","","","","","",""
"158","","bandit","309","825937","0.0-271.0-0.0","40288934","wem/bandit_single","A3MGO9AP52WQHP","pain","7","","76","L","3","","0","0","1","","0.1250762939","false","234","","0.133247495","main_expt","","0.1830028502","","0.4297764401","","0.1250762939","","","","","",""
"150","","bandit","310","827850","0.0-272.0-0.0","40288934","wem/bandit_single","A3MGO9AP52WQHP","pain","7","","74","J","1","","0","1","0","","0.2197419317","false","235","","0.1666928205","main_expt","","0.2197419317","","0.4335441617","","0.1094925358","","","","","",""
"84","","bandit","311","829696","0.0-273.0-0.0","40288934","wem/bandit_single","A3MGO9AP52WQHP","pain","7","","74","J","1","","0","0","1","","0.2537285896","false","236","","0.1772374327","main_expt","","0.2537285896","","0.4390497594","","0.09099935704","","","","","",""
"158","","bandit","312","831617","0.0-274.0-0.0","40288934","wem/bandit_single","A3MGO9AP52WQHP","pain","7","","74","J","1","","0","0","1","","0.2967198922","false","237","","0.2093850131","main_expt","","0.2967198922","","0.4557250369","","0.07445530481","","","","","",""
"239","","bandit","313","833620","0.0-275.0-0.0","40288934","wem/bandit_single","A3MGO9AP52WQHP","pain","7","","74","J","1","","0","0","1","","0.2716881628","false","238","","0.2323540058","main_expt","","0.2716881628","","0.4712934341","","0.1160826651","","","","","",""
"338","","bandit","314","835721","0.0-276.0-0.0","40288934","wem/bandit_single","A3MGO9AP52WQHP","pain","7","","74","J","1","","0","0","1","","0.2840113657","false","239","","0.2527052166","main_expt","","0.2840113657","","0.4744109467","","0.1935594103","","","","","",""
"525","","bandit","315","838009","0.0-277.0-0.0","40288934","wem/bandit_single","A3MGO9AP52WQHP","pain","7","","74","J","1","","0","0","1","","0.3274134878","false","240","","0.2429338356","main_expt","","0.3274134878","","0.4856904038","","0.2305108235","","","","","",""
"77","","bandit","316","839847","0.0-278.0-0.0","40288934","wem/bandit_single","A3MGO9AP52WQHP","pain","7","","74","J","1","","0","1","0","","0.3106351565","false","241","","0.2422046893","main_expt","","0.3106351565","","0.474377245","","0.23744922","","","","","",""
"140","","bandit","317","841752","0.0-279.0-0.0","40288934","wem/bandit_single","A3MGO9AP52WQHP","pain","7","","74","J","1","","0","0","1","","0.276301991","false","242","","0.1974588069","main_expt","","0.276301991","","0.4699498903","","0.2644088126","","","","","",""
"134","","bandit","318","843651","0.0-280.0-0.0","40288934","wem/bandit_single","A3MGO9AP52WQHP","pain","7","","74","J","1","","0","1","0","","0.2682550828","false","243","","0.1697106736","main_expt","","0.2682550828","","0.4696131401","","0.3029471314","","","","","",""
"199","","bandit","319","845617","0.0-281.0-0.0","40288934","wem/bandit_single","A3MGO9AP52WQHP","pain","7","","74","J","1","","0","0","1","","0.2717267912","false","244","","0.1495066821","main_expt","","0.2717267912","","0.4519085084","","0.2869027424","","","","","",""
"116","","bandit","320","847496","0.0-282.0-0.0","40288934","wem/bandit_single","A3MGO9AP52WQHP","pain","7","","74","J","1","","0","1","0","","0.2480355477","false","245","","0.1664551864","main_expt","","0.2480355477","","0.4620487724","","0.2928347339","","","","","",""
"297","","bandit","321","849558","0.0-283.0-0.0","40288934","wem/bandit_single","A3MGO9AP52WQHP","pain","7","","74","J","1","","0","0","1","","0.2978011657","false","246","","0.1660340973","main_expt","","0.2978011657","","0.4553277256","","0.2537870262","","","","","",""
"120","","bandit","322","851448","0.0-284.0-0.0","40288934","wem/bandit_single","A3MGO9AP52WQHP","pain","7","","74","J","1","","0","0","1","","0.3183795364","false","247","","0.2232834288","main_expt","","0.3183795364","","0.4470790686","","0.220788829","","","","","",""
"35","","bandit","323","853249","0.0-285.0-0.0","40288934","wem/bandit_single","A3MGO9AP52WQHP","pain","7","","74","J","1","","0","0","1","","0.3496285813","false","248","","0.2337066106","main_expt","","0.3496285813","","0.4370243233","","0.2260039815","","","","","",""
"140","","bandit","324","855153","0.0-286.0-0.0","40288934","wem/bandit_single","A3MGO9AP52WQHP","pain","7","","74","J","1","","0","0","1","","0.3450691196","false","249","","0.2555848542","main_expt","","0.3450691196","","0.4344986606","","0.2536259712","","","","","",""
"91","","bandit","325","857007","0.0-287.0-0.0","40288934","wem/bandit_single","A3MGO9AP52WQHP","pain","7","","72","H","0","img/none_selected.jpg","0","0","1","","0.2423579198","false","250","","0.2423579198","main_expt","","0.3451339369","","0.4418367533","","0.2748463286","","","","","",""
"196","","bandit","326","858968","0.0-288.0-0.0","40288934","wem/bandit_single","A3MGO9AP52WQHP","pain","7","","72","H","0","img/none_selected.jpg","0","0","1","","0.2275025436","false","251","","0.2275025436","main_expt","","0.3928119302","","0.4227475224","","0.2623633266","","","","","",""
"50","","bandit","327","860786","0.0-289.0-0.0","40288934","wem/bandit_single","A3MGO9AP52WQHP","pain","7","","72","H","0","img/none_selected.jpg","0","0","1","","0.2868871138","false","252","","0.2868871138","main_expt","","0.3926241496","","0.423648384","","0.3173920108","","","","","",""
"42","","bandit","328","862593","0.0-290.0-0.0","40288934","wem/bandit_single","A3MGO9AP52WQHP","pain","7","","72","H","0","img/none_selected.jpg","0","0","1","","0.2719675916","false","253","","0.2719675916","main_expt","","0.4074069762","","0.4321428437","","0.3172059241","","","","","",""
"96","","bandit","329","864455","0.0-291.0-0.0","40288934","wem/bandit_single","A3MGO9AP52WQHP","pain","7","","72","H","0","img/none_selected.jpg","0","0","1","","0.3118638267","false","254","","0.3118638267","main_expt","","0.3831412703","","0.4621147124","","0.3200237469","","","","","",""
"240","","bandit","330","866457","0.0-292.0-0.0","40288934","wem/bandit_single","A3MGO9AP52WQHP","pain","7","","75","K","2","","0","1","0","","0.4586218194","false","255","","0.2103897122","main_expt","","0.3639457665","","0.4586218194","","0.3358809316","","","","","",""
"164","","bandit","331","868383","0.0-293.0-0.0","40288934","wem/bandit_single","A3MGO9AP52WQHP","pain","7","","75","K","2","","0","0","1","","0.4661438042","false","256","","0.2053105091","main_expt","","0.3353936822","","0.4661438042","","0.3288682213","","","","","",""
"77","","bandit","332","870224","0.0-294.0-0.0","40288934","wem/bandit_single","A3MGO9AP52WQHP","pain","7","","75","K","2","","0","0","1","","0.4746145216","false","257","","0.2101260802","main_expt","","0.3457786028","","0.4746145216","","0.3298558235","","","","","",""
"100","","bandit","333","872087","0.0-295.0-0.0","40288934","wem/bandit_single","A3MGO9AP52WQHP","pain","7","","75","K","2","","0","0","1","","0.479590246","false","258","","0.251470712","main_expt","","0.3336199161","","0.479590246","","0.3544886593","","","","","",""
"125","","bandit","334","873975","0.0-296.0-0.0","40288934","wem/bandit_single","A3MGO9AP52WQHP","pain","7","","75","K","2","","0","1","0","","0.4543592645","false","259","","0.2320991284","main_expt","","0.3182937175","","0.4543592645","","0.3380036538","","","","","",""
"133","","bandit","335","875872","0.0-297.0-0.0","40288934","wem/bandit_single","A3MGO9AP52WQHP","pain","7","","75","K","2","","0","0","1","","0.4591910344","false","260","","0.2850429488","main_expt","","0.3004718715","","0.4591910344","","0.2797544445","","","","","",""
"51","","bandit","336","877689","0.0-298.0-0.0","40288934","wem/bandit_single","A3MGO9AP52WQHP","pain","7","","75","K","2","","0","0","1","","0.4416244086","false","261","","0.3396488321","main_expt","","0.2969538951","","0.4416244086","","0.2594239605","","","","","",""
"185","","bandit","337","879639","0.0-299.0-0.0","40288934","wem/bandit_single","A3MGO9AP52WQHP","pain","7","","75","K","2","","0","1","0","","0.410126596","false","262","","0.243241633","main_expt","","0.336502974","","0.410126596","","0.2804023839","","","","","",""
"68","","bandit","338","881472","0.0-300.0-0.0","40288934","wem/bandit_single","A3MGO9AP52WQHP","pain","7","","75","K","2","","0","1","0","","0.3852167719","false","263","","0.221101122","main_expt","","0.3417757729","","0.3852167719","","0.2526654216","","","","","",""
"188","","bandit","339","883424","0.0-301.0-0.0","40288934","wem/bandit_single","A3MGO9AP52WQHP","pain","7","","75","K","2","","0","0","1","","0.4048243192","false","264","","0.2475963948","main_expt","","0.3288238543","","0.4048243192","","0.2262009497","","","","","",""
"244","","bandit","340","885431","0.0-302.0-0.0","40288934","wem/bandit_single","A3MGO9AP52WQHP","pain","7","","75","K","2","","0","0","1","","0.3671025299","false","265","","0.2472156829","main_expt","","0.2661945806","","0.3671025299","","0.2111455706","","","","","",""
"275","","bandit","341","887471","0.0-303.0-0.0","40288934","wem/bandit_single","A3MGO9AP52WQHP","pain","7","","75","K","2","","0","0","1","","0.366792141","false","266","","0.2257792125","main_expt","","0.2831053071","","0.366792141","","0.1816972253","","","","","",""
"310","","bandit","342","889545","0.0-304.0-0.0","40288934","wem/bandit_single","A3MGO9AP52WQHP","pain","7","","75","K","2","","0","1","0","","0.3187551676","false","267","","0.2434052149","main_expt","","0.2814616526","","0.3187551676","","0.08996407949","","","","","",""
"210","","bandit","343","891520","0.0-305.0-0.0","40288934","wem/bandit_single","A3MGO9AP52WQHP","pain","7","","75","K","2","","0","0","1","","0.2992927481","false","268","","0.2472891614","main_expt","","0.2698532634","","0.2992927481","","0.08316088703","","","","","",""
"66","","bandit","344","893351","0.0-306.0-0.0","40288934","wem/bandit_single","A3MGO9AP52WQHP","pain","7","","75","K","2","","0","0","1","","0.3158706852","false","269","","0.2592343403","main_expt","","0.332936287","","0.3158706852","","0.132755096","","","","","",""
"148","","bandit","345","895263","0.0-307.0-0.0","40288934","wem/bandit_single","A3MGO9AP52WQHP","pain","7","","75","K","2","","0","1","0","","0.3399881701","false","270","","0.2626766442","main_expt","","0.3520051328","","0.3399881701","","0.1295257529","","","","","",""
"50","","bandit","346","897079","0.0-308.0-0.0","40288934","wem/bandit_single","A3MGO9AP52WQHP","pain","7","","75","K","2","","0","1","0","","0.3425846673","false","271","","0.2889536683","main_expt","","0.319936882","","0.3425846673","","0.1243547369","","","","","",""
"157","","bandit","347","898999","0.0-309.0-0.0","40288934","wem/bandit_single","A3MGO9AP52WQHP","pain","7","","75","K","2","","0","1","0","","0.3661992365","false","272","","0.3519527746","main_expt","","0.3526338178","","0.3661992365","","0.1129401117","","","","","",""
"173","","bandit","348","900935","0.0-310.0-0.0","40288934","wem/bandit_single","A3MGO9AP52WQHP","pain","7","","75","K","2","","0","1","0","","0.3548292996","false","273","","0.3142239271","main_expt","","0.3661190652","","0.3548292996","","0.07602588951","","","","","",""
"99","","bandit","349","902799","0.0-311.0-0.0","40288934","wem/bandit_single","A3MGO9AP52WQHP","pain","7","","75","K","2","","0","1","0","","0.3015993901","false","274","","0.2858465014","main_expt","","0.3531355024","","0.3015993901","","0.08326080211","","","","","",""
"250","","bandit","350","904816","0.0-312.0-0.0","40288934","wem/bandit_single","A3MGO9AP52WQHP","pain","7","","75","K","2","","0","0","1","","0.3074537736","false","275","","0.2833142968","main_expt","","0.3710682781","","0.3074537736","","0.1117875064","","","","","",""
"131","","bandit","351","906710","0.0-313.0-0.0","40288934","wem/bandit_single","A3MGO9AP52WQHP","pain","7","","75","K","2","","0","0","1","","0.2995557441","false","276","","0.303505508","main_expt","","0.3039620657","","0.2995557441","","0.1087564456","","","","","",""
"170","","bandit","352","908647","0.0-314.0-0.0","40288934","wem/bandit_single","A3MGO9AP52WQHP","pain","7","","75","K","2","","0","0","1","","0.3372524479","false","277","","0.2503405658","main_expt","","0.3661174243","","0.3372524479","","0.1402577261","","","","","",""
"195","","bandit","353","910607","0.0-315.0-0.0","40288934","wem/bandit_single","A3MGO9AP52WQHP","pain","7","","75","K","2","","0","0","1","","0.3941332117","false","278","","0.2575241406","main_expt","","0.3603903852","","0.3941332117","","0.1639331241","","","","","",""
"51","","bandit","354","912423","0.0-316.0-0.0","40288934","wem/bandit_single","A3MGO9AP52WQHP","pain","7","","75","K","2","","0","1","0","","0.369807449","false","279","","0.2537993043","main_expt","","0.3865241344","","0.369807449","","0.08855821706","","","","","",""
"260","","bandit","355","914447","0.0-317.0-0.0","40288934","wem/bandit_single","A3MGO9AP52WQHP","pain","7","","75","K","2","","0","0","1","","0.3726167961","false","280","","0.1734094061","main_expt","","0.3941828848","","0.3726167961","","0.1116659285","","","","","",""
"115","","bandit","356","916326","0.0-318.0-0.0","40288934","wem/bandit_single","A3MGO9AP52WQHP","pain","7","","75","K","2","","0","0","1","","0.3849966858","false","281","","0.1846732939","main_expt","","0.4060440919","","0.3849966858","","0.1032088387","","","","","",""
"141","","bandit","357","918230","0.0-319.0-0.0","40288934","wem/bandit_single","A3MGO9AP52WQHP","pain","7","","75","K","2","","0","0","1","","0.4081920515","false","282","","0.1808782366","main_expt","","0.3855255831","","0.4081920515","","0.1449157137","","","","","",""
"156","","bandit","358","920151","0.0-320.0-0.0","40288934","wem/bandit_single","A3MGO9AP52WQHP","pain","7","","75","K","2","","0","0","1","","0.3930572229","false","283","","0.1375342675","main_expt","","0.3694157076","","0.3930572229","","0.1649674285","","","","","",""
"67","","bandit","359","921983","0.0-321.0-0.0","40288934","wem/bandit_single","A3MGO9AP52WQHP","pain","7","","75","K","2","","0","0","1","","0.379410926","false","284","","0.1029306966","main_expt","","0.4137550783","","0.379410926","","0.1373277791","","","","","",""
"268","","bandit","360","924016","0.0-322.0-0.0","40288934","wem/bandit_single","A3MGO9AP52WQHP","pain","7","","76","L","3","","0","0","1","","0.1616488504","false","285","","0.08821361919","main_expt","","0.4268254387","","0.3947179778","","0.1616488504","","","","","",""
"79","","bandit","361","925863","0.0-323.0-0.0","40288934","wem/bandit_single","A3MGO9AP52WQHP","pain","7","","76","L","3","","0","0","1","","0.1306737704","false","286","","0.08321279743","main_expt","","0.4115685589","","0.4036344472","","0.1306737704","","","","","",""
"140","","bandit","362","927766","0.0-324.0-0.0","40288934","wem/bandit_single","A3MGO9AP52WQHP","pain","7","","76","L","3","","0","1","0","","0.2059275786","false","287","","0.0595967864","main_expt","","0.3828423493","","0.4025981517","","0.2059275786","","","","","",""
"194","","bandit","363","929726","0.0-325.0-0.0","40288934","wem/bandit_single","A3MGO9AP52WQHP","pain","7","","76","L","3","","0","0","1","","0.1892738114","false","288","","0.06539189492","main_expt","","0.4121581376","","0.4183513528","","0.1892738114","","","","","",""
"58","","bandit","364","931551","0.0-326.0-0.0","40288934","wem/bandit_single","A3MGO9AP52WQHP","pain","7","","76","L","3","","0","1","0","","0.1656659279","false","289","","0.06484578344","main_expt","","0.4227758831","","0.4516793017","","0.1656659279","","","","","",""
"281","","bandit","365","933598","0.0-327.0-0.0","40288934","wem/bandit_single","A3MGO9AP52WQHP","pain","7","","76","L","3","","0","0","1","","0.1814252587","false","290","","0.06626982825","main_expt","","0.4149367164","","0.4112115972","","0.1814252587","","","","","",""
"84","","bandit","366","935446","0.0-328.0-0.0","40288934","wem/bandit_single","A3MGO9AP52WQHP","pain","7","","76","L","3","","0","0","1","","0.2385479929","false","291","","0.1096348163","main_expt","","0.399757838","","0.4372982331","","0.2385479929","","","","","",""
"148","","bandit","367","937356","0.0-329.0-0.0","40288934","wem/bandit_single","A3MGO9AP52WQHP","pain","7","","76","L","3","","0","0","1","","0.2322046479","false","292","","0.1604398542","main_expt","","0.3846886596","","0.4238416902","","0.2322046479","","","","","",""
"84","","bandit","368","939206","0.0-330.0-0.0","40288934","wem/bandit_single","A3MGO9AP52WQHP","pain","7","","76","L","3","","0","1","0","","0.223393304","false","293","","0.1714651471","main_expt","","0.3364000065","","0.4034354509","","0.223393304","","","","","",""
"275","","bandit","369","941245","0.0-331.0-0.0","40288934","wem/bandit_single","A3MGO9AP52WQHP","pain","7","","76","L","3","","0","0","1","","0.2290093083","false","294","","0.1378543876","main_expt","","0.3545739736","","0.4093667064","","0.2290093083","","","","","",""
"186","","bandit","370","943197","0.0-332.0-0.0","40288934","wem/bandit_single","A3MGO9AP52WQHP","pain","7","","76","L","3","","0","0","1","","0.2875464899","false","295","","0.1243446737","main_expt","","0.2891777922","","0.4294791191","","0.2875464899","","","","","",""
"186","","bandit","371","945150","0.0-333.0-0.0","40288934","wem/bandit_single","A3MGO9AP52WQHP","pain","7","","76","L","3","","0","0","1","","0.2880416719","false","296","","0.1831574145","main_expt","","0.2084544567","","0.4289259587","","0.2880416719","","","","","",""
"82","","bandit","372","946998","0.0-334.0-0.0","40288934","wem/bandit_single","A3MGO9AP52WQHP","pain","7","","75","K","2","","0","1","0","","0.4073385017","false","297","","0.1645554297","main_expt","","0.2481546198","","0.4073385017","","0.2144640116","","","","","",""
"132","","bandit","373","948893","0.0-335.0-0.0","40288934","wem/bandit_single","A3MGO9AP52WQHP","pain","7","","75","K","2","","0","0","1","","0.3914212946","false","298","","0.1424629524","main_expt","","0.2961938921","","0.3914212946","","0.2150894671","","","","","",""
"102","","bandit","374","950759","0.0-336.0-0.0","40288934","wem/bandit_single","A3MGO9AP52WQHP","pain","7","","75","K","2","","0","1","0","","0.3813238847","false","299","","0.1581050354","main_expt","","0.2840976989","","0.3813238847","","0.2407822334","","","","","",""
"263","","bandit","375","952790","0.0-337.0-0.0","40288934","wem/bandit_single","A3MGO9AP52WQHP","pain","7","","75","K","2","","0","1","0","","0.3955358319","false","300","","0.1028467187","main_expt","","0.2546407964","","0.3955358319","","0.2400142118","","","","","",""
"114","","bandit","376","954669","0.0-338.0-0.0","40288934","wem/bandit_single","A3MGO9AP52WQHP","pain","7","","75","K","2","","0","0","1","","0.3883447362","false","301","","0.109482406","main_expt","","0.1933688023","","0.3883447362","","0.1787170458","","","","","",""
