"rt","responses","trial_type","trial_index","time_elapsed","internal_node_id","subjID","study","MID","cond","drift","key_press","respCharCode","respKey","respChoiceNum","respChoice","gems","bombs","no_reward","GemPrChosen","BombPrChosen","practice","trial_counter","WinPr_0","LosePr_0","trial_label","WinPr_1","LosePr_1","WinPr_2","LosePr_2","WinPr_3","LosePr_3","Q0","Q1","Q2","gender","age","ethnicity"
"6307","{""Q0"":""A6JOC24PSUEEC""}","survey-text","0","6318","0.0-0.0","41012464","wem/bandit_single","A6JOC24PSUEEC","gain","7","","","","","","","","","","","","","","","","","","","","","","","","","","",""
"1776","","text","1","9101","0.0-1.0","41012464","wem/bandit_single","A6JOC24PSUEEC","gain","7","32","","","","","","","","","","","","","","","","","","","","","","","","","",""
"6549","","text","2","15652","0.0-2.0","41012464","wem/bandit_single","A6JOC24PSUEEC","gain","7","32","","","","","","","","","","","","","","","","","","","","","","","","","",""
"16915","","text","3","32568","0.0-3.0","41012464","wem/bandit_single","A6JOC24PSUEEC","gain","7","32","","","","","","","","","","","","","","","","","","","","","","","","","",""
"12519","","text","4","45089","0.0-4.0","41012464","wem/bandit_single","A6JOC24PSUEEC","gain","7","32","","","","","","","","","","","","","","","","","","","","","","","","","",""
"6220","","text","5","51312","0.0-5.0","41012464","wem/bandit_single","A6JOC24PSUEEC","gain","7","32","","","","","","","","","","","","","","","","","","","","","","","","","",""
"5131","","text","6","56446","0.0-6.0","41012464","wem/bandit_single","A6JOC24PSUEEC","gain","7","32","","","","","","","","","","","","","","","","","","","","","","","","","",""
"3635","","text","7","60083","0.0-7.0","41012464","wem/bandit_single","A6JOC24PSUEEC","gain","7","32","","","","","","","","","","","","","","","","","","","","","","","","","",""
"3119","","text","8","63204","0.0-8.0","41012464","wem/bandit_single","A6JOC24PSUEEC","gain","7","32","","","","","","","","","","","","","","","","","","","","","","","","","",""
"1752","","text","9","64958","0.0-9.0","41012464","wem/bandit_single","A6JOC24PSUEEC","gain","7","32","","","","","","","","","","","","","","","","","","","","","","","","","",""
"6702","","text","10","71662","0.0-10.0","41012464","wem/bandit_single","A6JOC24PSUEEC","gain","7","32","","","","","","","","","","","","","","","","","","","","","","","","","",""
"2958","","text","11","74623","0.0-11.0","41012464","wem/bandit_single","A6JOC24PSUEEC","gain","7","32","","","","","","","","","","","","","","","","","","","","","","","","","",""
"1370","","bandit","12","77507","0.0-12.0-0.0","41012464","wem/bandit_single","A6JOC24PSUEEC","gain","7","","74","J","0","img/none_selected_demo.jpg","0","0","1","0","0","true","0","0","0","","","","","","","","","","","","",""
"1204","","bandit","13","80470","0.0-13.0-0.0","41012464","wem/bandit_single","A6JOC24PSUEEC","gain","7","","75","K","0","img/none_selected_demo.jpg","0","0","1","0","0","true","0","0","0","","","","","","","","","","","","",""
"1825","","text","14","82549","0.0-14.0","41012464","wem/bandit_single","A6JOC24PSUEEC","gain","7","32","","","","","","","","","","","","","","","","","","","","","","","","","",""
"1121","","text","15","83672","0.0-15.0","41012464","wem/bandit_single","A6JOC24PSUEEC","gain","7","32","","","","","","","","","","","","","","","","","","","","","","","","","",""
"3034","","text","16","86708","0.0-16.0","41012464","wem/bandit_single","A6JOC24PSUEEC","gain","7","32","","","","","","","","","","","","","","","","","","","","","","","","","",""
"2628","","text","17","89339","0.0-17.0","41012464","wem/bandit_single","A6JOC24PSUEEC","gain","7","32","","","","","","","","","","","","","","","","","","","","","","","","","",""
"1382","","bandit","18","92228","0.0-18.0-0.0","41012464","wem/bandit_single","A6JOC24PSUEEC","gain","7","","74","J","0","img/none_selected_demo.jpg","1","0","0","0.8","0","true","0","0.8","0","80_20_practice","0.2","0","","","","","","","","","",""
"60","","bandit","19","94047","0.0-18.0-1.0","41012464","wem/bandit_single","A6JOC24PSUEEC","gain","7","","74","J","0","img/none_selected_demo.jpg","1","0","0","0.8","0","true","0","0.8","0","80_20_practice","0.2","0","","","","","","","","","",""
"10","","bandit","20","95816","0.0-18.0-2.0","41012464","wem/bandit_single","A6JOC24PSUEEC","gain","7","","74","J","0","img/none_selected_demo.jpg","1","0","0","0.8","0","true","0","0.8","0","80_20_practice","0.2","0","","","","","","","","","",""
"14","","bandit","21","97589","0.0-18.0-3.0","41012464","wem/bandit_single","A6JOC24PSUEEC","gain","7","","74","J","0","img/none_selected_demo.jpg","1","0","0","0.8","0","true","0","0.8","0","80_20_practice","0.2","0","","","","","","","","","",""
"1141","","bandit","22","100488","0.0-18.0-4.0","41012464","wem/bandit_single","A6JOC24PSUEEC","gain","7","","74","J","0","img/none_selected_demo.jpg","1","0","0","0.8","0","true","0","0.8","0","80_20_practice","0.2","0","","","","","","","","","",""
"26","","bandit","23","102274","0.0-18.0-5.0","41012464","wem/bandit_single","A6JOC24PSUEEC","gain","7","","74","J","0","img/none_selected_demo.jpg","1","0","0","0.8","0","true","0","0.8","0","80_20_practice","0.2","0","","","","","","","","","",""
"3","","bandit","24","104035","0.0-18.0-6.0","41012464","wem/bandit_single","A6JOC24PSUEEC","gain","7","","75","K","1","","0","0","1","0.2","0","true","0","0.8","0","80_20_practice","0.2","0","","","","","","","","","",""
"225","","bandit","25","106019","0.0-18.0-7.0","41012464","wem/bandit_single","A6JOC24PSUEEC","gain","7","","75","K","1","","0","0","1","0.2","0","true","0","0.8","0","80_20_practice","0.2","0","","","","","","","","","",""
"100","","bandit","26","107879","0.0-18.0-8.0","41012464","wem/bandit_single","A6JOC24PSUEEC","gain","7","","74","J","0","img/none_selected_demo.jpg","1","0","0","0.8","0","true","0","0.8","0","80_20_practice","0.2","0","","","","","","","","","",""
"112","","bandit","27","109749","0.0-18.0-9.0","41012464","wem/bandit_single","A6JOC24PSUEEC","gain","7","","74","J","0","img/none_selected_demo.jpg","1","0","0","0.8","0","true","0","0.8","0","80_20_practice","0.2","0","","","","","","","","","",""
"47","","bandit","28","111554","0.0-18.0-10.0","41012464","wem/bandit_single","A6JOC24PSUEEC","gain","7","","74","J","0","img/none_selected_demo.jpg","0","0","1","0.8","0","true","0","0.8","0","80_20_practice","0.2","0","","","","","","","","","",""
"374","","bandit","29","113687","0.0-18.0-11.0","41012464","wem/bandit_single","A6JOC24PSUEEC","gain","7","","75","K","1","","1","0","0","0.2","0","true","0","0.8","0","80_20_practice","0.2","0","","","","","","","","","",""
"26","","bandit","30","115475","0.0-18.0-12.0","41012464","wem/bandit_single","A6JOC24PSUEEC","gain","7","","75","K","1","","0","0","1","0.2","0","true","0","0.8","0","80_20_practice","0.2","0","","","","","","","","","",""
"68","","bandit","31","117303","0.0-18.0-13.0","41012464","wem/bandit_single","A6JOC24PSUEEC","gain","7","","74","J","0","img/none_selected_demo.jpg","1","0","0","0.8","0","true","0","0.8","0","80_20_practice","0.2","0","","","","","","","","","",""
"2465","","bandit","32","121526","0.0-18.0-14.0","41012464","wem/bandit_single","A6JOC24PSUEEC","gain","7","","74","J","0","img/none_selected_demo.jpg","1","0","0","0.8","0","true","0","0.8","0","80_20_practice","0.2","0","","","","","","","","","",""
"103","","bandit","33","123394","0.0-18.0-15.0","41012464","wem/bandit_single","A6JOC24PSUEEC","gain","7","","74","J","0","img/none_selected_demo.jpg","1","0","0","0.8","0","true","0","0.8","0","80_20_practice","0.2","0","","","","","","","","","",""
"321","","bandit","34","125475","0.0-18.0-16.0","41012464","wem/bandit_single","A6JOC24PSUEEC","gain","7","","74","J","0","img/none_selected_demo.jpg","1","0","0","0.8","0","true","0","0.8","0","80_20_practice","0.2","0","","","","","","","","","",""
"54","","bandit","35","127288","0.0-18.0-17.0","41012464","wem/bandit_single","A6JOC24PSUEEC","gain","7","","74","J","0","img/none_selected_demo.jpg","1","0","0","0.8","0","true","0","0.8","0","80_20_practice","0.2","0","","","","","","","","","",""
"258","","bandit","36","129305","0.0-18.0-18.0","41012464","wem/bandit_single","A6JOC24PSUEEC","gain","7","","74","J","0","img/none_selected_demo.jpg","1","0","0","0.8","0","true","0","0.8","0","80_20_practice","0.2","0","","","","","","","","","",""
"21","","bandit","37","131082","0.0-18.0-19.0","41012464","wem/bandit_single","A6JOC24PSUEEC","gain","7","","75","K","1","","0","0","1","0.2","0","true","0","0.8","0","80_20_practice","0.2","0","","","","","","","","","",""
"4809","","text","38","136145","0.0-19.0","41012464","wem/bandit_single","A6JOC24PSUEEC","gain","7","32","","","","","","","","","","","","","","","","","","","","","","","","","",""
"2276","","bandit","39","139930","0.0-20.0-0.0","41012464","wem/bandit_single","A6JOC24PSUEEC","gain","7","","74","J","0","img/none_selected_demo.jpg","0","0","1","0","0","true","0","0","0","","0","0","","","","","","","","","",""
"2807","","text","40","142995","0.0-21.0","41012464","wem/bandit_single","A6JOC24PSUEEC","gain","7","32","","","","","","","","","","","","","","","","","","","","","","","","","",""
"2791","","text","41","145790","0.0-22.0","41012464","wem/bandit_single","A6JOC24PSUEEC","gain","7","32","","","","","","","","","","","","","","","","","","","","","","","","","",""
"2556","","text","42","148350","0.0-23.0","41012464","wem/bandit_single","A6JOC24PSUEEC","gain","7","32","","","","","","","","","","","","","","","","","","","","","","","","","",""
"2079","","text","43","150433","0.0-24.0","41012464","wem/bandit_single","A6JOC24PSUEEC","gain","7","32","","","","","","","","","","","","","","","","","","","","","","","","","",""
"7127","","text","44","157565","0.0-25.0","41012464","wem/bandit_single","A6JOC24PSUEEC","gain","7","32","","","","","","","","","","","","","","","","","","","","","","","","","",""
"3337","","text","45","160905","0.0-26.0","41012464","wem/bandit_single","A6JOC24PSUEEC","gain","7","32","","","","","","","","","","","","","","","","","","","","","","","","","",""
"4017","","text","46","164926","0.0-27.0","41012464","wem/bandit_single","A6JOC24PSUEEC","gain","7","32","","","","","","","","","","","","","","","","","","","","","","","","","",""
"3717","","text","47","168646","0.0-28.0","41012464","wem/bandit_single","A6JOC24PSUEEC","gain","7","32","","","","","","","","","","","","","","","","","","","","","","","","","",""
"4149","","text","48","172799","0.0-29.0","41012464","wem/bandit_single","A6JOC24PSUEEC","gain","7","32","","","","","","","","","","","","","","","","","","","","","","","","","",""
"1801","","text","49","174603","0.0-30.0","41012464","wem/bandit_single","A6JOC24PSUEEC","gain","7","32","","","","","","","","","","","","","","","","","","","","","","","","","",""
"4372","","text","50","178978","0.0-31.0","41012464","wem/bandit_single","A6JOC24PSUEEC","gain","7","32","","","","","","","","","","","","","","","","","","","","","","","","","",""
"641","","bandit","51","181129","0.0-32.0-0.0","41012464","wem/bandit_single","A6JOC24PSUEEC","gain","7","","72","H","0","img/none_selected.jpg","1","0","0","0.8","0","true","0","0.8","0","full_practice","0.2","0","0.6","0","0.2","0","","","","","",""
"588","","bandit","52","183476","0.0-32.0-1.0","41012464","wem/bandit_single","A6JOC24PSUEEC","gain","7","","74","J","1","","0","0","1","0.2","0","true","0","0.8","0","full_practice","0.2","0","0.6","0","0.2","0","","","","","",""
"148","","bandit","53","185387","0.0-32.0-2.0","41012464","wem/bandit_single","A6JOC24PSUEEC","gain","7","","75","K","2","","1","0","0","0.6","0","true","0","0.8","0","full_practice","0.2","0","0.6","0","0.2","0","","","","","",""
"91","","bandit","54","187238","0.0-32.0-3.0","41012464","wem/bandit_single","A6JOC24PSUEEC","gain","7","","72","H","0","img/none_selected.jpg","1","0","0","0.8","0","true","0","0.8","0","full_practice","0.2","0","0.6","0","0.2","0","","","","","",""
"78","","bandit","55","189075","0.0-32.0-4.0","41012464","wem/bandit_single","A6JOC24PSUEEC","gain","7","","75","K","2","","1","0","0","0.6","0","true","0","0.8","0","full_practice","0.2","0","0.6","0","0.2","0","","","","","",""
"12","","bandit","56","190846","0.0-32.0-5.0","41012464","wem/bandit_single","A6JOC24PSUEEC","gain","7","","76","L","3","","0","0","1","0.2","0","true","0","0.8","0","full_practice","0.2","0","0.6","0","0.2","0","","","","","",""
"532","","bandit","57","193137","0.0-32.0-6.0","41012464","wem/bandit_single","A6JOC24PSUEEC","gain","7","","72","H","0","img/none_selected.jpg","1","0","0","0.8","0","true","0","0.8","0","full_practice","0.2","0","0.6","0","0.2","0","","","","","",""
"55","","bandit","58","194953","0.0-32.0-7.0","41012464","wem/bandit_single","A6JOC24PSUEEC","gain","7","","75","K","2","","0","0","1","0.6","0","true","0","0.8","0","full_practice","0.2","0","0.6","0","0.2","0","","","","","",""
"446","","bandit","59","197159","0.0-32.0-8.0","41012464","wem/bandit_single","A6JOC24PSUEEC","gain","7","","72","H","0","img/none_selected.jpg","1","0","0","0.8","0","true","0","0.8","0","full_practice","0.2","0","0.6","0","0.2","0","","","","","",""
"1069","","bandit","60","199989","0.0-32.0-9.0","41012464","wem/bandit_single","A6JOC24PSUEEC","gain","7","","76","L","3","","0","0","1","0.2","0","true","0","0.8","0","full_practice","0.2","0","0.6","0","0.2","0","","","","","",""
"39","","bandit","61","201787","0.0-32.0-10.0","41012464","wem/bandit_single","A6JOC24PSUEEC","gain","7","","72","H","0","img/none_selected.jpg","1","0","0","0.8","0","true","0","0.8","0","full_practice","0.2","0","0.6","0","0.2","0","","","","","",""
"27","","bandit","62","203571","0.0-32.0-11.0","41012464","wem/bandit_single","A6JOC24PSUEEC","gain","7","","72","H","0","img/none_selected.jpg","0","0","1","0.8","0","true","0","0.8","0","full_practice","0.2","0","0.6","0","0.2","0","","","","","",""
"107","","bandit","63","205436","0.0-32.0-12.0","41012464","wem/bandit_single","A6JOC24PSUEEC","gain","7","","72","H","0","img/none_selected.jpg","0","0","1","0.8","0","true","0","0.8","0","full_practice","0.2","0","0.6","0","0.2","0","","","","","",""
"71","","bandit","64","207276","0.0-32.0-13.0","41012464","wem/bandit_single","A6JOC24PSUEEC","gain","7","","72","H","0","img/none_selected.jpg","1","0","0","0.8","0","true","0","0.8","0","full_practice","0.2","0","0.6","0","0.2","0","","","","","",""
"59","","bandit","65","209096","0.0-32.0-14.0","41012464","wem/bandit_single","A6JOC24PSUEEC","gain","7","","74","J","1","","0","0","1","0.2","0","true","0","0.8","0","full_practice","0.2","0","0.6","0","0.2","0","","","","","",""
"37","","bandit","66","210893","0.0-32.0-15.0","41012464","wem/bandit_single","A6JOC24PSUEEC","gain","7","","75","K","2","","1","0","0","0.6","0","true","0","0.8","0","full_practice","0.2","0","0.6","0","0.2","0","","","","","",""
"42","","bandit","67","212694","0.0-32.0-16.0","41012464","wem/bandit_single","A6JOC24PSUEEC","gain","7","","72","H","0","img/none_selected.jpg","1","0","0","0.8","0","true","0","0.8","0","full_practice","0.2","0","0.6","0","0.2","0","","","","","",""
"382","","bandit","68","214837","0.0-32.0-17.0","41012464","wem/bandit_single","A6JOC24PSUEEC","gain","7","","75","K","2","","0","0","1","0.6","0","true","0","0.8","0","full_practice","0.2","0","0.6","0","0.2","0","","","","","",""
"180","","bandit","69","216777","0.0-32.0-18.0","41012464","wem/bandit_single","A6JOC24PSUEEC","gain","7","","74","J","1","","0","0","1","0.2","0","true","0","0.8","0","full_practice","0.2","0","0.6","0","0.2","0","","","","","",""
"260","","bandit","70","218799","0.0-32.0-19.0","41012464","wem/bandit_single","A6JOC24PSUEEC","gain","7","","76","L","3","","0","0","1","0.2","0","true","0","0.8","0","full_practice","0.2","0","0.6","0","0.2","0","","","","","",""
"2359","","text","71","221420","0.0-33.0","41012464","wem/bandit_single","A6JOC24PSUEEC","gain","7","32","","","","","","","","","","","","","","","","","","","","","","","","","",""
"9357","","text","72","231785","0.0-34.0","41012464","wem/bandit_single","A6JOC24PSUEEC","gain","7","32","","","","","","","","","","","","","","","","","","","","","","","","","",""
"4926","","text","73","236716","0.0-35.0","41012464","wem/bandit_single","A6JOC24PSUEEC","gain","7","32","","","","","","","","","","","","","","","","","","","","","","","","","",""
"4593","","text","74","241314","0.0-36.0","41012464","wem/bandit_single","A6JOC24PSUEEC","gain","7","32","","","","","","","","","","","","","","","","","","","","","","","","","",""
"3664","","text","75","244981","0.0-37.0","41012464","wem/bandit_single","A6JOC24PSUEEC","gain","7","32","","","","","","","","","","","","","","","","","","","","","","","","","",""
"2114","","bandit","76","248605","0.0-38.0-0.0","41012464","wem/bandit_single","A6JOC24PSUEEC","gain","7","","72","H","0","img/none_selected.jpg","0","0","1","0.05137684772","","false","1","0.05137684772","","main_expt","0.182860278","","0.2046929885","","0.4656663819","","","","","","",""
"464","","bandit","77","250829","0.0-39.0-0.0","41012464","wem/bandit_single","A6JOC24PSUEEC","gain","7","","74","J","1","","0","0","1","0.1824128093","","false","2","0.07150319997","","main_expt","0.1824128093","","0.1903203277","","0.4696156166","","","","","","",""
"115","","bandit","78","252704","0.0-40.0-0.0","41012464","wem/bandit_single","A6JOC24PSUEEC","gain","7","","75","K","2","","0","0","1","0.1806567389","","false","3","0.080703679","","main_expt","0.1671989933","","0.1806567389","","0.477042595","","","","","","",""
"92","","bandit","79","254558","0.0-41.0-0.0","41012464","wem/bandit_single","A6JOC24PSUEEC","gain","7","","76","L","3","","0","0","1","0.4833388502","","false","4","0.09206073837","","main_expt","0.1769774761","","0.1746643784","","0.4833388502","","","","","","",""
"532","","bandit","80","256850","0.0-42.0-0.0","41012464","wem/bandit_single","A6JOC24PSUEEC","gain","7","","72","H","0","img/none_selected.jpg","1","0","0","0.09846378213","","false","5","0.09846378213","","main_expt","0.1847579949","","0.1575849224","","0.4679643189","","","","","","",""
"52","","bandit","81","258662","0.0-43.0-0.0","41012464","wem/bandit_single","A6JOC24PSUEEC","gain","7","","72","H","0","img/none_selected.jpg","0","0","1","0.07982937149","","false","6","0.07982937149","","main_expt","0.2263389119","","0.1848921601","","0.4728114282","","","","","","",""
"55","","bandit","82","260478","0.0-44.0-0.0","41012464","wem/bandit_single","A6JOC24PSUEEC","gain","7","","72","H","0","img/none_selected.jpg","0","0","1","0.08361087011","","false","7","0.08361087011","","main_expt","0.233500047","","0.2090417599","","0.4763129956","","","","","","",""
"167","","bandit","83","262407","0.0-45.0-0.0","41012464","wem/bandit_single","A6JOC24PSUEEC","gain","7","","72","H","0","img/none_selected.jpg","0","0","1","0.1210475052","","false","8","0.1210475052","","main_expt","0.2213385325","","0.2340345007","","0.4605171502","","","","","","",""
"561","","bandit","84","264726","0.0-46.0-0.0","41012464","wem/bandit_single","A6JOC24PSUEEC","gain","7","","74","J","1","","0","0","1","0.216727727","","false","9","0.1023248189","","main_expt","0.216727727","","0.2388832632","","0.457599345","","","","","","",""
"49","","bandit","85","266534","0.0-47.0-0.0","41012464","wem/bandit_single","A6JOC24PSUEEC","gain","7","","74","J","1","","0","0","1","0.1757193701","","false","10","0.1311876697","","main_expt","0.1757193701","","0.2336568073","","0.4514273669","","","","","","",""
"166","","bandit","86","268461","0.0-48.0-0.0","41012464","wem/bandit_single","A6JOC24PSUEEC","gain","7","","74","J","1","","1","0","0","0.221687112","","false","11","0.1171839072","","main_expt","0.221687112","","0.2682397485","","0.461109344","","","","","","",""
"18","","bandit","87","270239","0.0-49.0-0.0","41012464","wem/bandit_single","A6JOC24PSUEEC","gain","7","","74","J","1","","1","0","0","0.1693148256","","false","12","0.09103905321","","main_expt","0.1693148256","","0.2855743842","","0.4750360261","","","","","","",""
"6","","bandit","88","272006","0.0-50.0-0.0","41012464","wem/bandit_single","A6JOC24PSUEEC","gain","7","","75","K","2","","0","0","1","0.2877368863","","false","13","0.08195125901","","main_expt","0.1861997022","","0.2877368863","","0.4882900813","","","","","","",""
"70","","bandit","89","273838","0.0-51.0-0.0","41012464","wem/bandit_single","A6JOC24PSUEEC","gain","7","","75","K","2","","1","0","0","0.2904717711","","false","14","0.1022478824","","main_expt","0.2056371894","","0.2904717711","","0.4836145896","","","","","","",""
"36","","bandit","90","275635","0.0-52.0-0.0","41012464","wem/bandit_single","A6JOC24PSUEEC","gain","7","","76","L","3","","1","0","0","0.4841526839","","false","15","0.1295923723","","main_expt","0.207651467","","0.3145527135","","0.4841526839","","","","","","",""
"91","","bandit","91","277488","0.0-53.0-0.0","41012464","wem/bandit_single","A6JOC24PSUEEC","gain","7","","74","J","1","","1","0","0","0.264879833","","false","16","0.1259026636","","main_expt","0.264879833","","0.2919685568","","0.4733209008","","","","","","",""
"12","","bandit","92","279265","0.0-54.0-0.0","41012464","wem/bandit_single","A6JOC24PSUEEC","gain","7","","76","L","3","","0","0","1","0.4548629562","","false","17","0.08714849596","","main_expt","0.301226273","","0.2437915417","","0.4548629562","","","","","","",""
"25","","bandit","93","281048","0.0-55.0-0.0","41012464","wem/bandit_single","A6JOC24PSUEEC","gain","7","","74","J","1","","1","0","0","0.3355017989","","false","18","0.06082296625","","main_expt","0.3355017989","","0.2139729843","","0.4423108412","","","","","","",""
"6","","bandit","94","282812","0.0-56.0-0.0","41012464","wem/bandit_single","A6JOC24PSUEEC","gain","7","","75","K","2","","0","0","1","0.2117718275","","false","19","0.04376078701","","main_expt","0.4066928382","","0.2117718275","","0.4510346454","","","","","","",""
"45","","bandit","95","284619","0.0-57.0-0.0","41012464","wem/bandit_single","A6JOC24PSUEEC","gain","7","","74","J","1","","0","0","1","0.4152799178","","false","20","0.0431273538","","main_expt","0.4152799178","","0.2128214431","","0.4522943673","","","","","","",""
"358","","bandit","96","286739","0.0-58.0-0.0","41012464","wem/bandit_single","A6JOC24PSUEEC","gain","7","","74","J","1","","0","0","1","0.4005545413","","false","21","0.05700218709","","main_expt","0.4005545413","","0.2557511999","","0.4213917452","","","","","","",""
"133","","bandit","97","288632","0.0-59.0-0.0","41012464","wem/bandit_single","A6JOC24PSUEEC","gain","7","","74","J","1","","0","0","1","0.4065945052","","false","22","0.03008320558","","main_expt","0.4065945052","","0.2240556206","","0.4055738921","","","","","","",""
"185","","bandit","98","290578","0.0-60.0-0.0","41012464","wem/bandit_single","A6JOC24PSUEEC","gain","7","","72","H","0","img/none_selected.jpg","1","0","0","0.04675245401","","false","23","0.04675245401","","main_expt","0.4396923884","","0.1913455436","","0.4102744642","","","","","","",""
"100","","bandit","99","292439","0.0-61.0-0.0","41012464","wem/bandit_single","A6JOC24PSUEEC","gain","7","","75","K","2","","0","0","1","0.1767964116","","false","24","0.02664245213","","main_expt","0.4414607804","","0.1767964116","","0.4215519413","","","","","","",""
"212","","bandit","100","294412","0.0-62.0-0.0","41012464","wem/bandit_single","A6JOC24PSUEEC","gain","7","","72","H","0","img/none_selected.jpg","0","0","1","0.02443183667","","false","25","0.02443183667","","main_expt","0.430597795","","0.1667721477","","0.4076768117","","","","","","",""
"54","","bandit","101","296226","0.0-63.0-0.0","41012464","wem/bandit_single","A6JOC24PSUEEC","gain","7","","76","L","3","","1","0","0","0.3563873355","","false","26","0.02765515704","","main_expt","0.4049624372","","0.132468293","","0.3563873355","","","","","","",""
"68","","bandit","102","298054","0.0-64.0-0.0","41012464","wem/bandit_single","A6JOC24PSUEEC","gain","7","","76","L","3","","1","0","0","0.3305608977","","false","27","0.05751586542","","main_expt","0.3959859591","","0.1283549716","","0.3305608977","","","","","","",""
"151","","bandit","103","299970","0.0-65.0-0.0","41012464","wem/bandit_single","A6JOC24PSUEEC","gain","7","","76","L","3","","1","0","0","0.323916825","","false","28","0.1046410472","","main_expt","0.4316273603","","0.1218888314","","0.323916825","","","","","","",""
"87","","bandit","104","301817","0.0-66.0-0.0","41012464","wem/bandit_single","A6JOC24PSUEEC","gain","7","","76","L","3","","0","0","1","0.3256975875","","false","29","0.1174110135","","main_expt","0.4618757987","","0.08739650486","","0.3256975875","","","","","","",""
"43","","bandit","105","303619","0.0-67.0-0.0","41012464","wem/bandit_single","A6JOC24PSUEEC","gain","7","","76","L","3","","0","0","1","0.3590663193","","false","30","0.09344635718","","main_expt","0.4764599947","","0.1113113005","","0.3590663193","","","","","","",""
"45","","bandit","106","305425","0.0-68.0-0.0","41012464","wem/bandit_single","A6JOC24PSUEEC","gain","7","","76","L","3","","0","0","1","0.2794303661","","false","31","0.07228097062","","main_expt","0.4870567238","","0.1234593762","","0.2794303661","","","","","","",""
"19","","bandit","107","307205","0.0-69.0-0.0","41012464","wem/bandit_single","A6JOC24PSUEEC","gain","7","","72","H","0","img/none_selected.jpg","0","0","1","0.06660380695","","false","32","0.06660380695","","main_expt","0.4744541924","","0.1204693509","","0.2725021833","","","","","","",""
"387","","bandit","108","309355","0.0-70.0-0.0","41012464","wem/bandit_single","A6JOC24PSUEEC","gain","7","","74","J","1","","1","0","0","0.4595636441","","false","33","0.06161000393","","main_expt","0.4595636441","","0.1525092538","","0.2662358977","","","","","","",""
"1019","","bandit","109","312134","0.0-71.0-0.0","41012464","wem/bandit_single","A6JOC24PSUEEC","gain","7","","74","J","1","","1","0","0","0.4700794195","","false","34","0.08245015188","","main_expt","0.4700794195","","0.0933794629","","0.3062719381","","","","","","",""
"44","","bandit","110","313937","0.0-72.0-0.0","41012464","wem/bandit_single","A6JOC24PSUEEC","gain","7","","75","K","2","","0","0","1","0.06693018499","","false","35","0.08195488018","","main_expt","0.46481425","","0.06693018499","","0.3199342551","","","","","","",""
"118","","bandit","111","315816","0.0-73.0-0.0","41012464","wem/bandit_single","A6JOC24PSUEEC","gain","7","","74","J","1","","0","0","1","0.4518384169","","false","36","0.1004102013","","main_expt","0.4518384169","","0.09916465935","","0.3039619122","","","","","","",""
"17","","bandit","112","317593","0.0-74.0-0.0","41012464","wem/bandit_single","A6JOC24PSUEEC","gain","7","","75","K","2","","0","0","1","0.08872434017","","false","37","0.1390326598","","main_expt","0.439581627","","0.08872434017","","0.2927636057","","","","","","",""
"36","","bandit","113","319391","0.0-75.0-0.0","41012464","wem/bandit_single","A6JOC24PSUEEC","gain","7","","74","J","1","","0","0","1","0.3994664239","","false","38","0.143322519","","main_expt","0.3994664239","","0.08103487055","","0.3513205482","","","","","","",""
"354","","bandit","114","321507","0.0-76.0-0.0","41012464","wem/bandit_single","A6JOC24PSUEEC","gain","7","","76","L","3","","0","0","1","0.3199725693","","false","39","0.1439849427","","main_expt","0.399239641","","0.09262773223","","0.3199725693","","","","","","",""
"80","","bandit","115","323347","0.0-77.0-0.0","41012464","wem/bandit_single","A6JOC24PSUEEC","gain","7","","76","L","3","","0","0","1","0.2899826696","","false","40","0.1813186375","","main_expt","0.3842971785","","0.08276392867","","0.2899826696","","","","","","",""
"410","","bandit","116","325518","0.0-78.0-0.0","41012464","wem/bandit_single","A6JOC24PSUEEC","gain","7","","72","H","0","img/none_selected.jpg","0","0","1","0.182623784","","false","41","0.182623784","","main_expt","0.3584077127","","0.07889170896","","0.2470457707","","","","","","",""
"59","","bandit","117","327340","0.0-79.0-0.0","41012464","wem/bandit_single","A6JOC24PSUEEC","gain","7","","74","J","1","","0","0","1","0.2940512223","","false","42","0.1310997782","","main_expt","0.2940512223","","0.1007082374","","0.2860815649","","","","","","",""
"78","","bandit","118","329180","0.0-80.0-0.0","41012464","wem/bandit_single","A6JOC24PSUEEC","gain","7","","75","K","2","","0","0","1","0.04983151166","","false","43","0.1211351308","","main_expt","0.3274682868","","0.04983151166","","0.3649324249","","","","","","",""
"406","","bandit","119","331347","0.0-81.0-0.0","41012464","wem/bandit_single","A6JOC24PSUEEC","gain","7","","76","L","3","","1","0","0","0.3722884938","","false","44","0.1032393721","","main_expt","0.3105097628","","0.06772206808","","0.3722884938","","","","","","",""
"70","","bandit","120","333179","0.0-82.0-0.0","41012464","wem/bandit_single","A6JOC24PSUEEC","gain","7","","72","H","0","img/none_selected.jpg","0","0","1","0.145243047","","false","45","0.145243047","","main_expt","0.3253779088","","0.07082322934","","0.3589666793","","","","","","",""
"378","","bandit","121","335319","0.0-83.0-0.0","41012464","wem/bandit_single","A6JOC24PSUEEC","gain","7","","76","L","3","","0","0","1","0.309469461","","false","46","0.1871821161","","main_expt","0.2907447256","","0.08302100682","","0.309469461","","","","","","",""
"64","","bandit","122","337147","0.0-84.0-0.0","41012464","wem/bandit_single","A6JOC24PSUEEC","gain","7","","74","J","1","","0","0","1","0.2922490699","","false","47","0.1827431821","","main_expt","0.2922490699","","0.04947507936","","0.3486132663","","","","","","",""
"6","","bandit","123","338915","0.0-85.0-0.0","41012464","wem/bandit_single","A6JOC24PSUEEC","gain","7","","76","L","3","","0","0","1","0.3613151755","","false","48","0.1863443356","","main_expt","0.3012354267","","0.05970491685","","0.3613151755","","","","","","",""
"8","","bandit","124","340683","0.0-86.0-0.0","41012464","wem/bandit_single","A6JOC24PSUEEC","gain","7","","74","J","1","","1","0","0","0.3199255499","","false","49","0.2089920758","","main_expt","0.3199255499","","0.05846806591","","0.3810076255","","","","","","",""
"805","","bandit","125","343247","0.0-87.0-0.0","41012464","wem/bandit_single","A6JOC24PSUEEC","gain","7","","74","J","1","","0","0","1","0.3246792682","","false","50","0.2204805957","","main_expt","0.3246792682","","0.08078022322","","0.3528158806","","","","","","",""
"55","","bandit","126","345063","0.0-88.0-0.0","41012464","wem/bandit_single","A6JOC24PSUEEC","gain","7","","75","K","2","","0","0","1","0.08366705542","","false","51","0.2796788854","","main_expt","0.3158487008","","0.08366705542","","0.4127521961","","","","","","",""
"193","","bandit","127","347018","0.0-89.0-0.0","41012464","wem/bandit_single","A6JOC24PSUEEC","gain","7","","76","L","3","","1","0","0","0.4034362436","","false","52","0.2870992152","","main_expt","0.2764666405","","0.1365111474","","0.4034362436","","","","","","",""
"45","","bandit","128","348826","0.0-90.0-0.0","41012464","wem/bandit_single","A6JOC24PSUEEC","gain","7","","75","K","2","","0","0","1","0.1238361543","","false","53","0.3176469779","","main_expt","0.2740398937","","0.1238361543","","0.4268522392","","","","","","",""
"432","","bandit","129","351021","0.0-91.0-0.0","41012464","wem/bandit_single","A6JOC24PSUEEC","gain","7","","76","L","3","","1","0","0","0.4471231168","","false","54","0.3407727651","","main_expt","0.2499565254","","0.1150058699","","0.4471231168","","","","","","",""
"107","","bandit","130","352891","0.0-92.0-0.0","41012464","wem/bandit_single","A6JOC24PSUEEC","gain","7","","75","K","2","","0","0","1","0.1498695165","","false","55","0.380871147","","main_expt","0.221305586","","0.1498695165","","0.4397300441","","","","","","",""
"62","","bandit","131","354717","0.0-93.0-0.0","41012464","wem/bandit_single","A6JOC24PSUEEC","gain","7","","76","L","3","","0","0","1","0.4266514607","","false","56","0.3614982187","","main_expt","0.2513729962","","0.1559096332","","0.4266514607","","","","","","",""
"106","","bandit","132","356587","0.0-94.0-0.0","41012464","wem/bandit_single","A6JOC24PSUEEC","gain","7","","72","H","0","img/none_selected.jpg","0","0","1","0.3219973572","","false","57","0.3219973572","","main_expt","0.254621842","","0.139260175","","0.4351066669","","","","","","",""
"91","","bandit","133","358438","0.0-95.0-0.0","41012464","wem/bandit_single","A6JOC24PSUEEC","gain","7","","76","L","3","","0","0","1","0.4114765848","","false","58","0.3136466855","","main_expt","0.2911199408","","0.1101041774","","0.4114765848","","","","","","",""
"113","","bandit","134","360314","0.0-96.0-0.0","41012464","wem/bandit_single","A6JOC24PSUEEC","gain","7","","72","H","0","img/none_selected.jpg","0","0","1","0.3553654786","","false","59","0.3553654786","","main_expt","0.3260103257","","0.1619704935","","0.4331866813","","","","","","",""
"19","","bandit","135","362096","0.0-97.0-0.0","41012464","wem/bandit_single","A6JOC24PSUEEC","gain","7","","74","J","1","","0","0","1","0.3801831719","","false","60","0.302494743","","main_expt","0.3801831719","","0.1023472493","","0.4452666195","","","","","","",""
"62","","bandit","136","363922","0.0-98.0-0.0","41012464","wem/bandit_single","A6JOC24PSUEEC","gain","7","","74","J","1","","1","0","0","0.4097171909","","false","61","0.3194951829","","main_expt","0.4097171909","","0.1659923055","","0.4533212266","","","","","","",""
"356","","bandit","137","366040","0.0-99.0-0.0","41012464","wem/bandit_single","A6JOC24PSUEEC","gain","7","","76","L","3","","1","0","0","0.4546633602","","false","62","0.3491175101","","main_expt","0.4297251169","","0.1773336283","","0.4546633602","","","","","","",""
"71","","bandit","138","367873","0.0-100.0-0.0","41012464","wem/bandit_single","A6JOC24PSUEEC","gain","7","","74","J","1","","1","0","0","0.4523537282","","false","63","0.3618657485","","main_expt","0.4523537282","","0.1838898345","","0.431915851","","","","","","",""
"140","","bandit","139","369779","0.0-101.0-0.0","41012464","wem/bandit_single","A6JOC24PSUEEC","gain","7","","76","L","3","","1","0","0","0.4397857724","","false","64","0.3331995431","","main_expt","0.4577822331","","0.1535376321","","0.4397857724","","","","","","",""
"36","","bandit","140","371581","0.0-102.0-0.0","41012464","wem/bandit_single","A6JOC24PSUEEC","gain","7","","74","J","1","","1","0","0","0.4366397349","","false","65","0.3222916502","","main_expt","0.4366397349","","0.1696059705","","0.3803141428","","","","","","",""
"23","","bandit","141","373366","0.0-103.0-0.0","41012464","wem/bandit_single","A6JOC24PSUEEC","gain","7","","76","L","3","","1","0","0","0.4318665216","","false","66","0.2935747005","","main_expt","0.4223045317","","0.1747776373","","0.4318665216","","","","","","",""
"51","","bandit","142","375184","0.0-104.0-0.0","41012464","wem/bandit_single","A6JOC24PSUEEC","gain","7","","74","J","1","","1","0","0","0.453094409","","false","67","0.272098099","","main_expt","0.453094409","","0.1880318686","","0.3783394243","","","","","","",""
"614","","bandit","143","377558","0.0-105.0-0.0","41012464","wem/bandit_single","A6JOC24PSUEEC","gain","7","","76","L","3","","1","0","0","0.3424409758","","false","68","0.2839543474","","main_expt","0.4441165928","","0.1703396733","","0.3424409758","","","","","","",""
"131","","bandit","144","379452","0.0-106.0-0.0","41012464","wem/bandit_single","A6JOC24PSUEEC","gain","7","","74","J","1","","1","0","0","0.437102529","","false","69","0.3106529802","","main_expt","0.437102529","","0.2041307244","","0.3825588005","","","","","","",""
"2","","bandit","145","381215","0.0-107.0-0.0","41012464","wem/bandit_single","A6JOC24PSUEEC","gain","7","","76","L","3","","0","0","1","0.4019939479","","false","70","0.2152651325","","main_expt","0.463010405","","0.2380468473","","0.4019939479","","","","","","",""
"7","","bandit","146","382981","0.0-108.0-0.0","41012464","wem/bandit_single","A6JOC24PSUEEC","gain","7","","74","J","1","","0","0","1","0.4511055106","","false","71","0.2150247356","","main_expt","0.4511055106","","0.2540220497","","0.3995375499","","","","","","",""
"437","","bandit","147","385181","0.0-109.0-0.0","41012464","wem/bandit_single","A6JOC24PSUEEC","gain","7","","76","L","3","","0","0","1","0.3655493795","","false","72","0.2196699897","","main_expt","0.456238914","","0.2877519017","","0.3655493795","","","","","","",""
"1026","","bandit","148","387970","0.0-110.0-0.0","41012464","wem/bandit_single","A6JOC24PSUEEC","gain","7","","76","L","3","","1","0","0","0.3443296275","","false","73","0.2086164273","","main_expt","0.4499554287","","0.3090267326","","0.3443296275","","","","","","",""
"64","","bandit","149","389797","0.0-111.0-0.0","41012464","wem/bandit_single","A6JOC24PSUEEC","gain","7","","74","J","1","","0","0","1","0.4439780401","","false","74","0.2226006448","","main_expt","0.4439780401","","0.3400901674","","0.3647916216","","","","","","",""
"76","","bandit","150","391639","0.0-112.0-0.0","41012464","wem/bandit_single","A6JOC24PSUEEC","gain","7","","76","L","3","","1","0","0","0.3531956798","","false","75","0.2015377479","","main_expt","0.4332341766","","0.3519214117","","0.3531956798","","","","","","",""
"151","","bandit","151","393552","0.0-113.0-0.0","41012464","wem/bandit_single","A6JOC24PSUEEC","gain","7","","76","L","3","","1","0","0","0.3375826797","","false","76","0.2614433548","","main_expt","0.4241516559","","0.3621584499","","0.3375826797","","","","","","",""
"151","","bandit","152","395466","0.0-114.0-0.0","41012464","wem/bandit_single","A6JOC24PSUEEC","gain","7","","76","L","3","","0","0","1","0.3389323042","","false","77","0.3216300101","","main_expt","0.404580079","","0.3919288513","","0.3389323042","","","","","","",""
"79","","bandit","153","397308","0.0-115.0-0.0","41012464","wem/bandit_single","A6JOC24PSUEEC","gain","7","","76","L","3","","0","0","1","0.3633343286","","false","78","0.3253900192","","main_expt","0.4291019186","","0.3733142104","","0.3633343286","","","","","","",""
"1122","","bandit","154","400192","0.0-116.0-0.0","41012464","wem/bandit_single","A6JOC24PSUEEC","gain","7","","76","L","3","","1","0","0","0.35510173","","false","79","0.3253799771","","main_expt","0.4431072694","","0.3594898906","","0.35510173","","","","","","",""
"322","","bandit","155","402278","0.0-117.0-0.0","41012464","wem/bandit_single","A6JOC24PSUEEC","gain","7","","76","L","3","","0","0","1","0.3313699227","","false","80","0.321449248","","main_expt","0.4443251544","","0.3740263767","","0.3313699227","","","","","","",""
"155","","bandit","156","404196","0.0-118.0-0.0","41012464","wem/bandit_single","A6JOC24PSUEEC","gain","7","","75","K","2","","0","0","1","0.4031190442","","false","81","0.3644617874","","main_expt","0.4222806544","","0.4031190442","","0.3545786091","","","","","","",""
"346","","bandit","157","406308","0.0-119.0-0.0","41012464","wem/bandit_single","A6JOC24PSUEEC","gain","7","","76","L","3","","0","0","1","0.36958943","","false","82","0.3646727683","","main_expt","0.4348184101","","0.397551472","","0.36958943","","","","","","",""
"796","","bandit","158","408868","0.0-120.0-0.0","41012464","wem/bandit_single","A6JOC24PSUEEC","gain","7","","72","H","0","img/none_selected.jpg","0","0","1","0.3823543101","","false","83","0.3823543101","","main_expt","0.4237956171","","0.4251589807","","0.3818301908","","","","","","",""
"538","","bandit","159","411170","0.0-121.0-0.0","41012464","wem/bandit_single","A6JOC24PSUEEC","gain","7","","72","H","0","img/none_selected.jpg","1","0","0","0.3927357351","","false","84","0.3927357351","","main_expt","0.4255820551","","0.406460911","","0.3841316884","","","","","","",""
"148","","bandit","160","413084","0.0-122.0-0.0","41012464","wem/bandit_single","A6JOC24PSUEEC","gain","7","","72","H","0","img/none_selected.jpg","1","0","0","0.3242792488","","false","85","0.3242792488","","main_expt","0.4407045426","","0.4190094225","","0.3769873451","","","","","","",""
"244","","bandit","161","415092","0.0-123.0-0.0","41012464","wem/bandit_single","A6JOC24PSUEEC","gain","7","","72","H","0","img/none_selected.jpg","0","0","1","0.3257651096","","false","86","0.3257651096","","main_expt","0.4276882268","","0.4006115864","","0.3624331431","","","","","","",""
"332","","bandit","162","417187","0.0-124.0-0.0","41012464","wem/bandit_single","A6JOC24PSUEEC","gain","7","","76","L","3","","0","0","1","0.356636023","","false","87","0.3768973447","","main_expt","0.4430021271","","0.3761684651","","0.356636023","","","","","","",""
"94","","bandit","163","419045","0.0-125.0-0.0","41012464","wem/bandit_single","A6JOC24PSUEEC","gain","7","","74","J","1","","1","0","0","0.4259892117","","false","88","0.3333804566","","main_expt","0.4259892117","","0.3935355307","","0.392705536","","","","","","",""
"170","","bandit","164","420977","0.0-126.0-0.0","41012464","wem/bandit_single","A6JOC24PSUEEC","gain","7","","74","J","1","","1","0","0","0.4451393147","","false","89","0.3326985542","","main_expt","0.4451393147","","0.3870426381","","0.39579544","","","","","","",""
"1","","bandit","165","422744","0.0-127.0-0.0","41012464","wem/bandit_single","A6JOC24PSUEEC","gain","7","","76","L","3","","0","0","1","0.3832348421","","false","90","0.3392082427","","main_expt","0.4450202473","","0.3838573884","","0.3832348421","","","","","","",""
"85","","bandit","166","424594","0.0-128.0-0.0","41012464","wem/bandit_single","A6JOC24PSUEEC","gain","7","","74","J","1","","0","0","1","0.428726471","","false","91","0.2686139101","","main_expt","0.428726471","","0.376063899","","0.4009824957","","","","","","",""
"148","","bandit","167","426508","0.0-129.0-0.0","41012464","wem/bandit_single","A6JOC24PSUEEC","gain","7","","74","J","1","","0","0","1","0.4207086611","","false","92","0.247120026","","main_expt","0.4207086611","","0.3877690924","","0.360902971","","","","","","",""
"182","","bandit","168","428456","0.0-130.0-0.0","41012464","wem/bandit_single","A6JOC24PSUEEC","gain","7","","76","L","3","","1","0","0","0.4098322422","","false","93","0.1945967668","","main_expt","0.4271109851","","0.3832772702","","0.4098322422","","","","","","",""
"189","","bandit","169","430410","0.0-131.0-0.0","41012464","wem/bandit_single","A6JOC24PSUEEC","gain","7","","75","K","2","","0","0","1","0.3569295009","","false","94","0.2059940606","","main_expt","0.3988025755","","0.3569295009","","0.365685068","","","","","","",""
"10","","bandit","170","432186","0.0-132.0-0.0","41012464","wem/bandit_single","A6JOC24PSUEEC","gain","7","","76","L","3","","0","0","1","0.3246475432","","false","95","0.2276463074","","main_expt","0.3413505888","","0.3462427099","","0.3246475432","","","","","","",""
"452","","bandit","171","434402","0.0-133.0-0.0","41012464","wem/bandit_single","A6JOC24PSUEEC","gain","7","","72","H","0","img/none_selected.jpg","1","0","0","0.3088064785","","false","96","0.3088064785","","main_expt","0.2791034264","","0.2902370181","","0.3155220288","","","","","","",""
"28","","bandit","172","436195","0.0-134.0-0.0","41012464","wem/bandit_single","A6JOC24PSUEEC","gain","7","","76","L","3","","0","0","1","0.2920368253","","false","97","0.3167474357","","main_expt","0.2300358144","","0.2679909325","","0.2920368253","","","","","","",""
"78","","bandit","173","438040","0.0-135.0-0.0","41012464","wem/bandit_single","A6JOC24PSUEEC","gain","7","","72","H","0","img/none_selected.jpg","1","0","0","0.3311058144","","false","98","0.3311058144","","main_expt","0.245913642","","0.1827708427","","0.3060047135","","","","","","",""
"771","","bandit","174","440576","0.0-136.0-0.0","41012464","wem/bandit_single","A6JOC24PSUEEC","gain","7","","76","L","3","","0","0","1","0.2834300817","","false","99","0.2831383079","","main_expt","0.1977736678","","0.1847148603","","0.2834300817","","","","","","",""
"313","","bandit","175","442654","0.0-137.0-0.0","41012464","wem/bandit_single","A6JOC24PSUEEC","gain","7","","72","H","0","img/none_selected.jpg","0","0","1","0.2697282324","","false","100","0.2697282324","","main_expt","0.2300987319","","0.230590463","","0.3094748938","","","","","","",""
"88","","bandit","176","444507","0.0-138.0-0.0","41012464","wem/bandit_single","A6JOC24PSUEEC","gain","7","","72","H","0","img/none_selected.jpg","0","0","1","0.2908511313","","false","101","0.2908511313","","main_expt","0.2375929523","","0.2036778932","","0.2776834174","","","","","","",""
"72","","bandit","177","446344","0.0-139.0-0.0","41012464","wem/bandit_single","A6JOC24PSUEEC","gain","7","","75","K","2","","0","0","1","0.2146692458","","false","102","0.3371086545","","main_expt","0.2034833152","","0.2146692458","","0.2649828438","","","","","","",""
"405","","bandit","178","448514","0.0-140.0-0.0","41012464","wem/bandit_single","A6JOC24PSUEEC","gain","7","","74","J","1","","1","0","0","0.2510503681","","false","103","0.2925399581","","main_expt","0.2510503681","","0.2194044235","","0.1977849252","","","","","","",""
"143","","bandit","179","450421","0.0-141.0-0.0","41012464","wem/bandit_single","A6JOC24PSUEEC","gain","7","","76","L","3","","0","0","1","0.164180841","","false","104","0.229866195","","main_expt","0.2563420723","","0.2869514305","","0.164180841","","","","","","",""
"46","","bandit","180","452228","0.0-142.0-0.0","41012464","wem/bandit_single","A6JOC24PSUEEC","gain","7","","74","J","1","","0","0","1","0.2025228913","","false","105","0.2786648232","","main_expt","0.2025228913","","0.2577924419","","0.1410880488","","","","","","",""
"90","","bandit","181","454083","0.0-143.0-0.0","41012464","wem/bandit_single","A6JOC24PSUEEC","gain","7","","76","L","3","","0","0","1","0.2151151798","","false","106","0.2907959635","","main_expt","0.2288818116","","0.2984789445","","0.2151151798","","","","","","",""
"113","","bandit","182","455964","0.0-144.0-0.0","41012464","wem/bandit_single","A6JOC24PSUEEC","gain","7","","72","H","0","img/none_selected.jpg","0","0","1","0.2934471614","","false","107","0.2934471614","","main_expt","0.2725684277","","0.2483059356","","0.2068678097","","","","","","",""
"244","","bandit","183","457971","0.0-145.0-0.0","41012464","wem/bandit_single","A6JOC24PSUEEC","gain","7","","75","K","2","","1","0","0","0.2177203031","","false","108","0.2761460559","","main_expt","0.2725367566","","0.2177203031","","0.1775779384","","","","","","",""
"185","","bandit","184","459919","0.0-146.0-0.0","41012464","wem/bandit_single","A6JOC24PSUEEC","gain","7","","75","K","2","","0","0","1","0.2155336726","","false","109","0.3154055318","","main_expt","0.2645412755","","0.2155336726","","0.1633907035","","","","","","",""
"145","","bandit","185","461831","0.0-147.0-0.0","41012464","wem/bandit_single","A6JOC24PSUEEC","gain","7","","74","J","1","","0","0","1","0.2537238549","","false","110","0.3375256398","","main_expt","0.2537238549","","0.2012134729","","0.1918139944","","","","","","",""
"346","","bandit","186","463943","0.0-148.0-0.0","41012464","wem/bandit_single","A6JOC24PSUEEC","gain","7","","72","H","0","img/none_selected.jpg","0","0","1","0.3575411602","","false","111","0.3575411602","","main_expt","0.2404930496","","0.1362677005","","0.1512725872","","","","","","",""
"290","","bandit","187","465997","0.0-149.0-0.0","41012464","wem/bandit_single","A6JOC24PSUEEC","gain","7","","76","L","3","","0","0","1","0.1579322392","","false","112","0.3357984678","","main_expt","0.2031918028","","0.1146466799","","0.1579322392","","","","","","",""
"282","","bandit","188","468046","0.0-150.0-0.0","41012464","wem/bandit_single","A6JOC24PSUEEC","gain","7","","72","H","0","img/none_selected.jpg","1","0","0","0.2950954247","","false","113","0.2950954247","","main_expt","0.2649243105","","0.1503083978","","0.1638150459","","","","","","",""
"83","","bandit","189","469892","0.0-151.0-0.0","41012464","wem/bandit_single","A6JOC24PSUEEC","gain","7","","74","J","1","","1","0","0","0.2669290767","","false","114","0.3242299597","","main_expt","0.2669290767","","0.1750780752","","0.1913716077","","","","","","",""
"137","","bandit","190","471793","0.0-152.0-0.0","41012464","wem/bandit_single","A6JOC24PSUEEC","gain","7","","72","H","0","img/none_selected.jpg","0","0","1","0.3224166769","","false","115","0.3224166769","","main_expt","0.2538219684","","0.1486636943","","0.1762938339","","","","","","",""
"58","","bandit","191","473618","0.0-153.0-0.0","41012464","wem/bandit_single","A6JOC24PSUEEC","gain","7","","74","J","1","","1","0","0","0.2987800907","","false","116","0.3512221687","","main_expt","0.2987800907","","0.149377163","","0.1696576366","","","","","","",""
"158","","bandit","192","475542","0.0-154.0-0.0","41012464","wem/bandit_single","A6JOC24PSUEEC","gain","7","","75","K","2","","1","0","0","0.1255156769","","false","117","0.3854596622","","main_expt","0.2863147972","","0.1255156769","","0.1743908607","","","","","","",""
"130","","bandit","193","477438","0.0-155.0-0.0","41012464","wem/bandit_single","A6JOC24PSUEEC","gain","7","","74","J","1","","1","0","0","0.2863485017","","false","118","0.3311459155","","main_expt","0.2863485017","","0.09405737873","","0.2187419408","","","","","","",""
"82","","bandit","194","479286","0.0-156.0-0.0","41012464","wem/bandit_single","A6JOC24PSUEEC","gain","7","","75","K","2","","0","0","1","0.0580133569","","false","119","0.3243143835","","main_expt","0.2704451175","","0.0580133569","","0.2602037773","","","","","","",""
"422","","bandit","195","481470","0.0-157.0-0.0","41012464","wem/bandit_single","A6JOC24PSUEEC","gain","7","","74","J","1","","0","0","1","0.2545920365","","false","120","0.3830596167","","main_expt","0.2545920365","","0.04965982272","","0.2665240463","","","","","","",""
"275","","bandit","196","483511","0.0-158.0-0.0","41012464","wem/bandit_single","A6JOC24PSUEEC","gain","7","","75","K","2","","0","0","1","0.05452098248","","false","121","0.4451194006","","main_expt","0.323502768","","0.05452098248","","0.2300357123","","","","","","",""
"73","","bandit","197","485348","0.0-159.0-0.0","41012464","wem/bandit_single","A6JOC24PSUEEC","gain","7","","76","L","3","","0","0","1","0.2071140152","","false","122","0.4636898934","","main_expt","0.3380353075","","0.0475995955","","0.2071140152","","","","","","",""
"523","","bandit","198","487635","0.0-160.0-0.0","41012464","wem/bandit_single","A6JOC24PSUEEC","gain","7","","72","H","0","img/none_selected.jpg","0","0","1","0.4384370655","","false","123","0.4384370655","","main_expt","0.341491638","","0.04799769062","","0.2590656513","","","","","","",""
"23","","bandit","199","489424","0.0-161.0-0.0","41012464","wem/bandit_single","A6JOC24PSUEEC","gain","7","","74","J","1","","0","0","1","0.3269941981","","false","124","0.456933673","","main_expt","0.3269941981","","0.06454195205","","0.2492473134","","","","","","",""
"317","","bandit","200","491505","0.0-162.0-0.0","41012464","wem/bandit_single","A6JOC24PSUEEC","gain","7","","75","K","2","","0","0","1","0.0570469748","","false","125","0.4834692703","","main_expt","0.3263020805","","0.0570469748","","0.2569957816","","","","","","",""
"198","","bandit","201","493469","0.0-163.0-0.0","41012464","wem/bandit_single","A6JOC24PSUEEC","gain","7","","76","L","3","","1","0","0","0.2715808503","","false","126","0.4895912119","","main_expt","0.3377655475","","0.06214194377","","0.2715808503","","","","","","",""
"105","","bandit","202","495343","0.0-164.0-0.0","41012464","wem/bandit_single","A6JOC24PSUEEC","gain","7","","76","L","3","","0","0","1","0.3260406689","","false","127","0.4791977258","","main_expt","0.3489319456","","0.06219251386","","0.3260406689","","","","","","",""
"230","","bandit","203","497341","0.0-165.0-0.0","41012464","wem/bandit_single","A6JOC24PSUEEC","gain","7","","72","H","0","img/none_selected.jpg","0","0","1","0.4772399827","","false","128","0.4772399827","","main_expt","0.3450526125","","0.06192095676","","0.3487232841","","","","","","",""
"393","","bandit","204","499501","0.0-166.0-0.0","41012464","wem/bandit_single","A6JOC24PSUEEC","gain","7","","74","J","1","","1","0","0","0.3297424559","","false","129","0.4688955373","","main_expt","0.3297424559","","0.03846933599","","0.3601162145","","","","","","",""
"205","","bandit","205","501475","0.0-167.0-0.0","41012464","wem/bandit_single","A6JOC24PSUEEC","gain","7","","76","L","3","","1","0","0","0.4185413006","","false","130","0.4651179545","","main_expt","0.3731420779","","0.02330960587","","0.4185413006","","","","","","",""
"357","","bandit","206","503596","0.0-168.0-0.0","41012464","wem/bandit_single","A6JOC24PSUEEC","gain","7","","74","J","1","","0","0","1","0.325638262","","false","131","0.4794739162","","main_expt","0.325638262","","0.03495479357","","0.4537663544","","","","","","",""
"68","","bandit","207","505431","0.0-169.0-0.0","41012464","wem/bandit_single","A6JOC24PSUEEC","gain","7","","76","L","3","","1","0","0","0.4489861829","","false","132","0.4679846252","","main_expt","0.3132782049","","0.02752519027","","0.4489861829","","","","","","",""
"194","","bandit","208","507393","0.0-170.0-0.0","41012464","wem/bandit_single","A6JOC24PSUEEC","gain","7","","76","L","3","","0","0","1","0.4465240103","","false","133","0.4636487781","","main_expt","0.3552481716","","0.03239645132","","0.4465240103","","","","","","",""
"722","","bandit","209","509883","0.0-171.0-0.0","41012464","wem/bandit_single","A6JOC24PSUEEC","gain","7","","76","L","3","","1","0","0","0.4286255731","","false","134","0.4578614037","","main_expt","0.3478795997","","0.02361228775","","0.4286255731","","","","","","",""
"1832","","bandit","210","513483","0.0-172.0-0.0","41012464","wem/bandit_single","A6JOC24PSUEEC","gain","7","","76","L","3","","1","0","0","0.3969320342","","false","135","0.4339873336","","main_expt","0.3394088604","","0.01378345967","","0.3969320342","","","","","","",""
"362","","bandit","211","515611","0.0-173.0-0.0","41012464","wem/bandit_single","A6JOC24PSUEEC","gain","7","","76","L","3","","1","0","0","0.3975573163","","false","136","0.4091277288","","main_expt","0.3739095734","","0.01349892684","","0.3975573163","","","","","","",""
"488","","bandit","212","517860","0.0-174.0-0.0","41012464","wem/bandit_single","A6JOC24PSUEEC","gain","7","","76","L","3","","0","0","1","0.4226438881","","false","137","0.4024864596","","main_expt","0.3319731639","","0.01373747566","","0.4226438881","","","","","","",""
"147","","bandit","213","519772","0.0-175.0-0.0","41012464","wem/bandit_single","A6JOC24PSUEEC","gain","7","","75","K","2","","0","0","1","0.009346923256","","false","138","0.3793932322","","main_expt","0.3427854578","","0.009346923256","","0.383622376","","","","","","",""
"123","","bandit","214","521660","0.0-176.0-0.0","41012464","wem/bandit_single","A6JOC24PSUEEC","gain","7","","72","H","0","img/none_selected.jpg","0","0","1","0.3940691536","","false","139","0.3940691536","","main_expt","0.2804250852","","0.005947695369","","0.3892077266","","","","","","",""
"33","","bandit","215","523454","0.0-177.0-0.0","41012464","wem/bandit_single","A6JOC24PSUEEC","gain","7","","74","J","1","","1","0","0","0.294489168","","false","140","0.3878174143","","main_expt","0.294489168","","0.003062149202","","0.3721285976","","","","","","",""
"307","","bandit","216","525524","0.0-178.0-0.0","41012464","wem/bandit_single","A6JOC24PSUEEC","gain","7","","76","L","3","","0","0","1","0.403063379","","false","141","0.3671315422","","main_expt","0.2849233321","","0.003723800288","","0.403063379","","","","","","",""
"92","","bandit","217","527383","0.0-179.0-0.0","41012464","wem/bandit_single","A6JOC24PSUEEC","gain","7","","72","H","0","img/none_selected.jpg","1","0","0","0.338830911","","false","142","0.338830911","","main_expt","0.2605380125","","0.003048460602","","0.3916907223","","","","","","",""
"219","","bandit","218","529360","0.0-180.0-0.0","41012464","wem/bandit_single","A6JOC24PSUEEC","gain","7","","74","J","1","","0","0","1","0.3030740536","","false","143","0.2709557481","","main_expt","0.3030740536","","0.002664125267","","0.4212357341","","","","","","",""
"75","","bandit","219","531196","0.0-181.0-0.0","41012464","wem/bandit_single","A6JOC24PSUEEC","gain","7","","72","H","0","img/none_selected.jpg","1","0","0","0.249986241","","false","144","0.249986241","","main_expt","0.29766321","","0.0015633636","","0.3944164323","","","","","","",""
"90","","bandit","220","533054","0.0-182.0-0.0","41012464","wem/bandit_single","A6JOC24PSUEEC","gain","7","","75","K","2","","0","0","1","0.002084593646","","false","145","0.2694710106","","main_expt","0.2862291296","","0.002084593646","","0.4129391908","","","","","","",""
"245","","bandit","221","535066","0.0-183.0-0.0","41012464","wem/bandit_single","A6JOC24PSUEEC","gain","7","","72","H","0","img/none_selected.jpg","1","0","0","0.3099728414","","false","146","0.3099728414","","main_expt","0.3151642481","","0.0008356934022","","0.4027876266","","","","","","",""
"145","","bandit","222","536979","0.0-184.0-0.0","41012464","wem/bandit_single","A6JOC24PSUEEC","gain","7","","76","L","3","","1","0","0","0.3906291495","","false","147","0.3010760093","","main_expt","0.3261334855","","0.00187417998","","0.3906291495","","","","","","",""
"558","","bandit","223","539301","0.0-185.0-0.0","41012464","wem/bandit_single","A6JOC24PSUEEC","gain","7","","72","H","0","img/none_selected.jpg","1","0","0","0.2861733563","","false","148","0.2861733563","","main_expt","0.3605999671","","0.001549413081","","0.3718958907","","","","","","",""
"95","","bandit","224","541165","0.0-186.0-0.0","41012464","wem/bandit_single","A6JOC24PSUEEC","gain","7","","76","L","3","","1","0","0","0.3513552953","","false","149","0.2613296644","","main_expt","0.3848975894","","0.002318569837","","0.3513552953","","","","","","",""
"332","","bandit","225","543266","0.0-187.0-0.0","41012464","wem/bandit_single","A6JOC24PSUEEC","gain","7","","72","H","0","img/none_selected.jpg","0","0","1","0.2955554784","","false","150","0.2955554784","","main_expt","0.3680345664","","0.002401941109","","0.3796712552","","","","","","",""
"159","","bandit","226","545191","0.0-188.0-0.0","41012464","wem/bandit_single","A6JOC24PSUEEC","gain","7","","76","L","3","","0","0","1","0.4275550045","","false","151","0.2928365899","","main_expt","0.3517559312","","0.002416650241","","0.4275550045","","","","","","",""
"260","","bandit","227","547212","0.0-189.0-0.0","41012464","wem/bandit_single","A6JOC24PSUEEC","gain","7","","74","J","1","","1","0","0","0.3963282571","","false","152","0.3000067833","","main_expt","0.3963282571","","0.002533271813","","0.4266807854","","","","","","",""
"3165","","bandit","228","552141","0.0-190.0-0.0","41012464","wem/bandit_single","A6JOC24PSUEEC","gain","7","","75","K","2","","0","0","1","0.00322942279","","false","153","0.2757802357","","main_expt","0.432842039","","0.00322942279","","0.4633151701","","","","","","",""
"396","","bandit","229","554307","0.0-191.0-0.0","41012464","wem/bandit_single","A6JOC24PSUEEC","gain","7","","76","L","3","","0","0","1","0.4723469507","","false","154","0.3252288772","","main_expt","0.4134551824","","0.003404333974","","0.4723469507","","","","","","",""
"31","","bandit","230","556105","0.0-192.0-0.0","41012464","wem/bandit_single","A6JOC24PSUEEC","gain","7","","74","J","1","","0","0","1","0.426737857","","false","155","0.2746928085","","main_expt","0.426737857","","0.008925030754","","0.4829251431","","","","","","",""
"241","","bandit","231","558115","0.0-193.0-0.0","41012464","wem/bandit_single","A6JOC24PSUEEC","gain","7","","74","J","1","","1","0","0","0.4289541051","","false","156","0.2881451241","","main_expt","0.4289541051","","0.005317619152","","0.4753947098","","","","","","",""
"513","","bandit","232","560396","0.0-194.0-0.0","41012464","wem/bandit_single","A6JOC24PSUEEC","gain","7","","74","J","1","","0","0","1","0.4593738684","","false","157","0.2861132768","","main_expt","0.4593738684","","0.002657446392","","0.4686295074","","","","","","",""
"117","","bandit","233","562281","0.0-195.0-0.0","41012464","wem/bandit_single","A6JOC24PSUEEC","gain","7","","74","J","1","","1","0","0","0.4716769587","","false","158","0.2382703247","","main_expt","0.4716769587","","0.005349678466","","0.4746137902","","","","","","",""
"287","","bandit","234","564336","0.0-196.0-0.0","41012464","wem/bandit_single","A6JOC24PSUEEC","gain","7","","76","L","3","","0","0","1","0.4626257703","","false","159","0.2650616746","","main_expt","0.4566829936","","0.00353293949","","0.4626257703","","","","","","",""
"58","","bandit","235","566162","0.0-197.0-0.0","41012464","wem/bandit_single","A6JOC24PSUEEC","gain","7","","76","L","3","","0","0","1","0.4690497323","","false","160","0.2841227011","","main_expt","0.4684401337","","0.004525880368","","0.4690497323","","","","","","",""
"142","","bandit","236","568074","0.0-198.0-0.0","41012464","wem/bandit_single","A6JOC24PSUEEC","gain","7","","76","L","3","","0","0","1","0.4605728382","","false","161","0.3103310899","","main_expt","0.4327192474","","0.00364468733","","0.4605728382","","","","","","",""
"33","","bandit","237","569875","0.0-199.0-0.0","41012464","wem/bandit_single","A6JOC24PSUEEC","gain","7","","75","K","2","","0","0","1","0.004567203872","","false","162","0.2990864795","","main_expt","0.4158578039","","0.004567203872","","0.4663204896","","","","","","",""
"62","","bandit","238","571701","0.0-200.0-0.0","41012464","wem/bandit_single","A6JOC24PSUEEC","gain","7","","75","K","2","","0","0","1","0.003538815","","false","163","0.2650304997","","main_expt","0.4206849782","","0.003538815","","0.4626626357","","","","","","",""
"670","","bandit","239","574138","0.0-201.0-0.0","41012464","wem/bandit_single","A6JOC24PSUEEC","gain","7","","75","K","2","","0","0","1","0.002896615325","","false","164","0.2877519924","","main_expt","0.4276923589","","0.002896615325","","0.4672680551","","","","","","",""
"132","","bandit","240","576040","0.0-202.0-0.0","41012464","wem/bandit_single","A6JOC24PSUEEC","gain","7","","75","K","2","","0","0","1","0.004500484281","","false","165","0.2818109827","","main_expt","0.4204466813","","0.004500484281","","0.455015491","","","","","","",""
"86","","bandit","241","577888","0.0-203.0-0.0","41012464","wem/bandit_single","A6JOC24PSUEEC","gain","7","","75","K","2","","0","0","1","0.01017739848","","false","166","0.324785045","","main_expt","0.4229734844","","0.01017739848","","0.4201800218","","","","","","",""
"80","","bandit","242","579726","0.0-204.0-0.0","41012464","wem/bandit_single","A6JOC24PSUEEC","gain","7","","72","H","0","img/none_selected.jpg","1","0","0","0.3339304688","","false","167","0.3339304688","","main_expt","0.4474449943","","0.0129517719","","0.4430085171","","","","","","",""
"395","","bandit","243","581882","0.0-205.0-0.0","41012464","wem/bandit_single","A6JOC24PSUEEC","gain","7","","74","J","1","","0","0","1","0.4458086367","","false","168","0.3351003476","","main_expt","0.4458086367","","0.009045291763","","0.4526671473","","","","","","",""
"33","","bandit","244","583683","0.0-206.0-0.0","41012464","wem/bandit_single","A6JOC24PSUEEC","gain","7","","72","H","0","img/none_selected.jpg","1","0","0","0.3556935824","","false","169","0.3556935824","","main_expt","0.4619433307","","0.01553154223","","0.4477525289","","","","","","",""
"124","","bandit","245","585575","0.0-207.0-0.0","41012464","wem/bandit_single","A6JOC24PSUEEC","gain","7","","74","J","1","","1","0","0","0.4703570947","","false","170","0.3690608098","","main_expt","0.4703570947","","0.01787531072","","0.41154262","","","","","","",""
"262","","bandit","246","587606","0.0-208.0-0.0","41012464","wem/bandit_single","A6JOC24PSUEEC","gain","7","","72","H","0","img/none_selected.jpg","1","0","0","0.3631266209","","false","171","0.3631266209","","main_expt","0.474742395","","0.01316551092","","0.37868858","","","","","","",""
"130","","bandit","247","589505","0.0-209.0-0.0","41012464","wem/bandit_single","A6JOC24PSUEEC","gain","7","","74","J","1","","1","0","0","0.4773845315","","false","172","0.3392191481","","main_expt","0.4773845315","","0.0172037691","","0.3971498268","","","","","","",""
"539","","bandit","248","591815","0.0-210.0-0.0","41012464","wem/bandit_single","A6JOC24PSUEEC","gain","7","","72","H","0","img/none_selected.jpg","1","0","0","0.2931772585","","false","173","0.2931772585","","main_expt","0.4680058345","","0.01427011775","","0.4319579383","","","","","","",""
"22","","bandit","249","593607","0.0-211.0-0.0","41012464","wem/bandit_single","A6JOC24PSUEEC","gain","7","","74","J","1","","1","0","0","0.4561145842","","false","174","0.2750831853","","main_expt","0.4561145842","","0.01057019218","","0.4174714043","","","","","","",""
"54","","bandit","250","595432","0.0-212.0-0.0","41012464","wem/bandit_single","A6JOC24PSUEEC","gain","7","","72","H","0","img/none_selected.jpg","0","0","1","0.2997345097","","false","175","0.2997345097","","main_expt","0.472279608","","0.007255369755","","0.3846013355","","","","","","",""
"276","","bandit","251","597476","0.0-213.0-0.0","41012464","wem/bandit_single","A6JOC24PSUEEC","gain","7","","74","J","1","","0","0","1","0.4602447812","","false","176","0.3402413884","","main_expt","0.4602447812","","0.01305273867","","0.4019342833","","","","","","",""
"107","","bandit","252","599355","0.0-214.0-0.0","41012464","wem/bandit_single","A6JOC24PSUEEC","gain","7","","72","H","0","img/none_selected.jpg","0","0","1","0.3099882557","","false","177","0.3099882557","","main_expt","0.4343313091","","0.0133150908","","0.4211485366","","","","","","",""
"54","","bandit","253","601179","0.0-215.0-0.0","41012464","wem/bandit_single","A6JOC24PSUEEC","gain","7","","74","J","1","","1","0","0","0.4048428007","","false","178","0.2761175095","","main_expt","0.4048428007","","0.01259822705","","0.4133977621","","","","","","",""
"183","","bandit","254","603133","0.0-216.0-0.0","41012464","wem/bandit_single","A6JOC24PSUEEC","gain","7","","74","J","1","","0","0","1","0.3826353834","","false","179","0.3053987856","","main_expt","0.3826353834","","0.008971211221","","0.4395013083","","","","","","",""
"344","","bandit","255","605247","0.0-217.0-0.0","41012464","wem/bandit_single","A6JOC24PSUEEC","gain","7","","74","J","1","","0","0","1","0.3352628501","","false","180","0.291880519","","main_expt","0.3352628501","","0.01053614943","","0.4385200931","","","","","","",""
"114","","bandit","256","607130","0.0-218.0-0.0","41012464","wem/bandit_single","A6JOC24PSUEEC","gain","7","","74","J","1","","0","0","1","0.2990499081","","false","181","0.298429346","","main_expt","0.2990499081","","0.01184041186","","0.4225113135","","","","","","",""
"432","","bandit","257","609327","0.0-219.0-0.0","41012464","wem/bandit_single","A6JOC24PSUEEC","gain","7","","74","J","1","","1","0","0","0.3698835663","","false","182","0.3343264324","","main_expt","0.3698835663","","0.03042574256","","0.3723799893","","","","","","",""
"121","","bandit","258","611216","0.0-220.0-0.0","41012464","wem/bandit_single","A6JOC24PSUEEC","gain","7","","75","K","2","","0","0","1","0.03286829004","","false","183","0.2890729732","","main_expt","0.3849917371","","0.03286829004","","0.3790924375","","","","","","",""
"150","","bandit","259","613135","0.0-221.0-0.0","41012464","wem/bandit_single","A6JOC24PSUEEC","gain","7","","75","K","2","","0","0","1","0.05565884368","","false","184","0.1975841231","","main_expt","0.3560661239","","0.05565884368","","0.4122006093","","","","","","",""
"580","","bandit","260","615487","0.0-222.0-0.0","41012464","wem/bandit_single","A6JOC24PSUEEC","gain","7","","75","K","2","","0","0","1","0.05703602855","","false","185","0.213981158","","main_expt","0.3637043243","","0.05703602855","","0.3681720139","","","","","","",""
"620","","bandit","261","617875","0.0-223.0-0.0","41012464","wem/bandit_single","A6JOC24PSUEEC","gain","7","","76","L","3","","0","0","1","0.3735732413","","false","186","0.1690135127","","main_expt","0.370254809","","0.08167625523","","0.3735732413","","","","","","",""
"79","","bandit","262","619719","0.0-224.0-0.0","41012464","wem/bandit_single","A6JOC24PSUEEC","gain","7","","76","L","3","","1","0","0","0.3763431734","","false","187","0.2606776113","","main_expt","0.3451477914","","0.08146612985","","0.3763431734","","","","","","",""
"264","","bandit","263","621751","0.0-225.0-0.0","41012464","wem/bandit_single","A6JOC24PSUEEC","gain","7","","76","L","3","","1","0","0","0.3515668436","","false","188","0.2431197375","","main_expt","0.3939300048","","0.09365986726","","0.3515668436","","","","","","",""
"28","","bandit","264","623549","0.0-226.0-0.0","41012464","wem/bandit_single","A6JOC24PSUEEC","gain","7","","74","J","1","","1","0","0","0.4136030152","","false","189","0.2308206277","","main_expt","0.4136030152","","0.09268069957","","0.3343836861","","","","","","",""
"99","","bandit","265","625416","0.0-227.0-0.0","41012464","wem/bandit_single","A6JOC24PSUEEC","gain","7","","76","L","3","","0","0","1","0.2525345787","","false","190","0.2025271702","","main_expt","0.4261376259","","0.08594859785","","0.2525345787","","","","","","",""
"337","","bandit","266","627523","0.0-228.0-0.0","41012464","wem/bandit_single","A6JOC24PSUEEC","gain","7","","74","J","1","","0","0","1","0.3908696756","","false","191","0.2751540988","","main_expt","0.3908696756","","0.08932588753","","0.2685183708","","","","","","",""
"198","","bandit","267","629490","0.0-229.0-0.0","41012464","wem/bandit_single","A6JOC24PSUEEC","gain","7","","76","L","3","","0","0","1","0.2572514827","","false","192","0.2569606715","","main_expt","0.4106222578","","0.1064261942","","0.2572514827","","","","","","",""
"217","","bandit","268","631476","0.0-230.0-0.0","41012464","wem/bandit_single","A6JOC24PSUEEC","gain","7","","74","J","1","","1","0","0","0.4282135821","","false","193","0.2874900681","","main_expt","0.4282135821","","0.1536879749","","0.1969756064","","","","","","",""
"739","","bandit","269","633985","0.0-231.0-0.0","41012464","wem/bandit_single","A6JOC24PSUEEC","gain","7","","74","J","1","","1","0","0","0.4423695223","","false","194","0.1735349233","","main_expt","0.4423695223","","0.1389913839","","0.2134952627","","","","","","",""
"65","","bandit","270","635822","0.0-232.0-0.0","41012464","wem/bandit_single","A6JOC24PSUEEC","gain","7","","74","J","1","","1","0","0","0.4594299266","","false","195","0.1922880567","","main_expt","0.4594299266","","0.1439418744","","0.1620875807","","","","","","",""
"134","","bandit","271","637721","0.0-233.0-0.0","41012464","wem/bandit_single","A6JOC24PSUEEC","gain","7","","74","J","1","","1","0","0","0.4446405127","","false","196","0.180833075","","main_expt","0.4446405127","","0.131143091","","0.166822232","","","","","","",""
"18","","bandit","272","639509","0.0-234.0-0.0","41012464","wem/bandit_single","A6JOC24PSUEEC","gain","7","","74","J","1","","1","0","0","0.4559667881","","false","197","0.2213655201","","main_expt","0.4559667881","","0.1358316141","","0.1951417713","","","","","","",""
"611","","bandit","273","641885","0.0-235.0-0.0","41012464","wem/bandit_single","A6JOC24PSUEEC","gain","7","","74","J","1","","0","0","1","0.4760465659","","false","198","0.1886922679","","main_expt","0.4760465659","","0.1271866158","","0.1946571809","","","","","","",""
"65","","bandit","274","643714","0.0-236.0-0.0","41012464","wem/bandit_single","A6JOC24PSUEEC","gain","7","","74","J","1","","0","0","1","0.4682530898","","false","199","0.1960792333","","main_expt","0.4682530898","","0.1427164763","","0.125569753","","","","","","",""
"332","","bandit","275","645816","0.0-237.0-0.0","41012464","wem/bandit_single","A6JOC24PSUEEC","gain","7","","74","J","1","","1","0","0","0.4722721777","","false","200","0.2093645874","","main_expt","0.4722721777","","0.1465126473","","0.110010897","","","","","","",""
"34","","bandit","276","647626","0.0-238.0-0.0","41012464","wem/bandit_single","A6JOC24PSUEEC","gain","7","","74","J","1","","1","0","0","0.4739800601","","false","201","0.1673165995","","main_expt","0.4739800601","","0.1271257608","","0.1280762957","","","","","","",""
"1","","bandit","277","649395","0.0-239.0-0.0","41012464","wem/bandit_single","A6JOC24PSUEEC","gain","7","","74","J","1","","1","0","0","0.479726886","","false","202","0.2086438453","","main_expt","0.479726886","","0.08657179739","","0.1402913484","","","","","","",""
"81","","bandit","278","651246","0.0-240.0-0.0","41012464","wem/bandit_single","A6JOC24PSUEEC","gain","7","","74","J","1","","1","0","0","0.4642372742","","false","203","0.1973992815","","main_expt","0.4642372742","","0.09313456927","","0.2217412738","","","","","","",""
"24","","bandit","279","653038","0.0-241.0-0.0","41012464","wem/bandit_single","A6JOC24PSUEEC","gain","7","","74","J","1","","0","0","1","0.4560882558","","false","204","0.2256674954","","main_expt","0.4560882558","","0.1497906572","","0.2231628045","","","","","","",""
"109","","bandit","280","654917","0.0-242.0-0.0","41012464","wem/bandit_single","A6JOC24PSUEEC","gain","7","","74","J","1","","1","0","0","0.4525737262","","false","205","0.2163874892","","main_expt","0.4525737262","","0.1829644856","","0.2170181201","","","","","","",""
"522","","bandit","281","657203","0.0-243.0-0.0","41012464","wem/bandit_single","A6JOC24PSUEEC","gain","7","","74","J","1","","0","0","1","0.4550624295","","false","206","0.2197086186","","main_expt","0.4550624295","","0.1612057882","","0.2796725078","","","","","","",""
"173","","bandit","282","659146","0.0-244.0-0.0","41012464","wem/bandit_single","A6JOC24PSUEEC","gain","7","","74","J","1","","1","0","0","0.4723612306","","false","207","0.2065154411","","main_expt","0.4723612306","","0.1697938272","","0.2817680811","","","","","","",""
"192","","bandit","283","661106","0.0-245.0-0.0","41012464","wem/bandit_single","A6JOC24PSUEEC","gain","7","","74","J","1","","1","0","0","0.4766034411","","false","208","0.1685179651","","main_expt","0.4766034411","","0.1559958766","","0.2823403198","","","","","","",""
"78","","bandit","284","662954","0.0-246.0-0.0","41012464","wem/bandit_single","A6JOC24PSUEEC","gain","7","","74","J","1","","0","0","1","0.483515399","","false","209","0.138461816","","main_expt","0.483515399","","0.1446830505","","0.3618902866","","","","","","",""
"307","","bandit","285","665031","0.0-247.0-0.0","41012464","wem/bandit_single","A6JOC24PSUEEC","gain","7","","74","J","1","","0","0","1","0.4880418707","","false","210","0.1494322788","","main_expt","0.4880418707","","0.1231196185","","0.373554641","","","","","","",""
"201","","bandit","286","667002","0.0-248.0-0.0","41012464","wem/bandit_single","A6JOC24PSUEEC","gain","7","","74","J","1","","1","0","0","0.4802592994","","false","211","0.1799359977","","main_expt","0.4802592994","","0.1456244431","","0.4160488284","","","","","","",""
"261","","bandit","287","669030","0.0-249.0-0.0","41012464","wem/bandit_single","A6JOC24PSUEEC","gain","7","","74","J","1","","0","0","1","0.4738887763","","false","212","0.1810857181","","main_expt","0.4738887763","","0.1656867557","","0.381710399","","","","","","",""
"335","","bandit","288","671135","0.0-250.0-0.0","41012464","wem/bandit_single","A6JOC24PSUEEC","gain","7","","74","J","1","","0","0","1","0.4808850683","","false","213","0.1615137558","","main_expt","0.4808850683","","0.224977978","","0.3769148707","","","","","","",""
"554","","bandit","289","673458","0.0-251.0-0.0","41012464","wem/bandit_single","A6JOC24PSUEEC","gain","7","","74","J","1","","0","0","1","0.4825694391","","false","214","0.1650702933","","main_expt","0.4825694391","","0.307554285","","0.3476207329","","","","","","",""
"503","","bandit","290","675730","0.0-252.0-0.0","41012464","wem/bandit_single","A6JOC24PSUEEC","gain","7","","74","J","1","","0","0","1","0.4847107186","","false","215","0.1804791034","","main_expt","0.4847107186","","0.3638187162","","0.3089741626","","","","","","",""
"253","","bandit","291","677752","0.0-253.0-0.0","41012464","wem/bandit_single","A6JOC24PSUEEC","gain","7","","74","J","1","","1","0","0","0.4809007894","","false","216","0.1573161505","","main_expt","0.4809007894","","0.3543809852","","0.3674618518","","","","","","",""
"384","","bandit","292","679908","0.0-254.0-0.0","41012464","wem/bandit_single","A6JOC24PSUEEC","gain","7","","74","J","1","","1","0","0","0.4741770765","","false","217","0.1434716653","","main_expt","0.4741770765","","0.3301156576","","0.3283657719","","","","","","",""
"570","","bandit","293","682246","0.0-255.0-0.0","41012464","wem/bandit_single","A6JOC24PSUEEC","gain","7","","74","J","1","","0","0","1","0.4819245576","","false","218","0.1911838451","","main_expt","0.4819245576","","0.3132999057","","0.3302734852","","","","","","",""
"179","","bandit","294","684194","0.0-256.0-0.0","41012464","wem/bandit_single","A6JOC24PSUEEC","gain","7","","72","H","0","img/none_selected.jpg","0","0","1","0.1441129831","","false","219","0.1441129831","","main_expt","0.4793241995","","0.2205266592","","0.3554571327","","","","","","",""
"167","","bandit","295","686130","0.0-257.0-0.0","41012464","wem/bandit_single","A6JOC24PSUEEC","gain","7","","75","K","2","","0","0","1","0.2167078271","","false","220","0.1920309772","","main_expt","0.4713672071","","0.2167078271","","0.319330444","","","","","","",""
"10","","bandit","296","687911","0.0-258.0-0.0","41012464","wem/bandit_single","A6JOC24PSUEEC","gain","7","","76","L","3","","0","0","1","0.3105046037","","false","221","0.1770810464","","main_expt","0.4728071858","","0.2038989409","","0.3105046037","","","","","","",""
"48","","bandit","297","689732","0.0-259.0-0.0","41012464","wem/bandit_single","A6JOC24PSUEEC","gain","7","","74","J","1","","0","0","1","0.4742115633","","false","222","0.1726735039","","main_expt","0.4742115633","","0.18760722","","0.2971369975","","","","","","",""
"135","","bandit","298","691636","0.0-260.0-0.0","41012464","wem/bandit_single","A6JOC24PSUEEC","gain","7","","74","J","1","","0","0","1","0.4606319974","","false","223","0.1935596247","","main_expt","0.4606319974","","0.1794058889","","0.2924153056","","","","","","",""
"82","","bandit","299","693485","0.0-261.0-0.0","41012464","wem/bandit_single","A6JOC24PSUEEC","gain","7","","74","J","1","","1","0","0","0.4796626282","","false","224","0.184290804","","main_expt","0.4796626282","","0.1973287288","","0.3251713444","","","","","","",""
"262","","bandit","300","695508","0.0-262.0-0.0","41012464","wem/bandit_single","A6JOC24PSUEEC","gain","7","","74","J","1","","0","0","1","0.4770938662","","false","225","0.1182631535","","main_expt","0.4770938662","","0.1657141015","","0.3191667618","","","","","","",""
"930","","bandit","301","698209","0.0-263.0-0.0","41012464","wem/bandit_single","A6JOC24PSUEEC","gain","7","","74","J","1","","0","0","1","0.4753940461","","false","226","0.1243406576","","main_expt","0.4753940461","","0.1333985498","","0.3163975521","","","","","","",""
"558","","bandit","302","700533","0.0-264.0-0.0","41012464","wem/bandit_single","A6JOC24PSUEEC","gain","7","","72","H","0","img/none_selected.jpg","0","0","1","0.1887705619","","false","227","0.1887705619","","main_expt","0.4692559414","","0.1426718429","","0.3153023093","","","","","","",""
"34","","bandit","303","702338","0.0-265.0-0.0","41012464","wem/bandit_single","A6JOC24PSUEEC","gain","7","","75","K","2","","0","0","1","0.1510234048","","false","228","0.1594511678","","main_expt","0.4549715312","","0.1510234048","","0.252814401","","","","","","",""
"468","","bandit","304","704569","0.0-266.0-0.0","41012464","wem/bandit_single","A6JOC24PSUEEC","gain","7","","76","L","3","","0","0","1","0.2830586582","","false","229","0.1582092687","","main_expt","0.4818432606","","0.1786638104","","0.2830586582","","","","","","",""
"71","","bandit","305","706409","0.0-267.0-0.0","41012464","wem/bandit_single","A6JOC24PSUEEC","gain","7","","72","H","0","img/none_selected.jpg","1","0","0","0.149178519","","false","230","0.149178519","","main_expt","0.4542350274","","0.1564383184","","0.2124451555","","","","","","",""
"540","","bandit","306","708721","0.0-268.0-0.0","41012464","wem/bandit_single","A6JOC24PSUEEC","gain","7","","74","J","1","","1","0","0","0.4646494747","","false","231","0.2063022429","","main_expt","0.4646494747","","0.1398607303","","0.1175217461","","","","","","",""
"14","","bandit","307","710504","0.0-269.0-0.0","41012464","wem/bandit_single","A6JOC24PSUEEC","gain","7","","72","H","0","img/none_selected.jpg","1","0","0","0.2424934828","","false","232","0.2424934828","","main_expt","0.4617677548","","0.1323980205","","0.144677577","","","","","","",""
"53","","bandit","308","712327","0.0-270.0-0.0","41012464","wem/bandit_single","A6JOC24PSUEEC","gain","7","","74","J","1","","1","0","0","0.4535872836","","false","233","0.2404462099","","main_expt","0.4535872836","","0.1510374747","","0.1555092754","","","","","","",""
"193","","bandit","309","714290","0.0-271.0-0.0","41012464","wem/bandit_single","A6JOC24PSUEEC","gain","7","","72","H","0","img/none_selected.jpg","0","0","1","0.1830028502","","false","234","0.1830028502","","main_expt","0.4297764401","","0.133247495","","0.1250762939","","","","","","",""
"25","","bandit","310","716086","0.0-272.0-0.0","41012464","wem/bandit_single","A6JOC24PSUEEC","gain","7","","74","J","1","","1","0","0","0.4335441617","","false","235","0.2197419317","","main_expt","0.4335441617","","0.1666928205","","0.1094925358","","","","","","",""
"210","","bandit","311","718064","0.0-273.0-0.0","41012464","wem/bandit_single","A6JOC24PSUEEC","gain","7","","74","J","1","","1","0","0","0.4390497594","","false","236","0.2537285896","","main_expt","0.4390497594","","0.1772374327","","0.09099935704","","","","","","",""
"118","","bandit","312","719949","0.0-274.0-0.0","41012464","wem/bandit_single","A6JOC24PSUEEC","gain","7","","72","H","0","img/none_selected.jpg","0","0","1","0.2967198922","","false","237","0.2967198922","","main_expt","0.4557250369","","0.2093850131","","0.07445530481","","","","","","",""
"331","","bandit","313","722053","0.0-275.0-0.0","41012464","wem/bandit_single","A6JOC24PSUEEC","gain","7","","74","J","1","","1","0","0","0.4712934341","","false","238","0.2716881628","","main_expt","0.4712934341","","0.2323540058","","0.1160826651","","","","","","",""
"155","","bandit","314","723979","0.0-276.0-0.0","41012464","wem/bandit_single","A6JOC24PSUEEC","gain","7","","74","J","1","","0","0","1","0.4744109467","","false","239","0.2840113657","","main_expt","0.4744109467","","0.2527052166","","0.1935594103","","","","","","",""
"456","","bandit","315","726204","0.0-277.0-0.0","41012464","wem/bandit_single","A6JOC24PSUEEC","gain","7","","74","J","1","","0","0","1","0.4856904038","","false","240","0.3274134878","","main_expt","0.4856904038","","0.2429338356","","0.2305108235","","","","","","",""
"826","","bandit","316","728794","0.0-278.0-0.0","41012464","wem/bandit_single","A6JOC24PSUEEC","gain","7","","74","J","1","","1","0","0","0.474377245","","false","241","0.3106351565","","main_expt","0.474377245","","0.2422046893","","0.23744922","","","","","","",""
"297","","bandit","317","730863","0.0-279.0-0.0","41012464","wem/bandit_single","A6JOC24PSUEEC","gain","7","","74","J","1","","0","0","1","0.4699498903","","false","242","0.276301991","","main_expt","0.4699498903","","0.1974588069","","0.2644088126","","","","","","",""
"76","","bandit","318","732712","0.0-280.0-0.0","41012464","wem/bandit_single","A6JOC24PSUEEC","gain","7","","74","J","1","","0","0","1","0.4696131401","","false","243","0.2682550828","","main_expt","0.4696131401","","0.1697106736","","0.3029471314","","","","","","",""
"1692","","bandit","319","736174","0.0-281.0-0.0","41012464","wem/bandit_single","A6JOC24PSUEEC","gain","7","","74","J","1","","1","0","0","0.4519085084","","false","244","0.2717267912","","main_expt","0.4519085084","","0.1495066821","","0.2869027424","","","","","","",""
"249","","bandit","320","738193","0.0-282.0-0.0","41012464","wem/bandit_single","A6JOC24PSUEEC","gain","7","","74","J","1","","0","0","1","0.4620487724","","false","245","0.2480355477","","main_expt","0.4620487724","","0.1664551864","","0.2928347339","","","","","","",""
"629","","bandit","321","740593","0.0-283.0-0.0","41012464","wem/bandit_single","A6JOC24PSUEEC","gain","7","","75","K","2","","0","0","1","0.1660340973","","false","246","0.2978011657","","main_expt","0.4553277256","","0.1660340973","","0.2537870262","","","","","","",""
"171","","bandit","322","742534","0.0-284.0-0.0","41012464","wem/bandit_single","A6JOC24PSUEEC","gain","7","","74","J","1","","0","0","1","0.4470790686","","false","247","0.3183795364","","main_expt","0.4470790686","","0.2232834288","","0.220788829","","","","","","",""
"171","","bandit","323","744477","0.0-285.0-0.0","41012464","wem/bandit_single","A6JOC24PSUEEC","gain","7","","72","H","0","img/none_selected.jpg","0","0","1","0.3496285813","","false","248","0.3496285813","","main_expt","0.4370243233","","0.2337066106","","0.2260039815","","","","","","",""
"389","","bandit","324","746637","0.0-286.0-0.0","41012464","wem/bandit_single","A6JOC24PSUEEC","gain","7","","76","L","3","","0","0","1","0.2536259712","","false","249","0.3450691196","","main_expt","0.4344986606","","0.2555848542","","0.2536259712","","","","","","",""
"28","","bandit","325","748437","0.0-287.0-0.0","41012464","wem/bandit_single","A6JOC24PSUEEC","gain","7","","75","K","2","","1","0","0","0.2423579198","","false","250","0.3451339369","","main_expt","0.4418367533","","0.2423579198","","0.2748463286","","","","","","",""
"106","","bandit","326","750315","0.0-288.0-0.0","41012464","wem/bandit_single","A6JOC24PSUEEC","gain","7","","74","J","1","","0","0","1","0.4227475224","","false","251","0.3928119302","","main_expt","0.4227475224","","0.2275025436","","0.2623633266","","","","","","",""
"164","","bandit","327","752249","0.0-289.0-0.0","41012464","wem/bandit_single","A6JOC24PSUEEC","gain","7","","75","K","2","","1","0","0","0.2868871138","","false","252","0.3926241496","","main_expt","0.423648384","","0.2868871138","","0.3173920108","","","","","","",""
"550","","bandit","328","754565","0.0-290.0-0.0","41012464","wem/bandit_single","A6JOC24PSUEEC","gain","7","","75","K","2","","1","0","0","0.2719675916","","false","253","0.4074069762","","main_expt","0.4321428437","","0.2719675916","","0.3172059241","","","","","","",""
"120","","bandit","329","756457","0.0-291.0-0.0","41012464","wem/bandit_single","A6JOC24PSUEEC","gain","7","","75","K","2","","0","0","1","0.3118638267","","false","254","0.3831412703","","main_expt","0.4621147124","","0.3118638267","","0.3200237469","","","","","","",""
"2567","","bandit","330","760788","0.0-292.0-0.0","41012464","wem/bandit_single","A6JOC24PSUEEC","gain","7","","75","K","2","","0","0","1","0.2103897122","","false","255","0.3639457665","","main_expt","0.4586218194","","0.2103897122","","0.3358809316","","","","","","",""
"6761","","bandit","331","769323","0.0-293.0-0.0","41012464","wem/bandit_single","A6JOC24PSUEEC","gain","7","","76","L","3","","0","0","1","0.3288682213","","false","256","0.3353936822","","main_expt","0.4661438042","","0.2053105091","","0.3288682213","","","","","","",""
"990","","bandit","332","772086","0.0-294.0-0.0","41012464","wem/bandit_single","A6JOC24PSUEEC","gain","7","","72","H","0","img/none_selected.jpg","0","0","1","0.3457786028","","false","257","0.3457786028","","main_expt","0.4746145216","","0.2101260802","","0.3298558235","","","","","","",""
"950","","bandit","333","774807","0.0-295.0-0.0","41012464","wem/bandit_single","A6JOC24PSUEEC","gain","7","","74","J","1","","1","0","0","0.479590246","","false","258","0.3336199161","","main_expt","0.479590246","","0.251470712","","0.3544886593","","","","","","",""
"260","","bandit","334","776839","0.0-296.0-0.0","41012464","wem/bandit_single","A6JOC24PSUEEC","gain","7","","74","J","1","","1","0","0","0.4543592645","","false","259","0.3182937175","","main_expt","0.4543592645","","0.2320991284","","0.3380036538","","","","","","",""
"1298","","bandit","335","779909","0.0-297.0-0.0","41012464","wem/bandit_single","A6JOC24PSUEEC","gain","7","","74","J","1","","1","0","0","0.4591910344","","false","260","0.3004718715","","main_expt","0.4591910344","","0.2850429488","","0.2797544445","","","","","","",""
"272","","bandit","336","781945","0.0-298.0-0.0","41012464","wem/bandit_single","A6JOC24PSUEEC","gain","7","","74","J","1","","0","0","1","0.4416244086","","false","261","0.2969538951","","main_expt","0.4416244086","","0.3396488321","","0.2594239605","","","","","","",""
"533","","bandit","337","784253","0.0-299.0-0.0","41012464","wem/bandit_single","A6JOC24PSUEEC","gain","7","","75","K","2","","0","0","1","0.243241633","","false","262","0.336502974","","main_expt","0.410126596","","0.243241633","","0.2804023839","","","","","","",""
"356","","bandit","338","786382","0.0-300.0-0.0","41012464","wem/bandit_single","A6JOC24PSUEEC","gain","7","","76","L","3","","1","0","0","0.2526654216","","false","263","0.3417757729","","main_expt","0.3852167719","","0.221101122","","0.2526654216","","","","","","",""
"220","","bandit","339","788362","0.0-301.0-0.0","41012464","wem/bandit_single","A6JOC24PSUEEC","gain","7","","76","L","3","","0","0","1","0.2262009497","","false","264","0.3288238543","","main_expt","0.4048243192","","0.2475963948","","0.2262009497","","","","","","",""
"874","","bandit","340","791009","0.0-302.0-0.0","41012464","wem/bandit_single","A6JOC24PSUEEC","gain","7","","74","J","1","","1","0","0","0.3671025299","","false","265","0.2661945806","","main_expt","0.3671025299","","0.2472156829","","0.2111455706","","","","","","",""
"778","","bandit","341","793559","0.0-303.0-0.0","41012464","wem/bandit_single","A6JOC24PSUEEC","gain","7","","74","J","1","","0","0","1","0.366792141","","false","266","0.2831053071","","main_expt","0.366792141","","0.2257792125","","0.1816972253","","","","","","",""
"157","","bandit","342","795488","0.0-304.0-0.0","41012464","wem/bandit_single","A6JOC24PSUEEC","gain","7","","76","L","3","","0","0","1","0.08996407949","","false","267","0.2814616526","","main_expt","0.3187551676","","0.2434052149","","0.08996407949","","","","","","",""
"469","","bandit","343","797728","0.0-305.0-0.0","41012464","wem/bandit_single","A6JOC24PSUEEC","gain","7","","75","K","2","","1","0","0","0.2472891614","","false","268","0.2698532634","","main_expt","0.2992927481","","0.2472891614","","0.08316088703","","","","","","",""
"50","","bandit","344","799544","0.0-306.0-0.0","41012464","wem/bandit_single","A6JOC24PSUEEC","gain","7","","75","K","2","","1","0","0","0.2592343403","","false","269","0.332936287","","main_expt","0.3158706852","","0.2592343403","","0.132755096","","","","","","",""
"85","","bandit","345","801399","0.0-307.0-0.0","41012464","wem/bandit_single","A6JOC24PSUEEC","gain","7","","75","K","2","","0","0","1","0.2626766442","","false","270","0.3520051328","","main_expt","0.3399881701","","0.2626766442","","0.1295257529","","","","","","",""
"1003","","bandit","346","804176","0.0-308.0-0.0","41012464","wem/bandit_single","A6JOC24PSUEEC","gain","7","","72","H","0","img/none_selected.jpg","1","0","0","0.319936882","","false","271","0.319936882","","main_expt","0.3425846673","","0.2889536683","","0.1243547369","","","","","","",""
"465","","bandit","347","806411","0.0-309.0-0.0","41012464","wem/bandit_single","A6JOC24PSUEEC","gain","7","","72","H","0","img/none_selected.jpg","0","0","1","0.3526338178","","false","272","0.3526338178","","main_expt","0.3661992365","","0.3519527746","","0.1129401117","","","","","","",""
"51","","bandit","348","808235","0.0-310.0-0.0","41012464","wem/bandit_single","A6JOC24PSUEEC","gain","7","","75","K","2","","0","0","1","0.3142239271","","false","273","0.3661190652","","main_expt","0.3548292996","","0.3142239271","","0.07602588951","","","","","","",""
"233","","bandit","349","810239","0.0-311.0-0.0","41012464","wem/bandit_single","A6JOC24PSUEEC","gain","7","","76","L","3","","0","0","1","0.08326080211","","false","274","0.3531355024","","main_expt","0.3015993901","","0.2858465014","","0.08326080211","","","","","","",""
"322","","bandit","350","812334","0.0-312.0-0.0","41012464","wem/bandit_single","A6JOC24PSUEEC","gain","7","","72","H","0","img/none_selected.jpg","1","0","0","0.3710682781","","false","275","0.3710682781","","main_expt","0.3074537736","","0.2833142968","","0.1117875064","","","","","","",""
"12","","bandit","351","814120","0.0-313.0-0.0","41012464","wem/bandit_single","A6JOC24PSUEEC","gain","7","","72","H","0","img/none_selected.jpg","0","0","1","0.3039620657","","false","276","0.3039620657","","main_expt","0.2995557441","","0.303505508","","0.1087564456","","","","","","",""
"350","","bandit","352","816241","0.0-314.0-0.0","41012464","wem/bandit_single","A6JOC24PSUEEC","gain","7","","72","H","0","img/none_selected.jpg","1","0","0","0.3661174243","","false","277","0.3661174243","","main_expt","0.3372524479","","0.2503405658","","0.1402577261","","","","","","",""
"170","","bandit","353","818184","0.0-315.0-0.0","41012464","wem/bandit_single","A6JOC24PSUEEC","gain","7","","72","H","0","img/none_selected.jpg","1","0","0","0.3603903852","","false","278","0.3603903852","","main_expt","0.3941332117","","0.2575241406","","0.1639331241","","","","","","",""
"493","","bandit","354","820449","0.0-316.0-0.0","41012464","wem/bandit_single","A6JOC24PSUEEC","gain","7","","72","H","0","img/none_selected.jpg","0","0","1","0.3865241344","","false","279","0.3865241344","","main_expt","0.369807449","","0.2537993043","","0.08855821706","","","","","","",""
"338","","bandit","355","822559","0.0-317.0-0.0","41012464","wem/bandit_single","A6JOC24PSUEEC","gain","7","","72","H","0","img/none_selected.jpg","0","0","1","0.3941828848","","false","280","0.3941828848","","main_expt","0.3726167961","","0.1734094061","","0.1116659285","","","","","","",""
"560","","bandit","356","824892","0.0-318.0-0.0","41012464","wem/bandit_single","A6JOC24PSUEEC","gain","7","","72","H","0","img/none_selected.jpg","0","0","1","0.4060440919","","false","281","0.4060440919","","main_expt","0.3849966858","","0.1846732939","","0.1032088387","","","","","","",""
"927","","bandit","357","827591","0.0-319.0-0.0","41012464","wem/bandit_single","A6JOC24PSUEEC","gain","7","","72","H","0","img/none_selected.jpg","0","0","1","0.3855255831","","false","282","0.3855255831","","main_expt","0.4081920515","","0.1808782366","","0.1449157137","","","","","","",""
"852","","bandit","358","830216","0.0-320.0-0.0","41012464","wem/bandit_single","A6JOC24PSUEEC","gain","7","","75","K","2","","0","0","1","0.1375342675","","false","283","0.3694157076","","main_expt","0.3930572229","","0.1375342675","","0.1649674285","","","","","","",""
"616","","bandit","359","832603","0.0-321.0-0.0","41012464","wem/bandit_single","A6JOC24PSUEEC","gain","7","","74","J","1","","0","0","1","0.379410926","","false","284","0.4137550783","","main_expt","0.379410926","","0.1029306966","","0.1373277791","","","","","","",""
"999","","bandit","360","835373","0.0-322.0-0.0","41012464","wem/bandit_single","A6JOC24PSUEEC","gain","7","","72","H","0","img/none_selected.jpg","0","0","1","0.4268254387","","false","285","0.4268254387","","main_expt","0.3947179778","","0.08821361919","","0.1616488504","","","","","","",""
"318","","bandit","361","837465","0.0-323.0-0.0","41012464","wem/bandit_single","A6JOC24PSUEEC","gain","7","","75","K","2","","0","0","1","0.08321279743","","false","286","0.4115685589","","main_expt","0.4036344472","","0.08321279743","","0.1306737704","","","","","","",""
"329","","bandit","362","839564","0.0-324.0-0.0","41012464","wem/bandit_single","A6JOC24PSUEEC","gain","7","","76","L","3","","0","0","1","0.2059275786","","false","287","0.3828423493","","main_expt","0.4025981517","","0.0595967864","","0.2059275786","","","","","","",""
"199","","bandit","363","841536","0.0-325.0-0.0","41012464","wem/bandit_single","A6JOC24PSUEEC","gain","7","","72","H","0","img/none_selected.jpg","0","0","1","0.4121581376","","false","288","0.4121581376","","main_expt","0.4183513528","","0.06539189492","","0.1892738114","","","","","","",""
"56","","bandit","364","843366","0.0-326.0-0.0","41012464","wem/bandit_single","A6JOC24PSUEEC","gain","7","","74","J","1","","1","0","0","0.4516793017","","false","289","0.4227758831","","main_expt","0.4516793017","","0.06484578344","","0.1656659279","","","","","","",""
"233","","bandit","365","845374","0.0-327.0-0.0","41012464","wem/bandit_single","A6JOC24PSUEEC","gain","7","","74","J","1","","1","0","0","0.4112115972","","false","290","0.4149367164","","main_expt","0.4112115972","","0.06626982825","","0.1814252587","","","","","","",""
"467","","bandit","366","847614","0.0-328.0-0.0","41012464","wem/bandit_single","A6JOC24PSUEEC","gain","7","","74","J","1","","1","0","0","0.4372982331","","false","291","0.399757838","","main_expt","0.4372982331","","0.1096348163","","0.2385479929","","","","","","",""
"430","","bandit","367","849811","0.0-329.0-0.0","41012464","wem/bandit_single","A6JOC24PSUEEC","gain","7","","74","J","1","","0","0","1","0.4238416902","","false","292","0.3846886596","","main_expt","0.4238416902","","0.1604398542","","0.2322046479","","","","","","",""
"1017","","bandit","368","852602","0.0-330.0-0.0","41012464","wem/bandit_single","A6JOC24PSUEEC","gain","7","","74","J","1","","1","0","0","0.4034354509","","false","293","0.3364000065","","main_expt","0.4034354509","","0.1714651471","","0.223393304","","","","","","",""
"1441","","bandit","369","855816","0.0-331.0-0.0","41012464","wem/bandit_single","A6JOC24PSUEEC","gain","7","","74","J","1","","1","0","0","0.4093667064","","false","294","0.3545739736","","main_expt","0.4093667064","","0.1378543876","","0.2290093083","","","","","","",""
"231","","bandit","370","857823","0.0-332.0-0.0","41012464","wem/bandit_single","A6JOC24PSUEEC","gain","7","","74","J","1","","0","0","1","0.4294791191","","false","295","0.2891777922","","main_expt","0.4294791191","","0.1243446737","","0.2875464899","","","","","","",""
"335","","bandit","371","859933","0.0-333.0-0.0","41012464","wem/bandit_single","A6JOC24PSUEEC","gain","7","","74","J","1","","1","0","0","0.4289259587","","false","296","0.2084544567","","main_expt","0.4289259587","","0.1831574145","","0.2880416719","","","","","","",""
"2088","","bandit","372","863793","0.0-334.0-0.0","41012464","wem/bandit_single","A6JOC24PSUEEC","gain","7","","74","J","1","","1","0","0","0.4073385017","","false","297","0.2481546198","","main_expt","0.4073385017","","0.1645554297","","0.2144640116","","","","","","",""
"406","","bandit","373","865972","0.0-335.0-0.0","41012464","wem/bandit_single","A6JOC24PSUEEC","gain","7","","74","J","1","","0","0","1","0.3914212946","","false","298","0.2961938921","","main_expt","0.3914212946","","0.1424629524","","0.2150894671","","","","","","",""
"28","","bandit","374","867773","0.0-336.0-0.0","41012464","wem/bandit_single","A6JOC24PSUEEC","gain","7","","72","H","0","img/none_selected.jpg","1","0","0","0.2840976989","","false","299","0.2840976989","","main_expt","0.3813238847","","0.1581050354","","0.2407822334","","","","","","",""
"181","","bandit","375","869729","0.0-337.0-0.0","41012464","wem/bandit_single","A6JOC24PSUEEC","gain","7","","75","K","2","","0","0","1","0.1028467187","","false","300","0.2546407964","","main_expt","0.3955358319","","0.1028467187","","0.2400142118","","","","","","",""
