"rt","responses","trial_type","trial_index","time_elapsed","internal_node_id","subjID","study","MID","cond","drift","key_press","respCharCode","respKey","respChoiceNum","respChoice","gems","bombs","no_reward","GemPrChosen","BombPrChosen","practice","trial_counter","WinPr_0","LosePr_0","trial_label","WinPr_1","LosePr_1","WinPr_2","LosePr_2","WinPr_3","LosePr_3","Q0","Q1","Q2","gender","age","ethnicity"
"4413","{""Q0"":""A28FMRMS9TMEOZ""}","survey-text","0","4420","0.0-0.0","41125804","wem/bandit_single","A28FMRMS9TMEOZ","gain","5","","","","","","","","","","","","","","","","","","","","","","","","","","",""
"3616","","text","1","9039","0.0-1.0","41125804","wem/bandit_single","A28FMRMS9TMEOZ","gain","5","32","","","","","","","","","","","","","","","","","","","","","","","","","",""
"4317","","text","2","13358","0.0-2.0","41125804","wem/bandit_single","A28FMRMS9TMEOZ","gain","5","32","","","","","","","","","","","","","","","","","","","","","","","","","",""
"11711","","text","3","25071","0.0-3.0","41125804","wem/bandit_single","A28FMRMS9TMEOZ","gain","5","32","","","","","","","","","","","","","","","","","","","","","","","","","",""
"13847","","text","4","38918","0.0-4.0","41125804","wem/bandit_single","A28FMRMS9TMEOZ","gain","5","32","","","","","","","","","","","","","","","","","","","","","","","","","",""
"4022","","text","5","42942","0.0-5.0","41125804","wem/bandit_single","A28FMRMS9TMEOZ","gain","5","32","","","","","","","","","","","","","","","","","","","","","","","","","",""
"4991","","text","6","47934","0.0-6.0","41125804","wem/bandit_single","A28FMRMS9TMEOZ","gain","5","32","","","","","","","","","","","","","","","","","","","","","","","","","",""
"2119","","text","7","50055","0.0-7.0","41125804","wem/bandit_single","A28FMRMS9TMEOZ","gain","5","32","","","","","","","","","","","","","","","","","","","","","","","","","",""
"2341","","text","8","52398","0.0-8.0","41125804","wem/bandit_single","A28FMRMS9TMEOZ","gain","5","32","","","","","","","","","","","","","","","","","","","","","","","","","",""
"1214","","text","9","53614","0.0-9.0","41125804","wem/bandit_single","A28FMRMS9TMEOZ","gain","5","32","","","","","","","","","","","","","","","","","","","","","","","","","",""
"5694","","text","10","59310","0.0-10.0","41125804","wem/bandit_single","A28FMRMS9TMEOZ","gain","5","32","","","","","","","","","","","","","","","","","","","","","","","","","",""
"2535","","text","11","61846","0.0-11.0","41125804","wem/bandit_single","A28FMRMS9TMEOZ","gain","5","32","","","","","","","","","","","","","","","","","","","","","","","","","",""
"1220","","bandit","12","64575","0.0-12.0-0.0","41125804","wem/bandit_single","A28FMRMS9TMEOZ","gain","5","","74","J","0","img/none_selected_demo.jpg","0","0","1","0","0","true","0","0","0","","","","","","","","","","","","",""
"1953","","bandit","13","68285","0.0-13.0-0.0","41125804","wem/bandit_single","A28FMRMS9TMEOZ","gain","5","","75","K","0","img/none_selected_demo.jpg","0","0","1","0","0","true","0","0","0","","","","","","","","","","","","",""
"1724","","text","14","70262","0.0-14.0","41125804","wem/bandit_single","A28FMRMS9TMEOZ","gain","5","32","","","","","","","","","","","","","","","","","","","","","","","","","",""
"1616","","text","15","71879","0.0-15.0","41125804","wem/bandit_single","A28FMRMS9TMEOZ","gain","5","32","","","","","","","","","","","","","","","","","","","","","","","","","",""
"2837","","text","16","74718","0.0-16.0","41125804","wem/bandit_single","A28FMRMS9TMEOZ","gain","5","32","","","","","","","","","","","","","","","","","","","","","","","","","",""
"4015","","text","17","78734","0.0-17.0","41125804","wem/bandit_single","A28FMRMS9TMEOZ","gain","5","32","","","","","","","","","","","","","","","","","","","","","","","","","",""
"623","","bandit","18","80861","0.0-18.0-0.0","41125804","wem/bandit_single","A28FMRMS9TMEOZ","gain","5","","74","J","0","img/none_selected_demo.jpg","1","0","0","0.8","0","true","0","0.8","0","80_20_practice","0.2","0","","","","","","","","","",""
"273","","bandit","19","82891","0.0-18.0-1.0","41125804","wem/bandit_single","A28FMRMS9TMEOZ","gain","5","","75","K","1","","1","0","0","0.2","0","true","0","0.8","0","80_20_practice","0.2","0","","","","","","","","","",""
"172","","bandit","20","84821","0.0-18.0-2.0","41125804","wem/bandit_single","A28FMRMS9TMEOZ","gain","5","","74","J","0","img/none_selected_demo.jpg","1","0","0","0.8","0","true","0","0.8","0","80_20_practice","0.2","0","","","","","","","","","",""
"27","","bandit","21","86606","0.0-18.0-3.0","41125804","wem/bandit_single","A28FMRMS9TMEOZ","gain","5","","74","J","0","img/none_selected_demo.jpg","1","0","0","0.8","0","true","0","0.8","0","80_20_practice","0.2","0","","","","","","","","","",""
"2","","bandit","22","88364","0.0-18.0-4.0","41125804","wem/bandit_single","A28FMRMS9TMEOZ","gain","5","","74","J","0","img/none_selected_demo.jpg","1","0","0","0.8","0","true","0","0.8","0","80_20_practice","0.2","0","","","","","","","","","",""
"4","","bandit","23","90126","0.0-18.0-5.0","41125804","wem/bandit_single","A28FMRMS9TMEOZ","gain","5","","74","J","0","img/none_selected_demo.jpg","1","0","0","0.8","0","true","0","0.8","0","80_20_practice","0.2","0","","","","","","","","","",""
"970","","bandit","24","92853","0.0-18.0-6.0","41125804","wem/bandit_single","A28FMRMS9TMEOZ","gain","5","","74","J","0","img/none_selected_demo.jpg","1","0","0","0.8","0","true","0","0.8","0","80_20_practice","0.2","0","","","","","","","","","",""
"132","","bandit","25","94742","0.0-18.0-7.0","41125804","wem/bandit_single","A28FMRMS9TMEOZ","gain","5","","75","K","1","","0","0","1","0.2","0","true","0","0.8","0","80_20_practice","0.2","0","","","","","","","","","",""
"249","","bandit","26","96750","0.0-18.0-8.0","41125804","wem/bandit_single","A28FMRMS9TMEOZ","gain","5","","74","J","0","img/none_selected_demo.jpg","1","0","0","0.8","0","true","0","0.8","0","80_20_practice","0.2","0","","","","","","","","","",""
"25","","bandit","27","98532","0.0-18.0-9.0","41125804","wem/bandit_single","A28FMRMS9TMEOZ","gain","5","","74","J","0","img/none_selected_demo.jpg","1","0","0","0.8","0","true","0","0.8","0","80_20_practice","0.2","0","","","","","","","","","",""
"27","","bandit","28","100316","0.0-18.0-10.0","41125804","wem/bandit_single","A28FMRMS9TMEOZ","gain","5","","74","J","0","img/none_selected_demo.jpg","0","0","1","0.8","0","true","0","0.8","0","80_20_practice","0.2","0","","","","","","","","","",""
"291","","bandit","29","102366","0.0-18.0-11.0","41125804","wem/bandit_single","A28FMRMS9TMEOZ","gain","5","","74","J","0","img/none_selected_demo.jpg","1","0","0","0.8","0","true","0","0.8","0","80_20_practice","0.2","0","","","","","","","","","",""
"241","","bandit","30","104366","0.0-18.0-12.0","41125804","wem/bandit_single","A28FMRMS9TMEOZ","gain","5","","74","J","0","img/none_selected_demo.jpg","0","0","1","0.8","0","true","0","0.8","0","80_20_practice","0.2","0","","","","","","","","","",""
"161","","bandit","31","106285","0.0-18.0-13.0","41125804","wem/bandit_single","A28FMRMS9TMEOZ","gain","5","","74","J","0","img/none_selected_demo.jpg","1","0","0","0.8","0","true","0","0.8","0","80_20_practice","0.2","0","","","","","","","","","",""
"19","","bandit","32","108061","0.0-18.0-14.0","41125804","wem/bandit_single","A28FMRMS9TMEOZ","gain","5","","74","J","0","img/none_selected_demo.jpg","0","0","1","0.8","0","true","0","0.8","0","80_20_practice","0.2","0","","","","","","","","","",""
"27","","bandit","33","109845","0.0-18.0-15.0","41125804","wem/bandit_single","A28FMRMS9TMEOZ","gain","5","","75","K","1","","0","0","1","0.2","0","true","0","0.8","0","80_20_practice","0.2","0","","","","","","","","","",""
"98","","bandit","34","111701","0.0-18.0-16.0","41125804","wem/bandit_single","A28FMRMS9TMEOZ","gain","5","","75","K","1","","0","0","1","0.2","0","true","0","0.8","0","80_20_practice","0.2","0","","","","","","","","","",""
"91","","bandit","35","113549","0.0-18.0-17.0","41125804","wem/bandit_single","A28FMRMS9TMEOZ","gain","5","","74","J","0","img/none_selected_demo.jpg","0","0","1","0.8","0","true","0","0.8","0","80_20_practice","0.2","0","","","","","","","","","",""
"73","","bandit","36","115381","0.0-18.0-18.0","41125804","wem/bandit_single","A28FMRMS9TMEOZ","gain","5","","74","J","0","img/none_selected_demo.jpg","1","0","0","0.8","0","true","0","0.8","0","80_20_practice","0.2","0","","","","","","","","","",""
"227","","bandit","37","117365","0.0-18.0-19.0","41125804","wem/bandit_single","A28FMRMS9TMEOZ","gain","5","","74","J","0","img/none_selected_demo.jpg","1","0","0","0.8","0","true","0","0.8","0","80_20_practice","0.2","0","","","","","","","","","",""
"3363","","text","38","120982","0.0-19.0","41125804","wem/bandit_single","A28FMRMS9TMEOZ","gain","5","32","","","","","","","","","","","","","","","","","","","","","","","","","",""
"1414","","bandit","39","123900","0.0-20.0-0.0","41125804","wem/bandit_single","A28FMRMS9TMEOZ","gain","5","","74","J","0","img/none_selected_demo.jpg","0","0","1","0","0","true","0","0","0","","0","0","","","","","","","","","",""
"2964","","text","40","127118","0.0-21.0","41125804","wem/bandit_single","A28FMRMS9TMEOZ","gain","5","74","","","","","","","","","","","","","","","","","","","","","","","","","",""
"1637","","text","41","128758","0.0-22.0","41125804","wem/bandit_single","A28FMRMS9TMEOZ","gain","5","32","","","","","","","","","","","","","","","","","","","","","","","","","",""
"2062","","text","42","130822","0.0-23.0","41125804","wem/bandit_single","A28FMRMS9TMEOZ","gain","5","32","","","","","","","","","","","","","","","","","","","","","","","","","",""
"1190","","text","43","132013","0.0-24.0","41125804","wem/bandit_single","A28FMRMS9TMEOZ","gain","5","32","","","","","","","","","","","","","","","","","","","","","","","","","",""
"3534","","text","44","135550","0.0-25.0","41125804","wem/bandit_single","A28FMRMS9TMEOZ","gain","5","32","","","","","","","","","","","","","","","","","","","","","","","","","",""
"2359","","text","45","137910","0.0-26.0","41125804","wem/bandit_single","A28FMRMS9TMEOZ","gain","5","32","","","","","","","","","","","","","","","","","","","","","","","","","",""
"2366","","text","46","140278","0.0-27.0","41125804","wem/bandit_single","A28FMRMS9TMEOZ","gain","5","32","","","","","","","","","","","","","","","","","","","","","","","","","",""
"1966","","text","47","142246","0.0-28.0","41125804","wem/bandit_single","A28FMRMS9TMEOZ","gain","5","32","","","","","","","","","","","","","","","","","","","","","","","","","",""
"7135","","text","48","149383","0.0-29.0","41125804","wem/bandit_single","A28FMRMS9TMEOZ","gain","5","32","","","","","","","","","","","","","","","","","","","","","","","","","",""
"974","","text","49","150359","0.0-30.0","41125804","wem/bandit_single","A28FMRMS9TMEOZ","gain","5","32","","","","","","","","","","","","","","","","","","","","","","","","","",""
"717","","text","50","151078","0.0-31.0","41125804","wem/bandit_single","A28FMRMS9TMEOZ","gain","5","32","","","","","","","","","","","","","","","","","","","","","","","","","",""
"1541","","bandit","51","154123","0.0-32.0-0.0","41125804","wem/bandit_single","A28FMRMS9TMEOZ","gain","5","","72","H","0","img/none_selected.jpg","0","0","1","0.8","0","true","0","0.8","0","full_practice","0.2","0","0.6","0","0.2","0","","","","","",""
"405","","bandit","52","156285","0.0-32.0-1.0","41125804","wem/bandit_single","A28FMRMS9TMEOZ","gain","5","","74","J","1","","0","0","1","0.2","0","true","0","0.8","0","full_practice","0.2","0","0.6","0","0.2","0","","","","","",""
"74","","bandit","53","158117","0.0-32.0-2.0","41125804","wem/bandit_single","A28FMRMS9TMEOZ","gain","5","","75","K","2","","1","0","0","0.6","0","true","0","0.8","0","full_practice","0.2","0","0.6","0","0.2","0","","","","","",""
"82","","bandit","54","159956","0.0-32.0-3.0","41125804","wem/bandit_single","A28FMRMS9TMEOZ","gain","5","","76","L","3","","0","0","1","0.2","0","true","0","0.8","0","full_practice","0.2","0","0.6","0","0.2","0","","","","","",""
"308","","bandit","55","162022","0.0-32.0-4.0","41125804","wem/bandit_single","A28FMRMS9TMEOZ","gain","5","","75","K","2","","1","0","0","0.6","0","true","0","0.8","0","full_practice","0.2","0","0.6","0","0.2","0","","","","","",""
"377","","bandit","56","164157","0.0-32.0-5.0","41125804","wem/bandit_single","A28FMRMS9TMEOZ","gain","5","","75","K","2","","1","0","0","0.6","0","true","0","0.8","0","full_practice","0.2","0","0.6","0","0.2","0","","","","","",""
"169","","bandit","57","166083","0.0-32.0-6.0","41125804","wem/bandit_single","A28FMRMS9TMEOZ","gain","5","","75","K","2","","1","0","0","0.6","0","true","0","0.8","0","full_practice","0.2","0","0.6","0","0.2","0","","","","","",""
"988","","bandit","58","168828","0.0-32.0-7.0","41125804","wem/bandit_single","A28FMRMS9TMEOZ","gain","5","","75","K","2","","1","0","0","0.6","0","true","0","0.8","0","full_practice","0.2","0","0.6","0","0.2","0","","","","","",""
"452","","bandit","59","171037","0.0-32.0-8.0","41125804","wem/bandit_single","A28FMRMS9TMEOZ","gain","5","","75","K","2","","1","0","0","0.6","0","true","0","0.8","0","full_practice","0.2","0","0.6","0","0.2","0","","","","","",""
"522","","bandit","60","173318","0.0-32.0-9.0","41125804","wem/bandit_single","A28FMRMS9TMEOZ","gain","5","","75","K","2","","1","0","0","0.6","0","true","0","0.8","0","full_practice","0.2","0","0.6","0","0.2","0","","","","","",""
"320","","bandit","61","175399","0.0-32.0-10.0","41125804","wem/bandit_single","A28FMRMS9TMEOZ","gain","5","","75","K","2","","1","0","0","0.6","0","true","0","0.8","0","full_practice","0.2","0","0.6","0","0.2","0","","","","","",""
"1337","","bandit","62","178493","0.0-32.0-11.0","41125804","wem/bandit_single","A28FMRMS9TMEOZ","gain","5","","75","K","2","","0","0","1","0.6","0","true","0","0.8","0","full_practice","0.2","0","0.6","0","0.2","0","","","","","",""
"1603","","bandit","63","181853","0.0-32.0-12.0","41125804","wem/bandit_single","A28FMRMS9TMEOZ","gain","5","","74","J","1","","0","0","1","0.2","0","true","0","0.8","0","full_practice","0.2","0","0.6","0","0.2","0","","","","","",""
"282","","bandit","64","183892","0.0-32.0-13.0","41125804","wem/bandit_single","A28FMRMS9TMEOZ","gain","5","","72","H","0","img/none_selected.jpg","1","0","0","0.8","0","true","0","0.8","0","full_practice","0.2","0","0.6","0","0.2","0","","","","","",""
"354","","bandit","65","186005","0.0-32.0-14.0","41125804","wem/bandit_single","A28FMRMS9TMEOZ","gain","5","","72","H","0","img/none_selected.jpg","1","0","0","0.8","0","true","0","0.8","0","full_practice","0.2","0","0.6","0","0.2","0","","","","","",""
"147","","bandit","66","187909","0.0-32.0-15.0","41125804","wem/bandit_single","A28FMRMS9TMEOZ","gain","5","","72","H","0","img/none_selected.jpg","1","0","0","0.8","0","true","0","0.8","0","full_practice","0.2","0","0.6","0","0.2","0","","","","","",""
"43","","bandit","67","189709","0.0-32.0-16.0","41125804","wem/bandit_single","A28FMRMS9TMEOZ","gain","5","","72","H","0","img/none_selected.jpg","1","0","0","0.8","0","true","0","0.8","0","full_practice","0.2","0","0.6","0","0.2","0","","","","","",""
"107","","bandit","68","191574","0.0-32.0-17.0","41125804","wem/bandit_single","A28FMRMS9TMEOZ","gain","5","","72","H","0","img/none_selected.jpg","0","0","1","0.8","0","true","0","0.8","0","full_practice","0.2","0","0.6","0","0.2","0","","","","","",""
"170","","bandit","69","193502","0.0-32.0-18.0","41125804","wem/bandit_single","A28FMRMS9TMEOZ","gain","5","","72","H","0","img/none_selected.jpg","1","0","0","0.8","0","true","0","0.8","0","full_practice","0.2","0","0.6","0","0.2","0","","","","","",""
"64","","bandit","70","195325","0.0-32.0-19.0","41125804","wem/bandit_single","A28FMRMS9TMEOZ","gain","5","","72","H","0","img/none_selected.jpg","1","0","0","0.8","0","true","0","0.8","0","full_practice","0.2","0","0.6","0","0.2","0","","","","","",""
"2047","","text","71","197630","0.0-33.0","41125804","wem/bandit_single","A28FMRMS9TMEOZ","gain","5","32","","","","","","","","","","","","","","","","","","","","","","","","","",""
"157","","text","72","198790","0.0-34.0","41125804","wem/bandit_single","A28FMRMS9TMEOZ","gain","5","32","","","","","","","","","","","","","","","","","","","","","","","","","",""
"4967","","text","73","203760","0.0-35.0","41125804","wem/bandit_single","A28FMRMS9TMEOZ","gain","5","32","","","","","","","","","","","","","","","","","","","","","","","","","",""
"5916","","text","74","209678","0.0-36.0","41125804","wem/bandit_single","A28FMRMS9TMEOZ","gain","5","32","","","","","","","","","","","","","","","","","","","","","","","","","",""
"798","","text","75","210478","0.0-37.0","41125804","wem/bandit_single","A28FMRMS9TMEOZ","gain","5","32","","","","","","","","","","","","","","","","","","","","","","","","","",""
"893","","bandit","76","212877","0.0-38.0-0.0","41125804","wem/bandit_single","A28FMRMS9TMEOZ","gain","5","","72","H","0","img/none_selected.jpg","1","0","0","0.4657241486","","false","1","0.4657241486","","main_expt","0.1478184891","","0.04962883862","","0.3811303016","","","","","","",""
"482","","bandit","77","215117","0.0-39.0-0.0","41125804","wem/bandit_single","A28FMRMS9TMEOZ","gain","5","","72","H","0","img/none_selected.jpg","0","0","1","0.4660849779","","false","2","0.4660849779","","main_expt","0.2081060842","","0.03569255153","","0.350111504","","","","","","",""
"172","","bandit","78","217046","0.0-40.0-0.0","41125804","wem/bandit_single","A28FMRMS9TMEOZ","gain","5","","72","H","0","img/none_selected.jpg","0","0","1","0.4687539887","","false","3","0.4687539887","","main_expt","0.1722167697","","0.02901958263","","0.3436486883","","","","","","",""
"1178","","bandit","79","219982","0.0-41.0-0.0","41125804","wem/bandit_single","A28FMRMS9TMEOZ","gain","5","","74","J","1","","0","0","1","0.1424145416","","false","4","0.48401473","","main_expt","0.1424145416","","0.04894390993","","0.3419997506","","","","","","",""
"479","","bandit","80","222221","0.0-42.0-0.0","41125804","wem/bandit_single","A28FMRMS9TMEOZ","gain","5","","75","K","2","","0","0","1","0.04206610475","","false","5","0.4755123677","","main_expt","0.1446667298","","0.04206610475","","0.3692180445","","","","","","",""
"274","","bandit","81","224252","0.0-43.0-0.0","41125804","wem/bandit_single","A28FMRMS9TMEOZ","gain","5","","76","L","3","","0","0","1","0.3602257359","","false","6","0.4802482158","","main_expt","0.1447199692","","0.04292771587","","0.3602257359","","","","","","",""
"155","","bandit","82","226166","0.0-44.0-0.0","41125804","wem/bandit_single","A28FMRMS9TMEOZ","gain","5","","72","H","0","img/none_selected.jpg","0","0","1","0.4780438684","","false","7","0.4780438684","","main_expt","0.1001258446","","0.06035830385","","0.3568498895","","","","","","",""
"303","","bandit","83","228230","0.0-45.0-0.0","41125804","wem/bandit_single","A28FMRMS9TMEOZ","gain","5","","74","J","1","","0","0","1","0.1244671667","","false","8","0.4575173044","","main_expt","0.1244671667","","0.09727842944","","0.294604339","","","","","","",""
"72","","bandit","84","230062","0.0-46.0-0.0","41125804","wem/bandit_single","A28FMRMS9TMEOZ","gain","5","","75","K","2","","0","0","1","0.07952196982","","false","9","0.4525933246","","main_expt","0.1293804987","","0.07952196982","","0.3802768622","","","","","","",""
"177","","bandit","85","231997","0.0-47.0-0.0","41125804","wem/bandit_single","A28FMRMS9TMEOZ","gain","5","","76","L","3","","0","0","1","0.3530595227","","false","10","0.4476408152","","main_expt","0.1606810952","","0.1049852556","","0.3530595227","","","","","","",""
"33","","bandit","86","233789","0.0-48.0-0.0","41125804","wem/bandit_single","A28FMRMS9TMEOZ","gain","5","","72","H","0","img/none_selected.jpg","1","0","0","0.4484644352","","false","11","0.4484644352","","main_expt","0.1585385462","","0.1118692116","","0.358648576","","","","","","",""
"57","","bandit","87","235605","0.0-49.0-0.0","41125804","wem/bandit_single","A28FMRMS9TMEOZ","gain","5","","72","H","0","img/none_selected.jpg","0","0","1","0.4466341879","","false","12","0.4466341879","","main_expt","0.1492634201","","0.1270372311","","0.3382469396","","","","","","",""
"59","","bandit","88","237422","0.0-50.0-0.0","41125804","wem/bandit_single","A28FMRMS9TMEOZ","gain","5","","72","H","0","img/none_selected.jpg","1","0","0","0.4642511008","","false","13","0.4642511008","","main_expt","0.1106465011","","0.1278892577","","0.3092021245","","","","","","",""
"16","","bandit","89","239196","0.0-51.0-0.0","41125804","wem/bandit_single","A28FMRMS9TMEOZ","gain","5","","72","H","0","img/none_selected.jpg","0","0","1","0.4615970843","","false","14","0.4615970843","","main_expt","0.1232346967","","0.1024725346","","0.3532484784","","","","","","",""
"84","","bandit","90","241036","0.0-52.0-0.0","41125804","wem/bandit_single","A28FMRMS9TMEOZ","gain","5","","72","H","0","img/none_selected.jpg","1","0","0","0.4692442536","","false","15","0.4692442536","","main_expt","0.1323340596","","0.1234109619","","0.3371384495","","","","","","",""
"12","","bandit","91","242807","0.0-53.0-0.0","41125804","wem/bandit_single","A28FMRMS9TMEOZ","gain","5","","72","H","0","img/none_selected.jpg","0","0","1","0.4755425263","","false","16","0.4755425263","","main_expt","0.1410223318","","0.1360550169","","0.3282622062","","","","","","",""
"87","","bandit","92","244653","0.0-54.0-0.0","41125804","wem/bandit_single","A28FMRMS9TMEOZ","gain","5","","72","H","0","img/none_selected.jpg","0","0","1","0.4828633911","","false","17","0.4828633911","","main_expt","0.1498636582","","0.1070219664","","0.3032164303","","","","","","",""
"97","","bandit","93","246509","0.0-55.0-0.0","41125804","wem/bandit_single","A28FMRMS9TMEOZ","gain","5","","72","H","0","img/none_selected.jpg","1","0","0","0.4784959143","","false","18","0.4784959143","","main_expt","0.1132842199","","0.09318331203","","0.2834034058","","","","","","",""
"4","","bandit","94","248270","0.0-56.0-0.0","41125804","wem/bandit_single","A28FMRMS9TMEOZ","gain","5","","72","H","0","img/none_selected.jpg","1","0","0","0.4645747316","","false","19","0.4645747316","","main_expt","0.08554013857","","0.08644374764","","0.376157017","","","","","","",""
"104","","bandit","95","250133","0.0-57.0-0.0","41125804","wem/bandit_single","A28FMRMS9TMEOZ","gain","5","","72","H","0","img/none_selected.jpg","1","0","0","0.4441513352","","false","20","0.4441513352","","main_expt","0.1176407844","","0.1066513301","","0.3718288413","","","","","","",""
"281","","bandit","96","252172","0.0-58.0-0.0","41125804","wem/bandit_single","A28FMRMS9TMEOZ","gain","5","","72","H","0","img/none_selected.jpg","0","0","1","0.4281495132","","false","21","0.4281495132","","main_expt","0.09701455477","","0.1143532382","","0.3755251961","","","","","","",""
"194","","bandit","97","254124","0.0-59.0-0.0","41125804","wem/bandit_single","A28FMRMS9TMEOZ","gain","5","","72","H","0","img/none_selected.jpg","0","0","1","0.4374563715","","false","22","0.4374563715","","main_expt","0.08683592795","","0.111858438","","0.3536603278","","","","","","",""
"115","","bandit","98","255998","0.0-60.0-0.0","41125804","wem/bandit_single","A28FMRMS9TMEOZ","gain","5","","72","H","0","img/none_selected.jpg","0","0","1","0.4408316507","","false","23","0.4408316507","","main_expt","0.1062952262","","0.09088087914","","0.3908816919","","","","","","",""
"96","","bandit","99","257853","0.0-61.0-0.0","41125804","wem/bandit_single","A28FMRMS9TMEOZ","gain","5","","72","H","0","img/none_selected.jpg","0","0","1","0.4249736282","","false","24","0.4249736282","","main_expt","0.1320295984","","0.1045917755","","0.3639752867","","","","","","",""
"73","","bandit","100","259685","0.0-62.0-0.0","41125804","wem/bandit_single","A28FMRMS9TMEOZ","gain","5","","72","H","0","img/none_selected.jpg","0","0","1","0.4542404639","","false","25","0.4542404639","","main_expt","0.18562956","","0.107118439","","0.3569796848","","","","","","",""
"59","","bandit","101","261500","0.0-63.0-0.0","41125804","wem/bandit_single","A28FMRMS9TMEOZ","gain","5","","72","H","0","img/none_selected.jpg","1","0","0","0.4707756245","","false","26","0.4707756245","","main_expt","0.1589772959","","0.08847958778","","0.3466804264","","","","","","",""
"105","","bandit","102","263365","0.0-64.0-0.0","41125804","wem/bandit_single","A28FMRMS9TMEOZ","gain","5","","72","H","0","img/none_selected.jpg","1","0","0","0.4492807888","","false","27","0.4492807888","","main_expt","0.1361305173","","0.105958259","","0.3487144915","","","","","","",""
"122","","bandit","103","265246","0.0-65.0-0.0","41125804","wem/bandit_single","A28FMRMS9TMEOZ","gain","5","","72","H","0","img/none_selected.jpg","1","0","0","0.4630254912","","false","28","0.4630254912","","main_expt","0.1517112547","","0.09976229861","","0.31872733","","","","","","",""
"17","","bandit","104","267020","0.0-66.0-0.0","41125804","wem/bandit_single","A28FMRMS9TMEOZ","gain","5","","72","H","0","img/none_selected.jpg","1","0","0","0.4582460064","","false","29","0.4582460064","","main_expt","0.1207272987","","0.1117783291","","0.3351256986","","","","","","",""
"234","","bandit","105","269013","0.0-67.0-0.0","41125804","wem/bandit_single","A28FMRMS9TMEOZ","gain","5","","72","H","0","img/none_selected.jpg","0","0","1","0.44398484","","false","30","0.44398484","","main_expt","0.06619286558","","0.104708879","","0.3165147827","","","","","","",""
"114","","bandit","106","270884","0.0-68.0-0.0","41125804","wem/bandit_single","A28FMRMS9TMEOZ","gain","5","","72","H","0","img/none_selected.jpg","0","0","1","0.4662875842","","false","31","0.4662875842","","main_expt","0.08172424971","","0.1168740313","","0.3587164307","","","","","","",""
"11","","bandit","107","272654","0.0-69.0-0.0","41125804","wem/bandit_single","A28FMRMS9TMEOZ","gain","5","","72","H","0","img/none_selected.jpg","1","0","0","0.4823207571","","false","32","0.4823207571","","main_expt","0.1118972321","","0.1193100679","","0.384091524","","","","","","",""
"32","","bandit","108","274444","0.0-70.0-0.0","41125804","wem/bandit_single","A28FMRMS9TMEOZ","gain","5","","72","H","0","img/none_selected.jpg","1","0","0","0.4887640326","","false","33","0.4887640326","","main_expt","0.07764728595","","0.1160378653","","0.3410562849","","","","","","",""
"81","","bandit","109","276284","0.0-71.0-0.0","41125804","wem/bandit_single","A28FMRMS9TMEOZ","gain","5","","72","H","0","img/none_selected.jpg","1","0","0","0.4871413525","","false","34","0.4871413525","","main_expt","0.1021677232","","0.1240203414","","0.3772037995","","","","","","",""
"226","","bandit","110","278270","0.0-72.0-0.0","41125804","wem/bandit_single","A28FMRMS9TMEOZ","gain","5","","72","H","0","img/none_selected.jpg","1","0","0","0.472467875","","false","35","0.472467875","","main_expt","0.09263198197","","0.1568527985","","0.3601610849","","","","","","",""
"169","","bandit","111","280196","0.0-73.0-0.0","41125804","wem/bandit_single","A28FMRMS9TMEOZ","gain","5","","72","H","0","img/none_selected.jpg","0","0","1","0.4801988656","","false","36","0.4801988656","","main_expt","0.1395706987","","0.1887398002","","0.3199141994","","","","","","",""
"201","","bandit","112","282156","0.0-74.0-0.0","41125804","wem/bandit_single","A28FMRMS9TMEOZ","gain","5","","72","H","0","img/none_selected.jpg","1","0","0","0.4658101737","","false","37","0.4658101737","","main_expt","0.1166343238","","0.1567271146","","0.3022128767","","","","","","",""
"130","","bandit","113","284044","0.0-75.0-0.0","41125804","wem/bandit_single","A28FMRMS9TMEOZ","gain","5","","72","H","0","img/none_selected.jpg","1","0","0","0.4725237643","","false","38","0.4725237643","","main_expt","0.1344783462","","0.1213003185","","0.220841548","","","","","","",""
"219","","bandit","114","286022","0.0-76.0-0.0","41125804","wem/bandit_single","A28FMRMS9TMEOZ","gain","5","","72","H","0","img/none_selected.jpg","1","0","0","0.4863678522","","false","39","0.4863678522","","main_expt","0.1132701409","","0.1129188575","","0.2273815274","","","","","","",""
"33","","bandit","115","287812","0.0-77.0-0.0","41125804","wem/bandit_single","A28FMRMS9TMEOZ","gain","5","","72","H","0","img/none_selected.jpg","1","0","0","0.4756100127","","false","40","0.4756100127","","main_expt","0.1269330716","","0.1490040727","","0.2216047912","","","","","","",""
"289","","bandit","116","289862","0.0-78.0-0.0","41125804","wem/bandit_single","A28FMRMS9TMEOZ","gain","5","","72","H","0","img/none_selected.jpg","1","0","0","0.4644843691","","false","41","0.4644843691","","main_expt","0.1043764639","","0.20555416","","0.1790357129","","","","","","",""
"256","","bandit","117","291877","0.0-79.0-0.0","41125804","wem/bandit_single","A28FMRMS9TMEOZ","gain","5","","72","H","0","img/none_selected.jpg","0","0","1","0.4595487669","","false","42","0.4595487669","","main_expt","0.123259557","","0.2458082757","","0.1124402831","","","","","","",""
"225","","bandit","118","293861","0.0-80.0-0.0","41125804","wem/bandit_single","A28FMRMS9TMEOZ","gain","5","","72","H","0","img/none_selected.jpg","1","0","0","0.4598563523","","false","43","0.4598563523","","main_expt","0.1523094635","","0.1980967925","","0.1309909921","","","","","","",""
"578","","bandit","119","296198","0.0-81.0-0.0","41125804","wem/bandit_single","A28FMRMS9TMEOZ","gain","5","","72","H","0","img/none_selected.jpg","0","0","1","0.4444935065","","false","44","0.4444935065","","main_expt","0.1438901127","","0.2011817551","","0.1620245532","","","","","","",""
"1522","","bandit","120","299478","0.0-82.0-0.0","41125804","wem/bandit_single","A28FMRMS9TMEOZ","gain","5","","72","H","0","img/none_selected.jpg","1","0","0","0.4201454787","","false","45","0.4201454787","","main_expt","0.1381896233","","0.1908172103","","0.1962154431","","","","","","",""
"32","","bandit","121","301269","0.0-83.0-0.0","41125804","wem/bandit_single","A28FMRMS9TMEOZ","gain","5","","72","H","0","img/none_selected.jpg","1","0","0","0.4420567968","","false","46","0.4420567968","","main_expt","0.08118013389","","0.1682898959","","0.1548021256","","","","","","",""
"289","","bandit","122","303317","0.0-84.0-0.0","41125804","wem/bandit_single","A28FMRMS9TMEOZ","gain","5","","72","H","0","img/none_selected.jpg","1","0","0","0.4454115659","","false","47","0.4454115659","","main_expt","0.08279503272","","0.114950809","","0.155425446","","","","","","",""
"3338","","bandit","123","308412","0.0-85.0-0.0","41125804","wem/bandit_single","A28FMRMS9TMEOZ","gain","5","","72","H","0","img/none_selected.jpg","0","0","1","0.4409121906","","false","48","0.4409121906","","main_expt","0.09757227309","","0.1231508501","","0.2368850053","","","","","","",""
"195","","bandit","124","310364","0.0-86.0-0.0","41125804","wem/bandit_single","A28FMRMS9TMEOZ","gain","5","","72","H","0","img/none_selected.jpg","1","0","0","0.4640555105","","false","49","0.4640555105","","main_expt","0.1407466139","","0.1264715503","","0.1712995484","","","","","","",""
"211","","bandit","125","312332","0.0-87.0-0.0","41125804","wem/bandit_single","A28FMRMS9TMEOZ","gain","5","","72","H","0","img/none_selected.jpg","1","0","0","0.4619625264","","false","50","0.4619625264","","main_expt","0.1128896644","","0.1119267987","","0.2371897999","","","","","","",""
"403","","bandit","126","314493","0.0-88.0-0.0","41125804","wem/bandit_single","A28FMRMS9TMEOZ","gain","5","","72","H","0","img/none_selected.jpg","1","0","0","0.4686499241","","false","51","0.4686499241","","main_expt","0.1292206793","","0.1192285775","","0.2520952739","","","","","","",""
"322","","bandit","127","316574","0.0-89.0-0.0","41125804","wem/bandit_single","A28FMRMS9TMEOZ","gain","5","","72","H","0","img/none_selected.jpg","1","0","0","0.4721244997","","false","52","0.4721244997","","main_expt","0.117204758","","0.1536714506","","0.2201249325","","","","","","",""
"128","","bandit","128","318460","0.0-90.0-0.0","41125804","wem/bandit_single","A28FMRMS9TMEOZ","gain","5","","72","H","0","img/none_selected.jpg","1","0","0","0.4776765754","","false","53","0.4776765754","","main_expt","0.1180232867","","0.1817289366","","0.2019083534","","","","","","",""
"51","","bandit","129","320269","0.0-91.0-0.0","41125804","wem/bandit_single","A28FMRMS9TMEOZ","gain","5","","72","H","0","img/none_selected.jpg","0","0","1","0.4788042678","","false","54","0.4788042678","","main_expt","0.09503139185","","0.1664376657","","0.2133100918","","","","","","",""
"239","","bandit","130","322268","0.0-92.0-0.0","41125804","wem/bandit_single","A28FMRMS9TMEOZ","gain","5","","72","H","0","img/none_selected.jpg","0","0","1","0.4852168201","","false","55","0.4852168201","","main_expt","0.1238025275","","0.1219288973","","0.2210295122","","","","","","",""
"82","","bandit","131","324108","0.0-93.0-0.0","41125804","wem/bandit_single","A28FMRMS9TMEOZ","gain","5","","72","H","0","img/none_selected.jpg","0","0","1","0.4860946669","","false","56","0.4860946669","","main_expt","0.1544257673","","0.1392062569","","0.1728424853","","","","","","",""
"409","","bandit","132","326277","0.0-94.0-0.0","41125804","wem/bandit_single","A28FMRMS9TMEOZ","gain","5","","72","H","0","img/none_selected.jpg","1","0","0","0.4859962979","","false","57","0.4859962979","","main_expt","0.1492478473","","0.2060247316","","0.2301797189","","","","","","",""
"418","","bandit","133","328453","0.0-95.0-0.0","41125804","wem/bandit_single","A28FMRMS9TMEOZ","gain","5","","72","H","0","img/none_selected.jpg","0","0","1","0.4751013025","","false","58","0.4751013025","","main_expt","0.1392181034","","0.1723567799","","0.2820892606","","","","","","",""
"152","","bandit","134","330365","0.0-96.0-0.0","41125804","wem/bandit_single","A28FMRMS9TMEOZ","gain","5","","72","H","0","img/none_selected.jpg","0","0","1","0.4816883425","","false","59","0.4816883425","","main_expt","0.1854998728","","0.16345501","","0.308641684","","","","","","",""
"1400","","bandit","135","333524","0.0-97.0-0.0","41125804","wem/bandit_single","A28FMRMS9TMEOZ","gain","5","","72","H","0","img/none_selected.jpg","1","0","0","0.4846541976","","false","60","0.4846541976","","main_expt","0.1306651225","","0.1552759559","","0.3012287428","","","","","","",""
"274","","bandit","136","335556","0.0-98.0-0.0","41125804","wem/bandit_single","A28FMRMS9TMEOZ","gain","5","","72","H","0","img/none_selected.jpg","0","0","1","0.4848840061","","false","61","0.4848840061","","main_expt","0.1567024934","","0.1652193455","","0.263166603","","","","","","",""
"98","","bandit","137","337413","0.0-99.0-0.0","41125804","wem/bandit_single","A28FMRMS9TMEOZ","gain","5","","72","H","0","img/none_selected.jpg","1","0","0","0.4856292504","","false","62","0.4856292504","","main_expt","0.1622246099","","0.1813222976","","0.2428038775","","","","","","",""
"112","","bandit","138","339285","0.0-100.0-0.0","41125804","wem/bandit_single","A28FMRMS9TMEOZ","gain","5","","72","H","0","img/none_selected.jpg","1","0","0","0.4865153319","","false","63","0.4865153319","","main_expt","0.2196770705","","0.1727004114","","0.2843805899","","","","","","",""
"688","","bandit","139","341733","0.0-101.0-0.0","41125804","wem/bandit_single","A28FMRMS9TMEOZ","gain","5","","72","H","0","img/none_selected.jpg","0","0","1","0.4874146034","","false","64","0.4874146034","","main_expt","0.218319606","","0.2105999223","","0.2895992306","","","","","","",""
"3209","","bandit","140","346701","0.0-102.0-0.0","41125804","wem/bandit_single","A28FMRMS9TMEOZ","gain","5","","72","H","0","img/none_selected.jpg","0","0","1","0.4781609215","","false","65","0.4781609215","","main_expt","0.2278721313","","0.240225816","","0.3847688","","","","","","",""
"113","","bandit","141","348572","0.0-103.0-0.0","41125804","wem/bandit_single","A28FMRMS9TMEOZ","gain","5","","72","H","0","img/none_selected.jpg","0","0","1","0.4848714892","","false","66","0.4848714892","","main_expt","0.1599393353","","0.2924754864","","0.4083751038","","","","","","",""
"98","","bandit","142","350428","0.0-104.0-0.0","41125804","wem/bandit_single","A28FMRMS9TMEOZ","gain","5","","72","H","0","img/none_selected.jpg","1","0","0","0.4872204599","","false","67","0.4872204599","","main_expt","0.1647045883","","0.2363072125","","0.4036944211","","","","","","",""
"122","","bandit","143","352309","0.0-105.0-0.0","41125804","wem/bandit_single","A28FMRMS9TMEOZ","gain","5","","72","H","0","img/none_selected.jpg","0","0","1","0.4749956953","","false","68","0.4749956953","","main_expt","0.1442333851","","0.264359064","","0.3910329043","","","","","","",""
"176","","bandit","144","354245","0.0-106.0-0.0","41125804","wem/bandit_single","A28FMRMS9TMEOZ","gain","5","","72","H","0","img/none_selected.jpg","0","0","1","0.4776093432","","false","69","0.4776093432","","main_expt","0.1757685765","","0.2755227552","","0.3438989047","","","","","","",""
"17","","bandit","145","356020","0.0-107.0-0.0","41125804","wem/bandit_single","A28FMRMS9TMEOZ","gain","5","","72","H","0","img/none_selected.jpg","1","0","0","0.4550183311","","false","70","0.4550183311","","main_expt","0.1995177274","","0.2978365432","","0.3282106587","","","","","","",""
"114","","bandit","146","357891","0.0-108.0-0.0","41125804","wem/bandit_single","A28FMRMS9TMEOZ","gain","5","","72","H","0","img/none_selected.jpg","1","0","0","0.4466984445","","false","71","0.4466984445","","main_expt","0.2429348876","","0.2788476436","","0.3085852942","","","","","","",""
"314","","bandit","147","359966","0.0-109.0-0.0","41125804","wem/bandit_single","A28FMRMS9TMEOZ","gain","5","","72","H","0","img/none_selected.jpg","1","0","0","0.453817204","","false","72","0.453817204","","main_expt","0.2134703404","","0.2983184618","","0.317066931","","","","","","",""
"256","","bandit","148","361980","0.0-110.0-0.0","41125804","wem/bandit_single","A28FMRMS9TMEOZ","gain","5","","72","H","0","img/none_selected.jpg","0","0","1","0.4421557619","","false","73","0.4421557619","","main_expt","0.2779115064","","0.3235064893","","0.3118309255","","","","","","",""
"218","","bandit","149","363957","0.0-111.0-0.0","41125804","wem/bandit_single","A28FMRMS9TMEOZ","gain","5","","72","H","0","img/none_selected.jpg","1","0","0","0.4340536998","","false","74","0.4340536998","","main_expt","0.2696493969","","0.2605282151","","0.3442292265","","","","","","",""
"1505","","bandit","150","367222","0.0-112.0-0.0","41125804","wem/bandit_single","A28FMRMS9TMEOZ","gain","5","","72","H","0","img/none_selected.jpg","1","0","0","0.4148912722","","false","75","0.4148912722","","main_expt","0.2929582525","","0.3081503464","","0.3392290825","","","","","","",""
"176","","bandit","151","369157","0.0-113.0-0.0","41125804","wem/bandit_single","A28FMRMS9TMEOZ","gain","5","","72","H","0","img/none_selected.jpg","1","0","0","0.4049452856","","false","76","0.4049452856","","main_expt","0.2925997362","","0.3793773342","","0.3019050266","","","","","","",""
"106","","bandit","152","371021","0.0-114.0-0.0","41125804","wem/bandit_single","A28FMRMS9TMEOZ","gain","5","","72","H","0","img/none_selected.jpg","0","0","1","0.3804311168","","false","77","0.3804311168","","main_expt","0.2402419665","","0.4108459626","","0.3346778491","","","","","","",""
"163","","bandit","153","372940","0.0-115.0-0.0","41125804","wem/bandit_single","A28FMRMS9TMEOZ","gain","5","","72","H","0","img/none_selected.jpg","1","0","0","0.4076768351","","false","78","0.4076768351","","main_expt","0.2662288132","","0.432197644","","0.2858281516","","","","","","",""
"18","","bandit","154","374716","0.0-116.0-0.0","41125804","wem/bandit_single","A28FMRMS9TMEOZ","gain","5","","72","H","0","img/none_selected.jpg","0","0","1","0.4322729224","","false","79","0.4322729224","","main_expt","0.2946750364","","0.4681634707","","0.2601805687","","","","","","",""
"515","","bandit","155","376989","0.0-117.0-0.0","41125804","wem/bandit_single","A28FMRMS9TMEOZ","gain","5","","72","H","0","img/none_selected.jpg","1","0","0","0.4344903628","","false","80","0.4344903628","","main_expt","0.3142603933","","0.4487514359","","0.2494540003","","","","","","",""
"839","","bandit","156","379588","0.0-118.0-0.0","41125804","wem/bandit_single","A28FMRMS9TMEOZ","gain","5","","72","H","0","img/none_selected.jpg","1","0","0","0.4128510282","","false","81","0.4128510282","","main_expt","0.3045476359","","0.4278748425","","0.2029748002","","","","","","",""
"131","","bandit","157","381477","0.0-119.0-0.0","41125804","wem/bandit_single","A28FMRMS9TMEOZ","gain","5","","72","H","0","img/none_selected.jpg","0","0","1","0.3473788204","","false","82","0.3473788204","","main_expt","0.2481672469","","0.3873338363","","0.1459008349","","","","","","",""
"64","","bandit","158","383302","0.0-120.0-0.0","41125804","wem/bandit_single","A28FMRMS9TMEOZ","gain","5","","72","H","0","img/none_selected.jpg","0","0","1","0.3964685929","","false","83","0.3964685929","","main_expt","0.2366474468","","0.3676955993","","0.1792892234","","","","","","",""
"216","","bandit","159","385275","0.0-121.0-0.0","41125804","wem/bandit_single","A28FMRMS9TMEOZ","gain","5","","72","H","0","img/none_selected.jpg","1","0","0","0.4058457219","","false","84","0.4058457219","","main_expt","0.2327145127","","0.3494013457","","0.1384159538","","","","","","",""
"114","","bandit","160","387148","0.0-122.0-0.0","41125804","wem/bandit_single","A28FMRMS9TMEOZ","gain","5","","72","H","0","img/none_selected.jpg","1","0","0","0.419702676","","false","85","0.419702676","","main_expt","0.2276425053","","0.3484693071","","0.1569521301","","","","","","",""
"10","","bandit","161","388918","0.0-123.0-0.0","41125804","wem/bandit_single","A28FMRMS9TMEOZ","gain","5","","72","H","0","img/none_selected.jpg","0","0","1","0.3584641731","","false","86","0.3584641731","","main_expt","0.1932648708","","0.3738623358","","0.2111509195","","","","","","",""
"143","","bandit","162","390822","0.0-124.0-0.0","41125804","wem/bandit_single","A28FMRMS9TMEOZ","gain","5","","72","H","0","img/none_selected.jpg","0","0","1","0.3362954576","","false","87","0.3362954576","","main_expt","0.1554886006","","0.3635865115","","0.1855749087","","","","","","",""
"192","","bandit","163","392772","0.0-125.0-0.0","41125804","wem/bandit_single","A28FMRMS9TMEOZ","gain","5","","72","H","0","img/none_selected.jpg","0","0","1","0.3495778317","","false","88","0.3495778317","","main_expt","0.1288388744","","0.28993028","","0.1260067519","","","","","","",""
"66","","bandit","164","394598","0.0-126.0-0.0","41125804","wem/bandit_single","A28FMRMS9TMEOZ","gain","5","","72","H","0","img/none_selected.jpg","0","0","1","0.3337998134","","false","89","0.3337998134","","main_expt","0.1672252434","","0.2529053562","","0.1930097593","","","","","","",""
"167","","bandit","165","396525","0.0-127.0-0.0","41125804","wem/bandit_single","A28FMRMS9TMEOZ","gain","5","","72","H","0","img/none_selected.jpg","0","0","1","0.3254710898","","false","90","0.3254710898","","main_expt","0.1379373657","","0.2239223254","","0.2016869017","","","","","","",""
"17","","bandit","166","398302","0.0-128.0-0.0","41125804","wem/bandit_single","A28FMRMS9TMEOZ","gain","5","","72","H","0","img/none_selected.jpg","1","0","0","0.3248617863","","false","91","0.3248617863","","main_expt","0.1296834551","","0.1874521573","","0.2283296651","","","","","","",""
"207","","bandit","167","400270","0.0-129.0-0.0","41125804","wem/bandit_single","A28FMRMS9TMEOZ","gain","5","","72","H","0","img/none_selected.jpg","1","0","0","0.3290731597","","false","92","0.3290731597","","main_expt","0.1601432093","","0.1464907128","","0.2253008126","","","","","","",""
"248","","bandit","168","402277","0.0-130.0-0.0","41125804","wem/bandit_single","A28FMRMS9TMEOZ","gain","5","","72","H","0","img/none_selected.jpg","0","0","1","0.2947126164","","false","93","0.2947126164","","main_expt","0.1976873148","","0.1817498408","","0.1826671142","","","","","","",""
"225","","bandit","169","404261","0.0-131.0-0.0","41125804","wem/bandit_single","A28FMRMS9TMEOZ","gain","5","","72","H","0","img/none_selected.jpg","0","0","1","0.2762739163","","false","94","0.2762739163","","main_expt","0.2296862911","","0.1967130988","","0.1650727581","","","","","","",""
"265","","bandit","170","406286","0.0-132.0-0.0","41125804","wem/bandit_single","A28FMRMS9TMEOZ","gain","5","","72","H","0","img/none_selected.jpg","0","0","1","0.3184689772","","false","95","0.3184689772","","main_expt","0.1990842867","","0.2294656294","","0.1971582392","","","","","","",""
"289","","bandit","171","408333","0.0-133.0-0.0","41125804","wem/bandit_single","A28FMRMS9TMEOZ","gain","5","","72","H","0","img/none_selected.jpg","0","0","1","0.281027734","","false","96","0.281027734","","main_expt","0.258496532","","0.2966343553","","0.1791402521","","","","","","",""
"96","","bandit","172","410190","0.0-134.0-0.0","41125804","wem/bandit_single","A28FMRMS9TMEOZ","gain","5","","72","H","0","img/none_selected.jpg","0","0","1","0.2474299406","","false","97","0.2474299406","","main_expt","0.2766566169","","0.3346257274","","0.1516442175","","","","","","",""
"104","","bandit","173","412054","0.0-135.0-0.0","41125804","wem/bandit_single","A28FMRMS9TMEOZ","gain","5","","72","H","0","img/none_selected.jpg","0","0","1","0.2217126022","","false","98","0.2217126022","","main_expt","0.2377114848","","0.3139493976","","0.2200018313","","","","","","",""
"24","","bandit","174","413836","0.0-136.0-0.0","41125804","wem/bandit_single","A28FMRMS9TMEOZ","gain","5","","72","H","0","img/none_selected.jpg","1","0","0","0.2677278576","","false","99","0.2677278576","","main_expt","0.3124158187","","0.2478490566","","0.2752547205","","","","","","",""
"57","","bandit","175","415653","0.0-137.0-0.0","41125804","wem/bandit_single","A28FMRMS9TMEOZ","gain","5","","72","H","0","img/none_selected.jpg","0","0","1","0.3271916833","","false","100","0.3271916833","","main_expt","0.2059987679","","0.2602221343","","0.252850905","","","","","","",""
"242","","bandit","176","417653","0.0-138.0-0.0","41125804","wem/bandit_single","A28FMRMS9TMEOZ","gain","5","","72","H","0","img/none_selected.jpg","0","0","1","0.3066156257","","false","101","0.3066156257","","main_expt","0.1758265216","","0.2584762291","","0.1867047362","","","","","","",""
"144","","bandit","177","419556","0.0-139.0-0.0","41125804","wem/bandit_single","A28FMRMS9TMEOZ","gain","5","","72","H","0","img/none_selected.jpg","1","0","0","0.3260250896","","false","102","0.3260250896","","main_expt","0.2262322791","","0.282093771","","0.1175578895","","","","","","",""
"184","","bandit","178","421501","0.0-140.0-0.0","41125804","wem/bandit_single","A28FMRMS9TMEOZ","gain","5","","72","H","0","img/none_selected.jpg","0","0","1","0.3731136732","","false","103","0.3731136732","","main_expt","0.2018281434","","0.2725256196","","0.09132094505","","","","","","",""
"160","","bandit","179","423420","0.0-141.0-0.0","41125804","wem/bandit_single","A28FMRMS9TMEOZ","gain","5","","72","H","0","img/none_selected.jpg","1","0","0","0.3941656488","","false","104","0.3941656488","","main_expt","0.1447482012","","0.2243623384","","0.1422553795","","","","","","",""
"25","","bandit","180","425205","0.0-142.0-0.0","41125804","wem/bandit_single","A28FMRMS9TMEOZ","gain","5","","72","H","0","img/none_selected.jpg","1","0","0","0.4030151573","","false","105","0.4030151573","","main_expt","0.2104813725","","0.2403200944","","0.1390697773","","","","","","",""
"184","","bandit","181","427147","0.0-143.0-0.0","41125804","wem/bandit_single","A28FMRMS9TMEOZ","gain","5","","72","H","0","img/none_selected.jpg","0","0","1","0.3715193073","","false","106","0.3715193073","","main_expt","0.2492378957","","0.2332798071","","0.1155807694","","","","","","",""
"99","","bandit","182","429005","0.0-144.0-0.0","41125804","wem/bandit_single","A28FMRMS9TMEOZ","gain","5","","72","H","0","img/none_selected.jpg","0","0","1","0.3837270358","","false","107","0.3837270358","","main_expt","0.217404121","","0.181620067","","0.105728532","","","","","","",""
"89","","bandit","183","430853","0.0-145.0-0.0","41125804","wem/bandit_single","A28FMRMS9TMEOZ","gain","5","","72","H","0","img/none_selected.jpg","0","0","1","0.3908875135","","false","108","0.3908875135","","main_expt","0.2142202377","","0.2173069915","","0.08831090648","","","","","","",""
"160","","bandit","184","432772","0.0-146.0-0.0","41125804","wem/bandit_single","A28FMRMS9TMEOZ","gain","5","","72","H","0","img/none_selected.jpg","1","0","0","0.3774052568","","false","109","0.3774052568","","main_expt","0.2683226389","","0.226697077","","0.1043724426","","","","","","",""
"49","","bandit","185","434581","0.0-147.0-0.0","41125804","wem/bandit_single","A28FMRMS9TMEOZ","gain","5","","72","H","0","img/none_selected.jpg","0","0","1","0.3601275089","","false","110","0.3601275089","","main_expt","0.2619142817","","0.2695419639","","0.07530108238","","","","","","",""
"55","","bandit","186","436398","0.0-148.0-0.0","41125804","wem/bandit_single","A28FMRMS9TMEOZ","gain","5","","72","H","0","img/none_selected.jpg","1","0","0","0.3880855357","","false","111","0.3880855357","","main_expt","0.2754039507","","0.2635727161","","0.05159845725","","","","","","",""
"54","","bandit","187","438212","0.0-149.0-0.0","41125804","wem/bandit_single","A28FMRMS9TMEOZ","gain","5","","72","H","0","img/none_selected.jpg","0","0","1","0.3864248384","","false","112","0.3864248384","","main_expt","0.2721436228","","0.3202716687","","0.08116028731","","","","","","",""
"954","","bandit","188","440925","0.0-150.0-0.0","41125804","wem/bandit_single","A28FMRMS9TMEOZ","gain","5","","72","H","0","img/none_selected.jpg","1","0","0","0.339569604","","false","113","0.339569604","","main_expt","0.2598768298","","0.3546461764","","0.08538759299","","","","","","",""
"328","","bandit","189","443012","0.0-151.0-0.0","41125804","wem/bandit_single","A28FMRMS9TMEOZ","gain","5","","72","H","0","img/none_selected.jpg","0","0","1","0.3612744832","","false","114","0.3612744832","","main_expt","0.2271708717","","0.3339806629","","0.106551095","","","","","","",""
"129","","bandit","190","444899","0.0-152.0-0.0","41125804","wem/bandit_single","A28FMRMS9TMEOZ","gain","5","","72","H","0","img/none_selected.jpg","0","0","1","0.3616298021","","false","115","0.3616298021","","main_expt","0.2382373761","","0.3175163572","","0.1120532439","","","","","","",""
"90","","bandit","191","446750","0.0-153.0-0.0","41125804","wem/bandit_single","A28FMRMS9TMEOZ","gain","5","","72","H","0","img/none_selected.jpg","0","0","1","0.3886586702","","false","116","0.3886586702","","main_expt","0.2092397162","","0.3626291523","","0.07206247825","","","","","","",""
"215","","bandit","192","448724","0.0-154.0-0.0","41125804","wem/bandit_single","A28FMRMS9TMEOZ","gain","5","","72","H","0","img/none_selected.jpg","0","0","1","0.3837198657","","false","117","0.3837198657","","main_expt","0.1790603663","","0.4005972513","","0.05990892348","","","","","","",""
"113","","bandit","193","450597","0.0-155.0-0.0","41125804","wem/bandit_single","A28FMRMS9TMEOZ","gain","5","","72","H","0","img/none_selected.jpg","0","0","1","0.3831944796","","false","118","0.3831944796","","main_expt","0.2515048449","","0.3994725347","","0.07349038746","","","","","","",""
"175","","bandit","194","452533","0.0-156.0-0.0","41125804","wem/bandit_single","A28FMRMS9TMEOZ","gain","5","","72","H","0","img/none_selected.jpg","1","0","0","0.3200080389","","false","119","0.3200080389","","main_expt","0.2591845625","","0.3690387214","","0.0880416307","","","","","","",""
"256","","bandit","195","454549","0.0-157.0-0.0","41125804","wem/bandit_single","A28FMRMS9TMEOZ","gain","5","","72","H","0","img/none_selected.jpg","0","0","1","0.3498825307","","false","120","0.3498825307","","main_expt","0.2719994365","","0.3553033444","","0.08832912692","","","","","","",""
"160","","bandit","196","456468","0.0-158.0-0.0","41125804","wem/bandit_single","A28FMRMS9TMEOZ","gain","5","","74","J","1","","0","0","1","0.2511552987","","false","121","0.3150568547","","main_expt","0.2511552987","","0.3558993888","","0.08322673311","","","","","","",""
"241","","bandit","197","458470","0.0-159.0-0.0","41125804","wem/bandit_single","A28FMRMS9TMEOZ","gain","5","","75","K","2","","0","0","1","0.3539125929","","false","122","0.332296042","","main_expt","0.246059836","","0.3539125929","","0.1027924146","","","","","","",""
"79","","bandit","198","460308","0.0-160.0-0.0","41125804","wem/bandit_single","A28FMRMS9TMEOZ","gain","5","","76","L","3","","0","0","1","0.1112730508","","false","123","0.3023892254","","main_expt","0.201637063","","0.2756210624","","0.1112730508","","","","","","",""
"385","","bandit","199","462453","0.0-161.0-0.0","41125804","wem/bandit_single","A28FMRMS9TMEOZ","gain","5","","75","K","2","","1","0","0","0.2924451827","","false","124","0.2971441903","","main_expt","0.2424225803","","0.2924451827","","0.1401536705","","","","","","",""
"128","","bandit","200","464341","0.0-162.0-0.0","41125804","wem/bandit_single","A28FMRMS9TMEOZ","gain","5","","75","K","2","","1","0","0","0.3283550958","","false","125","0.2989687221","","main_expt","0.2663511033","","0.3283550958","","0.170676821","","","","","","",""
"529","","bandit","201","466630","0.0-163.0-0.0","41125804","wem/bandit_single","A28FMRMS9TMEOZ","gain","5","","75","K","2","","0","0","1","0.3561713316","","false","126","0.3470717071","","main_expt","0.2214557307","","0.3561713316","","0.2239131839","","","","","","",""
"95","","bandit","202","468484","0.0-164.0-0.0","41125804","wem/bandit_single","A28FMRMS9TMEOZ","gain","5","","75","K","2","","1","0","0","0.3093512765","","false","127","0.3399927284","","main_expt","0.2274120533","","0.3093512765","","0.1828765327","","","","","","",""
"41","","bandit","203","470284","0.0-165.0-0.0","41125804","wem/bandit_single","A28FMRMS9TMEOZ","gain","5","","75","K","2","","1","0","0","0.3682433617","","false","128","0.3039142281","","main_expt","0.2035603578","","0.3682433617","","0.2182936746","","","","","","",""
"224","","bandit","204","472269","0.0-166.0-0.0","41125804","wem/bandit_single","A28FMRMS9TMEOZ","gain","5","","75","K","2","","0","0","1","0.3485983391","","false","129","0.331948561","","main_expt","0.1571118888","","0.3485983391","","0.2206976306","","","","","","",""
"375","","bandit","205","474405","0.0-167.0-0.0","41125804","wem/bandit_single","A28FMRMS9TMEOZ","gain","5","","75","K","2","","1","0","0","0.3907345736","","false","130","0.3512730473","","main_expt","0.08617346002","","0.3907345736","","0.1657145536","","","","","","",""
"56","","bandit","206","476222","0.0-168.0-0.0","41125804","wem/bandit_single","A28FMRMS9TMEOZ","gain","5","","75","K","2","","0","0","1","0.3697977754","","false","131","0.3617370935","","main_expt","0.1196539686","","0.3697977754","","0.2555784817","","","","","","",""
"215","","bandit","207","478196","0.0-169.0-0.0","41125804","wem/bandit_single","A28FMRMS9TMEOZ","gain","5","","75","K","2","","1","0","0","0.3916621277","","false","132","0.3520165756","","main_expt","0.1111227042","","0.3916621277","","0.287060772","","","","","","",""
"153","","bandit","208","480108","0.0-170.0-0.0","41125804","wem/bandit_single","A28FMRMS9TMEOZ","gain","5","","75","K","2","","1","0","0","0.3437671512","","false","133","0.3863989014","","main_expt","0.1223368092","","0.3437671512","","0.238965149","","","","","","",""
"23","","bandit","209","481891","0.0-171.0-0.0","41125804","wem/bandit_single","A28FMRMS9TMEOZ","gain","5","","75","K","2","","0","0","1","0.3636108046","","false","134","0.3391859262","","main_expt","0.1001486166","","0.3636108046","","0.2457001749","","","","","","",""
"242","","bandit","210","483891","0.0-172.0-0.0","41125804","wem/bandit_single","A28FMRMS9TMEOZ","gain","5","","75","K","2","","0","0","1","0.3251377881","","false","135","0.3700101905","","main_expt","0.1179747861","","0.3251377881","","0.2499382958","","","","","","",""
"123","","bandit","211","485774","0.0-173.0-0.0","41125804","wem/bandit_single","A28FMRMS9TMEOZ","gain","5","","75","K","2","","0","0","1","0.3838305716","","false","136","0.3002558999","","main_expt","0.1167775935","","0.3838305716","","0.2553087313","","","","","","",""
"37","","bandit","212","487573","0.0-174.0-0.0","41125804","wem/bandit_single","A28FMRMS9TMEOZ","gain","5","","75","K","2","","0","0","1","0.374624825","","false","137","0.3242357935","","main_expt","0.1459170178","","0.374624825","","0.2517181947","","","","","","",""
"70","","bandit","213","489404","0.0-175.0-0.0","41125804","wem/bandit_single","A28FMRMS9TMEOZ","gain","5","","75","K","2","","1","0","0","0.36903936","","false","138","0.3413485239","","main_expt","0.1403776257","","0.36903936","","0.2531469116","","","","","","",""
"57","","bandit","214","491222","0.0-176.0-0.0","41125804","wem/bandit_single","A28FMRMS9TMEOZ","gain","5","","75","K","2","","0","0","1","0.3757762965","","false","139","0.3172825342","","main_expt","0.1647502834","","0.3757762965","","0.2810662396","","","","","","",""
"200","","bandit","215","493182","0.0-177.0-0.0","41125804","wem/bandit_single","A28FMRMS9TMEOZ","gain","5","","75","K","2","","0","0","1","0.3240643918","","false","140","0.3683668128","","main_expt","0.2135508935","","0.3240643918","","0.2226737135","","","","","","",""
"62","","bandit","216","495005","0.0-178.0-0.0","41125804","wem/bandit_single","A28FMRMS9TMEOZ","gain","5","","75","K","2","","1","0","0","0.342151626","","false","141","0.2976824498","","main_expt","0.2286669107","","0.342151626","","0.2330331678","","","","","","",""
"63","","bandit","217","496829","0.0-179.0-0.0","41125804","wem/bandit_single","A28FMRMS9TMEOZ","gain","5","","75","K","2","","0","0","1","0.3576151309","","false","142","0.3424177608","","main_expt","0.1870561284","","0.3576151309","","0.1833347363","","","","","","",""
"167","","bandit","218","498757","0.0-180.0-0.0","41125804","wem/bandit_single","A28FMRMS9TMEOZ","gain","5","","75","K","2","","0","0","1","0.3075624404","","false","143","0.3367953268","","main_expt","0.220851353","","0.3075624404","","0.2063127673","","","","","","",""
"0","","bandit","219","500518","0.0-181.0-0.0","41125804","wem/bandit_single","A28FMRMS9TMEOZ","gain","5","","75","K","2","","1","0","0","0.3666812205","","false","144","0.3446852995","","main_expt","0.1581776843","","0.3666812205","","0.24054226","","","","","","",""
"142","","bandit","220","502421","0.0-182.0-0.0","41125804","wem/bandit_single","A28FMRMS9TMEOZ","gain","5","","75","K","2","","0","0","1","0.373264243","","false","145","0.3569090532","","main_expt","0.1562309797","","0.373264243","","0.3397881996","","","","","","",""
"1","","bandit","221","504182","0.0-183.0-0.0","41125804","wem/bandit_single","A28FMRMS9TMEOZ","gain","5","","75","K","2","","0","0","1","0.3588440804","","false","146","0.3546691234","","main_expt","0.201277092","","0.3588440804","","0.334771558","","","","","","",""
"174","","bandit","222","506118","0.0-184.0-0.0","41125804","wem/bandit_single","A28FMRMS9TMEOZ","gain","5","","75","K","2","","0","0","1","0.3848898601","","false","147","0.3346193534","","main_expt","0.2014254916","","0.3848898601","","0.3135854179","","","","","","",""
"119","","bandit","223","507996","0.0-185.0-0.0","41125804","wem/bandit_single","A28FMRMS9TMEOZ","gain","5","","75","K","2","","1","0","0","0.4049875018","","false","148","0.3481099765","","main_expt","0.1783642851","","0.4049875018","","0.2601716543","","","","","","",""
"119","","bandit","224","509877","0.0-186.0-0.0","41125804","wem/bandit_single","A28FMRMS9TMEOZ","gain","5","","75","K","2","","1","0","0","0.3644303146","","false","149","0.3473239498","","main_expt","0.2394621943","","0.3644303146","","0.2449203511","","","","","","",""
"62","","bandit","225","511701","0.0-187.0-0.0","41125804","wem/bandit_single","A28FMRMS9TMEOZ","gain","5","","75","K","2","","0","0","1","0.3820895465","","false","150","0.3457177179","","main_expt","0.2009439561","","0.3820895465","","0.2679682766","","","","","","",""
"207","","bandit","226","513670","0.0-188.0-0.0","41125804","wem/bandit_single","A28FMRMS9TMEOZ","gain","5","","75","K","2","","0","0","1","0.3715335383","","false","151","0.3131990842","","main_expt","0.1783838281","","0.3715335383","","0.2811524043","","","","","","",""
"104","","bandit","227","515534","0.0-189.0-0.0","41125804","wem/bandit_single","A28FMRMS9TMEOZ","gain","5","","75","K","2","","1","0","0","0.3270427106","","false","152","0.2632978047","","main_expt","0.2357029213","","0.3270427106","","0.2320671432","","","","","","",""
"29","","bandit","228","517322","0.0-190.0-0.0","41125804","wem/bandit_single","A28FMRMS9TMEOZ","gain","5","","75","K","2","","0","0","1","0.3117301263","","false","153","0.2782579121","","main_expt","0.1701289497","","0.3117301263","","0.2655606304","","","","","","",""
"155","","bandit","229","519237","0.0-191.0-0.0","41125804","wem/bandit_single","A28FMRMS9TMEOZ","gain","5","","75","K","2","","0","0","1","0.2860829053","","false","154","0.2212449789","","main_expt","0.1613436629","","0.2860829053","","0.3485425359","","","","","","",""
"150","","bandit","230","521149","0.0-192.0-0.0","41125804","wem/bandit_single","A28FMRMS9TMEOZ","gain","5","","75","K","2","","0","0","1","0.2412247214","","false","155","0.1944586175","","main_expt","0.1419994917","","0.2412247214","","0.3302543019","","","","","","",""
"159","","bandit","231","523069","0.0-193.0-0.0","41125804","wem/bandit_single","A28FMRMS9TMEOZ","gain","5","","75","K","2","","1","0","0","0.2505935016","","false","156","0.2035424954","","main_expt","0.2076402971","","0.2505935016","","0.2696600886","","","","","","",""
"72","","bandit","232","524900","0.0-194.0-0.0","41125804","wem/bandit_single","A28FMRMS9TMEOZ","gain","5","","75","K","2","","1","0","0","0.2677381881","","false","157","0.2039725598","","main_expt","0.2253974945","","0.2677381881","","0.3095791192","","","","","","",""
"248","","bandit","233","526909","0.0-195.0-0.0","41125804","wem/bandit_single","A28FMRMS9TMEOZ","gain","5","","75","K","2","","1","0","0","0.228073272","","false","158","0.1610126092","","main_expt","0.3173726248","","0.228073272","","0.3427908005","","","","","","",""
"111","","bandit","234","528781","0.0-196.0-0.0","41125804","wem/bandit_single","A28FMRMS9TMEOZ","gain","5","","75","K","2","","0","0","1","0.2181731157","","false","159","0.2244023171","","main_expt","0.2929560982","","0.2181731157","","0.3459652535","","","","","","",""
"240","","bandit","235","530781","0.0-197.0-0.0","41125804","wem/bandit_single","A28FMRMS9TMEOZ","gain","5","","75","K","2","","0","0","1","0.2483475363","","false","160","0.2550463449","","main_expt","0.2599130114","","0.2483475363","","0.3277363444","","","","","","",""
"63","","bandit","236","532604","0.0-198.0-0.0","41125804","wem/bandit_single","A28FMRMS9TMEOZ","gain","5","","75","K","2","","0","0","1","0.2287268475","","false","161","0.1988840894","","main_expt","0.3006759107","","0.2287268475","","0.3043896987","","","","","","",""
"167","","bandit","237","534533","0.0-199.0-0.0","41125804","wem/bandit_single","A28FMRMS9TMEOZ","gain","5","","75","K","2","","0","0","1","0.2118340618","","false","162","0.3208820199","","main_expt","0.3359074288","","0.2118340618","","0.3013302692","","","","","","",""
"71","","bandit","238","536365","0.0-200.0-0.0","41125804","wem/bandit_single","A28FMRMS9TMEOZ","gain","5","","75","K","2","","0","0","1","0.2467500447","","false","163","0.3416291965","","main_expt","0.3248254093","","0.2467500447","","0.3359404133","","","","","","",""
"502","","bandit","239","538629","0.0-201.0-0.0","41125804","wem/bandit_single","A28FMRMS9TMEOZ","gain","5","","75","K","2","","0","0","1","0.2745506496","","false","164","0.3531125991","","main_expt","0.2480447101","","0.2745506496","","0.3449747326","","","","","","",""
"198","","bandit","240","540588","0.0-202.0-0.0","41125804","wem/bandit_single","A28FMRMS9TMEOZ","gain","5","","75","K","2","","1","0","0","0.2893970703","","false","165","0.3329293945","","main_expt","0.2291527929","","0.2893970703","","0.3388680014","","","","","","",""
"0","","bandit","241","542350","0.0-203.0-0.0","41125804","wem/bandit_single","A28FMRMS9TMEOZ","gain","5","","75","K","2","","0","0","1","0.326956194","","false","166","0.368824295","","main_expt","0.2408823094","","0.326956194","","0.3565097084","","","","","","",""
"13","","bandit","242","544125","0.0-204.0-0.0","41125804","wem/bandit_single","A28FMRMS9TMEOZ","gain","5","","75","K","2","","0","0","1","0.2562538154","","false","167","0.3528049135","","main_expt","0.1852653973","","0.2562538154","","0.3807311224","","","","","","",""
"47","","bandit","243","545932","0.0-205.0-0.0","41125804","wem/bandit_single","A28FMRMS9TMEOZ","gain","5","","75","K","2","","0","0","1","0.259707785","","false","168","0.3530437727","","main_expt","0.1123614246","","0.259707785","","0.4157533759","","","","","","",""
"71","","bandit","244","547765","0.0-206.0-0.0","41125804","wem/bandit_single","A28FMRMS9TMEOZ","gain","5","","75","K","2","","0","0","1","0.305903145","","false","169","0.3619584092","","main_expt","0.1289140747","","0.305903145","","0.3990846218","","","","","","",""
"47","","bandit","245","549573","0.0-207.0-0.0","41125804","wem/bandit_single","A28FMRMS9TMEOZ","gain","5","","75","K","2","","1","0","0","0.2780458482","","false","170","0.3851568221","","main_expt","0.1082073398","","0.2780458482","","0.3840903594","","","","","","",""
"111","","bandit","246","551445","0.0-208.0-0.0","41125804","wem/bandit_single","A28FMRMS9TMEOZ","gain","5","","75","K","2","","1","0","0","0.2754425626","","false","171","0.369821393","","main_expt","0.09560917383","","0.2754425626","","0.4279034191","","","","","","",""
"136","","bandit","247","553341","0.0-209.0-0.0","41125804","wem/bandit_single","A28FMRMS9TMEOZ","gain","5","","75","K","2","","1","0","0","0.2801866594","","false","172","0.3238500873","","main_expt","0.09002122866","","0.2801866594","","0.4277210969","","","","","","",""
"239","","bandit","248","555342","0.0-210.0-0.0","41125804","wem/bandit_single","A28FMRMS9TMEOZ","gain","5","","75","K","2","","0","0","1","0.2903169923","","false","173","0.371178543","","main_expt","0.06359212806","","0.2903169923","","0.4177409887","","","","","","",""
"86","","bandit","249","557189","0.0-211.0-0.0","41125804","wem/bandit_single","A28FMRMS9TMEOZ","gain","5","","75","K","2","","0","0","1","0.3135769273","","false","174","0.364968973","","main_expt","0.07897407323","","0.3135769273","","0.4149019111","","","","","","",""
"191","","bandit","250","559141","0.0-212.0-0.0","41125804","wem/bandit_single","A28FMRMS9TMEOZ","gain","5","","75","K","2","","1","0","0","0.3205535054","","false","175","0.4172857806","","main_expt","0.05374651045","","0.3205535054","","0.3890834012","","","","","","",""
"78","","bandit","251","560981","0.0-213.0-0.0","41125804","wem/bandit_single","A28FMRMS9TMEOZ","gain","5","","75","K","2","","0","0","1","0.3548310205","","false","176","0.3931137538","","main_expt","0.05298342689","","0.3548310205","","0.3775492635","","","","","","",""
"48","","bandit","252","562789","0.0-214.0-0.0","41125804","wem/bandit_single","A28FMRMS9TMEOZ","gain","5","","75","K","2","","1","0","0","0.3374760958","","false","177","0.4118750583","","main_expt","0.04117570961","","0.3374760958","","0.2763311933","","","","","","",""
"159","","bandit","253","564708","0.0-215.0-0.0","41125804","wem/bandit_single","A28FMRMS9TMEOZ","gain","5","","75","K","2","","0","0","1","0.3045899674","","false","178","0.4019835374","","main_expt","0.0682688674","","0.3045899674","","0.2117274321","","","","","","",""
"138","","bandit","254","566604","0.0-216.0-0.0","41125804","wem/bandit_single","A28FMRMS9TMEOZ","gain","5","","75","K","2","","1","0","0","0.2701203387","","false","179","0.3943962464","","main_expt","0.0699035784","","0.2701203387","","0.2071796451","","","","","","",""
"16","","bandit","255","568381","0.0-217.0-0.0","41125804","wem/bandit_single","A28FMRMS9TMEOZ","gain","5","","75","K","2","","0","0","1","0.3010541938","","false","180","0.3879360396","","main_expt","0.08066818268","","0.3010541938","","0.2237333922","","","","","","",""
"285","","bandit","256","570426","0.0-218.0-0.0","41125804","wem/bandit_single","A28FMRMS9TMEOZ","gain","5","","75","K","2","","1","0","0","0.2685782119","","false","181","0.3516035239","","main_expt","0.06418194011","","0.2685782119","","0.1462221579","","","","","","",""
"427","","bandit","257","572613","0.0-219.0-0.0","41125804","wem/bandit_single","A28FMRMS9TMEOZ","gain","5","","75","K","2","","0","0","1","0.2333395507","","false","182","0.3544849886","","main_expt","0.05948248489","","0.2333395507","","0.1745001591","","","","","","",""
"63","","bandit","258","574437","0.0-220.0-0.0","41125804","wem/bandit_single","A28FMRMS9TMEOZ","gain","5","","75","K","2","","1","0","0","0.1817222791","","false","183","0.3239224462","","main_expt","0.04249263759","","0.1817222791","","0.1840457003","","","","","","",""
"144","","bandit","259","576341","0.0-221.0-0.0","41125804","wem/bandit_single","A28FMRMS9TMEOZ","gain","5","","75","K","2","","0","0","1","0.1946528514","","false","184","0.3437575642","","main_expt","0.05174265856","","0.1946528514","","0.1684271963","","","","","","",""
"200","","bandit","260","578301","0.0-222.0-0.0","41125804","wem/bandit_single","A28FMRMS9TMEOZ","gain","5","","75","K","2","","0","0","1","0.1998780622","","false","185","0.3584643827","","main_expt","0.04700335152","","0.1998780622","","0.1820742113","","","","","","",""
"135","","bandit","261","580195","0.0-223.0-0.0","41125804","wem/bandit_single","A28FMRMS9TMEOZ","gain","5","","75","K","2","","0","0","1","0.2674223733","","false","186","0.3968797112","","main_expt","0.0651928762","","0.2674223733","","0.2156320388","","","","","","",""
"162","","bandit","262","582117","0.0-224.0-0.0","41125804","wem/bandit_single","A28FMRMS9TMEOZ","gain","5","","75","K","2","","0","0","1","0.2625155344","","false","187","0.3851297664","","main_expt","0.1006801651","","0.2625155344","","0.2805416817","","","","","","",""
"152","","bandit","263","584029","0.0-225.0-0.0","41125804","wem/bandit_single","A28FMRMS9TMEOZ","gain","5","","75","K","2","","1","0","0","0.2428845682","","false","188","0.3861445831","","main_expt","0.1650650448","","0.2428845682","","0.255869765","","","","","","",""
"0","","bandit","264","585791","0.0-226.0-0.0","41125804","wem/bandit_single","A28FMRMS9TMEOZ","gain","5","","75","K","2","","0","0","1","0.2017656849","","false","189","0.3904601473","","main_expt","0.1545550266","","0.2017656849","","0.1757761595","","","","","","",""
"372","","bandit","265","587922","0.0-227.0-0.0","41125804","wem/bandit_single","A28FMRMS9TMEOZ","gain","5","","75","K","2","","0","0","1","0.2163316772","","false","190","0.430863334","","main_expt","0.187471884","","0.2163316772","","0.1346649685","","","","","","",""
"96","","bandit","266","589781","0.0-228.0-0.0","41125804","wem/bandit_single","A28FMRMS9TMEOZ","gain","5","","75","K","2","","0","0","1","0.2055350187","","false","191","0.4113524325","","main_expt","0.1611513775","","0.2055350187","","0.1132332922","","","","","","",""
"6","","bandit","267","591548","0.0-229.0-0.0","41125804","wem/bandit_single","A28FMRMS9TMEOZ","gain","5","","75","K","2","","0","0","1","0.1895719249","","false","192","0.4039805352","","main_expt","0.1777959463","","0.1895719249","","0.1208943264","","","","","","",""
"31","","bandit","268","593341","0.0-230.0-0.0","41125804","wem/bandit_single","A28FMRMS9TMEOZ","gain","5","","75","K","2","","0","0","1","0.1748526562","","false","193","0.4245567291","","main_expt","0.1871499601","","0.1748526562","","0.1939792015","","","","","","",""
"38","","bandit","269","595141","0.0-231.0-0.0","41125804","wem/bandit_single","A28FMRMS9TMEOZ","gain","5","","75","K","2","","0","0","1","0.1474168317","","false","194","0.3947968319","","main_expt","0.1876497678","","0.1474168317","","0.16637132","","","","","","",""
"0","","bandit","270","596902","0.0-232.0-0.0","41125804","wem/bandit_single","A28FMRMS9TMEOZ","gain","5","","75","K","2","","0","0","1","0.192031623","","false","195","0.4142863389","","main_expt","0.1091892437","","0.192031623","","0.1730885183","","","","","","",""
"23","","bandit","271","598684","0.0-233.0-0.0","41125804","wem/bandit_single","A28FMRMS9TMEOZ","gain","5","","75","K","2","","0","0","1","0.2058404012","","false","196","0.4233691667","","main_expt","0.1617114059","","0.2058404012","","0.215114198","","","","","","",""
"38","","bandit","272","600485","0.0-234.0-0.0","41125804","wem/bandit_single","A28FMRMS9TMEOZ","gain","5","","75","K","2","","0","0","1","0.2424759238","","false","197","0.3910113043","","main_expt","0.1704243662","","0.2424759238","","0.2080771369","","","","","","",""
"215","","bandit","273","602461","0.0-235.0-0.0","41125804","wem/bandit_single","A28FMRMS9TMEOZ","gain","5","","75","K","2","","0","0","1","0.2209877853","","false","198","0.4036427912","","main_expt","0.1547158464","","0.2209877853","","0.2349601263","","","","","","",""
"38","","bandit","274","604260","0.0-236.0-0.0","41125804","wem/bandit_single","A28FMRMS9TMEOZ","gain","5","","75","K","2","","1","0","0","0.2167038869","","false","199","0.4211573591","","main_expt","0.1871633293","","0.2167038869","","0.2603506135","","","","","","",""
"0","","bandit","275","606021","0.0-237.0-0.0","41125804","wem/bandit_single","A28FMRMS9TMEOZ","gain","5","","75","K","2","","0","0","1","0.1923465651","","false","200","0.4279321675","","main_expt","0.2044595191","","0.1923465651","","0.3238520586","","","","","","",""
"399","","bandit","276","608181","0.0-238.0-0.0","41125804","wem/bandit_single","A28FMRMS9TMEOZ","gain","5","","75","K","2","","0","0","1","0.2292217674","","false","201","0.4164542871","","main_expt","0.2260370877","","0.2292217674","","0.3006478669","","","","","","",""
"128","","bandit","277","610068","0.0-239.0-0.0","41125804","wem/bandit_single","A28FMRMS9TMEOZ","gain","5","","75","K","2","","0","0","1","0.2458551357","","false","202","0.4304584766","","main_expt","0.2543806879","","0.2458551357","","0.2728804465","","","","","","",""
"48","","bandit","278","611878","0.0-240.0-0.0","41125804","wem/bandit_single","A28FMRMS9TMEOZ","gain","5","","75","K","2","","1","0","0","0.2388066436","","false","203","0.4301844238","","main_expt","0.248330882","","0.2388066436","","0.3070028205","","","","","","",""
"278","","bandit","279","613917","0.0-241.0-0.0","41125804","wem/bandit_single","A28FMRMS9TMEOZ","gain","5","","75","K","2","","0","0","1","0.2087278664","","false","204","0.3900297032","","main_expt","0.272777159","","0.2087278664","","0.2937269753","","","","","","",""
"25","","bandit","280","615702","0.0-242.0-0.0","41125804","wem/bandit_single","A28FMRMS9TMEOZ","gain","5","","75","K","2","","0","0","1","0.1498191458","","false","205","0.3928583167","","main_expt","0.3434557908","","0.1498191458","","0.2378968556","","","","","","",""
"167","","bandit","281","617629","0.0-243.0-0.0","41125804","wem/bandit_single","A28FMRMS9TMEOZ","gain","5","","75","K","2","","1","0","0","0.1173401749","","false","206","0.4066069638","","main_expt","0.3670462125","","0.1173401749","","0.2621799838","","","","","","",""
"94","","bandit","282","619484","0.0-244.0-0.0","41125804","wem/bandit_single","A28FMRMS9TMEOZ","gain","5","","75","K","2","","0","0","1","0.131911627","","false","207","0.3973448409","","main_expt","0.3762900352","","0.131911627","","0.2751860601","","","","","","",""
"57","","bandit","283","621300","0.0-245.0-0.0","41125804","wem/bandit_single","A28FMRMS9TMEOZ","gain","5","","75","K","2","","0","0","1","0.121614138","","false","208","0.4149937731","","main_expt","0.3619644859","","0.121614138","","0.2449975294","","","","","","",""
"334","","bandit","284","623396","0.0-246.0-0.0","41125804","wem/bandit_single","A28FMRMS9TMEOZ","gain","5","","75","K","2","","0","0","1","0.1301565943","","false","209","0.4174336027","","main_expt","0.3487947413","","0.1301565943","","0.2260792918","","","","","","",""
"74","","bandit","285","625230","0.0-247.0-0.0","41125804","wem/bandit_single","A28FMRMS9TMEOZ","gain","5","","75","K","2","","0","0","1","0.09603783024","","false","210","0.3969791934","","main_expt","0.3019817091","","0.09603783024","","0.2506868781","","","","","","",""
"86","","bandit","286","627076","0.0-248.0-0.0","41125804","wem/bandit_single","A28FMRMS9TMEOZ","gain","5","","75","K","2","","0","0","1","0.09853312819","","false","211","0.4109689779","","main_expt","0.3322841588","","0.09853312819","","0.2364470615","","","","","","",""
"175","","bandit","287","629012","0.0-249.0-0.0","41125804","wem/bandit_single","A28FMRMS9TMEOZ","gain","5","","75","K","2","","0","0","1","0.08497623984","","false","212","0.3870841375","","main_expt","0.3257981887","","0.08497623984","","0.2097336517","","","","","","",""
"23","","bandit","288","630797","0.0-250.0-0.0","41125804","wem/bandit_single","A28FMRMS9TMEOZ","gain","5","","75","K","2","","0","0","1","0.0690536233","","false","213","0.3702451026","","main_expt","0.299150427","","0.0690536233","","0.223293056","","","","","","",""
"80","","bandit","289","632638","0.0-251.0-0.0","41125804","wem/bandit_single","A28FMRMS9TMEOZ","gain","5","","75","K","2","","0","0","1","0.05607702273","","false","214","0.4052473305","","main_expt","0.2841516905","","0.05607702273","","0.2797804449","","","","","","",""
"194","","bandit","290","634591","0.0-252.0-0.0","41125804","wem/bandit_single","A28FMRMS9TMEOZ","gain","5","","75","K","2","","0","0","1","0.0612243178","","false","215","0.4003088938","","main_expt","0.2421432752","","0.0612243178","","0.3307304153","","","","","","",""
"109","","bandit","291","636460","0.0-253.0-0.0","41125804","wem/bandit_single","A28FMRMS9TMEOZ","gain","5","","75","K","2","","0","0","1","0.03010565971","","false","216","0.4087675299","","main_expt","0.1705338946","","0.03010565971","","0.3341057131","","","","","","",""
"159","","bandit","292","638382","0.0-254.0-0.0","41125804","wem/bandit_single","A28FMRMS9TMEOZ","gain","5","","72","H","0","img/none_selected.jpg","0","0","1","0.3947963157","","false","217","0.3947963157","","main_expt","0.219014384","","0.05034411961","","0.3086359365","","","","","","",""
"86","","bandit","293","640228","0.0-255.0-0.0","41125804","wem/bandit_single","A28FMRMS9TMEOZ","gain","5","","72","H","0","img/none_selected.jpg","1","0","0","0.4200256015","","false","218","0.4200256015","","main_expt","0.2135739311","","0.03278593655","","0.370061562","","","","","","",""
"71","","bandit","294","642061","0.0-256.0-0.0","41125804","wem/bandit_single","A28FMRMS9TMEOZ","gain","5","","72","H","0","img/none_selected.jpg","0","0","1","0.3845181055","","false","219","0.3845181055","","main_expt","0.1719688778","","0.02968551415","","0.3425962001","","","","","","",""
"159","","bandit","295","643981","0.0-257.0-0.0","41125804","wem/bandit_single","A28FMRMS9TMEOZ","gain","5","","72","H","0","img/none_selected.jpg","0","0","1","0.3200105211","","false","220","0.3200105211","","main_expt","0.1017501311","","0.03392365282","","0.3200162658","","","","","","",""
"271","","bandit","296","646012","0.0-258.0-0.0","41125804","wem/bandit_single","A28FMRMS9TMEOZ","gain","5","","72","H","0","img/none_selected.jpg","0","0","1","0.297673658","","false","221","0.297673658","","main_expt","0.1121412156","","0.03139192041","","0.3209906652","","","","","","",""
"162","","bandit","297","647934","0.0-259.0-0.0","41125804","wem/bandit_single","A28FMRMS9TMEOZ","gain","5","","75","K","2","","0","0","1","0.02842311261","","false","222","0.2963768597","","main_expt","0.1091313961","","0.02842311261","","0.3013890172","","","","","","",""
"17","","bandit","298","649710","0.0-260.0-0.0","41125804","wem/bandit_single","A28FMRMS9TMEOZ","gain","5","","72","H","0","img/none_selected.jpg","0","0","1","0.2927297303","","false","223","0.2927297303","","main_expt","0.09983876589","","0.0287580325","","0.2614115174","","","","","","",""
"104","","bandit","299","651574","0.0-261.0-0.0","41125804","wem/bandit_single","A28FMRMS9TMEOZ","gain","5","","72","H","0","img/none_selected.jpg","0","0","1","0.2751498343","","false","224","0.2751498343","","main_expt","0.1018501693","","0.02300930076","","0.2490141009","","","","","","",""
"110","","bandit","300","653445","0.0-262.0-0.0","41125804","wem/bandit_single","A28FMRMS9TMEOZ","gain","5","","72","H","0","img/none_selected.jpg","1","0","0","0.2377617529","","false","225","0.2377617529","","main_expt","0.1222407881","","0.02989568437","","0.263459589","","","","","","",""
"189","","bandit","301","655397","0.0-263.0-0.0","41125804","wem/bandit_single","A28FMRMS9TMEOZ","gain","5","","72","H","0","img/none_selected.jpg","0","0","1","0.2137681397","","false","226","0.2137681397","","main_expt","0.1332846515","","0.04233903912","","0.2828917593","","","","","","",""
"119","","bandit","302","657277","0.0-264.0-0.0","41125804","wem/bandit_single","A28FMRMS9TMEOZ","gain","5","","72","H","0","img/none_selected.jpg","1","0","0","0.1830623781","","false","227","0.1830623781","","main_expt","0.1606351014","","0.0317259717","","0.2635957152","","","","","","",""
"110","","bandit","303","659149","0.0-265.0-0.0","41125804","wem/bandit_single","A28FMRMS9TMEOZ","gain","5","","72","H","0","img/none_selected.jpg","0","0","1","0.1665925442","","false","228","0.1665925442","","main_expt","0.1292420082","","0.04253553249","","0.259674247","","","","","","",""
"85","","bandit","304","660996","0.0-266.0-0.0","41125804","wem/bandit_single","A28FMRMS9TMEOZ","gain","5","","72","H","0","img/none_selected.jpg","1","0","0","0.2136718414","","false","229","0.2136718414","","main_expt","0.1281284096","","0.06761640147","","0.2737318667","","","","","","",""
"55","","bandit","305","662812","0.0-267.0-0.0","41125804","wem/bandit_single","A28FMRMS9TMEOZ","gain","5","","72","H","0","img/none_selected.jpg","0","0","1","0.2435987791","","false","230","0.2435987791","","main_expt","0.0791291566","","0.08572380951","","0.3195589589","","","","","","",""
"217","","bandit","306","664790","0.0-268.0-0.0","41125804","wem/bandit_single","A28FMRMS9TMEOZ","gain","5","","72","H","0","img/none_selected.jpg","1","0","0","0.2566168121","","false","231","0.2566168121","","main_expt","0.10920453","","0.07272236896","","0.3304270948","","","","","","",""
"191","","bandit","307","666742","0.0-269.0-0.0","41125804","wem/bandit_single","A28FMRMS9TMEOZ","gain","5","","72","H","0","img/none_selected.jpg","1","0","0","0.2152843379","","false","232","0.2152843379","","main_expt","0.167261158","","0.0735724775","","0.2806951239","","","","","","",""
"254","","bandit","308","668757","0.0-270.0-0.0","41125804","wem/bandit_single","A28FMRMS9TMEOZ","gain","5","","72","H","0","img/none_selected.jpg","0","0","1","0.2361400262","","false","233","0.2361400262","","main_expt","0.1078973024","","0.06465645962","","0.3115261247","","","","","","",""
"78","","bandit","309","670596","0.0-271.0-0.0","41125804","wem/bandit_single","A28FMRMS9TMEOZ","gain","5","","72","H","0","img/none_selected.jpg","0","0","1","0.2575526348","","false","234","0.2575526348","","main_expt","0.2366146445","","0.04279198238","","0.3001083946","","","","","","",""
"144","","bandit","310","672500","0.0-272.0-0.0","41125804","wem/bandit_single","A28FMRMS9TMEOZ","gain","5","","72","H","0","img/none_selected.jpg","0","0","1","0.2828430508","","false","235","0.2828430508","","main_expt","0.2393051992","","0.06672803397","","0.2768541542","","","","","","",""
"10","","bandit","311","674270","0.0-273.0-0.0","41125804","wem/bandit_single","A28FMRMS9TMEOZ","gain","5","","72","H","0","img/none_selected.jpg","0","0","1","0.2860482958","","false","236","0.2860482958","","main_expt","0.2976693115","","0.07100342573","","0.332362789","","","","","","",""
"78","","bandit","312","676110","0.0-274.0-0.0","41125804","wem/bandit_single","A28FMRMS9TMEOZ","gain","5","","72","H","0","img/none_selected.jpg","0","0","1","0.2783023894","","false","237","0.2783023894","","main_expt","0.2674299269","","0.03680589181","","0.3408832027","","","","","","",""
"278","","bandit","313","678149","0.0-275.0-0.0","41125804","wem/bandit_single","A28FMRMS9TMEOZ","gain","5","","72","H","0","img/none_selected.jpg","0","0","1","0.2644861187","","false","238","0.2644861187","","main_expt","0.2647207175","","0.02733344458","","0.362117859","","","","","","",""
"105","","bandit","314","680014","0.0-276.0-0.0","41125804","wem/bandit_single","A28FMRMS9TMEOZ","gain","5","","72","H","0","img/none_selected.jpg","0","0","1","0.3186717024","","false","239","0.3186717024","","main_expt","0.1936342125","","0.01831396817","","0.3574250999","","","","","","",""
"21","","bandit","315","681797","0.0-277.0-0.0","41125804","wem/bandit_single","A28FMRMS9TMEOZ","gain","5","","72","H","0","img/none_selected.jpg","0","0","1","0.3360375491","","false","240","0.3360375491","","main_expt","0.2382432393","","0.01383764992","","0.290436356","","","","","","",""
"53","","bandit","316","683613","0.0-278.0-0.0","41125804","wem/bandit_single","A28FMRMS9TMEOZ","gain","5","","72","H","0","img/none_selected.jpg","0","0","1","0.3386213473","","false","241","0.3386213473","","main_expt","0.2984572788","","0.0277662638","","0.3414967811","","","","","","",""
"245","","bandit","317","685621","0.0-279.0-0.0","41125804","wem/bandit_single","A28FMRMS9TMEOZ","gain","5","","72","H","0","img/none_selected.jpg","1","0","0","0.3523037021","","false","242","0.3523037021","","main_expt","0.2927867707","","0.04064120638","","0.3778608287","","","","","","",""
"198","","bandit","318","687581","0.0-280.0-0.0","41125804","wem/bandit_single","A28FMRMS9TMEOZ","gain","5","","72","H","0","img/none_selected.jpg","0","0","1","0.360543067","","false","243","0.360543067","","main_expt","0.2870713985","","0.04640587852","","0.3552630766","","","","","","",""
"110","","bandit","319","689454","0.0-281.0-0.0","41125804","wem/bandit_single","A28FMRMS9TMEOZ","gain","5","","72","H","0","img/none_selected.jpg","0","0","1","0.3728786331","","false","244","0.3728786331","","main_expt","0.2882437102","","0.06567084485","","0.3538674815","","","","","","",""
"180","","bandit","320","691396","0.0-282.0-0.0","41125804","wem/bandit_single","A28FMRMS9TMEOZ","gain","5","","72","H","0","img/none_selected.jpg","0","0","1","0.3736501537","","false","245","0.3736501537","","main_expt","0.3125457984","","0.1069305933","","0.3592745223","","","","","","",""
"17","","bandit","321","693174","0.0-283.0-0.0","41125804","wem/bandit_single","A28FMRMS9TMEOZ","gain","5","","72","H","0","img/none_selected.jpg","0","0","1","0.3880614915","","false","246","0.3880614915","","main_expt","0.2949331023","","0.07318543846","","0.3784559109","","","","","","",""
"453","","bandit","322","695390","0.0-284.0-0.0","41125804","wem/bandit_single","A28FMRMS9TMEOZ","gain","5","","72","H","0","img/none_selected.jpg","0","0","1","0.3906355486","","false","247","0.3906355486","","main_expt","0.3557375168","","0.06866628372","","0.3871101473","","","","","","",""
"485","","bandit","323","697636","0.0-285.0-0.0","41125804","wem/bandit_single","A28FMRMS9TMEOZ","gain","5","","72","H","0","img/none_selected.jpg","0","0","1","0.3713177951","","false","248","0.3713177951","","main_expt","0.3190142928","","0.06101724449","","0.366594806","","","","","","",""
"167","","bandit","324","699564","0.0-286.0-0.0","41125804","wem/bandit_single","A28FMRMS9TMEOZ","gain","5","","72","H","0","img/none_selected.jpg","0","0","1","0.2887643678","","false","249","0.2887643678","","main_expt","0.2946857214","","0.07132197128","","0.35265903","","","","","","",""
"182","","bandit","325","701508","0.0-287.0-0.0","41125804","wem/bandit_single","A28FMRMS9TMEOZ","gain","5","","72","H","0","img/none_selected.jpg","0","0","1","0.3503459773","","false","250","0.3503459773","","main_expt","0.285145352","","0.04991986053","","0.3725690128","","","","","","",""
"221","","bandit","326","703493","0.0-288.0-0.0","41125804","wem/bandit_single","A28FMRMS9TMEOZ","gain","5","","74","J","1","","0","0","1","0.2572530626","","false","251","0.3900307368","","main_expt","0.2572530626","","0.087584861","","0.3516217444","","","","","","",""
"470","","bandit","327","705726","0.0-289.0-0.0","41125804","wem/bandit_single","A28FMRMS9TMEOZ","gain","5","","75","K","2","","1","0","0","0.1089760904","","false","252","0.3998204568","","main_expt","0.206609756","","0.1089760904","","0.3478664427","","","","","","",""
"30","","bandit","328","707518","0.0-290.0-0.0","41125804","wem/bandit_single","A28FMRMS9TMEOZ","gain","5","","75","K","2","","0","0","1","0.1389783028","","false","253","0.4062214202","","main_expt","0.2526850855","","0.1389783028","","0.2845216812","","","","","","",""
"84","","bandit","329","709362","0.0-291.0-0.0","41125804","wem/bandit_single","A28FMRMS9TMEOZ","gain","5","","75","K","2","","0","0","1","0.1438582992","","false","254","0.434330363","","main_expt","0.2143143283","","0.1438582992","","0.3395138109","","","","","","",""
"160","","bandit","330","711284","0.0-292.0-0.0","41125804","wem/bandit_single","A28FMRMS9TMEOZ","gain","5","","72","H","0","img/none_selected.jpg","0","0","1","0.463361135","","false","255","0.463361135","","main_expt","0.2330346229","","0.1341592381","","0.284072963","","","","","","",""
"245","","bandit","331","713292","0.0-293.0-0.0","41125804","wem/bandit_single","A28FMRMS9TMEOZ","gain","5","","72","H","0","img/none_selected.jpg","0","0","1","0.4513325925","","false","256","0.4513325925","","main_expt","0.1707848091","","0.1539827047","","0.2791977035","","","","","","",""
"30","","bandit","332","715085","0.0-294.0-0.0","41125804","wem/bandit_single","A28FMRMS9TMEOZ","gain","5","","72","H","0","img/none_selected.jpg","1","0","0","0.4493477618","","false","257","0.4493477618","","main_expt","0.204762461","","0.1067893116","","0.2827618753","","","","","","",""
"173","","bandit","333","717021","0.0-295.0-0.0","41125804","wem/bandit_single","A28FMRMS9TMEOZ","gain","5","","72","H","0","img/none_selected.jpg","0","0","1","0.4586876348","","false","258","0.4586876348","","main_expt","0.1678630312","","0.05021154971","","0.2367173663","","","","","","",""
"252","","bandit","334","719037","0.0-296.0-0.0","41125804","wem/bandit_single","A28FMRMS9TMEOZ","gain","5","","72","H","0","img/none_selected.jpg","1","0","0","0.45931789","","false","259","0.45931789","","main_expt","0.1739170557","","0.04357518244","","0.2715647874","","","","","","",""
"102","","bandit","335","720899","0.0-297.0-0.0","41125804","wem/bandit_single","A28FMRMS9TMEOZ","gain","5","","72","H","0","img/none_selected.jpg","0","0","1","0.4583289396","","false","260","0.4583289396","","main_expt","0.1848885371","","0.05606835832","","0.2310951927","","","","","","",""
"10","","bandit","336","722670","0.0-298.0-0.0","41125804","wem/bandit_single","A28FMRMS9TMEOZ","gain","5","","72","H","0","img/none_selected.jpg","0","0","1","0.4470277171","","false","261","0.4470277171","","main_expt","0.2258440324","","0.05035703518","","0.2297288133","","","","","","",""
"100","","bandit","337","724533","0.0-299.0-0.0","41125804","wem/bandit_single","A28FMRMS9TMEOZ","gain","5","","72","H","0","img/none_selected.jpg","1","0","0","0.457772586","","false","262","0.457772586","","main_expt","0.2167220908","","0.04352905051","","0.2072969611","","","","","","",""
"413","","bandit","338","726709","0.0-300.0-0.0","41125804","wem/bandit_single","A28FMRMS9TMEOZ","gain","5","","75","K","2","","0","0","1","0.0373968872","","false","263","0.417694616","","main_expt","0.2118780444","","0.0373968872","","0.2427077321","","","","","","",""
"133","","bandit","339","728606","0.0-301.0-0.0","41125804","wem/bandit_single","A28FMRMS9TMEOZ","gain","5","","72","H","0","img/none_selected.jpg","0","0","1","0.4214939516","","false","264","0.4214939516","","main_expt","0.1870566281","","0.04440415955","","0.3052561595","","","","","","",""
"117","","bandit","340","730485","0.0-302.0-0.0","41125804","wem/bandit_single","A28FMRMS9TMEOZ","gain","5","","72","H","0","img/none_selected.jpg","1","0","0","0.413465883","","false","265","0.413465883","","main_expt","0.1706127143","","0.0139225964","","0.3000319327","","","","","","",""
"86","","bandit","341","732333","0.0-303.0-0.0","41125804","wem/bandit_single","A28FMRMS9TMEOZ","gain","5","","72","H","0","img/none_selected.jpg","1","0","0","0.4116424673","","false","266","0.4116424673","","main_expt","0.1693140566","","0.01259799349","","0.3134404232","","","","","","",""
"150","","bandit","342","734245","0.0-304.0-0.0","41125804","wem/bandit_single","A28FMRMS9TMEOZ","gain","5","","72","H","0","img/none_selected.jpg","1","0","0","0.3863145418","","false","267","0.3863145418","","main_expt","0.1753800763","","0.00740451457","","0.3066387991","","","","","","",""
"61","","bandit","343","736068","0.0-305.0-0.0","41125804","wem/bandit_single","A28FMRMS9TMEOZ","gain","5","","72","H","0","img/none_selected.jpg","1","0","0","0.4265221664","","false","268","0.4265221664","","main_expt","0.1918786918","","0.004693585052","","0.3058482798","","","","","","",""
"294","","bandit","344","738125","0.0-306.0-0.0","41125804","wem/bandit_single","A28FMRMS9TMEOZ","gain","5","","72","H","0","img/none_selected.jpg","1","0","0","0.4515898034","","false","269","0.4515898034","","main_expt","0.1999989265","","0.004824061053","","0.2523051309","","","","","","",""
"294","","bandit","345","740181","0.0-307.0-0.0","41125804","wem/bandit_single","A28FMRMS9TMEOZ","gain","5","","72","H","0","img/none_selected.jpg","0","0","1","0.4467147125","","false","270","0.4467147125","","main_expt","0.2211747839","","0.006174480496","","0.2663701485","","","","","","",""
"37","","bandit","346","741980","0.0-308.0-0.0","41125804","wem/bandit_single","A28FMRMS9TMEOZ","gain","5","","72","H","0","img/none_selected.jpg","1","0","0","0.4582909467","","false","271","0.4582909467","","main_expt","0.2404792593","","0.00832103917","","0.2485798686","","","","","","",""
"77","","bandit","347","743820","0.0-309.0-0.0","41125804","wem/bandit_single","A28FMRMS9TMEOZ","gain","5","","72","H","0","img/none_selected.jpg","0","0","1","0.4709209778","","false","272","0.4709209778","","main_expt","0.2558589782","","0.00728594366","","0.2345495347","","","","","","",""
"365","","bandit","348","745949","0.0-310.0-0.0","41125804","wem/bandit_single","A28FMRMS9TMEOZ","gain","5","","72","H","0","img/none_selected.jpg","0","0","1","0.4660917397","","false","273","0.4660917397","","main_expt","0.1700432942","","0.01114453755","","0.2137032991","","","","","","",""
"62","","bandit","349","747773","0.0-311.0-0.0","41125804","wem/bandit_single","A28FMRMS9TMEOZ","gain","5","","72","H","0","img/none_selected.jpg","1","0","0","0.4639522763","","false","274","0.4639522763","","main_expt","0.2452429789","","0.01390500062","","0.2108512091","","","","","","",""
"244","","bandit","350","749781","0.0-312.0-0.0","41125804","wem/bandit_single","A28FMRMS9TMEOZ","gain","5","","72","H","0","img/none_selected.jpg","0","0","1","0.4559735555","","false","275","0.4559735555","","main_expt","0.2540496776","","0.01307999715","","0.1817434844","","","","","","",""
"140","","bandit","351","751684","0.0-313.0-0.0","41125804","wem/bandit_single","A28FMRMS9TMEOZ","gain","5","","72","H","0","img/none_selected.jpg","1","0","0","0.4246507461","","false","276","0.4246507461","","main_expt","0.2816965905","","0.01650166306","","0.2037179719","","","","","","",""
"206","","bandit","352","753652","0.0-314.0-0.0","41125804","wem/bandit_single","A28FMRMS9TMEOZ","gain","5","","72","H","0","img/none_selected.jpg","0","0","1","0.4061878557","","false","277","0.4061878557","","main_expt","0.2757967379","","0.02228120093","","0.211691867","","","","","","",""
"135","","bandit","353","755550","0.0-315.0-0.0","41125804","wem/bandit_single","A28FMRMS9TMEOZ","gain","5","","72","H","0","img/none_selected.jpg","0","0","1","0.4185559707","","false","278","0.4185559707","","main_expt","0.3233086266","","0.01609054627","","0.1725584367","","","","","","",""
"2941","","bandit","354","760254","0.0-316.0-0.0","41125804","wem/bandit_single","A28FMRMS9TMEOZ","gain","5","","72","H","0","img/none_selected.jpg","1","0","0","0.4048416859","","false","279","0.4048416859","","main_expt","0.3447853064","","0.03276024715","","0.1976152383","","","","","","",""
"61","","bandit","355","762077","0.0-317.0-0.0","41125804","wem/bandit_single","A28FMRMS9TMEOZ","gain","5","","72","H","0","img/none_selected.jpg","1","0","0","0.3930733378","","false","280","0.3930733378","","main_expt","0.2944080033","","0.045813934","","0.2245419331","","","","","","",""
"101","","bandit","356","763941","0.0-318.0-0.0","41125804","wem/bandit_single","A28FMRMS9TMEOZ","gain","5","","72","H","0","img/none_selected.jpg","0","0","1","0.3722539572","","false","281","0.3722539572","","main_expt","0.3455536282","","0.07680660156","","0.2649095144","","","","","","",""
"222","","bandit","357","765926","0.0-319.0-0.0","41125804","wem/bandit_single","A28FMRMS9TMEOZ","gain","5","","72","H","0","img/none_selected.jpg","1","0","0","0.392640689","","false","282","0.392640689","","main_expt","0.3002636441","","0.08989395926","","0.2440542309","","","","","","",""
"205","","bandit","358","767892","0.0-320.0-0.0","41125804","wem/bandit_single","A28FMRMS9TMEOZ","gain","5","","72","H","0","img/none_selected.jpg","0","0","1","0.3657249804","","false","283","0.3657249804","","main_expt","0.2433385189","","0.1096048843","","0.3074658718","","","","","","",""
"155","","bandit","359","769813","0.0-321.0-0.0","41125804","wem/bandit_single","A28FMRMS9TMEOZ","gain","5","","72","H","0","img/none_selected.jpg","0","0","1","0.3625644972","","false","284","0.3625644972","","main_expt","0.2108667552","","0.1082817284","","0.3224089974","","","","","","",""
"30","","bandit","360","771603","0.0-322.0-0.0","41125804","wem/bandit_single","A28FMRMS9TMEOZ","gain","5","","72","H","0","img/none_selected.jpg","0","0","1","0.3054288932","","false","285","0.3054288932","","main_expt","0.2340218901","","0.1629804938","","0.3022873968","","","","","","",""
"112","","bandit","361","773477","0.0-323.0-0.0","41125804","wem/bandit_single","A28FMRMS9TMEOZ","gain","5","","72","H","0","img/none_selected.jpg","0","0","1","0.3391155559","","false","286","0.3391155559","","main_expt","0.2499238339","","0.1852598429","","0.2889410052","","","","","","",""
"37","","bandit","362","775278","0.0-324.0-0.0","41125804","wem/bandit_single","A28FMRMS9TMEOZ","gain","5","","72","H","0","img/none_selected.jpg","0","0","1","0.3328791194","","false","287","0.3328791194","","main_expt","0.2334780882","","0.2065414002","","0.3151816804","","","","","","",""
"108","","bandit","363","777147","0.0-325.0-0.0","41125804","wem/bandit_single","A28FMRMS9TMEOZ","gain","5","","75","K","2","","0","0","1","0.1811366591","","false","288","0.3011075564","","main_expt","0.2784320663","","0.1811366591","","0.3489654206","","","","","","",""
"55","","bandit","364","778964","0.0-326.0-0.0","41125804","wem/bandit_single","A28FMRMS9TMEOZ","gain","5","","75","K","2","","0","0","1","0.1202209304","","false","289","0.3326814497","","main_expt","0.2751214951","","0.1202209304","","0.3673528387","","","","","","",""
"22","","bandit","365","780750","0.0-327.0-0.0","41125804","wem/bandit_single","A28FMRMS9TMEOZ","gain","5","","75","K","2","","1","0","0","0.1453470377","","false","290","0.3289320066","","main_expt","0.304381699","","0.1453470377","","0.3156989172","","","","","","",""
