"rt","responses","trial_type","trial_index","time_elapsed","internal_node_id","subjID","study","MID","cond","drift","key_press","respCharCode","respKey","respChoiceNum","respChoice","gems","bombs","no_reward","GemPrChosen","BombPrChosen","practice","trial_counter","WinPr_0","LosePr_0","trial_label","WinPr_1","LosePr_1","WinPr_2","LosePr_2","WinPr_3","LosePr_3","Q0","Q1","Q2","gender","age","ethnicity"
"28813","{""Q0"":""APITQRRX2PADB""}","survey-text","0","28818","0.0-0.0","41497656","wem/bandit_single","APITQRRX2PADB","pain","2","","","","","","","","","","","","","","","","","","","","","","","","","","",""
"1863","","text","1","31690","0.0-1.0","41497656","wem/bandit_single","APITQRRX2PADB","pain","2","32","","","","","","","","","","","","","","","","","","","","","","","","","",""
"7167","","text","2","38858","0.0-2.0","41497656","wem/bandit_single","APITQRRX2PADB","pain","2","32","","","","","","","","","","","","","","","","","","","","","","","","","",""
"33838","","text","3","72698","0.0-3.0","41497656","wem/bandit_single","APITQRRX2PADB","pain","2","32","","","","","","","","","","","","","","","","","","","","","","","","","",""
"20879","","text","4","93578","0.0-4.0","41497656","wem/bandit_single","APITQRRX2PADB","pain","2","32","","","","","","","","","","","","","","","","","","","","","","","","","",""
"12127","","text","5","105706","0.0-5.0","41497656","wem/bandit_single","APITQRRX2PADB","pain","2","32","","","","","","","","","","","","","","","","","","","","","","","","","",""
"8198","","text","6","113905","0.0-6.0","41497656","wem/bandit_single","APITQRRX2PADB","pain","2","32","","","","","","","","","","","","","","","","","","","","","","","","","",""
"3856","","text","7","117762","0.0-7.0","41497656","wem/bandit_single","APITQRRX2PADB","pain","2","32","","","","","","","","","","","","","","","","","","","","","","","","","",""
"3223","","text","8","120985","0.0-8.0","41497656","wem/bandit_single","APITQRRX2PADB","pain","2","32","","","","","","","","","","","","","","","","","","","","","","","","","",""
"3286","","text","9","124273","0.0-9.0","41497656","wem/bandit_single","APITQRRX2PADB","pain","2","32","","","","","","","","","","","","","","","","","","","","","","","","","",""
"8399","","text","10","132673","0.0-10.0","41497656","wem/bandit_single","APITQRRX2PADB","pain","2","32","","","","","","","","","","","","","","","","","","","","","","","","","",""
"7406","","text","11","140081","0.0-11.0","41497656","wem/bandit_single","APITQRRX2PADB","pain","2","32","","","","","","","","","","","","","","","","","","","","","","","","","",""
"2118","","bandit","12","143709","0.0-12.0-0.0","41497656","wem/bandit_single","APITQRRX2PADB","pain","2","","74","J","0","img/none_selected_demo.jpg","0","0","1","0","0","true","0","0","0","","","","","","","","","","","","",""
"695","","bandit","13","146168","0.0-13.0-0.0","41497656","wem/bandit_single","APITQRRX2PADB","pain","2","","75","K","0","img/none_selected_demo.jpg","0","0","1","0","0","true","0","0","0","","","","","","","","","","","","",""
"3555","","text","14","149977","0.0-14.0","41497656","wem/bandit_single","APITQRRX2PADB","pain","2","32","","","","","","","","","","","","","","","","","","","","","","","","","",""
"1631","","text","15","151609","0.0-15.0","41497656","wem/bandit_single","APITQRRX2PADB","pain","2","32","","","","","","","","","","","","","","","","","","","","","","","","","",""
"4752","","text","16","156362","0.0-16.0","41497656","wem/bandit_single","APITQRRX2PADB","pain","2","32","","","","","","","","","","","","","","","","","","","","","","","","","",""
"4623","","text","17","160985","0.0-17.0","41497656","wem/bandit_single","APITQRRX2PADB","pain","2","32","","","","","","","","","","","","","","","","","","","","","","","","","",""
"2030","","bandit","18","164521","0.0-18.0-0.0","41497656","wem/bandit_single","APITQRRX2PADB","pain","2","","74","J","0","img/none_selected_demo.jpg","0","0","1","0","0.8","true","0","0","0.8","80_20_practice","0","0.2","","","","","","","","","",""
"211","","bandit","19","166507","0.0-18.0-1.0","41497656","wem/bandit_single","APITQRRX2PADB","pain","2","","75","K","1","","0","0","1","0","0.2","true","0","0","0.8","80_20_practice","0","0.2","","","","","","","","","",""
"274","","bandit","20","168539","0.0-18.0-2.0","41497656","wem/bandit_single","APITQRRX2PADB","pain","2","","74","J","0","img/none_selected_demo.jpg","0","1","0","0","0.8","true","0","0","0.8","80_20_practice","0","0.2","","","","","","","","","",""
"298","","bandit","21","170597","0.0-18.0-3.0","41497656","wem/bandit_single","APITQRRX2PADB","pain","2","","75","K","1","","0","0","1","0","0.2","true","0","0","0.8","80_20_practice","0","0.2","","","","","","","","","",""
"399","","bandit","22","172758","0.0-18.0-4.0","41497656","wem/bandit_single","APITQRRX2PADB","pain","2","","74","J","0","img/none_selected_demo.jpg","0","1","0","0","0.8","true","0","0","0.8","80_20_practice","0","0.2","","","","","","","","","",""
"416","","bandit","23","174945","0.0-18.0-5.0","41497656","wem/bandit_single","APITQRRX2PADB","pain","2","","74","J","0","img/none_selected_demo.jpg","0","1","0","0","0.8","true","0","0","0.8","80_20_practice","0","0.2","","","","","","","","","",""
"292","","bandit","24","177026","0.0-18.0-6.0","41497656","wem/bandit_single","APITQRRX2PADB","pain","2","","74","J","0","img/none_selected_demo.jpg","0","0","1","0","0.8","true","0","0","0.8","80_20_practice","0","0.2","","","","","","","","","",""
"49","","bandit","25","178841","0.0-18.0-7.0","41497656","wem/bandit_single","APITQRRX2PADB","pain","2","","74","J","0","img/none_selected_demo.jpg","0","1","0","0","0.8","true","0","0","0.8","80_20_practice","0","0.2","","","","","","","","","",""
"506","","bandit","26","181109","0.0-18.0-8.0","41497656","wem/bandit_single","APITQRRX2PADB","pain","2","","74","J","0","img/none_selected_demo.jpg","0","0","1","0","0.8","true","0","0","0.8","80_20_practice","0","0.2","","","","","","","","","",""
"260","","bandit","27","183140","0.0-18.0-9.0","41497656","wem/bandit_single","APITQRRX2PADB","pain","2","","75","K","1","","0","1","0","0","0.2","true","0","0","0.8","80_20_practice","0","0.2","","","","","","","","","",""
"928","","bandit","28","185826","0.0-18.0-10.0","41497656","wem/bandit_single","APITQRRX2PADB","pain","2","","74","J","0","img/none_selected_demo.jpg","0","0","1","0","0.8","true","0","0","0.8","80_20_practice","0","0.2","","","","","","","","","",""
"82","","bandit","29","187676","0.0-18.0-11.0","41497656","wem/bandit_single","APITQRRX2PADB","pain","2","","75","K","1","","0","0","1","0","0.2","true","0","0","0.8","80_20_practice","0","0.2","","","","","","","","","",""
"186","","bandit","30","189627","0.0-18.0-12.0","41497656","wem/bandit_single","APITQRRX2PADB","pain","2","","74","J","0","img/none_selected_demo.jpg","0","1","0","0","0.8","true","0","0","0.8","80_20_practice","0","0.2","","","","","","","","","",""
"384","","bandit","31","191770","0.0-18.0-13.0","41497656","wem/bandit_single","APITQRRX2PADB","pain","2","","74","J","0","img/none_selected_demo.jpg","0","1","0","0","0.8","true","0","0","0.8","80_20_practice","0","0.2","","","","","","","","","",""
"377","","bandit","32","193904","0.0-18.0-14.0","41497656","wem/bandit_single","APITQRRX2PADB","pain","2","","74","J","0","img/none_selected_demo.jpg","0","1","0","0","0.8","true","0","0","0.8","80_20_practice","0","0.2","","","","","","","","","",""
"516","","bandit","33","196201","0.0-18.0-15.0","41497656","wem/bandit_single","APITQRRX2PADB","pain","2","","74","J","0","img/none_selected_demo.jpg","0","1","0","0","0.8","true","0","0","0.8","80_20_practice","0","0.2","","","","","","","","","",""
"179","","bandit","34","198146","0.0-18.0-16.0","41497656","wem/bandit_single","APITQRRX2PADB","pain","2","","74","J","0","img/none_selected_demo.jpg","0","1","0","0","0.8","true","0","0","0.8","80_20_practice","0","0.2","","","","","","","","","",""
"115","","bandit","35","200030","0.0-18.0-17.0","41497656","wem/bandit_single","APITQRRX2PADB","pain","2","","74","J","0","img/none_selected_demo.jpg","0","1","0","0","0.8","true","0","0","0.8","80_20_practice","0","0.2","","","","","","","","","",""
"270","","bandit","36","202063","0.0-18.0-18.0","41497656","wem/bandit_single","APITQRRX2PADB","pain","2","","74","J","0","img/none_selected_demo.jpg","0","0","1","0","0.8","true","0","0","0.8","80_20_practice","0","0.2","","","","","","","","","",""
"61","","bandit","37","203891","0.0-18.0-19.0","41497656","wem/bandit_single","APITQRRX2PADB","pain","2","","74","J","0","img/none_selected_demo.jpg","0","1","0","0","0.8","true","0","0","0.8","80_20_practice","0","0.2","","","","","","","","","",""
"4495","","text","38","208642","0.0-19.0","41497656","wem/bandit_single","APITQRRX2PADB","pain","2","32","","","","","","","","","","","","","","","","","","","","","","","","","",""
"2174","","bandit","39","212333","0.0-20.0-0.0","41497656","wem/bandit_single","APITQRRX2PADB","pain","2","","74","J","0","img/none_selected_demo.jpg","0","0","1","0","0","true","0","0","0","","0","0","","","","","","","","","",""
"7130","","text","40","219730","0.0-21.0","41497656","wem/bandit_single","APITQRRX2PADB","pain","2","32","","","","","","","","","","","","","","","","","","","","","","","","","",""
"3102","","text","41","222833","0.0-22.0","41497656","wem/bandit_single","APITQRRX2PADB","pain","2","32","","","","","","","","","","","","","","","","","","","","","","","","","",""
"2390","","text","42","225225","0.0-23.0","41497656","wem/bandit_single","APITQRRX2PADB","pain","2","32","","","","","","","","","","","","","","","","","","","","","","","","","",""
"9335","","text","43","234561","0.0-24.0","41497656","wem/bandit_single","APITQRRX2PADB","pain","2","32","","","","","","","","","","","","","","","","","","","","","","","","","",""
"13663","","text","44","248226","0.0-25.0","41497656","wem/bandit_single","APITQRRX2PADB","pain","2","32","","","","","","","","","","","","","","","","","","","","","","","","","",""
"3286","","text","45","251513","0.0-26.0","41497656","wem/bandit_single","APITQRRX2PADB","pain","2","32","","","","","","","","","","","","","","","","","","","","","","","","","",""
"5863","","text","46","257377","0.0-27.0","41497656","wem/bandit_single","APITQRRX2PADB","pain","2","32","","","","","","","","","","","","","","","","","","","","","","","","","",""
"3176","","text","47","260554","0.0-28.0","41497656","wem/bandit_single","APITQRRX2PADB","pain","2","32","","","","","","","","","","","","","","","","","","","","","","","","","",""
"5781","","text","48","266337","0.0-29.0","41497656","wem/bandit_single","APITQRRX2PADB","pain","2","32","","","","","","","","","","","","","","","","","","","","","","","","","",""
"1879","","text","49","268217","0.0-30.0","41497656","wem/bandit_single","APITQRRX2PADB","pain","2","32","","","","","","","","","","","","","","","","","","","","","","","","","",""
"13159","","text","50","281376","0.0-31.0","41497656","wem/bandit_single","APITQRRX2PADB","pain","2","32","","","","","","","","","","","","","","","","","","","","","","","","","",""
"1639","","bandit","51","284526","0.0-32.0-0.0","41497656","wem/bandit_single","APITQRRX2PADB","pain","2","","72","H","0","img/none_selected.jpg","0","1","0","0","0.8","true","0","0","0.8","full_practice","0","0.2","0","0.6","0","0.2","","","","","",""
"259","","bandit","52","286551","0.0-32.0-1.0","41497656","wem/bandit_single","APITQRRX2PADB","pain","2","","74","J","1","","0","1","0","0","0.2","true","0","0","0.8","full_practice","0","0.2","0","0.6","0","0.2","","","","","",""
"232","","bandit","53","288551","0.0-32.0-2.0","41497656","wem/bandit_single","APITQRRX2PADB","pain","2","","75","K","2","","0","0","1","0","0.6","true","0","0","0.8","full_practice","0","0.2","0","0.6","0","0.2","","","","","",""
"37","","bandit","54","290361","0.0-32.0-3.0","41497656","wem/bandit_single","APITQRRX2PADB","pain","2","","76","L","3","","0","0","1","0","0.2","true","0","0","0.8","full_practice","0","0.2","0","0.6","0","0.2","","","","","",""
"124","","bandit","55","292244","0.0-32.0-4.0","41497656","wem/bandit_single","APITQRRX2PADB","pain","2","","72","H","0","img/none_selected.jpg","0","1","0","0","0.8","true","0","0","0.8","full_practice","0","0.2","0","0.6","0","0.2","","","","","",""
"95","","bandit","56","294125","0.0-32.0-5.0","41497656","wem/bandit_single","APITQRRX2PADB","pain","2","","74","J","1","","0","0","1","0","0.2","true","0","0","0.8","full_practice","0","0.2","0","0.6","0","0.2","","","","","",""
"164","","bandit","57","296047","0.0-32.0-6.0","41497656","wem/bandit_single","APITQRRX2PADB","pain","2","","75","K","2","","0","1","0","0","0.6","true","0","0","0.8","full_practice","0","0.2","0","0.6","0","0.2","","","","","",""
"301","","bandit","58","298104","0.0-32.0-7.0","41497656","wem/bandit_single","APITQRRX2PADB","pain","2","","76","L","3","","0","0","1","0","0.2","true","0","0","0.8","full_practice","0","0.2","0","0.6","0","0.2","","","","","",""
"90","","bandit","59","299961","0.0-32.0-8.0","41497656","wem/bandit_single","APITQRRX2PADB","pain","2","","72","H","0","img/none_selected.jpg","0","1","0","0","0.8","true","0","0","0.8","full_practice","0","0.2","0","0.6","0","0.2","","","","","",""
"82","","bandit","60","301810","0.0-32.0-9.0","41497656","wem/bandit_single","APITQRRX2PADB","pain","2","","75","K","2","","0","1","0","0","0.6","true","0","0","0.8","full_practice","0","0.2","0","0.6","0","0.2","","","","","",""
"98","","bandit","61","303670","0.0-32.0-10.0","41497656","wem/bandit_single","APITQRRX2PADB","pain","2","","72","H","0","img/none_selected.jpg","0","0","1","0","0.8","true","0","0","0.8","full_practice","0","0.2","0","0.6","0","0.2","","","","","",""
"617","","bandit","62","306067","0.0-32.0-11.0","41497656","wem/bandit_single","APITQRRX2PADB","pain","2","","75","K","2","","0","1","0","0","0.6","true","0","0","0.8","full_practice","0","0.2","0","0.6","0","0.2","","","","","",""
"284","","bandit","63","308119","0.0-32.0-12.0","41497656","wem/bandit_single","APITQRRX2PADB","pain","2","","75","K","2","","0","1","0","0","0.6","true","0","0","0.8","full_practice","0","0.2","0","0.6","0","0.2","","","","","",""
"277","","bandit","64","310167","0.0-32.0-13.0","41497656","wem/bandit_single","APITQRRX2PADB","pain","2","","75","K","2","","0","1","0","0","0.6","true","0","0","0.8","full_practice","0","0.2","0","0.6","0","0.2","","","","","",""
"215","","bandit","65","312147","0.0-32.0-14.0","41497656","wem/bandit_single","APITQRRX2PADB","pain","2","","75","K","2","","0","1","0","0","0.6","true","0","0","0.8","full_practice","0","0.2","0","0.6","0","0.2","","","","","",""
"213","","bandit","66","314126","0.0-32.0-15.0","41497656","wem/bandit_single","APITQRRX2PADB","pain","2","","75","K","2","","0","1","0","0","0.6","true","0","0","0.8","full_practice","0","0.2","0","0.6","0","0.2","","","","","",""
"167","","bandit","67","316055","0.0-32.0-16.0","41497656","wem/bandit_single","APITQRRX2PADB","pain","2","","75","K","2","","0","1","0","0","0.6","true","0","0","0.8","full_practice","0","0.2","0","0.6","0","0.2","","","","","",""
"206","","bandit","68","318040","0.0-32.0-17.0","41497656","wem/bandit_single","APITQRRX2PADB","pain","2","","75","K","2","","0","1","0","0","0.6","true","0","0","0.8","full_practice","0","0.2","0","0.6","0","0.2","","","","","",""
"110","","bandit","69","319933","0.0-32.0-18.0","41497656","wem/bandit_single","APITQRRX2PADB","pain","2","","75","K","2","","0","0","1","0","0.6","true","0","0","0.8","full_practice","0","0.2","0","0.6","0","0.2","","","","","",""
"75","","bandit","70","321774","0.0-32.0-19.0","41497656","wem/bandit_single","APITQRRX2PADB","pain","2","","72","H","0","img/none_selected.jpg","0","1","0","0","0.8","true","0","0","0.8","full_practice","0","0.2","0","0.6","0","0.2","","","","","",""
"3653","","text","71","325681","0.0-33.0","41497656","wem/bandit_single","APITQRRX2PADB","pain","2","32","","","","","","","","","","","","","","","","","","","","","","","","","",""
"12308","","text","72","338993","0.0-34.0","41497656","wem/bandit_single","APITQRRX2PADB","pain","2","32","","","","","","","","","","","","","","","","","","","","","","","","","",""
"7542","","text","73","346537","0.0-35.0","41497656","wem/bandit_single","APITQRRX2PADB","pain","2","32","","","","","","","","","","","","","","","","","","","","","","","","","",""
"7632","","text","74","354169","0.0-36.0","41497656","wem/bandit_single","APITQRRX2PADB","pain","2","32","","","","","","","","","","","","","","","","","","","","","","","","","",""
"7038","","text","75","361209","0.0-37.0","41497656","wem/bandit_single","APITQRRX2PADB","pain","2","32","","","","","","","","","","","","","","","","","","","","","","","","","",""
"2742","","bandit","76","365472","0.0-38.0-0.0","41497656","wem/bandit_single","APITQRRX2PADB","pain","2","","72","H","0","img/none_selected.jpg","0","0","1","","0.1473353724","false","1","","0.1473353724","main_expt","","0.1196507759","","0.03692567881","","0.1047922924","","","","","",""
"629","","bandit","77","367876","0.0-39.0-0.0","41497656","wem/bandit_single","APITQRRX2PADB","pain","2","","74","J","1","","0","0","1","","0.1434551849","false","2","","0.1471364572","main_expt","","0.1434551849","","0.0535834513","","0.09232691068","","","","","",""
"138","","bandit","78","369786","0.0-40.0-0.0","41497656","wem/bandit_single","APITQRRX2PADB","pain","2","","75","K","2","","0","1","0","","0.06455495551","false","3","","0.1792173289","main_expt","","0.1966750378","","0.06455495551","","0.07878604621","","","","","",""
"177","","bandit","79","371734","0.0-41.0-0.0","41497656","wem/bandit_single","APITQRRX2PADB","pain","2","","76","L","3","","0","0","1","","0.06180226224","false","4","","0.2089457512","main_expt","","0.1731728381","","0.1075220519","","0.06180226224","","","","","",""
"53","","bandit","80","373551","0.0-42.0-0.0","41497656","wem/bandit_single","APITQRRX2PADB","pain","2","","75","K","2","","0","0","1","","0.1459974634","false","5","","0.2627176439","main_expt","","0.151671232","","0.1459974634","","0.05657605877","","","","","",""
"342","","bandit","81","375655","0.0-43.0-0.0","41497656","wem/bandit_single","APITQRRX2PADB","pain","2","","72","H","0","img/none_selected.jpg","0","0","1","","0.2052823447","false","6","","0.2052823447","main_expt","","0.2201434377","","0.1119865757","","0.03926223851","","","","","",""
"102","","bandit","82","377514","0.0-44.0-0.0","41497656","wem/bandit_single","APITQRRX2PADB","pain","2","","74","J","1","","0","0","1","","0.1924323999","false","7","","0.2424381104","main_expt","","0.1924323999","","0.1135710889","","0.02952185798","","","","","",""
"59","","bandit","83","379348","0.0-45.0-0.0","41497656","wem/bandit_single","APITQRRX2PADB","pain","2","","75","K","2","","0","0","1","","0.148696524","false","8","","0.2324683495","main_expt","","0.187431757","","0.148696524","","0.01847757052","","","","","",""
"198","","bandit","84","381303","0.0-46.0-0.0","41497656","wem/bandit_single","APITQRRX2PADB","pain","2","","76","L","3","","0","0","1","","0.02695314055","false","9","","0.2440295668","main_expt","","0.197470847","","0.1181121295","","0.02695314055","","","","","",""
"68","","bandit","85","383133","0.0-47.0-0.0","41497656","wem/bandit_single","APITQRRX2PADB","pain","2","","72","H","0","img/none_selected.jpg","0","0","1","","0.2465422232","false","10","","0.2465422232","main_expt","","0.2298270047","","0.1082266346","","0.02234311218","","","","","",""
"106","","bandit","86","385028","0.0-48.0-0.0","41497656","wem/bandit_single","APITQRRX2PADB","pain","2","","74","J","1","","0","0","1","","0.2124937163","false","11","","0.1529972956","main_expt","","0.2124937163","","0.1102162287","","0.04960883058","","","","","",""
"240","","bandit","87","387031","0.0-49.0-0.0","41497656","wem/bandit_single","APITQRRX2PADB","pain","2","","75","K","2","","0","0","1","","0.1420736562","false","12","","0.1827224572","main_expt","","0.2043121782","","0.1420736562","","0.06086541187","","","","","",""
"124","","bandit","88","388925","0.0-50.0-0.0","41497656","wem/bandit_single","APITQRRX2PADB","pain","2","","76","L","3","","0","0","1","","0.06603274732","false","13","","0.1973099221","main_expt","","0.2122729008","","0.1582971975","","0.06603274732","","","","","",""
"28","","bandit","89","390717","0.0-51.0-0.0","41497656","wem/bandit_single","APITQRRX2PADB","pain","2","","75","K","2","","0","0","1","","0.1278364912","false","14","","0.2002936143","main_expt","","0.1748916548","","0.1278364912","","0.06952645267","","","","","",""
"585","","bandit","90","393079","0.0-52.0-0.0","41497656","wem/bandit_single","APITQRRX2PADB","pain","2","","74","J","1","","0","0","1","","0.1598041939","false","15","","0.2100222876","main_expt","","0.1598041939","","0.1389591295","","0.06705093019","","","","","",""
"70","","bandit","91","394933","0.0-53.0-0.0","41497656","wem/bandit_single","APITQRRX2PADB","pain","2","","72","H","0","img/none_selected.jpg","0","0","1","","0.192095419","false","16","","0.192095419","main_expt","","0.1496559895","","0.1087507618","","0.08739136862","","","","","",""
"217","","bandit","92","396920","0.0-54.0-0.0","41497656","wem/bandit_single","APITQRRX2PADB","pain","2","","75","K","2","","0","0","1","","0.1591778588","false","17","","0.2057363858","main_expt","","0.1855105105","","0.1591778588","","0.0633177824","","","","","",""
"72","","bandit","93","398756","0.0-55.0-0.0","41497656","wem/bandit_single","APITQRRX2PADB","pain","2","","76","L","3","","0","0","1","","0.05969087175","false","18","","0.2142317849","main_expt","","0.180786103","","0.1612769879","","0.05969087175","","","","","",""
"80","","bandit","94","400612","0.0-56.0-0.0","41497656","wem/bandit_single","APITQRRX2PADB","pain","2","","74","J","1","","0","0","1","","0.1867551017","false","19","","0.2416868574","main_expt","","0.1867551017","","0.1706614454","","0.08316546351","","","","","",""
"504","","bandit","95","402875","0.0-57.0-0.0","41497656","wem/bandit_single","APITQRRX2PADB","pain","2","","75","K","2","","0","0","1","","0.2173206475","false","20","","0.2556662882","main_expt","","0.2414580321","","0.2173206475","","0.08506169859","","","","","",""
"9","","bandit","96","404638","0.0-58.0-0.0","41497656","wem/bandit_single","APITQRRX2PADB","pain","2","","72","H","0","img/none_selected.jpg","0","0","1","","0.2484624222","false","21","","0.2484624222","main_expt","","0.2552731096","","0.2297715145","","0.08337624199","","","","","",""
"122","","bandit","97","406532","0.0-59.0-0.0","41497656","wem/bandit_single","APITQRRX2PADB","pain","2","","76","L","3","","0","0","1","","0.09400888178","false","22","","0.3180013331","main_expt","","0.2706059063","","0.2893552095","","0.09400888178","","","","","",""
"79","","bandit","98","408369","0.0-60.0-0.0","41497656","wem/bandit_single","APITQRRX2PADB","pain","2","","74","J","1","","0","0","1","","0.2240124609","false","23","","0.3018869565","main_expt","","0.2240124609","","0.1756353462","","0.08373077729","","","","","",""
"420","","bandit","99","410561","0.0-61.0-0.0","41497656","wem/bandit_single","APITQRRX2PADB","pain","2","","75","K","2","","0","0","1","","0.144307289","false","24","","0.3479913718","main_expt","","0.2337623096","","0.144307289","","0.07394888686","","","","","",""
"506","","bandit","100","412823","0.0-62.0-0.0","41497656","wem/bandit_single","APITQRRX2PADB","pain","2","","72","H","0","img/none_selected.jpg","0","1","0","","0.3851600672","false","25","","0.3851600672","main_expt","","0.1992837424","","0.1103761204","","0.1177231478","","","","","",""
"557","","bandit","101","415137","0.0-63.0-0.0","41497656","wem/bandit_single","APITQRRX2PADB","pain","2","","72","H","0","img/none_selected.jpg","0","0","1","","0.3771699284","false","26","","0.3771699284","main_expt","","0.2273902023","","0.09313295331","","0.1137187285","","","","","",""
"442","","bandit","102","417335","0.0-64.0-0.0","41497656","wem/bandit_single","APITQRRX2PADB","pain","2","","74","J","1","","0","0","1","","0.2020281611","false","27","","0.3284072512","main_expt","","0.2020281611","","0.07841862492","","0.1380279251","","","","","",""
"76","","bandit","103","419167","0.0-65.0-0.0","41497656","wem/bandit_single","APITQRRX2PADB","pain","2","","72","H","0","img/none_selected.jpg","0","1","0","","0.3708797381","false","28","","0.3708797381","main_expt","","0.2121805601","","0.0635621653","","0.1926536066","","","","","",""
"621","","bandit","104","421554","0.0-66.0-0.0","41497656","wem/bandit_single","APITQRRX2PADB","pain","2","","72","H","0","img/none_selected.jpg","0","0","1","","0.3630760189","false","29","","0.3630760189","main_expt","","0.1986823058","","0.04349452081","","0.1919064193","","","","","",""
"258","","bandit","105","423580","0.0-67.0-0.0","41497656","wem/bandit_single","APITQRRX2PADB","pain","2","","72","H","0","img/none_selected.jpg","0","1","0","","0.3414786107","false","30","","0.3414786107","main_expt","","0.2674628916","","0.06175929786","","0.1767437005","","","","","",""
"462","","bandit","106","425807","0.0-68.0-0.0","41497656","wem/bandit_single","APITQRRX2PADB","pain","2","","72","H","0","img/none_selected.jpg","0","0","1","","0.3536929226","false","31","","0.3536929226","main_expt","","0.2862820789","","0.06380111671","","0.2417082081","","","","","",""
"59","","bandit","107","427640","0.0-69.0-0.0","41497656","wem/bandit_single","APITQRRX2PADB","pain","2","","72","H","0","img/none_selected.jpg","0","0","1","","0.3238646006","false","32","","0.3238646006","main_expt","","0.2895619367","","0.08507033619","","0.2312742115","","","","","",""
"211","","bandit","108","429607","0.0-70.0-0.0","41497656","wem/bandit_single","APITQRRX2PADB","pain","2","","72","H","0","img/none_selected.jpg","0","0","1","","0.3018803865","false","33","","0.3018803865","main_expt","","0.312502841","","0.1242974044","","0.2247834387","","","","","",""
"176","","bandit","109","431563","0.0-71.0-0.0","41497656","wem/bandit_single","APITQRRX2PADB","pain","2","","75","K","2","","0","0","1","","0.158311101","false","34","","0.2551449341","main_expt","","0.2830864838","","0.158311101","","0.1192543008","","","","","",""
"138","","bandit","110","433476","0.0-72.0-0.0","41497656","wem/bandit_single","APITQRRX2PADB","pain","2","","74","J","1","","0","0","1","","0.2489219385","false","35","","0.3200580053","main_expt","","0.2489219385","","0.1293969191","","0.1336327135","","","","","",""
"324","","bandit","111","435565","0.0-73.0-0.0","41497656","wem/bandit_single","APITQRRX2PADB","pain","2","","76","L","3","","0","0","1","","0.09851205292","false","36","","0.3241899647","main_expt","","0.2090346537","","0.1800853883","","0.09851205292","","","","","",""
"142","","bandit","112","437488","0.0-74.0-0.0","41497656","wem/bandit_single","APITQRRX2PADB","pain","2","","72","H","0","img/none_selected.jpg","0","0","1","","0.3029113802","false","37","","0.3029113802","main_expt","","0.210385238","","0.1025448258","","0.05943694951","","","","","",""
"503","","bandit","113","439758","0.0-75.0-0.0","41497656","wem/bandit_single","APITQRRX2PADB","pain","2","","74","J","1","","0","0","1","","0.162227856","false","38","","0.2958592888","main_expt","","0.162227856","","0.1604021245","","0.06217728149","","","","","",""
"97","","bandit","114","441620","0.0-76.0-0.0","41497656","wem/bandit_single","APITQRRX2PADB","pain","2","","75","K","2","","0","0","1","","0.1336531769","false","39","","0.2941945884","main_expt","","0.1444893634","","0.1336531769","","0.08902833973","","","","","",""
"136","","bandit","115","443524","0.0-77.0-0.0","41497656","wem/bandit_single","APITQRRX2PADB","pain","2","","76","L","3","","0","0","1","","0.1098655825","false","40","","0.2784490849","main_expt","","0.1340169349","","0.1356889635","","0.1098655825","","","","","",""
"7","","bandit","116","445294","0.0-78.0-0.0","41497656","wem/bandit_single","APITQRRX2PADB","pain","2","","74","J","1","","0","0","1","","0.1019114547","false","41","","0.2943099773","main_expt","","0.1019114547","","0.1434276379","","0.125718056","","","","","",""
"197","","bandit","117","447256","0.0-79.0-0.0","41497656","wem/bandit_single","APITQRRX2PADB","pain","2","","72","H","0","img/none_selected.jpg","0","0","1","","0.2502187242","false","42","","0.2502187242","main_expt","","0.07379386716","","0.1432973755","","0.07668278466","","","","","",""
"169","","bandit","118","449182","0.0-80.0-0.0","41497656","wem/bandit_single","APITQRRX2PADB","pain","2","","75","K","2","","0","0","1","","0.1605884153","false","43","","0.2691097515","main_expt","","0.08186566242","","0.1605884153","","0.08403116819","","","","","",""
"157","","bandit","119","451117","0.0-81.0-0.0","41497656","wem/bandit_single","APITQRRX2PADB","pain","2","","76","L","3","","0","0","1","","0.08258467284","false","44","","0.2601206974","main_expt","","0.08692603594","","0.1396132557","","0.08258467284","","","","","",""
"76","","bandit","120","452964","0.0-82.0-0.0","41497656","wem/bandit_single","APITQRRX2PADB","pain","2","","74","J","1","","0","0","1","","0.1212470101","false","45","","0.3222012474","main_expt","","0.1212470101","","0.2250933593","","0.07253936928","","","","","",""
"73","","bandit","121","454808","0.0-83.0-0.0","41497656","wem/bandit_single","APITQRRX2PADB","pain","2","","75","K","2","","0","0","1","","0.1826421925","false","46","","0.3060845752","main_expt","","0.134661007","","0.1826421925","","0.05374479905","","","","","",""
"126","","bandit","122","456712","0.0-84.0-0.0","41497656","wem/bandit_single","APITQRRX2PADB","pain","2","","76","L","3","","0","0","1","","0.06764850751","false","47","","0.290950603","main_expt","","0.1377890551","","0.1706758886","","0.06764850751","","","","","",""
"390","","bandit","123","458881","0.0-85.0-0.0","41497656","wem/bandit_single","APITQRRX2PADB","pain","2","","72","H","0","img/none_selected.jpg","0","1","0","","0.329307254","false","48","","0.329307254","main_expt","","0.1325860966","","0.1686178854","","0.05656727153","","","","","",""
"381","","bandit","124","461041","0.0-86.0-0.0","41497656","wem/bandit_single","APITQRRX2PADB","pain","2","","72","H","0","img/none_selected.jpg","0","0","1","","0.405044281","false","49","","0.405044281","main_expt","","0.1231750139","","0.1822379713","","0.08131597157","","","","","",""
"428","","bandit","125","463236","0.0-87.0-0.0","41497656","wem/bandit_single","APITQRRX2PADB","pain","2","","72","H","0","img/none_selected.jpg","0","0","1","","0.4121919591","false","50","","0.4121919591","main_expt","","0.1565964086","","0.2513484478","","0.08274267654","","","","","",""
"125","","bandit","126","465127","0.0-88.0-0.0","41497656","wem/bandit_single","APITQRRX2PADB","pain","2","","74","J","1","","0","0","1","","0.1464659706","false","51","","0.4271607293","main_expt","","0.1464659706","","0.2812942615","","0.1154896937","","","","","",""
"150","","bandit","127","467053","0.0-89.0-0.0","41497656","wem/bandit_single","APITQRRX2PADB","pain","2","","76","L","3","","0","0","1","","0.07649260985","false","52","","0.4249516559","main_expt","","0.1196909414","","0.2224049931","","0.07649260985","","","","","",""
"438","","bandit","128","469261","0.0-90.0-0.0","41497656","wem/bandit_single","APITQRRX2PADB","pain","2","","75","K","2","","0","0","1","","0.2135714686","false","53","","0.414238899","main_expt","","0.1578713891","","0.2135714686","","0.06211708307","","","","","",""
"82","","bandit","129","471117","0.0-91.0-0.0","41497656","wem/bandit_single","APITQRRX2PADB","pain","2","","72","H","0","img/none_selected.jpg","0","0","1","","0.4404827494","false","54","","0.4404827494","main_expt","","0.1420893662","","0.2471494284","","0.05122165179","","","","","",""
"269","","bandit","130","473158","0.0-92.0-0.0","41497656","wem/bandit_single","APITQRRX2PADB","pain","2","","72","H","0","img/none_selected.jpg","0","0","1","","0.4258944343","false","55","","0.4258944343","main_expt","","0.1255118638","","0.26732004","","0.05779626682","","","","","",""
"256","","bandit","131","475176","0.0-93.0-0.0","41497656","wem/bandit_single","APITQRRX2PADB","pain","2","","72","H","0","img/none_selected.jpg","0","1","0","","0.4058732664","false","56","","0.4058732664","main_expt","","0.1040792381","","0.258853447","","0.06578325953","","","","","",""
"139","","bandit","132","477081","0.0-94.0-0.0","41497656","wem/bandit_single","APITQRRX2PADB","pain","2","","72","H","0","img/none_selected.jpg","0","0","1","","0.4269212616","false","57","","0.4269212616","main_expt","","0.1058118143","","0.247757255","","0.07487929626","","","","","",""
"11","","bandit","133","478865","0.0-95.0-0.0","41497656","wem/bandit_single","APITQRRX2PADB","pain","2","","72","H","0","img/none_selected.jpg","0","1","0","","0.4120073189","false","58","","0.4120073189","main_expt","","0.08107820888","","0.2380046022","","0.05601765109","","","","","",""
"51","","bandit","134","480686","0.0-96.0-0.0","41497656","wem/bandit_single","APITQRRX2PADB","pain","2","","72","H","0","img/none_selected.jpg","0","0","1","","0.367464959","false","59","","0.367464959","main_expt","","0.115954585","","0.273239949","","0.07158824907","","","","","",""
"572","","bandit","135","483028","0.0-97.0-0.0","41497656","wem/bandit_single","APITQRRX2PADB","pain","2","","72","H","0","img/none_selected.jpg","0","1","0","","0.3113576115","false","60","","0.3113576115","main_expt","","0.190529156","","0.314936794","","0.1021813758","","","","","",""
"389","","bandit","136","485196","0.0-98.0-0.0","41497656","wem/bandit_single","APITQRRX2PADB","pain","2","","72","H","0","img/none_selected.jpg","0","0","1","","0.3217665369","false","61","","0.3217665369","main_expt","","0.2024767933","","0.3361315769","","0.1422244628","","","","","",""
"52","","bandit","137","487032","0.0-99.0-0.0","41497656","wem/bandit_single","APITQRRX2PADB","pain","2","","72","H","0","img/none_selected.jpg","0","0","1","","0.3396020841","false","62","","0.3396020841","main_expt","","0.1478811465","","0.3012470308","","0.1543762338","","","","","",""
"151","","bandit","138","488947","0.0-100.0-0.0","41497656","wem/bandit_single","APITQRRX2PADB","pain","2","","72","H","0","img/none_selected.jpg","0","1","0","","0.3326008901","false","63","","0.3326008901","main_expt","","0.1472080331","","0.3035933772","","0.1957871903","","","","","",""
"104","","bandit","139","490810","0.0-101.0-0.0","41497656","wem/bandit_single","APITQRRX2PADB","pain","2","","72","H","0","img/none_selected.jpg","0","1","0","","0.2759567044","false","64","","0.2759567044","main_expt","","0.1523556625","","0.3061864711","","0.1998827037","","","","","",""
"112","","bandit","140","492690","0.0-102.0-0.0","41497656","wem/bandit_single","APITQRRX2PADB","pain","2","","72","H","0","img/none_selected.jpg","0","1","0","","0.330340259","false","65","","0.330340259","main_expt","","0.1640586258","","0.2795045379","","0.2229124218","","","","","",""
"126","","bandit","141","494588","0.0-103.0-0.0","41497656","wem/bandit_single","APITQRRX2PADB","pain","2","","72","H","0","img/none_selected.jpg","0","1","0","","0.394496842","false","66","","0.394496842","main_expt","","0.1559289375","","0.2624990872","","0.2821528041","","","","","",""
"127","","bandit","142","496470","0.0-104.0-0.0","41497656","wem/bandit_single","APITQRRX2PADB","pain","2","","72","H","0","img/none_selected.jpg","0","0","1","","0.3780229448","false","67","","0.3780229448","main_expt","","0.09042099393","","0.2316809648","","0.2228434199","","","","","",""
"164","","bandit","143","498406","0.0-105.0-0.0","41497656","wem/bandit_single","APITQRRX2PADB","pain","2","","72","H","0","img/none_selected.jpg","0","0","1","","0.313258317","false","68","","0.313258317","main_expt","","0.08874767337","","0.2266776066","","0.2039549584","","","","","",""
"127","","bandit","144","500297","0.0-106.0-0.0","41497656","wem/bandit_single","APITQRRX2PADB","pain","2","","72","H","0","img/none_selected.jpg","0","0","1","","0.3466590849","false","69","","0.3466590849","main_expt","","0.09103688118","","0.1734363374","","0.1998164138","","","","","",""
"194","","bandit","145","502261","0.0-107.0-0.0","41497656","wem/bandit_single","APITQRRX2PADB","pain","2","","72","H","0","img/none_selected.jpg","0","1","0","","0.3389702644","false","70","","0.3389702644","main_expt","","0.139461016","","0.1469163378","","0.1936545157","","","","","",""
"278","","bandit","146","504321","0.0-108.0-0.0","41497656","wem/bandit_single","APITQRRX2PADB","pain","2","","72","H","0","img/none_selected.jpg","0","1","0","","0.3037518088","false","71","","0.3037518088","main_expt","","0.1269809057","","0.1903103683","","0.1875420319","","","","","",""
"265","","bandit","147","506353","0.0-109.0-0.0","41497656","wem/bandit_single","APITQRRX2PADB","pain","2","","72","H","0","img/none_selected.jpg","0","1","0","","0.3007282465","false","72","","0.3007282465","main_expt","","0.1541032278","","0.2364630875","","0.2275961541","","","","","",""
"232","","bandit","148","508361","0.0-110.0-0.0","41497656","wem/bandit_single","APITQRRX2PADB","pain","2","","72","H","0","img/none_selected.jpg","0","1","0","","0.2796446257","false","73","","0.2796446257","main_expt","","0.1618198783","","0.2715971604","","0.2485431464","","","","","",""
"300","","bandit","149","510445","0.0-111.0-0.0","41497656","wem/bandit_single","APITQRRX2PADB","pain","2","","72","H","0","img/none_selected.jpg","0","0","1","","0.2729876577","false","74","","0.2729876577","main_expt","","0.1428156761","","0.2716254876","","0.2394527842","","","","","",""
"142","","bandit","150","512362","0.0-112.0-0.0","41497656","wem/bandit_single","APITQRRX2PADB","pain","2","","72","H","0","img/none_selected.jpg","0","0","1","","0.2067723694","false","75","","0.2067723694","main_expt","","0.1312504708","","0.2998540279","","0.2074684787","","","","","",""
"161","","bandit","151","514292","0.0-113.0-0.0","41497656","wem/bandit_single","APITQRRX2PADB","pain","2","","72","H","0","img/none_selected.jpg","0","1","0","","0.2130899639","false","76","","0.2130899639","main_expt","","0.1002429729","","0.3195890579","","0.178133335","","","","","",""
"167","","bandit","152","516225","0.0-114.0-0.0","41497656","wem/bandit_single","APITQRRX2PADB","pain","2","","72","H","0","img/none_selected.jpg","0","0","1","","0.2109525889","false","77","","0.2109525889","main_expt","","0.07543037954","","0.2856322382","","0.1788248706","","","","","",""
"70","","bandit","153","518079","0.0-115.0-0.0","41497656","wem/bandit_single","APITQRRX2PADB","pain","2","","72","H","0","img/none_selected.jpg","0","0","1","","0.1884332626","false","78","","0.1884332626","main_expt","","0.1153668935","","0.2919105172","","0.1530293784","","","","","",""
"79","","bandit","154","519936","0.0-116.0-0.0","41497656","wem/bandit_single","APITQRRX2PADB","pain","2","","72","H","0","img/none_selected.jpg","0","0","1","","0.1883433777","false","79","","0.1883433777","main_expt","","0.07716777456","","0.2567181874","","0.1593806387","","","","","",""
"42","","bandit","155","521746","0.0-117.0-0.0","41497656","wem/bandit_single","APITQRRX2PADB","pain","2","","72","H","0","img/none_selected.jpg","0","1","0","","0.1998795799","false","80","","0.1998795799","main_expt","","0.08058819474","","0.3200023444","","0.1428411119","","","","","",""
"182","","bandit","156","523708","0.0-118.0-0.0","41497656","wem/bandit_single","APITQRRX2PADB","pain","2","","72","H","0","img/none_selected.jpg","0","0","1","","0.1651756375","false","81","","0.1651756375","main_expt","","0.09856946308","","0.3117755618","","0.1982686668","","","","","",""
"70","","bandit","157","525545","0.0-119.0-0.0","41497656","wem/bandit_single","APITQRRX2PADB","pain","2","","72","H","0","img/none_selected.jpg","0","1","0","","0.2235829688","false","82","","0.2235829688","main_expt","","0.1000946235","","0.3379160562","","0.2291501313","","","","","",""
"58","","bandit","158","527363","0.0-120.0-0.0","41497656","wem/bandit_single","APITQRRX2PADB","pain","2","","72","H","0","img/none_selected.jpg","0","1","0","","0.2456561592","false","83","","0.2456561592","main_expt","","0.06687408093","","0.3620865136","","0.2259362275","","","","","",""
"88","","bandit","159","529239","0.0-121.0-0.0","41497656","wem/bandit_single","APITQRRX2PADB","pain","2","","72","H","0","img/none_selected.jpg","0","0","1","","0.2790354554","false","84","","0.2790354554","main_expt","","0.06463964557","","0.3904685548","","0.1733031115","","","","","",""
"45","","bandit","160","531060","0.0-122.0-0.0","41497656","wem/bandit_single","APITQRRX2PADB","pain","2","","72","H","0","img/none_selected.jpg","0","1","0","","0.2389339959","false","85","","0.2389339959","main_expt","","0.09044174456","","0.4201611698","","0.1577379057","","","","","",""
"117","","bandit","161","532940","0.0-123.0-0.0","41497656","wem/bandit_single","APITQRRX2PADB","pain","2","","72","H","0","img/none_selected.jpg","0","0","1","","0.2905830411","false","86","","0.2905830411","main_expt","","0.07242924321","","0.4544588035","","0.1646880331","","","","","",""
"1185","","bandit","162","535903","0.0-124.0-0.0","41497656","wem/bandit_single","APITQRRX2PADB","pain","2","","72","H","0","img/none_selected.jpg","0","0","1","","0.3336128518","false","87","","0.3336128518","main_expt","","0.06356931104","","0.4444110865","","0.157008097","","","","","",""
"126","","bandit","163","537790","0.0-125.0-0.0","41497656","wem/bandit_single","APITQRRX2PADB","pain","2","","72","H","0","img/none_selected.jpg","0","0","1","","0.3720796031","false","88","","0.3720796031","main_expt","","0.08819972964","","0.4276611285","","0.14663069","","","","","",""
"108","","bandit","164","539656","0.0-126.0-0.0","41497656","wem/bandit_single","APITQRRX2PADB","pain","2","","72","H","0","img/none_selected.jpg","0","0","1","","0.3383028484","false","89","","0.3383028484","main_expt","","0.09388884115","","0.395063318","","0.1510377787","","","","","",""
"98","","bandit","165","541540","0.0-127.0-0.0","41497656","wem/bandit_single","APITQRRX2PADB","pain","2","","72","H","0","img/none_selected.jpg","0","0","1","","0.3550100304","false","90","","0.3550100304","main_expt","","0.1265583984","","0.3790569413","","0.1600185234","","","","","",""
"70","","bandit","166","543376","0.0-128.0-0.0","41497656","wem/bandit_single","APITQRRX2PADB","pain","2","","72","H","0","img/none_selected.jpg","0","0","1","","0.4198742783","false","91","","0.4198742783","main_expt","","0.09433033469","","0.3763017738","","0.1618321768","","","","","",""
"338","","bandit","167","545478","0.0-129.0-0.0","41497656","wem/bandit_single","APITQRRX2PADB","pain","2","","72","H","0","img/none_selected.jpg","0","1","0","","0.4522920775","false","92","","0.4522920775","main_expt","","0.05111462501","","0.3829045729","","0.1408839615","","","","","",""
"207","","bandit","168","547446","0.0-130.0-0.0","41497656","wem/bandit_single","APITQRRX2PADB","pain","2","","72","H","0","img/none_selected.jpg","0","1","0","","0.4572096334","false","93","","0.4572096334","main_expt","","0.05378689714","","0.4155552038","","0.1675332925","","","","","",""
"412","","bandit","169","549637","0.0-131.0-0.0","41497656","wem/bandit_single","APITQRRX2PADB","pain","2","","72","H","0","img/none_selected.jpg","0","0","1","","0.457248447","false","94","","0.457248447","main_expt","","0.04385487208","","0.3964247486","","0.2154783406","","","","","",""
"190","","bandit","170","551583","0.0-132.0-0.0","41497656","wem/bandit_single","APITQRRX2PADB","pain","2","","72","H","0","img/none_selected.jpg","0","0","1","","0.4284600246","false","95","","0.4284600246","main_expt","","0.02374316345","","0.4028729744","","0.2434825378","","","","","",""
"297","","bandit","171","553646","0.0-133.0-0.0","41497656","wem/bandit_single","APITQRRX2PADB","pain","2","","75","K","2","","0","0","1","","0.3937220057","false","96","","0.4213934208","main_expt","","0.01119532444","","0.3937220057","","0.300751002","","","","","",""
"257","","bandit","172","555666","0.0-134.0-0.0","41497656","wem/bandit_single","APITQRRX2PADB","pain","2","","74","J","1","","0","0","1","","0.01205949719","false","97","","0.4093218277","main_expt","","0.01205949719","","0.3951408858","","0.2390268827","","","","","",""
"113","","bandit","173","557556","0.0-135.0-0.0","41497656","wem/bandit_single","APITQRRX2PADB","pain","2","","74","J","1","","0","0","1","","0.02530753644","false","98","","0.4011771953","main_expt","","0.02530753644","","0.3872505806","","0.1872158766","","","","","",""
"87","","bandit","174","559407","0.0-136.0-0.0","41497656","wem/bandit_single","APITQRRX2PADB","pain","2","","74","J","1","","0","0","1","","0.02318317113","false","99","","0.4319140629","main_expt","","0.02318317113","","0.3237376228","","0.2281726053","","","","","",""
"480","","bandit","175","561655","0.0-137.0-0.0","41497656","wem/bandit_single","APITQRRX2PADB","pain","2","","75","K","2","","0","0","1","","0.3840854176","false","100","","0.4388591553","main_expt","","0.01577819671","","0.3840854176","","0.2322026393","","","","","",""
"348","","bandit","176","563759","0.0-138.0-0.0","41497656","wem/bandit_single","APITQRRX2PADB","pain","2","","76","L","3","","0","1","0","","0.2675158553","false","101","","0.4405661836","main_expt","","0.03767304301","","0.4043087267","","0.2675158553","","","","","",""
"291","","bandit","177","565806","0.0-139.0-0.0","41497656","wem/bandit_single","APITQRRX2PADB","pain","2","","76","L","3","","0","0","1","","0.2334450153","false","102","","0.4155134761","main_expt","","0.03003558128","","0.423372456","","0.2334450153","","","","","",""
"75","","bandit","178","567654","0.0-140.0-0.0","41497656","wem/bandit_single","APITQRRX2PADB","pain","2","","76","L","3","","0","0","1","","0.2546104349","false","103","","0.4079284656","main_expt","","0.04748945294","","0.4305794097","","0.2546104349","","","","","",""
"4","","bandit","179","569437","0.0-141.0-0.0","41497656","wem/bandit_single","APITQRRX2PADB","pain","2","","72","H","0","img/none_selected.jpg","0","1","0","","0.3827156199","false","104","","0.3827156199","main_expt","","0.06674284653","","0.4515631957","","0.2657782481","","","","","",""
"187","","bandit","180","571397","0.0-142.0-0.0","41497656","wem/bandit_single","APITQRRX2PADB","pain","2","","76","L","3","","0","1","0","","0.2397797145","false","105","","0.3892206975","main_expt","","0.0806059128","","0.454723383","","0.2397797145","","","","","",""
"481","","bandit","181","573640","0.0-143.0-0.0","41497656","wem/bandit_single","APITQRRX2PADB","pain","2","","76","L","3","","0","0","1","","0.1744994936","false","106","","0.3499671591","main_expt","","0.1147522423","","0.4487898282","","0.1744994936","","","","","",""
"212","","bandit","182","575619","0.0-144.0-0.0","41497656","wem/bandit_single","APITQRRX2PADB","pain","2","","72","H","0","img/none_selected.jpg","0","0","1","","0.3378870415","false","107","","0.3378870415","main_expt","","0.1225979079","","0.4300484018","","0.2004436591","","","","","",""
"55","","bandit","183","577437","0.0-145.0-0.0","41497656","wem/bandit_single","APITQRRX2PADB","pain","2","","76","L","3","","0","1","0","","0.1781349215","false","108","","0.3206855754","main_expt","","0.1808232933","","0.4056187414","","0.1781349215","","","","","",""
"456","","bandit","184","579672","0.0-146.0-0.0","41497656","wem/bandit_single","APITQRRX2PADB","pain","2","","76","L","3","","0","0","1","","0.1603989886","false","109","","0.3412252333","main_expt","","0.2004688742","","0.4145536126","","0.1603989886","","","","","",""
"331","","bandit","185","581770","0.0-147.0-0.0","41497656","wem/bandit_single","APITQRRX2PADB","pain","2","","76","L","3","","0","0","1","","0.1300992081","false","110","","0.3650365033","main_expt","","0.2261403934","","0.3897928763","","0.1300992081","","","","","",""
"130","","bandit","186","583664","0.0-148.0-0.0","41497656","wem/bandit_single","APITQRRX2PADB","pain","2","","76","L","3","","0","0","1","","0.1740321776","false","111","","0.341048274","main_expt","","0.1612973213","","0.4150540561","","0.1740321776","","","","","",""
"178","","bandit","187","585620","0.0-149.0-0.0","41497656","wem/bandit_single","APITQRRX2PADB","pain","2","","76","L","3","","0","0","1","","0.2444477537","false","112","","0.3254027875","main_expt","","0.1655724556","","0.4394636757","","0.2444477537","","","","","",""
"192","","bandit","188","587588","0.0-150.0-0.0","41497656","wem/bandit_single","APITQRRX2PADB","pain","2","","76","L","3","","0","0","1","","0.2195244909","false","113","","0.308059901","main_expt","","0.1319876284","","0.4301961846","","0.2195244909","","","","","",""
"61","","bandit","189","589406","0.0-151.0-0.0","41497656","wem/bandit_single","APITQRRX2PADB","pain","2","","72","H","0","img/none_selected.jpg","0","0","1","","0.3238695313","false","114","","0.3238695313","main_expt","","0.1147934267","","0.4497687286","","0.2719971232","","","","","",""
"233","","bandit","190","591409","0.0-152.0-0.0","41497656","wem/bandit_single","APITQRRX2PADB","pain","2","","72","H","0","img/none_selected.jpg","0","0","1","","0.3315084933","false","115","","0.3315084933","main_expt","","0.1301750396","","0.4448888627","","0.2447677414","","","","","",""
"337","","bandit","191","593522","0.0-153.0-0.0","41497656","wem/bandit_single","APITQRRX2PADB","pain","2","","76","L","3","","0","0","1","","0.2296513069","false","116","","0.3234657333","main_expt","","0.130185029","","0.3905844751","","0.2296513069","","","","","",""
"117","","bandit","192","595410","0.0-154.0-0.0","41497656","wem/bandit_single","APITQRRX2PADB","pain","2","","76","L","3","","0","1","0","","0.2151266314","false","117","","0.300593156","main_expt","","0.1548944576","","0.424359093","","0.2151266314","","","","","",""
"93","","bandit","193","597280","0.0-155.0-0.0","41497656","wem/bandit_single","APITQRRX2PADB","pain","2","","76","L","3","","0","0","1","","0.1311834018","false","118","","0.3585138177","main_expt","","0.172903741","","0.4121010571","","0.1311834018","","","","","",""
"1411","","bandit","194","600446","0.0-156.0-0.0","41497656","wem/bandit_single","APITQRRX2PADB","pain","2","","76","L","3","","0","0","1","","0.1190099868","false","119","","0.3062020697","main_expt","","0.1707570171","","0.4117558181","","0.1190099868","","","","","",""
"253","","bandit","195","602477","0.0-157.0-0.0","41497656","wem/bandit_single","APITQRRX2PADB","pain","2","","76","L","3","","0","1","0","","0.1117686876","false","120","","0.3312553157","main_expt","","0.1870802187","","0.4275669698","","0.1117686876","","","","","",""
"259","","bandit","196","604502","0.0-158.0-0.0","41497656","wem/bandit_single","APITQRRX2PADB","pain","2","","76","L","3","","0","1","0","","0.1415869423","false","121","","0.3892509988","main_expt","","0.1870161021","","0.4428986123","","0.1415869423","","","","","",""
"156","","bandit","197","606420","0.0-159.0-0.0","41497656","wem/bandit_single","APITQRRX2PADB","pain","2","","76","L","3","","0","0","1","","0.1398412585","false","122","","0.4330036483","main_expt","","0.1926804843","","0.4376246318","","0.1398412585","","","","","",""
"37","","bandit","198","608232","0.0-160.0-0.0","41497656","wem/bandit_single","APITQRRX2PADB","pain","2","","76","L","3","","0","1","0","","0.1163210087","false","123","","0.4555957022","main_expt","","0.2057615037","","0.4153394585","","0.1163210087","","","","","",""
"86","","bandit","199","610079","0.0-161.0-0.0","41497656","wem/bandit_single","APITQRRX2PADB","pain","2","","76","L","3","","0","0","1","","0.07344578178","false","124","","0.4565029776","main_expt","","0.2639565913","","0.4203389285","","0.07344578178","","","","","",""
"86","","bandit","200","611936","0.0-162.0-0.0","41497656","wem/bandit_single","APITQRRX2PADB","pain","2","","76","L","3","","0","0","1","","0.08752025541","false","125","","0.4511527373","main_expt","","0.3672341475","","0.3710029205","","0.08752025541","","","","","",""
"77","","bandit","201","613776","0.0-163.0-0.0","41497656","wem/bandit_single","APITQRRX2PADB","pain","2","","76","L","3","","0","0","1","","0.1064058914","false","126","","0.4426171603","main_expt","","0.3606148775","","0.3465273485","","0.1064058914","","","","","",""
"155","","bandit","202","615704","0.0-164.0-0.0","41497656","wem/bandit_single","APITQRRX2PADB","pain","2","","76","L","3","","0","0","1","","0.1103525866","false","127","","0.4259104728","main_expt","","0.4079700646","","0.4106613481","","0.1103525866","","","","","",""
"51","","bandit","203","617523","0.0-165.0-0.0","41497656","wem/bandit_single","APITQRRX2PADB","pain","2","","76","L","3","","0","0","1","","0.1060480298","false","128","","0.4543754413","main_expt","","0.4204919645","","0.4377707947","","0.1060480298","","","","","",""
"63","","bandit","204","619351","0.0-166.0-0.0","41497656","wem/bandit_single","APITQRRX2PADB","pain","2","","76","L","3","","0","0","1","","0.1332603285","false","129","","0.4587533269","main_expt","","0.4040923387","","0.4481781661","","0.1332603285","","","","","",""
"117","","bandit","205","621238","0.0-167.0-0.0","41497656","wem/bandit_single","APITQRRX2PADB","pain","2","","72","H","0","img/none_selected.jpg","0","0","1","","0.4618517855","false","130","","0.4618517855","main_expt","","0.3906791758","","0.4301237728","","0.09182468565","","","","","",""
"68","","bandit","206","623064","0.0-168.0-0.0","41497656","wem/bandit_single","APITQRRX2PADB","pain","2","","74","J","1","","0","0","1","","0.380553204","false","131","","0.4622878414","main_expt","","0.380553204","","0.4457858875","","0.09388333002","","","","","",""
"162","","bandit","207","624982","0.0-169.0-0.0","41497656","wem/bandit_single","APITQRRX2PADB","pain","2","","75","K","2","","0","0","1","","0.4732894157","false","132","","0.4624711794","main_expt","","0.4000467043","","0.4732894157","","0.07277513685","","","","","",""
"196","","bandit","208","626952","0.0-170.0-0.0","41497656","wem/bandit_single","APITQRRX2PADB","pain","2","","74","J","1","","0","0","1","","0.3929100345","false","133","","0.4794526202","main_expt","","0.3929100345","","0.4607838047","","0.1108266248","","","","","",""
"175","","bandit","209","628899","0.0-171.0-0.0","41497656","wem/bandit_single","APITQRRX2PADB","pain","2","","75","K","2","","0","1","0","","0.4663808264","false","134","","0.481632873","main_expt","","0.4009617203","","0.4663808264","","0.1466671782","","","","","",""
"343","","bandit","210","631008","0.0-172.0-0.0","41497656","wem/bandit_single","APITQRRX2PADB","pain","2","","75","K","2","","0","0","1","","0.4625615306","false","135","","0.4667599148","main_expt","","0.3859426802","","0.4625615306","","0.1625995743","","","","","",""
"177","","bandit","211","632950","0.0-173.0-0.0","41497656","wem/bandit_single","APITQRRX2PADB","pain","2","","76","L","3","","0","0","1","","0.1555673637","false","136","","0.4468402508","main_expt","","0.4089350186","","0.4629143089","","0.1555673637","","","","","",""
"477","","bandit","212","635192","0.0-174.0-0.0","41497656","wem/bandit_single","APITQRRX2PADB","pain","2","","75","K","2","","0","0","1","","0.4644074349","false","137","","0.4331537256","main_expt","","0.4009707033","","0.4644074349","","0.1395554881","","","","","",""
"131","","bandit","213","637096","0.0-175.0-0.0","41497656","wem/bandit_single","APITQRRX2PADB","pain","2","","75","K","2","","0","0","1","","0.4741213624","false","138","","0.4578477473","main_expt","","0.4116224971","","0.4741213624","","0.1387442451","","","","","",""
"168","","bandit","214","639035","0.0-176.0-0.0","41497656","wem/bandit_single","APITQRRX2PADB","pain","2","","75","K","2","","0","1","0","","0.4736492243","false","139","","0.464919911","main_expt","","0.4129411324","","0.4736492243","","0.1693780048","","","","","",""
"175","","bandit","215","640967","0.0-177.0-0.0","41497656","wem/bandit_single","APITQRRX2PADB","pain","2","","75","K","2","","0","1","0","","0.4752570035","false","140","","0.4614371154","main_expt","","0.4494235083","","0.4752570035","","0.1753437518","","","","","",""
"28","","bandit","216","642764","0.0-178.0-0.0","41497656","wem/bandit_single","APITQRRX2PADB","pain","2","","75","K","2","","0","0","1","","0.4857055712","false","141","","0.4747872093","main_expt","","0.4453484197","","0.4857055712","","0.2288512635","","","","","",""
"864","","bandit","217","645399","0.0-179.0-0.0","41497656","wem/bandit_single","APITQRRX2PADB","pain","2","","75","K","2","","0","0","1","","0.4792724089","false","142","","0.4513335087","main_expt","","0.4604546146","","0.4792724089","","0.2579513082","","","","","",""
"59","","bandit","218","647235","0.0-180.0-0.0","41497656","wem/bandit_single","APITQRRX2PADB","pain","2","","75","K","2","","0","1","0","","0.48057755","false","143","","0.4198830698","main_expt","","0.4826245684","","0.48057755","","0.21432658","","","","","",""
"191","","bandit","219","649184","0.0-181.0-0.0","41497656","wem/bandit_single","APITQRRX2PADB","pain","2","","75","K","2","","0","1","0","","0.4777600445","false","144","","0.3673231636","main_expt","","0.4890981767","","0.4777600445","","0.1938021535","","","","","",""
"123","","bandit","220","651062","0.0-182.0-0.0","41497656","wem/bandit_single","APITQRRX2PADB","pain","2","","75","K","2","","0","1","0","","0.4735071841","false","145","","0.3772368795","main_expt","","0.4680822138","","0.4735071841","","0.206497324","","","","","",""
"108","","bandit","221","652950","0.0-183.0-0.0","41497656","wem/bandit_single","APITQRRX2PADB","pain","2","","75","K","2","","0","0","1","","0.4598241197","false","146","","0.3767069828","main_expt","","0.4660155258","","0.4598241197","","0.1857351915","","","","","",""
"58","","bandit","222","654776","0.0-184.0-0.0","41497656","wem/bandit_single","APITQRRX2PADB","pain","2","","75","K","2","","0","0","1","","0.4279993213","false","147","","0.4039806626","main_expt","","0.4723880167","","0.4279993213","","0.1046475439","","","","","",""
"25","","bandit","223","656558","0.0-185.0-0.0","41497656","wem/bandit_single","APITQRRX2PADB","pain","2","","75","K","2","","0","0","1","","0.4422782314","false","148","","0.4178396587","main_expt","","0.4692947112","","0.4422782314","","0.1098111678","","","","","",""
"307","","bandit","224","658627","0.0-186.0-0.0","41497656","wem/bandit_single","APITQRRX2PADB","pain","2","","75","K","2","","0","0","1","","0.4514785706","false","149","","0.3932004216","main_expt","","0.4702562614","","0.4514785706","","0.1221971929","","","","","",""
"179","","bandit","225","660581","0.0-187.0-0.0","41497656","wem/bandit_single","APITQRRX2PADB","pain","2","","75","K","2","","0","1","0","","0.4189864991","false","150","","0.4103897693","main_expt","","0.4714094479","","0.4189864991","","0.1354034315","","","","","",""
"317","","bandit","226","662678","0.0-188.0-0.0","41497656","wem/bandit_single","APITQRRX2PADB","pain","2","","75","K","2","","0","0","1","","0.4389233528","false","151","","0.4122179041","main_expt","","0.4761401221","","0.4389233528","","0.1041822367","","","","","",""
"88","","bandit","227","664526","0.0-189.0-0.0","41497656","wem/bandit_single","APITQRRX2PADB","pain","2","","75","K","2","","0","1","0","","0.4244236929","false","152","","0.3952463752","main_expt","","0.4697737123","","0.4244236929","","0.09038071171","","","","","",""
"275","","bandit","228","666562","0.0-190.0-0.0","41497656","wem/bandit_single","APITQRRX2PADB","pain","2","","75","K","2","","0","1","0","","0.4476471014","false","153","","0.3877384472","main_expt","","0.446753433","","0.4476471014","","0.08460578514","","","","","",""
"354","","bandit","229","668705","0.0-191.0-0.0","41497656","wem/bandit_single","APITQRRX2PADB","pain","2","","75","K","2","","0","0","1","","0.4505336387","false","154","","0.3551427127","main_expt","","0.4588815304","","0.4505336387","","0.06957086972","","","","","",""
"68","","bandit","230","670542","0.0-192.0-0.0","41497656","wem/bandit_single","APITQRRX2PADB","pain","2","","75","K","2","","0","0","1","","0.466992112","false","155","","0.3027898514","main_expt","","0.4483664475","","0.466992112","","0.07570805595","","","","","",""
"204","","bandit","231","672512","0.0-193.0-0.0","41497656","wem/bandit_single","APITQRRX2PADB","pain","2","","75","K","2","","0","0","1","","0.4383448919","false","156","","0.3245978035","main_expt","","0.4383670719","","0.4383448919","","0.1010055374","","","","","",""
"52","","bandit","232","674342","0.0-194.0-0.0","41497656","wem/bandit_single","APITQRRX2PADB","pain","2","","75","K","2","","0","0","1","","0.4181306447","false","157","","0.3293821827","main_expt","","0.42990192","","0.4181306447","","0.09959580587","","","","","",""
"236","","bandit","233","676346","0.0-195.0-0.0","41497656","wem/bandit_single","APITQRRX2PADB","pain","2","","75","K","2","","0","0","1","","0.4322591637","false","158","","0.3053991167","main_expt","","0.4112902825","","0.4322591637","","0.09130540219","","","","","",""
"392","","bandit","234","678499","0.0-196.0-0.0","41497656","wem/bandit_single","APITQRRX2PADB","pain","2","","75","K","2","","0","1","0","","0.4129829621","false","159","","0.3475565739","main_expt","","0.4085113589","","0.4129829621","","0.07080299429","","","","","",""
"160","","bandit","235","680430","0.0-197.0-0.0","41497656","wem/bandit_single","APITQRRX2PADB","pain","2","","76","L","3","","0","0","1","","0.05017383151","false","160","","0.327393219","main_expt","","0.4079314082","","0.4094933958","","0.05017383151","","","","","",""
"1","","bandit","236","682190","0.0-198.0-0.0","41497656","wem/bandit_single","APITQRRX2PADB","pain","2","","75","K","2","","0","0","1","","0.404058003","false","161","","0.303429729","main_expt","","0.3631501835","","0.404058003","","0.03820476969","","","","","",""
"269","","bandit","237","684249","0.0-199.0-0.0","41497656","wem/bandit_single","APITQRRX2PADB","pain","2","","74","J","1","","0","0","1","","0.3470346279","false","162","","0.3079210788","main_expt","","0.3470346279","","0.3846726044","","0.02512507724","","","","","",""
"42","","bandit","238","686054","0.0-200.0-0.0","41497656","wem/bandit_single","APITQRRX2PADB","pain","2","","74","J","1","","0","1","0","","0.372656257","false","163","","0.3004483846","main_expt","","0.372656257","","0.4016559577","","0.03932379445","","","","","",""
"388","","bandit","239","688212","0.0-201.0-0.0","41497656","wem/bandit_single","APITQRRX2PADB","pain","2","","74","J","1","","0","0","1","","0.3802753243","false","164","","0.2886014424","main_expt","","0.3802753243","","0.3566256613","","0.01829840099","","","","","",""
"100","","bandit","240","690077","0.0-202.0-0.0","41497656","wem/bandit_single","APITQRRX2PADB","pain","2","","74","J","1","","0","0","1","","0.3881672334","false","165","","0.2088325088","main_expt","","0.3881672334","","0.3509524146","","0.02415252971","","","","","",""
"179","","bandit","241","692016","0.0-203.0-0.0","41497656","wem/bandit_single","APITQRRX2PADB","pain","2","","74","J","1","","0","1","0","","0.359536632","false","166","","0.2160195985","main_expt","","0.359536632","","0.2773632025","","0.02185778449","","","","","",""
"468","","bandit","242","694248","0.0-204.0-0.0","41497656","wem/bandit_single","APITQRRX2PADB","pain","2","","74","J","1","","0","0","1","","0.3693034809","false","167","","0.1836534764","main_expt","","0.3693034809","","0.3022689801","","0.02761124673","","","","","",""
"281","","bandit","243","696308","0.0-205.0-0.0","41497656","wem/bandit_single","APITQRRX2PADB","pain","2","","74","J","1","","0","0","1","","0.3449050916","false","168","","0.1701024481","main_expt","","0.3449050916","","0.2937690027","","0.02160611799","","","","","",""
"85","","bandit","244","698160","0.0-206.0-0.0","41497656","wem/bandit_single","APITQRRX2PADB","pain","2","","74","J","1","","0","1","0","","0.3515710367","false","169","","0.1896079261","main_expt","","0.3515710367","","0.2488586406","","0.02113437328","","","","","",""
"493","","bandit","245","700414","0.0-207.0-0.0","41497656","wem/bandit_single","APITQRRX2PADB","pain","2","","74","J","1","","0","0","1","","0.3233833909","false","170","","0.2377789273","main_expt","","0.3233833909","","0.2112819205","","0.01292956957","","","","","",""
"252","","bandit","246","702435","0.0-208.0-0.0","41497656","wem/bandit_single","APITQRRX2PADB","pain","2","","74","J","1","","0","1","0","","0.2468086364","false","171","","0.2640247014","main_expt","","0.2468086364","","0.2217900108","","0.01989811998","","","","","",""
"164","","bandit","247","704364","0.0-209.0-0.0","41497656","wem/bandit_single","APITQRRX2PADB","pain","2","","74","J","1","","0","0","1","","0.3408906282","false","172","","0.2055846389","main_expt","","0.3408906282","","0.2387596097","","0.0296351857","","","","","",""
"80","","bandit","248","706215","0.0-210.0-0.0","41497656","wem/bandit_single","APITQRRX2PADB","pain","2","","74","J","1","","0","1","0","","0.3252944763","false","173","","0.2438181894","main_expt","","0.3252944763","","0.2602125502","","0.03540771295","","","","","",""
"209","","bandit","249","708195","0.0-211.0-0.0","41497656","wem/bandit_single","APITQRRX2PADB","pain","2","","74","J","1","","0","0","1","","0.3200904142","false","174","","0.2733147352","main_expt","","0.3200904142","","0.2202846771","","0.03725130304","","","","","",""
"687","","bandit","250","710658","0.0-212.0-0.0","41497656","wem/bandit_single","APITQRRX2PADB","pain","2","","74","J","1","","0","0","1","","0.3622659173","false","175","","0.2767671147","main_expt","","0.3622659173","","0.233285157","","0.03242602151","","","","","",""
"169","","bandit","251","712593","0.0-213.0-0.0","41497656","wem/bandit_single","APITQRRX2PADB","pain","2","","74","J","1","","0","1","0","","0.2937007374","false","176","","0.2195478827","main_expt","","0.2937007374","","0.2264555061","","0.04697917163","","","","","",""
"2328","","bandit","252","716692","0.0-214.0-0.0","41497656","wem/bandit_single","APITQRRX2PADB","pain","2","","74","J","1","","0","1","0","","0.2513366018","false","177","","0.1515864758","main_expt","","0.2513366018","","0.241841845","","0.04124559051","","","","","",""
"173","","bandit","253","718639","0.0-215.0-0.0","41497656","wem/bandit_single","APITQRRX2PADB","pain","2","","74","J","1","","0","1","0","","0.3159509921","false","178","","0.1618037694","main_expt","","0.3159509921","","0.2423953475","","0.06205026603","","","","","",""
"53","","bandit","254","720476","0.0-216.0-0.0","41497656","wem/bandit_single","APITQRRX2PADB","pain","2","","74","J","1","","0","1","0","","0.2899582247","false","179","","0.1653326191","main_expt","","0.2899582247","","0.2523089652","","0.08412795639","","","","","",""
"70","","bandit","255","722305","0.0-217.0-0.0","41497656","wem/bandit_single","APITQRRX2PADB","pain","2","","74","J","1","","0","0","1","","0.3371390753","false","180","","0.1751853148","main_expt","","0.3371390753","","0.2223981335","","0.1304099397","","","","","",""
"697","","bandit","256","724758","0.0-218.0-0.0","41497656","wem/bandit_single","APITQRRX2PADB","pain","2","","74","J","1","","0","0","1","","0.3365963609","false","181","","0.211978586","main_expt","","0.3365963609","","0.2319473409","","0.1801801058","","","","","",""
"72","","bandit","257","726591","0.0-219.0-0.0","41497656","wem/bandit_single","APITQRRX2PADB","pain","2","","74","J","1","","0","0","1","","0.2643366398","false","182","","0.2323199139","main_expt","","0.2643366398","","0.2338578761","","0.1951504204","","","","","",""
"106","","bandit","258","728473","0.0-220.0-0.0","41497656","wem/bandit_single","APITQRRX2PADB","pain","2","","74","J","1","","0","0","1","","0.2464000872","false","183","","0.2252803731","main_expt","","0.2464000872","","0.265472663","","0.2330781564","","","","","",""
"503","","bandit","259","730735","0.0-221.0-0.0","41497656","wem/bandit_single","APITQRRX2PADB","pain","2","","75","K","2","","0","1","0","","0.2826161147","false","184","","0.1614269484","main_expt","","0.3039071009","","0.2826161147","","0.2711395555","","","","","",""
"490","","bandit","260","732999","0.0-222.0-0.0","41497656","wem/bandit_single","APITQRRX2PADB","pain","2","","75","K","2","","0","0","1","","0.2542525597","false","185","","0.1636939604","main_expt","","0.3100879913","","0.2542525597","","0.2182249031","","","","","",""
"177","","bandit","261","734942","0.0-223.0-0.0","41497656","wem/bandit_single","APITQRRX2PADB","pain","2","","75","K","2","","0","0","1","","0.260460085","false","186","","0.1744134641","main_expt","","0.28505789","","0.260460085","","0.2609412602","","","","","",""
"707","","bandit","262","737406","0.0-224.0-0.0","41497656","wem/bandit_single","APITQRRX2PADB","pain","2","","72","H","0","img/none_selected.jpg","0","0","1","","0.1955069844","false","187","","0.1955069844","main_expt","","0.2698122055","","0.2119714508","","0.2242136054","","","","","",""
"78","","bandit","263","739254","0.0-225.0-0.0","41497656","wem/bandit_single","APITQRRX2PADB","pain","2","","72","H","0","img/none_selected.jpg","0","0","1","","0.2289740151","false","188","","0.2289740151","main_expt","","0.2270240414","","0.1887053186","","0.2404864381","","","","","",""
"202","","bandit","264","741232","0.0-226.0-0.0","41497656","wem/bandit_single","APITQRRX2PADB","pain","2","","72","H","0","img/none_selected.jpg","0","0","1","","0.2495887903","false","189","","0.2495887903","main_expt","","0.2182158859","","0.1944753942","","0.2177927796","","","","","",""
"177","","bandit","265","743182","0.0-227.0-0.0","41497656","wem/bandit_single","APITQRRX2PADB","pain","2","","72","H","0","img/none_selected.jpg","0","0","1","","0.2815424982","false","190","","0.2815424982","main_expt","","0.2445882628","","0.2163673671","","0.2445379922","","","","","",""
"147","","bandit","266","745102","0.0-228.0-0.0","41497656","wem/bandit_single","APITQRRX2PADB","pain","2","","75","K","2","","0","0","1","","0.2584180811","false","191","","0.2401402076","main_expt","","0.2733302752","","0.2584180811","","0.2910265903","","","","","",""
"160","","bandit","267","747037","0.0-229.0-0.0","41497656","wem/bandit_single","APITQRRX2PADB","pain","2","","76","L","3","","0","1","0","","0.3095983682","false","192","","0.2510809658","main_expt","","0.2776932955","","0.2555063139","","0.3095983682","","","","","",""
"108","","bandit","268","748916","0.0-230.0-0.0","41497656","wem/bandit_single","APITQRRX2PADB","pain","2","","76","L","3","","0","1","0","","0.3217156539","false","193","","0.2875405407","main_expt","","0.3335190616","","0.2694863875","","0.3217156539","","","","","",""
"253","","bandit","269","750934","0.0-231.0-0.0","41497656","wem/bandit_single","APITQRRX2PADB","pain","2","","76","L","3","","0","1","0","","0.278878796","false","194","","0.2183543786","main_expt","","0.3308991278","","0.2894821148","","0.278878796","","","","","",""
"258","","bandit","270","752972","0.0-232.0-0.0","41497656","wem/bandit_single","APITQRRX2PADB","pain","2","","76","L","3","","0","0","1","","0.2738334973","false","195","","0.2626349305","main_expt","","0.3676749275","","0.3028339589","","0.2738334973","","","","","",""
"222","","bandit","271","754977","0.0-233.0-0.0","41497656","wem/bandit_single","APITQRRX2PADB","pain","2","","76","L","3","","0","0","1","","0.2494818112","false","196","","0.2046446137","main_expt","","0.3523241719","","0.3051171059","","0.2494818112","","","","","",""
"275","","bandit","272","757014","0.0-234.0-0.0","41497656","wem/bandit_single","APITQRRX2PADB","pain","2","","76","L","3","","0","1","0","","0.2620473779","false","197","","0.2122082762","main_expt","","0.3874168703","","0.2901305303","","0.2620473779","","","","","",""
"404","","bandit","273","759187","0.0-235.0-0.0","41497656","wem/bandit_single","APITQRRX2PADB","pain","2","","76","L","3","","0","0","1","","0.3153682745","false","198","","0.1962120249","main_expt","","0.4072223947","","0.2403600488","","0.3153682745","","","","","",""
"288","","bandit","274","761247","0.0-236.0-0.0","41497656","wem/bandit_single","APITQRRX2PADB","pain","2","","76","L","3","","0","1","0","","0.2424407548","false","199","","0.1840541487","main_expt","","0.4284861426","","0.2034733728","","0.2424407548","","","","","",""
"194","","bandit","275","763202","0.0-237.0-0.0","41497656","wem/bandit_single","APITQRRX2PADB","pain","2","","76","L","3","","0","0","1","","0.2692586032","false","200","","0.1575563837","main_expt","","0.4181746593","","0.2193557146","","0.2692586032","","","","","",""
"222","","bandit","276","765197","0.0-238.0-0.0","41497656","wem/bandit_single","APITQRRX2PADB","pain","2","","76","L","3","","0","0","1","","0.2605377594","false","201","","0.138860739","main_expt","","0.4134190678","","0.2412650678","","0.2605377594","","","","","",""
"107","","bandit","277","767071","0.0-239.0-0.0","41497656","wem/bandit_single","APITQRRX2PADB","pain","2","","76","L","3","","0","0","1","","0.2372211354","false","202","","0.1216759056","main_expt","","0.4255663607","","0.2106041824","","0.2372211354","","","","","",""
"203","","bandit","278","769043","0.0-240.0-0.0","41497656","wem/bandit_single","APITQRRX2PADB","pain","2","","76","L","3","","0","0","1","","0.20896917","false","203","","0.1085797693","main_expt","","0.4267176133","","0.2182463191","","0.20896917","","","","","",""
"380","","bandit","279","771191","0.0-241.0-0.0","41497656","wem/bandit_single","APITQRRX2PADB","pain","2","","76","L","3","","0","0","1","","0.2277156902","false","204","","0.08750272662","main_expt","","0.460819217","","0.2060997213","","0.2277156902","","","","","",""
"427","","bandit","280","773381","0.0-242.0-0.0","41497656","wem/bandit_single","APITQRRX2PADB","pain","2","","74","J","1","","0","0","1","","0.4797370756","false","205","","0.1119911725","main_expt","","0.4797370756","","0.2179237498","","0.2096017385","","","","","",""
"5","","bandit","281","775158","0.0-243.0-0.0","41497656","wem/bandit_single","APITQRRX2PADB","pain","2","","75","K","2","","0","0","1","","0.194566176","false","206","","0.105166696","main_expt","","0.4850202511","","0.194566176","","0.2293009918","","","","","",""
"139","","bandit","282","777067","0.0-244.0-0.0","41497656","wem/bandit_single","APITQRRX2PADB","pain","2","","75","K","2","","0","0","1","","0.2540459421","false","207","","0.07428909222","main_expt","","0.4588339162","","0.2540459421","","0.2613461541","","","","","",""
"229","","bandit","283","779070","0.0-245.0-0.0","41497656","wem/bandit_single","APITQRRX2PADB","pain","2","","72","H","0","img/none_selected.jpg","0","0","1","","0.08415887516","false","208","","0.08415887516","main_expt","","0.4704498371","","0.2165425212","","0.2921374763","","","","","",""
"121","","bandit","284","780950","0.0-246.0-0.0","41497656","wem/bandit_single","APITQRRX2PADB","pain","2","","72","H","0","img/none_selected.jpg","0","0","1","","0.05558253146","false","209","","0.05558253146","main_expt","","0.4498430745","","0.1808740619","","0.2679345114","","","","","",""
"203","","bandit","285","782931","0.0-247.0-0.0","41497656","wem/bandit_single","APITQRRX2PADB","pain","2","","72","H","0","img/none_selected.jpg","0","0","1","","0.04914985493","false","210","","0.04914985493","main_expt","","0.4463117693","","0.2298827717","","0.2356021564","","","","","",""
"606","","bandit","286","785302","0.0-248.0-0.0","41497656","wem/bandit_single","APITQRRX2PADB","pain","2","","76","L","3","","0","0","1","","0.2152320876","false","211","","0.03798033643","main_expt","","0.422163821","","0.2533880575","","0.2152320876","","","","","",""
"128","","bandit","287","787205","0.0-249.0-0.0","41497656","wem/bandit_single","APITQRRX2PADB","pain","2","","74","J","1","","0","1","0","","0.3852039581","false","212","","0.03974322714","main_expt","","0.3852039581","","0.2771241442","","0.2216595069","","","","","",""
"342","","bandit","288","789319","0.0-250.0-0.0","41497656","wem/bandit_single","APITQRRX2PADB","pain","2","","74","J","1","","0","0","1","","0.3822954745","false","213","","0.02384455773","main_expt","","0.3822954745","","0.3010302337","","0.2150176613","","","","","",""
"578","","bandit","289","791654","0.0-251.0-0.0","41497656","wem/bandit_single","APITQRRX2PADB","pain","2","","74","J","1","","0","0","1","","0.3608549874","false","214","","0.03216660231","main_expt","","0.3608549874","","0.3409008015","","0.1772129937","","","","","",""
"866","","bandit","290","794288","0.0-252.0-0.0","41497656","wem/bandit_single","APITQRRX2PADB","pain","2","","74","J","1","","0","0","1","","0.3621739951","false","215","","0.03095464101","main_expt","","0.3621739951","","0.3227810677","","0.1584975441","","","","","",""
"637","","bandit","291","796701","0.0-253.0-0.0","41497656","wem/bandit_single","APITQRRX2PADB","pain","2","","74","J","1","","0","0","1","","0.3733564142","false","216","","0.04011500866","main_expt","","0.3733564142","","0.3636386285","","0.1256434713","","","","","",""
"269","","bandit","292","798736","0.0-254.0-0.0","41497656","wem/bandit_single","APITQRRX2PADB","pain","2","","74","J","1","","0","1","0","","0.3856473275","false","217","","0.02351309264","main_expt","","0.3856473275","","0.3649758886","","0.1601534085","","","","","",""
"193","","bandit","293","800695","0.0-255.0-0.0","41497656","wem/bandit_single","APITQRRX2PADB","pain","2","","74","J","1","","0","1","0","","0.3645608201","false","218","","0.01650540734","main_expt","","0.3645608201","","0.3641131336","","0.1514518834","","","","","",""
"133","","bandit","294","802599","0.0-256.0-0.0","41497656","wem/bandit_single","APITQRRX2PADB","pain","2","","74","J","1","","0","0","1","","0.3851453746","false","219","","0.03577324375","main_expt","","0.3851453746","","0.341156599","","0.2415223947","","","","","",""
"399","","bandit","295","804770","0.0-257.0-0.0","41497656","wem/bandit_single","APITQRRX2PADB","pain","2","","74","J","1","","0","1","0","","0.4075423229","false","220","","0.03655385126","main_expt","","0.4075423229","","0.266049218","","0.2248182851","","","","","",""
"491","","bandit","296","807023","0.0-258.0-0.0","41497656","wem/bandit_single","APITQRRX2PADB","pain","2","","74","J","1","","0","0","1","","0.4083347012","false","221","","0.03282050992","main_expt","","0.4083347012","","0.2359154628","","0.2588925836","","","","","",""
"168","","bandit","297","808967","0.0-259.0-0.0","41497656","wem/bandit_single","APITQRRX2PADB","pain","2","","74","J","1","","0","0","1","","0.4083223781","false","222","","0.02558717114","main_expt","","0.4083223781","","0.2640726019","","0.2025188389","","","","","",""
"18","","bandit","298","810747","0.0-260.0-0.0","41497656","wem/bandit_single","APITQRRX2PADB","pain","2","","74","J","1","","0","0","1","","0.4240474742","false","223","","0.04788205671","main_expt","","0.4240474742","","0.1860418506","","0.1609755914","","","","","",""
"49","","bandit","299","812566","0.0-261.0-0.0","41497656","wem/bandit_single","APITQRRX2PADB","pain","2","","74","J","1","","0","1","0","","0.4346876605","false","224","","0.05498715651","main_expt","","0.4346876605","","0.151875944","","0.2316748255","","","","","",""
"294","","bandit","300","814629","0.0-262.0-0.0","41497656","wem/bandit_single","APITQRRX2PADB","pain","2","","74","J","1","","0","0","1","","0.4541072866","false","225","","0.056476577","main_expt","","0.4541072866","","0.1209973656","","0.1605893144","","","","","",""
"152","","bandit","301","816561","0.0-263.0-0.0","41497656","wem/bandit_single","APITQRRX2PADB","pain","2","","74","J","1","","0","0","1","","0.4239515892","false","226","","0.06361054401","main_expt","","0.4239515892","","0.1503457952","","0.1389366963","","","","","",""
"157","","bandit","302","818478","0.0-264.0-0.0","41497656","wem/bandit_single","APITQRRX2PADB","pain","2","","74","J","1","","0","0","1","","0.4122914309","false","227","","0.03819722012","main_expt","","0.4122914309","","0.1784166707","","0.09987042713","","","","","",""
"83","","bandit","303","820327","0.0-265.0-0.0","41497656","wem/bandit_single","APITQRRX2PADB","pain","2","","74","J","1","","0","1","0","","0.4022765074","false","228","","0.03706892342","main_expt","","0.4022765074","","0.1729157366","","0.1511988136","","","","","",""
"183","","bandit","304","822280","0.0-266.0-0.0","41497656","wem/bandit_single","APITQRRX2PADB","pain","2","","74","J","1","","0","1","0","","0.3991813765","false","229","","0.05619366589","main_expt","","0.3991813765","","0.2035050609","","0.1165125066","","","","","",""
"156","","bandit","305","824221","0.0-267.0-0.0","41497656","wem/bandit_single","APITQRRX2PADB","pain","2","","74","J","1","","0","1","0","","0.3771825363","false","230","","0.02398835026","main_expt","","0.3771825363","","0.1677195288","","0.09058018373","","","","","",""
"99","","bandit","306","826091","0.0-268.0-0.0","41497656","wem/bandit_single","APITQRRX2PADB","pain","2","","74","J","1","","0","0","1","","0.4081115595","false","231","","0.01087418165","main_expt","","0.4081115595","","0.1568417205","","0.1254599363","","","","","",""
"165","","bandit","307","828026","0.0-269.0-0.0","41497656","wem/bandit_single","APITQRRX2PADB","pain","2","","74","J","1","","0","0","1","","0.4227202023","false","232","","0.005667282796","main_expt","","0.4227202023","","0.1733774055","","0.09699218641","","","","","",""
"129","","bandit","308","829930","0.0-270.0-0.0","41497656","wem/bandit_single","APITQRRX2PADB","pain","2","","74","J","1","","0","0","1","","0.4267606383","false","233","","0.00711790457","main_expt","","0.4267606383","","0.2318808439","","0.07122003092","","","","","",""
"31","","bandit","309","831727","0.0-271.0-0.0","41497656","wem/bandit_single","APITQRRX2PADB","pain","2","","74","J","1","","0","0","1","","0.4076790224","false","234","","0.01087448681","main_expt","","0.4076790224","","0.2728484722","","0.07078025717","","","","","",""
"850","","bandit","310","834340","0.0-272.0-0.0","41497656","wem/bandit_single","APITQRRX2PADB","pain","2","","74","J","1","","0","1","0","","0.3750136452","false","235","","0.008183852991","main_expt","","0.3750136452","","0.230842538","","0.04546889639","","","","","",""
"355","","bandit","311","836467","0.0-273.0-0.0","41497656","wem/bandit_single","APITQRRX2PADB","pain","2","","74","J","1","","0","0","1","","0.3579900966","false","236","","0.00957014591","main_expt","","0.3579900966","","0.2565969246","","0.07949547843","","","","","",""
"87","","bandit","312","838310","0.0-274.0-0.0","41497656","wem/bandit_single","APITQRRX2PADB","pain","2","","74","J","1","","0","0","1","","0.3685919787","false","237","","0.02345003211","main_expt","","0.3685919787","","0.2661079812","","0.06498208703","","","","","",""
"39","","bandit","313","840131","0.0-275.0-0.0","41497656","wem/bandit_single","APITQRRX2PADB","pain","2","","74","J","1","","0","0","1","","0.3220789964","false","238","","0.02056264696","main_expt","","0.3220789964","","0.3192940022","","0.07283675032","","","","","",""
"243","","bandit","314","842135","0.0-276.0-0.0","41497656","wem/bandit_single","APITQRRX2PADB","pain","2","","75","K","2","","0","1","0","","0.3150738333","false","239","","0.02436326326","main_expt","","0.3059519391","","0.3150738333","","0.08723568047","","","","","",""
"146","","bandit","315","844056","0.0-277.0-0.0","41497656","wem/bandit_single","APITQRRX2PADB","pain","2","","75","K","2","","0","0","1","","0.3008600842","false","240","","0.0242835944","main_expt","","0.3168560559","","0.3008600842","","0.06404566497","","","","","",""
"82","","bandit","316","845906","0.0-278.0-0.0","41497656","wem/bandit_single","APITQRRX2PADB","pain","2","","75","K","2","","0","0","1","","0.2677087501","false","241","","0.02652021178","main_expt","","0.269391424","","0.2677087501","","0.05187051438","","","","","",""
"134","","bandit","317","847812","0.0-279.0-0.0","41497656","wem/bandit_single","APITQRRX2PADB","pain","2","","75","K","2","","0","1","0","","0.2645585527","false","242","","0.0264543433","main_expt","","0.2061132751","","0.2645585527","","0.04056120823","","","","","",""
"276","","bandit","318","849860","0.0-280.0-0.0","41497656","wem/bandit_single","APITQRRX2PADB","pain","2","","75","K","2","","0","0","1","","0.2793098336","false","243","","0.02176476481","main_expt","","0.1996760118","","0.2793098336","","0.02806248696","","","","","",""
"603","","bandit","319","852245","0.0-281.0-0.0","41497656","wem/bandit_single","APITQRRX2PADB","pain","2","","75","K","2","","0","0","1","","0.285685864","false","244","","0.01301534777","main_expt","","0.1719334629","","0.285685864","","0.04063524207","","","","","",""
"171","","bandit","320","854182","0.0-282.0-0.0","41497656","wem/bandit_single","APITQRRX2PADB","pain","2","","75","K","2","","0","0","1","","0.2792363563","false","245","","0.02332936253","main_expt","","0.2264626889","","0.2792363563","","0.03258124644","","","","","",""
"69","","bandit","321","856033","0.0-283.0-0.0","41497656","wem/bandit_single","APITQRRX2PADB","pain","2","","75","K","2","","0","1","0","","0.2721020884","false","246","","0.02379131239","main_expt","","0.2097999869","","0.2721020884","","0.034431304","","","","","",""
"280","","bandit","322","858083","0.0-284.0-0.0","41497656","wem/bandit_single","APITQRRX2PADB","pain","2","","75","K","2","","0","0","1","","0.2784836582","false","247","","0.02988301985","main_expt","","0.2190078117","","0.2784836582","","0.0335896152","","","","","",""
"171","","bandit","323","860021","0.0-285.0-0.0","41497656","wem/bandit_single","APITQRRX2PADB","pain","2","","75","K","2","","0","0","1","","0.2155360038","false","248","","0.04121629219","main_expt","","0.214739415","","0.2155360038","","0.0373608022","","","","","",""
"490","","bandit","324","862288","0.0-286.0-0.0","41497656","wem/bandit_single","APITQRRX2PADB","pain","2","","76","L","3","","0","0","1","","0.04629433077","false","249","","0.03081548873","main_expt","","0.2361668487","","0.2182269439","","0.04629433077","","","","","",""
"344","","bandit","325","864397","0.0-287.0-0.0","41497656","wem/bandit_single","APITQRRX2PADB","pain","2","","72","H","0","img/none_selected.jpg","0","0","1","","0.02831669856","false","250","","0.02831669856","main_expt","","0.2730147117","","0.2794373206","","0.04794370872","","","","","",""
"79","","bandit","326","866252","0.0-288.0-0.0","41497656","wem/bandit_single","APITQRRX2PADB","pain","2","","75","K","2","","0","1","0","","0.2925698281","false","251","","0.02600870455","main_expt","","0.2591269664","","0.2925698281","","0.06568157066","","","","","",""
"156","","bandit","327","868179","0.0-289.0-0.0","41497656","wem/bandit_single","APITQRRX2PADB","pain","2","","75","K","2","","0","0","1","","0.2727886948","false","252","","0.02705961599","main_expt","","0.3091321407","","0.2727886948","","0.07567030371","","","","","",""
"278","","bandit","328","870228","0.0-290.0-0.0","41497656","wem/bandit_single","APITQRRX2PADB","pain","2","","75","K","2","","0","0","1","","0.2470803404","false","253","","0.01805963102","main_expt","","0.2284010385","","0.2470803404","","0.06628052114","","","","","",""
"202","","bandit","329","872201","0.0-291.0-0.0","41497656","wem/bandit_single","APITQRRX2PADB","pain","2","","75","K","2","","0","0","1","","0.3366881304","false","254","","0.01631706542","main_expt","","0.2452739286","","0.3366881304","","0.08321976201","","","","","",""
"160","","bandit","330","874130","0.0-292.0-0.0","41497656","wem/bandit_single","APITQRRX2PADB","pain","2","","75","K","2","","0","0","1","","0.3781216995","false","255","","0.01966147099","main_expt","","0.2769296881","","0.3781216995","","0.1379446817","","","","","",""
"50","","bandit","331","875964","0.0-293.0-0.0","41497656","wem/bandit_single","APITQRRX2PADB","pain","2","","75","K","2","","0","0","1","","0.3565974786","false","256","","0.02801527349","main_expt","","0.222598086","","0.3565974786","","0.1104053019","","","","","",""
"14","","bandit","332","877756","0.0-294.0-0.0","41497656","wem/bandit_single","APITQRRX2PADB","pain","2","","75","K","2","","0","0","1","","0.3668333327","false","257","","0.02393064904","main_expt","","0.2497605863","","0.3668333327","","0.110095483","","","","","",""
"116","","bandit","333","879633","0.0-295.0-0.0","41497656","wem/bandit_single","APITQRRX2PADB","pain","2","","74","J","1","","0","0","1","","0.248028097","false","258","","0.01715644076","main_expt","","0.248028097","","0.3978392262","","0.09250214804","","","","","",""
"107","","bandit","334","881526","0.0-296.0-0.0","41497656","wem/bandit_single","APITQRRX2PADB","pain","2","","76","L","3","","0","1","0","","0.1288972452","false","259","","0.01812234738","main_expt","","0.210079309","","0.3892622443","","0.1288972452","","","","","",""
"359","","bandit","335","883661","0.0-297.0-0.0","41497656","wem/bandit_single","APITQRRX2PADB","pain","2","","76","L","3","","0","0","1","","0.127844668","false","260","","0.01699252537","main_expt","","0.1785868889","","0.3787635018","","0.127844668","","","","","",""
"297","","bandit","336","885734","0.0-298.0-0.0","41497656","wem/bandit_single","APITQRRX2PADB","pain","2","","76","L","3","","0","0","1","","0.1408125104","false","261","","0.02027773674","main_expt","","0.1855690742","","0.4151771386","","0.1408125104","","","","","",""
"339","","bandit","337","887840","0.0-299.0-0.0","41497656","wem/bandit_single","APITQRRX2PADB","pain","2","","76","L","3","","0","0","1","","0.1423762304","false","262","","0.008159173947","main_expt","","0.2454672077","","0.4184001904","","0.1423762304","","","","","",""
"240","","bandit","338","889841","0.0-300.0-0.0","41497656","wem/bandit_single","APITQRRX2PADB","pain","2","","76","L","3","","0","0","1","","0.1237094287","false","263","","0.00730364875","main_expt","","0.2423041147","","0.4397427278","","0.1237094287","","","","","",""
"823","","bandit","339","892429","0.0-301.0-0.0","41497656","wem/bandit_single","APITQRRX2PADB","pain","2","","76","L","3","","0","0","1","","0.1110826985","false","264","","0.008891010149","main_expt","","0.2771483686","","0.4308816061","","0.1110826985","","","","","",""
"723","","bandit","340","894931","0.0-302.0-0.0","41497656","wem/bandit_single","APITQRRX2PADB","pain","2","","75","K","2","","0","0","1","","0.4310956018","false","265","","0.009434589262","main_expt","","0.2066329382","","0.4310956018","","0.09816719149","","","","","",""
"110","","bandit","341","896826","0.0-303.0-0.0","41497656","wem/bandit_single","APITQRRX2PADB","pain","2","","74","J","1","","0","0","1","","0.1954640054","false","266","","0.009503255165","main_expt","","0.1954640054","","0.4462346174","","0.1313615454","","","","","",""
"329","","bandit","342","898935","0.0-304.0-0.0","41497656","wem/bandit_single","APITQRRX2PADB","pain","2","","72","H","0","img/none_selected.jpg","0","0","1","","0.01294763698","false","267","","0.01294763698","main_expt","","0.132533774","","0.4649068607","","0.1039649444","","","","","",""
"265","","bandit","343","900979","0.0-305.0-0.0","41497656","wem/bandit_single","APITQRRX2PADB","pain","2","","74","J","1","","0","0","1","","0.1212355483","false","268","","0.01002763249","main_expt","","0.1212355483","","0.4499385749","","0.0758663636","","","","","",""
"107","","bandit","344","902856","0.0-306.0-0.0","41497656","wem/bandit_single","APITQRRX2PADB","pain","2","","75","K","2","","0","1","0","","0.4702815535","false","269","","0.009339874814","main_expt","","0.1363236216","","0.4702815535","","0.08641939852","","","","","",""
"185","","bandit","345","904815","0.0-307.0-0.0","41497656","wem/bandit_single","APITQRRX2PADB","pain","2","","75","K","2","","0","1","0","","0.4738293899","false","270","","0.0101894737","main_expt","","0.1061923246","","0.4738293899","","0.08694739741","","","","","",""
"305","","bandit","346","906899","0.0-308.0-0.0","41497656","wem/bandit_single","APITQRRX2PADB","pain","2","","75","K","2","","0","1","0","","0.4552130477","false","271","","0.0101062795","main_expt","","0.09682021381","","0.4552130477","","0.07507278363","","","","","",""
"116","","bandit","347","908778","0.0-309.0-0.0","41497656","wem/bandit_single","APITQRRX2PADB","pain","2","","75","K","2","","0","0","1","","0.4571227508","false","272","","0.009276773287","main_expt","","0.0728164368","","0.4571227508","","0.09002305832","","","","","",""
"142","","bandit","348","910689","0.0-310.0-0.0","41497656","wem/bandit_single","APITQRRX2PADB","pain","2","","75","K","2","","0","0","1","","0.4262778794","false","273","","0.0113492324","main_expt","","0.1026255411","","0.4262778794","","0.07941117108","","","","","",""
"127","","bandit","349","912581","0.0-311.0-0.0","41497656","wem/bandit_single","APITQRRX2PADB","pain","2","","75","K","2","","0","0","1","","0.4017895895","false","274","","0.005483919941","main_expt","","0.08683802548","","0.4017895895","","0.09301171309","","","","","",""
"100","","bandit","350","914464","0.0-312.0-0.0","41497656","wem/bandit_single","APITQRRX2PADB","pain","2","","75","K","2","","0","1","0","","0.4017548056","false","275","","0.00462874381","main_expt","","0.08250982893","","0.4017548056","","0.1012072593","","","","","",""
"228","","bandit","351","916468","0.0-313.0-0.0","41497656","wem/bandit_single","APITQRRX2PADB","pain","2","","75","K","2","","0","0","1","","0.4072561249","false","276","","0.009610611089","main_expt","","0.06031930624","","0.4072561249","","0.1230964009","","","","","",""
"69","","bandit","352","918295","0.0-314.0-0.0","41497656","wem/bandit_single","APITQRRX2PADB","pain","2","","75","K","2","","0","1","0","","0.3248287115","false","277","","0.01319252808","main_expt","","0.07169075363","","0.3248287115","","0.1320105939","","","","","",""
"185","","bandit","353","920260","0.0-315.0-0.0","41497656","wem/bandit_single","APITQRRX2PADB","pain","2","","75","K","2","","0","1","0","","0.2954662343","false","278","","0.008560453299","main_expt","","0.119525529","","0.2954662343","","0.100271112","","","","","",""
"130","","bandit","354","922167","0.0-316.0-0.0","41497656","wem/bandit_single","APITQRRX2PADB","pain","2","","75","K","2","","0","1","0","","0.3430788315","false","279","","0.02270234009","main_expt","","0.05136608794","","0.3430788315","","0.0752783975","","","","","",""
"209","","bandit","355","924143","0.0-317.0-0.0","41497656","wem/bandit_single","APITQRRX2PADB","pain","2","","75","K","2","","0","0","1","","0.298888987","false","280","","0.01842994591","main_expt","","0.06692305053","","0.298888987","","0.04609407158","","","","","",""
"85","","bandit","356","925997","0.0-318.0-0.0","41497656","wem/bandit_single","APITQRRX2PADB","pain","2","","75","K","2","","0","0","1","","0.317374049","false","281","","0.01750385803","main_expt","","0.08594942048","","0.317374049","","0.05874754036","","","","","",""
"25","","bandit","357","927782","0.0-319.0-0.0","41497656","wem/bandit_single","APITQRRX2PADB","pain","2","","75","K","2","","0","0","1","","0.2905756231","false","282","","0.01075771148","main_expt","","0.08562343316","","0.2905756231","","0.05911354127","","","","","",""
"19","","bandit","358","929561","0.0-320.0-0.0","41497656","wem/bandit_single","APITQRRX2PADB","pain","2","","75","K","2","","0","0","1","","0.335540713","false","283","","0.009487342711","main_expt","","0.06507866554","","0.335540713","","0.0444902615","","","","","",""
"775","","bandit","359","932104","0.0-321.0-0.0","41497656","wem/bandit_single","APITQRRX2PADB","pain","2","","75","K","2","","0","1","0","","0.3569674754","false","284","","0.01035814212","main_expt","","0.05738126215","","0.3569674754","","0.03666520406","","","","","",""
"142","","bandit","360","934026","0.0-322.0-0.0","41497656","wem/bandit_single","APITQRRX2PADB","pain","2","","75","K","2","","0","0","1","","0.4068019922","false","285","","0.01056818013","main_expt","","0.06337296056","","0.4068019922","","0.02451873239","","","","","",""
"26","","bandit","361","935829","0.0-323.0-0.0","41497656","wem/bandit_single","APITQRRX2PADB","pain","2","","75","K","2","","0","0","1","","0.432978486","false","286","","0.007821227136","main_expt","","0.04649068967","","0.432978486","","0.02877547985","","","","","",""
"531","","bandit","362","938124","0.0-324.0-0.0","41497656","wem/bandit_single","APITQRRX2PADB","pain","2","","75","K","2","","0","0","1","","0.4213006965","false","287","","0.01039042452","main_expt","","0.04946639224","","0.4213006965","","0.03331393821","","","","","",""
"96","","bandit","363","939995","0.0-325.0-0.0","41497656","wem/bandit_single","APITQRRX2PADB","pain","2","","75","K","2","","0","0","1","","0.4094413186","false","288","","0.02141961277","main_expt","","0.03962947871","","0.4094413186","","0.02363643209","","","","","",""
"117","","bandit","364","941874","0.0-326.0-0.0","41497656","wem/bandit_single","APITQRRX2PADB","pain","2","","75","K","2","","0","0","1","","0.3731302572","false","289","","0.02062414181","main_expt","","0.05295486238","","0.3731302572","","0.0366455232","","","","","",""
"15","","bandit","365","943661","0.0-327.0-0.0","41497656","wem/bandit_single","APITQRRX2PADB","pain","2","","75","K","2","","0","1","0","","0.4076032329","false","290","","0.01411690602","main_expt","","0.06311332932","","0.4076032329","","0.04887184979","","","","","",""
"163","","bandit","366","945594","0.0-328.0-0.0","41497656","wem/bandit_single","APITQRRX2PADB","pain","2","","75","K","2","","0","1","0","","0.4134699565","false","291","","0.03188260643","main_expt","","0.07741633782","","0.4134699565","","0.03783642248","","","","","",""
"86","","bandit","367","947449","0.0-329.0-0.0","41497656","wem/bandit_single","APITQRRX2PADB","pain","2","","75","K","2","","0","1","0","","0.3827884258","false","292","","0.03429620073","main_expt","","0.09064252153","","0.3827884258","","0.07820299584","","","","","",""
"110","","bandit","368","949334","0.0-330.0-0.0","41497656","wem/bandit_single","APITQRRX2PADB","pain","2","","75","K","2","","0","1","0","","0.4162015812","false","293","","0.030392347","main_expt","","0.07659126906","","0.4162015812","","0.07060894185","","","","","",""
"55","","bandit","369","951160","0.0-331.0-0.0","41497656","wem/bandit_single","APITQRRX2PADB","pain","2","","75","K","2","","0","1","0","","0.447674372","false","294","","0.04782046051","main_expt","","0.08042624432","","0.447674372","","0.1051632986","","","","","",""
"41","","bandit","370","952974","0.0-332.0-0.0","41497656","wem/bandit_single","APITQRRX2PADB","pain","2","","75","K","2","","0","1","0","","0.4402126752","false","295","","0.06309063339","main_expt","","0.1216640212","","0.4402126752","","0.06624019153","","","","","",""
"49","","bandit","371","954795","0.0-333.0-0.0","41497656","wem/bandit_single","APITQRRX2PADB","pain","2","","75","K","2","","0","0","1","","0.4378891161","false","296","","0.09511663338","main_expt","","0.1058257345","","0.4378891161","","0.07088700909","","","","","",""
"843","","bandit","372","957403","0.0-334.0-0.0","41497656","wem/bandit_single","APITQRRX2PADB","pain","2","","75","K","2","","0","1","0","","0.468153315","false","297","","0.07325770628","main_expt","","0.1101311263","","0.468153315","","0.0529580871","","","","","",""
"112","","bandit","373","959310","0.0-335.0-0.0","41497656","wem/bandit_single","APITQRRX2PADB","pain","2","","75","K","2","","0","1","0","","0.4538992283","false","298","","0.06352452747","main_expt","","0.1117004815","","0.4538992283","","0.04256970448","","","","","",""
"60","","bandit","374","961134","0.0-336.0-0.0","41497656","wem/bandit_single","APITQRRX2PADB","pain","2","","75","K","2","","0","0","1","","0.4653276232","false","299","","0.09466520998","main_expt","","0.1201211159","","0.4653276232","","0.02772245328","","","","","",""
