"rt","responses","trial_type","trial_index","time_elapsed","internal_node_id","subjID","study","MID","cond","drift","key_press","respCharCode","respKey","respChoiceNum","respChoice","gems","bombs","no_reward","GemPrChosen","BombPrChosen","practice","trial_counter","WinPr_0","LosePr_0","trial_label","WinPr_1","LosePr_1","WinPr_2","LosePr_2","WinPr_3","LosePr_3","Q0","Q1","Q2","gender","age","ethnicity"
"3695","{""Q0"":""A3U761PEG7MFKT""}","survey-text","0","3701","0.0-0.0","43361455","wem/bandit_single","A3U761PEG7MFKT","gain","7","","","","","","","","","","","","","","","","","","","","","","","","","","",""
"2338","","text","1","7042","0.0-1.0","43361455","wem/bandit_single","A3U761PEG7MFKT","gain","7","32","","","","","","","","","","","","","","","","","","","","","","","","","",""
"4077","","text","2","11121","0.0-2.0","43361455","wem/bandit_single","A3U761PEG7MFKT","gain","7","32","","","","","","","","","","","","","","","","","","","","","","","","","",""
"27801","","text","3","38924","0.0-3.0","43361455","wem/bandit_single","A3U761PEG7MFKT","gain","7","32","","","","","","","","","","","","","","","","","","","","","","","","","",""
"14935","","text","4","53860","0.0-4.0","43361455","wem/bandit_single","A3U761PEG7MFKT","gain","7","32","","","","","","","","","","","","","","","","","","","","","","","","","",""
"5081","","text","5","58943","0.0-5.0","43361455","wem/bandit_single","A3U761PEG7MFKT","gain","7","32","","","","","","","","","","","","","","","","","","","","","","","","","",""
"4428","","text","6","63373","0.0-6.0","43361455","wem/bandit_single","A3U761PEG7MFKT","gain","7","32","","","","","","","","","","","","","","","","","","","","","","","","","",""
"3312","","text","7","66685","0.0-7.0","43361455","wem/bandit_single","A3U761PEG7MFKT","gain","7","32","","","","","","","","","","","","","","","","","","","","","","","","","",""
"3241","","text","8","69928","0.0-8.0","43361455","wem/bandit_single","A3U761PEG7MFKT","gain","7","32","","","","","","","","","","","","","","","","","","","","","","","","","",""
"2765","","text","9","72694","0.0-9.0","43361455","wem/bandit_single","A3U761PEG7MFKT","gain","7","32","","","","","","","","","","","","","","","","","","","","","","","","","",""
"1566","","text","10","74262","0.0-10.0","43361455","wem/bandit_single","A3U761PEG7MFKT","gain","7","32","","","","","","","","","","","","","","","","","","","","","","","","","",""
"4623","","text","11","78886","0.0-11.0","43361455","wem/bandit_single","A3U761PEG7MFKT","gain","7","32","","","","","","","","","","","","","","","","","","","","","","","","","",""
"1135","","bandit","12","81528","0.0-12.0-0.0","43361455","wem/bandit_single","A3U761PEG7MFKT","gain","7","","74","J","0","img/none_selected_demo.jpg","0","0","1","0","0","true","0","0","0","","","","","","","","","","","","",""
"1505","","bandit","13","84788","0.0-13.0-0.0","43361455","wem/bandit_single","A3U761PEG7MFKT","gain","7","","75","K","0","img/none_selected_demo.jpg","0","0","1","0","0","true","0","0","0","","","","","","","","","","","","",""
"1950","","text","14","86990","0.0-14.0","43361455","wem/bandit_single","A3U761PEG7MFKT","gain","7","32","","","","","","","","","","","","","","","","","","","","","","","","","",""
"1520","","text","15","88512","0.0-15.0","43361455","wem/bandit_single","A3U761PEG7MFKT","gain","7","32","","","","","","","","","","","","","","","","","","","","","","","","","",""
"3080","","text","16","91594","0.0-16.0","43361455","wem/bandit_single","A3U761PEG7MFKT","gain","7","32","","","","","","","","","","","","","","","","","","","","","","","","","",""
"1596","","text","17","93191","0.0-17.0","43361455","wem/bandit_single","A3U761PEG7MFKT","gain","7","32","","","","","","","","","","","","","","","","","","","","","","","","","",""
"1030","","bandit","18","95724","0.0-18.0-0.0","43361455","wem/bandit_single","A3U761PEG7MFKT","gain","7","","74","J","0","img/none_selected_demo.jpg","1","0","0","0.8","0","true","0","0.8","0","80_20_practice","0.2","0","","","","","","","","","",""
"1094","","bandit","19","98572","0.0-18.0-1.0","43361455","wem/bandit_single","A3U761PEG7MFKT","gain","7","","74","J","0","img/none_selected_demo.jpg","0","0","1","0.8","0","true","0","0.8","0","80_20_practice","0.2","0","","","","","","","","","",""
"111","","bandit","20","100435","0.0-18.0-2.0","43361455","wem/bandit_single","A3U761PEG7MFKT","gain","7","","75","K","1","","1","0","0","0.2","0","true","0","0.8","0","80_20_practice","0.2","0","","","","","","","","","",""
"39","","bandit","21","102228","0.0-18.0-3.0","43361455","wem/bandit_single","A3U761PEG7MFKT","gain","7","","75","K","1","","0","0","1","0.2","0","true","0","0.8","0","80_20_practice","0.2","0","","","","","","","","","",""
"106","","bandit","22","104086","0.0-18.0-4.0","43361455","wem/bandit_single","A3U761PEG7MFKT","gain","7","","74","J","0","img/none_selected_demo.jpg","1","0","0","0.8","0","true","0","0.8","0","80_20_practice","0.2","0","","","","","","","","","",""
"141","","bandit","23","105982","0.0-18.0-5.0","43361455","wem/bandit_single","A3U761PEG7MFKT","gain","7","","74","J","0","img/none_selected_demo.jpg","0","0","1","0.8","0","true","0","0.8","0","80_20_practice","0.2","0","","","","","","","","","",""
"110","","bandit","24","107844","0.0-18.0-6.0","43361455","wem/bandit_single","A3U761PEG7MFKT","gain","7","","75","K","1","","0","0","1","0.2","0","true","0","0.8","0","80_20_practice","0.2","0","","","","","","","","","",""
"64","","bandit","25","109662","0.0-18.0-7.0","43361455","wem/bandit_single","A3U761PEG7MFKT","gain","7","","75","K","1","","0","0","1","0.2","0","true","0","0.8","0","80_20_practice","0.2","0","","","","","","","","","",""
"54","","bandit","26","111469","0.0-18.0-8.0","43361455","wem/bandit_single","A3U761PEG7MFKT","gain","7","","74","J","0","img/none_selected_demo.jpg","1","0","0","0.8","0","true","0","0.8","0","80_20_practice","0.2","0","","","","","","","","","",""
"48","","bandit","27","113272","0.0-18.0-9.0","43361455","wem/bandit_single","A3U761PEG7MFKT","gain","7","","74","J","0","img/none_selected_demo.jpg","1","0","0","0.8","0","true","0","0.8","0","80_20_practice","0.2","0","","","","","","","","","",""
"46","","bandit","28","115070","0.0-18.0-10.0","43361455","wem/bandit_single","A3U761PEG7MFKT","gain","7","","74","J","0","img/none_selected_demo.jpg","0","0","1","0.8","0","true","0","0.8","0","80_20_practice","0.2","0","","","","","","","","","",""
"22","","bandit","29","116847","0.0-18.0-11.0","43361455","wem/bandit_single","A3U761PEG7MFKT","gain","7","","74","J","0","img/none_selected_demo.jpg","1","0","0","0.8","0","true","0","0.8","0","80_20_practice","0.2","0","","","","","","","","","",""
"533","","bandit","30","119135","0.0-18.0-12.0","43361455","wem/bandit_single","A3U761PEG7MFKT","gain","7","","74","J","0","img/none_selected_demo.jpg","0","0","1","0.8","0","true","0","0.8","0","80_20_practice","0.2","0","","","","","","","","","",""
"1327","","bandit","31","122215","0.0-18.0-13.0","43361455","wem/bandit_single","A3U761PEG7MFKT","gain","7","","74","J","0","img/none_selected_demo.jpg","0","0","1","0.8","0","true","0","0.8","0","80_20_practice","0.2","0","","","","","","","","","",""
"73","","bandit","32","124041","0.0-18.0-14.0","43361455","wem/bandit_single","A3U761PEG7MFKT","gain","7","","75","K","1","","1","0","0","0.2","0","true","0","0.8","0","80_20_practice","0.2","0","","","","","","","","","",""
"142","","bandit","33","125936","0.0-18.0-15.0","43361455","wem/bandit_single","A3U761PEG7MFKT","gain","7","","75","K","1","","0","0","1","0.2","0","true","0","0.8","0","80_20_practice","0.2","0","","","","","","","","","",""
"35","","bandit","34","127726","0.0-18.0-16.0","43361455","wem/bandit_single","A3U761PEG7MFKT","gain","7","","75","K","1","","0","0","1","0.2","0","true","0","0.8","0","80_20_practice","0.2","0","","","","","","","","","",""
"47","","bandit","35","129527","0.0-18.0-17.0","43361455","wem/bandit_single","A3U761PEG7MFKT","gain","7","","75","K","1","","1","0","0","0.2","0","true","0","0.8","0","80_20_practice","0.2","0","","","","","","","","","",""
"31","","bandit","36","131312","0.0-18.0-18.0","43361455","wem/bandit_single","A3U761PEG7MFKT","gain","7","","75","K","1","","1","0","0","0.2","0","true","0","0.8","0","80_20_practice","0.2","0","","","","","","","","","",""
"3256","","bandit","37","136321","0.0-18.0-19.0","43361455","wem/bandit_single","A3U761PEG7MFKT","gain","7","","75","K","1","","0","0","1","0.2","0","true","0","0.8","0","80_20_practice","0.2","0","","","","","","","","","",""
"2757","","text","38","139331","0.0-19.0","43361455","wem/bandit_single","A3U761PEG7MFKT","gain","7","32","","","","","","","","","","","","","","","","","","","","","","","","","",""
"1734","","bandit","39","142567","0.0-20.0-0.0","43361455","wem/bandit_single","A3U761PEG7MFKT","gain","7","","74","J","0","img/none_selected_demo.jpg","0","0","1","0","0","true","0","0","0","","0","0","","","","","","","","","",""
"5033","","text","40","147853","0.0-21.0","43361455","wem/bandit_single","A3U761PEG7MFKT","gain","7","32","","","","","","","","","","","","","","","","","","","","","","","","","",""
"2836","","text","41","150691","0.0-22.0","43361455","wem/bandit_single","A3U761PEG7MFKT","gain","7","32","","","","","","","","","","","","","","","","","","","","","","","","","",""
"2255","","text","42","152947","0.0-23.0","43361455","wem/bandit_single","A3U761PEG7MFKT","gain","7","32","","","","","","","","","","","","","","","","","","","","","","","","","",""
"1911","","text","43","154860","0.0-24.0","43361455","wem/bandit_single","A3U761PEG7MFKT","gain","7","32","","","","","","","","","","","","","","","","","","","","","","","","","",""
"2854","","text","44","157716","0.0-25.0","43361455","wem/bandit_single","A3U761PEG7MFKT","gain","7","32","","","","","","","","","","","","","","","","","","","","","","","","","",""
"2296","","text","45","160014","0.0-26.0","43361455","wem/bandit_single","A3U761PEG7MFKT","gain","7","32","","","","","","","","","","","","","","","","","","","","","","","","","",""
"2597","","text","46","162612","0.0-27.0","43361455","wem/bandit_single","A3U761PEG7MFKT","gain","7","32","","","","","","","","","","","","","","","","","","","","","","","","","",""
"2876","","text","47","165492","0.0-28.0","43361455","wem/bandit_single","A3U761PEG7MFKT","gain","7","32","","","","","","","","","","","","","","","","","","","","","","","","","",""
"6337","","text","48","171831","0.0-29.0","43361455","wem/bandit_single","A3U761PEG7MFKT","gain","7","32","","","","","","","","","","","","","","","","","","","","","","","","","",""
"2020","","text","49","173853","0.0-30.0","43361455","wem/bandit_single","A3U761PEG7MFKT","gain","7","32","","","","","","","","","","","","","","","","","","","","","","","","","",""
"3758","","text","50","177613","0.0-31.0","43361455","wem/bandit_single","A3U761PEG7MFKT","gain","7","32","","","","","","","","","","","","","","","","","","","","","","","","","",""
"718","","bandit","51","179834","0.0-32.0-0.0","43361455","wem/bandit_single","A3U761PEG7MFKT","gain","7","","74","J","1","","1","0","0","0.2","0","true","0","0.8","0","full_practice","0.2","0","0.6","0","0.2","0","","","","","",""
"62","","bandit","52","181650","0.0-32.0-1.0","43361455","wem/bandit_single","A3U761PEG7MFKT","gain","7","","74","J","1","","0","0","1","0.2","0","true","0","0.8","0","full_practice","0.2","0","0.6","0","0.2","0","","","","","",""
"80","","bandit","53","183486","0.0-32.0-2.0","43361455","wem/bandit_single","A3U761PEG7MFKT","gain","7","","74","J","1","","0","0","1","0.2","0","true","0","0.8","0","full_practice","0.2","0","0.6","0","0.2","0","","","","","",""
"58","","bandit","54","185297","0.0-32.0-3.0","43361455","wem/bandit_single","A3U761PEG7MFKT","gain","7","","72","H","0","img/none_selected.jpg","1","0","0","0.8","0","true","0","0.8","0","full_practice","0.2","0","0.6","0","0.2","0","","","","","",""
"63","","bandit","55","187115","0.0-32.0-4.0","43361455","wem/bandit_single","A3U761PEG7MFKT","gain","7","","72","H","0","img/none_selected.jpg","1","0","0","0.8","0","true","0","0.8","0","full_practice","0.2","0","0.6","0","0.2","0","","","","","",""
"30","","bandit","56","188898","0.0-32.0-5.0","43361455","wem/bandit_single","A3U761PEG7MFKT","gain","7","","72","H","0","img/none_selected.jpg","1","0","0","0.8","0","true","0","0.8","0","full_practice","0.2","0","0.6","0","0.2","0","","","","","",""
"22","","bandit","57","190673","0.0-32.0-6.0","43361455","wem/bandit_single","A3U761PEG7MFKT","gain","7","","72","H","0","img/none_selected.jpg","1","0","0","0.8","0","true","0","0.8","0","full_practice","0.2","0","0.6","0","0.2","0","","","","","",""
"545","","bandit","58","192971","0.0-32.0-7.0","43361455","wem/bandit_single","A3U761PEG7MFKT","gain","7","","72","H","0","img/none_selected.jpg","1","0","0","0.8","0","true","0","0.8","0","full_practice","0.2","0","0.6","0","0.2","0","","","","","",""
"429","","bandit","59","195156","0.0-32.0-8.0","43361455","wem/bandit_single","A3U761PEG7MFKT","gain","7","","72","H","0","img/none_selected.jpg","1","0","0","0.8","0","true","0","0.8","0","full_practice","0.2","0","0.6","0","0.2","0","","","","","",""
"52","","bandit","60","196962","0.0-32.0-9.0","43361455","wem/bandit_single","A3U761PEG7MFKT","gain","7","","72","H","0","img/none_selected.jpg","1","0","0","0.8","0","true","0","0.8","0","full_practice","0.2","0","0.6","0","0.2","0","","","","","",""
"79","","bandit","61","198795","0.0-32.0-10.0","43361455","wem/bandit_single","A3U761PEG7MFKT","gain","7","","72","H","0","img/none_selected.jpg","0","0","1","0.8","0","true","0","0.8","0","full_practice","0.2","0","0.6","0","0.2","0","","","","","",""
"85","","bandit","62","200635","0.0-32.0-11.0","43361455","wem/bandit_single","A3U761PEG7MFKT","gain","7","","72","H","0","img/none_selected.jpg","1","0","0","0.8","0","true","0","0.8","0","full_practice","0.2","0","0.6","0","0.2","0","","","","","",""
"23","","bandit","63","202413","0.0-32.0-12.0","43361455","wem/bandit_single","A3U761PEG7MFKT","gain","7","","72","H","0","img/none_selected.jpg","1","0","0","0.8","0","true","0","0.8","0","full_practice","0.2","0","0.6","0","0.2","0","","","","","",""
"20","","bandit","64","204188","0.0-32.0-13.0","43361455","wem/bandit_single","A3U761PEG7MFKT","gain","7","","72","H","0","img/none_selected.jpg","1","0","0","0.8","0","true","0","0.8","0","full_practice","0.2","0","0.6","0","0.2","0","","","","","",""
"48","","bandit","65","205990","0.0-32.0-14.0","43361455","wem/bandit_single","A3U761PEG7MFKT","gain","7","","72","H","0","img/none_selected.jpg","1","0","0","0.8","0","true","0","0.8","0","full_practice","0.2","0","0.6","0","0.2","0","","","","","",""
"37","","bandit","66","207779","0.0-32.0-15.0","43361455","wem/bandit_single","A3U761PEG7MFKT","gain","7","","72","H","0","img/none_selected.jpg","1","0","0","0.8","0","true","0","0.8","0","full_practice","0.2","0","0.6","0","0.2","0","","","","","",""
"8","","bandit","67","209540","0.0-32.0-16.0","43361455","wem/bandit_single","A3U761PEG7MFKT","gain","7","","72","H","0","img/none_selected.jpg","0","0","1","0.8","0","true","0","0.8","0","full_practice","0.2","0","0.6","0","0.2","0","","","","","",""
"389","","bandit","68","211686","0.0-32.0-17.0","43361455","wem/bandit_single","A3U761PEG7MFKT","gain","7","","72","H","0","img/none_selected.jpg","1","0","0","0.8","0","true","0","0.8","0","full_practice","0.2","0","0.6","0","0.2","0","","","","","",""
"20","","bandit","69","213460","0.0-32.0-18.0","43361455","wem/bandit_single","A3U761PEG7MFKT","gain","7","","72","H","0","img/none_selected.jpg","1","0","0","0.8","0","true","0","0.8","0","full_practice","0.2","0","0.6","0","0.2","0","","","","","",""
"30","","bandit","70","215245","0.0-32.0-19.0","43361455","wem/bandit_single","A3U761PEG7MFKT","gain","7","","72","H","0","img/none_selected.jpg","1","0","0","0.8","0","true","0","0.8","0","full_practice","0.2","0","0.6","0","0.2","0","","","","","",""
"1810","","text","71","217312","0.0-33.0","43361455","wem/bandit_single","A3U761PEG7MFKT","gain","7","32","","","","","","","","","","","","","","","","","","","","","","","","","",""
"8033","","text","72","226347","0.0-34.0","43361455","wem/bandit_single","A3U761PEG7MFKT","gain","7","32","","","","","","","","","","","","","","","","","","","","","","","","","",""
"7724","","text","73","234073","0.0-35.0","43361455","wem/bandit_single","A3U761PEG7MFKT","gain","7","32","","","","","","","","","","","","","","","","","","","","","","","","","",""
"2078","","text","74","236153","0.0-36.0","43361455","wem/bandit_single","A3U761PEG7MFKT","gain","7","32","","","","","","","","","","","","","","","","","","","","","","","","","",""
"3863","","text","75","240020","0.0-37.0","43361455","wem/bandit_single","A3U761PEG7MFKT","gain","7","32","","","","","","","","","","","","","","","","","","","","","","","","","",""
"1530","","bandit","76","243055","0.0-38.0-0.0","43361455","wem/bandit_single","A3U761PEG7MFKT","gain","7","","72","H","0","img/none_selected.jpg","0","0","1","0.182860278","","false","1","0.182860278","","main_expt","0.05137684772","","0.4656663819","","0.2046929885","","","","","","",""
"141","","bandit","77","244950","0.0-39.0-0.0","43361455","wem/bandit_single","A3U761PEG7MFKT","gain","7","","74","J","1","","0","0","1","0.07150319997","","false","2","0.1824128093","","main_expt","0.07150319997","","0.4696156166","","0.1903203277","","","","","","",""
"47","","bandit","78","246751","0.0-40.0-0.0","43361455","wem/bandit_single","A3U761PEG7MFKT","gain","7","","75","K","2","","1","0","0","0.477042595","","false","3","0.1671989933","","main_expt","0.080703679","","0.477042595","","0.1806567389","","","","","","",""
"101","","bandit","79","248607","0.0-41.0-0.0","43361455","wem/bandit_single","A3U761PEG7MFKT","gain","7","","75","K","2","","1","0","0","0.4833388502","","false","4","0.1769774761","","main_expt","0.09206073837","","0.4833388502","","0.1746643784","","","","","","",""
"135","","bandit","80","250496","0.0-42.0-0.0","43361455","wem/bandit_single","A3U761PEG7MFKT","gain","7","","75","K","2","","0","0","1","0.4679643189","","false","5","0.1847579949","","main_expt","0.09846378213","","0.4679643189","","0.1575849224","","","","","","",""
"88","","bandit","81","252338","0.0-43.0-0.0","43361455","wem/bandit_single","A3U761PEG7MFKT","gain","7","","75","K","2","","0","0","1","0.4728114282","","false","6","0.2263389119","","main_expt","0.07982937149","","0.4728114282","","0.1848921601","","","","","","",""
"59","","bandit","82","254152","0.0-44.0-0.0","43361455","wem/bandit_single","A3U761PEG7MFKT","gain","7","","76","L","3","","0","0","1","0.2090417599","","false","7","0.233500047","","main_expt","0.08361087011","","0.4763129956","","0.2090417599","","","","","","",""
"62","","bandit","83","255967","0.0-45.0-0.0","43361455","wem/bandit_single","A3U761PEG7MFKT","gain","7","","75","K","2","","1","0","0","0.4605171502","","false","8","0.2213385325","","main_expt","0.1210475052","","0.4605171502","","0.2340345007","","","","","","",""
"214","","bandit","84","257934","0.0-46.0-0.0","43361455","wem/bandit_single","A3U761PEG7MFKT","gain","7","","75","K","2","","0","0","1","0.457599345","","false","9","0.216727727","","main_expt","0.1023248189","","0.457599345","","0.2388832632","","","","","","",""
"47","","bandit","85","259736","0.0-47.0-0.0","43361455","wem/bandit_single","A3U761PEG7MFKT","gain","7","","75","K","2","","0","0","1","0.4514273669","","false","10","0.1757193701","","main_expt","0.1311876697","","0.4514273669","","0.2336568073","","","","","","",""
"67","","bandit","86","261558","0.0-48.0-0.0","43361455","wem/bandit_single","A3U761PEG7MFKT","gain","7","","74","J","1","","0","0","1","0.1171839072","","false","11","0.221687112","","main_expt","0.1171839072","","0.461109344","","0.2682397485","","","","","","",""
"57","","bandit","87","263371","0.0-49.0-0.0","43361455","wem/bandit_single","A3U761PEG7MFKT","gain","7","","76","L","3","","0","0","1","0.2855743842","","false","12","0.1693148256","","main_expt","0.09103905321","","0.4750360261","","0.2855743842","","","","","","",""
"68","","bandit","88","265195","0.0-50.0-0.0","43361455","wem/bandit_single","A3U761PEG7MFKT","gain","7","","72","H","0","img/none_selected.jpg","0","0","1","0.1861997022","","false","13","0.1861997022","","main_expt","0.08195125901","","0.4882900813","","0.2877368863","","","","","","",""
"89","","bandit","89","267040","0.0-51.0-0.0","43361455","wem/bandit_single","A3U761PEG7MFKT","gain","7","","75","K","2","","1","0","0","0.4836145896","","false","14","0.2056371894","","main_expt","0.1022478824","","0.4836145896","","0.2904717711","","","","","","",""
"127","","bandit","90","268920","0.0-52.0-0.0","43361455","wem/bandit_single","A3U761PEG7MFKT","gain","7","","75","K","2","","1","0","0","0.4841526839","","false","15","0.207651467","","main_expt","0.1295923723","","0.4841526839","","0.3145527135","","","","","","",""
"85","","bandit","91","270762","0.0-53.0-0.0","43361455","wem/bandit_single","A3U761PEG7MFKT","gain","7","","75","K","2","","1","0","0","0.4733209008","","false","16","0.264879833","","main_expt","0.1259026636","","0.4733209008","","0.2919685568","","","","","","",""
"75","","bandit","92","272593","0.0-54.0-0.0","43361455","wem/bandit_single","A3U761PEG7MFKT","gain","7","","75","K","2","","0","0","1","0.4548629562","","false","17","0.301226273","","main_expt","0.08714849596","","0.4548629562","","0.2437915417","","","","","","",""
"39","","bandit","93","274388","0.0-55.0-0.0","43361455","wem/bandit_single","A3U761PEG7MFKT","gain","7","","75","K","2","","0","0","1","0.4423108412","","false","18","0.3355017989","","main_expt","0.06082296625","","0.4423108412","","0.2139729843","","","","","","",""
"74","","bandit","94","276217","0.0-56.0-0.0","43361455","wem/bandit_single","A3U761PEG7MFKT","gain","7","","74","J","1","","0","0","1","0.04376078701","","false","19","0.4066928382","","main_expt","0.04376078701","","0.4510346454","","0.2117718275","","","","","","",""
"61","","bandit","95","278032","0.0-57.0-0.0","43361455","wem/bandit_single","A3U761PEG7MFKT","gain","7","","75","K","2","","0","0","1","0.4522943673","","false","20","0.4152799178","","main_expt","0.0431273538","","0.4522943673","","0.2128214431","","","","","","",""
"38","","bandit","96","279825","0.0-58.0-0.0","43361455","wem/bandit_single","A3U761PEG7MFKT","gain","7","","76","L","3","","0","0","1","0.2557511999","","false","21","0.4005545413","","main_expt","0.05700218709","","0.4213917452","","0.2557511999","","","","","","",""
"78","","bandit","97","281657","0.0-59.0-0.0","43361455","wem/bandit_single","A3U761PEG7MFKT","gain","7","","75","K","2","","0","0","1","0.4055738921","","false","22","0.4065945052","","main_expt","0.03008320558","","0.4055738921","","0.2240556206","","","","","","",""
"13","","bandit","98","283424","0.0-60.0-0.0","43361455","wem/bandit_single","A3U761PEG7MFKT","gain","7","","72","H","0","img/none_selected.jpg","1","0","0","0.4396923884","","false","23","0.4396923884","","main_expt","0.04675245401","","0.4102744642","","0.1913455436","","","","","","",""
"80","","bandit","99","285259","0.0-61.0-0.0","43361455","wem/bandit_single","A3U761PEG7MFKT","gain","7","","72","H","0","img/none_selected.jpg","1","0","0","0.4414607804","","false","24","0.4414607804","","main_expt","0.02664245213","","0.4215519413","","0.1767964116","","","","","","",""
"19","","bandit","100","287033","0.0-62.0-0.0","43361455","wem/bandit_single","A3U761PEG7MFKT","gain","7","","72","H","0","img/none_selected.jpg","1","0","0","0.430597795","","false","25","0.430597795","","main_expt","0.02443183667","","0.4076768117","","0.1667721477","","","","","","",""
"24","","bandit","101","288812","0.0-63.0-0.0","43361455","wem/bandit_single","A3U761PEG7MFKT","gain","7","","72","H","0","img/none_selected.jpg","1","0","0","0.4049624372","","false","26","0.4049624372","","main_expt","0.02765515704","","0.3563873355","","0.132468293","","","","","","",""
"34","","bandit","102","290602","0.0-64.0-0.0","43361455","wem/bandit_single","A3U761PEG7MFKT","gain","7","","72","H","0","img/none_selected.jpg","0","0","1","0.3959859591","","false","27","0.3959859591","","main_expt","0.05751586542","","0.3305608977","","0.1283549716","","","","","","",""
"37","","bandit","103","292394","0.0-65.0-0.0","43361455","wem/bandit_single","A3U761PEG7MFKT","gain","7","","72","H","0","img/none_selected.jpg","1","0","0","0.4316273603","","false","28","0.4316273603","","main_expt","0.1046410472","","0.323916825","","0.1218888314","","","","","","",""
"44","","bandit","104","294196","0.0-66.0-0.0","43361455","wem/bandit_single","A3U761PEG7MFKT","gain","7","","72","H","0","img/none_selected.jpg","0","0","1","0.4618757987","","false","29","0.4618757987","","main_expt","0.1174110135","","0.3256975875","","0.08739650486","","","","","","",""
"14","","bandit","105","295964","0.0-67.0-0.0","43361455","wem/bandit_single","A3U761PEG7MFKT","gain","7","","72","H","0","img/none_selected.jpg","1","0","0","0.4764599947","","false","30","0.4764599947","","main_expt","0.09344635718","","0.3590663193","","0.1113113005","","","","","","",""
"36","","bandit","106","297755","0.0-68.0-0.0","43361455","wem/bandit_single","A3U761PEG7MFKT","gain","7","","72","H","0","img/none_selected.jpg","1","0","0","0.4870567238","","false","31","0.4870567238","","main_expt","0.07228097062","","0.2794303661","","0.1234593762","","","","","","",""
"20","","bandit","107","299531","0.0-69.0-0.0","43361455","wem/bandit_single","A3U761PEG7MFKT","gain","7","","72","H","0","img/none_selected.jpg","0","0","1","0.4744541924","","false","32","0.4744541924","","main_expt","0.06660380695","","0.2725021833","","0.1204693509","","","","","","",""
"4","","bandit","108","301290","0.0-70.0-0.0","43361455","wem/bandit_single","A3U761PEG7MFKT","gain","7","","72","H","0","img/none_selected.jpg","0","0","1","0.4595636441","","false","33","0.4595636441","","main_expt","0.06161000393","","0.2662358977","","0.1525092538","","","","","","",""
"46","","bandit","109","303090","0.0-71.0-0.0","43361455","wem/bandit_single","A3U761PEG7MFKT","gain","7","","74","J","1","","0","0","1","0.08245015188","","false","34","0.4700794195","","main_expt","0.08245015188","","0.3062719381","","0.0933794629","","","","","","",""
"52","","bandit","110","304900","0.0-72.0-0.0","43361455","wem/bandit_single","A3U761PEG7MFKT","gain","7","","75","K","2","","0","0","1","0.3199342551","","false","35","0.46481425","","main_expt","0.08195488018","","0.3199342551","","0.06693018499","","","","","","",""
"452","","bandit","111","307106","0.0-73.0-0.0","43361455","wem/bandit_single","A3U761PEG7MFKT","gain","7","","76","L","3","","0","0","1","0.09916465935","","false","36","0.4518384169","","main_expt","0.1004102013","","0.3039619122","","0.09916465935","","","","","","",""
"230","","bandit","112","309090","0.0-74.0-0.0","43361455","wem/bandit_single","A3U761PEG7MFKT","gain","7","","74","J","1","","0","0","1","0.1390326598","","false","37","0.439581627","","main_expt","0.1390326598","","0.2927636057","","0.08872434017","","","","","","",""
"69","","bandit","113","310915","0.0-75.0-0.0","43361455","wem/bandit_single","A3U761PEG7MFKT","gain","7","","72","H","0","img/none_selected.jpg","0","0","1","0.3994664239","","false","38","0.3994664239","","main_expt","0.143322519","","0.3513205482","","0.08103487055","","","","","","",""
"62","","bandit","114","312731","0.0-76.0-0.0","43361455","wem/bandit_single","A3U761PEG7MFKT","gain","7","","75","K","2","","1","0","0","0.3199725693","","false","39","0.399239641","","main_expt","0.1439849427","","0.3199725693","","0.09262773223","","","","","","",""
"78","","bandit","115","314564","0.0-77.0-0.0","43361455","wem/bandit_single","A3U761PEG7MFKT","gain","7","","75","K","2","","0","0","1","0.2899826696","","false","40","0.3842971785","","main_expt","0.1813186375","","0.2899826696","","0.08276392867","","","","","","",""
"35","","bandit","116","316355","0.0-78.0-0.0","43361455","wem/bandit_single","A3U761PEG7MFKT","gain","7","","75","K","2","","0","0","1","0.2470457707","","false","41","0.3584077127","","main_expt","0.182623784","","0.2470457707","","0.07889170896","","","","","","",""
"223","","bandit","117","318334","0.0-79.0-0.0","43361455","wem/bandit_single","A3U761PEG7MFKT","gain","7","","75","K","2","","1","0","0","0.2860815649","","false","42","0.2940512223","","main_expt","0.1310997782","","0.2860815649","","0.1007082374","","","","","","",""
"75","","bandit","118","320163","0.0-80.0-0.0","43361455","wem/bandit_single","A3U761PEG7MFKT","gain","7","","75","K","2","","0","0","1","0.3649324249","","false","43","0.3274682868","","main_expt","0.1211351308","","0.3649324249","","0.04983151166","","","","","","",""
"85","","bandit","119","322004","0.0-81.0-0.0","43361455","wem/bandit_single","A3U761PEG7MFKT","gain","7","","75","K","2","","0","0","1","0.3722884938","","false","44","0.3105097628","","main_expt","0.1032393721","","0.3722884938","","0.06772206808","","","","","","",""
"101","","bandit","120","323861","0.0-82.0-0.0","43361455","wem/bandit_single","A3U761PEG7MFKT","gain","7","","75","K","2","","1","0","0","0.3589666793","","false","45","0.3253779088","","main_expt","0.145243047","","0.3589666793","","0.07082322934","","","","","","",""
"91","","bandit","121","325708","0.0-83.0-0.0","43361455","wem/bandit_single","A3U761PEG7MFKT","gain","7","","75","K","2","","0","0","1","0.309469461","","false","46","0.2907447256","","main_expt","0.1871821161","","0.309469461","","0.08302100682","","","","","","",""
"589","","bandit","122","328052","0.0-84.0-0.0","43361455","wem/bandit_single","A3U761PEG7MFKT","gain","7","","75","K","2","","1","0","0","0.3486132663","","false","47","0.2922490699","","main_expt","0.1827431821","","0.3486132663","","0.04947507936","","","","","","",""
"17","","bandit","123","329826","0.0-85.0-0.0","43361455","wem/bandit_single","A3U761PEG7MFKT","gain","7","","75","K","2","","0","0","1","0.3613151755","","false","48","0.3012354267","","main_expt","0.1863443356","","0.3613151755","","0.05970491685","","","","","","",""
"8","","bandit","124","331589","0.0-86.0-0.0","43361455","wem/bandit_single","A3U761PEG7MFKT","gain","7","","75","K","2","","1","0","0","0.3810076255","","false","49","0.3199255499","","main_expt","0.2089920758","","0.3810076255","","0.05846806591","","","","","","",""
"21","","bandit","125","333365","0.0-87.0-0.0","43361455","wem/bandit_single","A3U761PEG7MFKT","gain","7","","75","K","2","","0","0","1","0.3528158806","","false","50","0.3246792682","","main_expt","0.2204805957","","0.3528158806","","0.08078022322","","","","","","",""
"13","","bandit","126","335134","0.0-88.0-0.0","43361455","wem/bandit_single","A3U761PEG7MFKT","gain","7","","75","K","2","","1","0","0","0.4127521961","","false","51","0.3158487008","","main_expt","0.2796788854","","0.4127521961","","0.08366705542","","","","","","",""
"13","","bandit","127","336901","0.0-89.0-0.0","43361455","wem/bandit_single","A3U761PEG7MFKT","gain","7","","75","K","2","","0","0","1","0.4034362436","","false","52","0.2764666405","","main_expt","0.2870992152","","0.4034362436","","0.1365111474","","","","","","",""
"596","","bandit","128","339253","0.0-90.0-0.0","43361455","wem/bandit_single","A3U761PEG7MFKT","gain","7","","75","K","2","","1","0","0","0.4268522392","","false","53","0.2740398937","","main_expt","0.3176469779","","0.4268522392","","0.1238361543","","","","","","",""
"199","","bandit","129","341209","0.0-91.0-0.0","43361455","wem/bandit_single","A3U761PEG7MFKT","gain","7","","75","K","2","","0","0","1","0.4471231168","","false","54","0.2499565254","","main_expt","0.3407727651","","0.4471231168","","0.1150058699","","","","","","",""
"146","","bandit","130","343112","0.0-92.0-0.0","43361455","wem/bandit_single","A3U761PEG7MFKT","gain","7","","75","K","2","","0","0","1","0.4397300441","","false","55","0.221305586","","main_expt","0.380871147","","0.4397300441","","0.1498695165","","","","","","",""
"106","","bandit","131","344974","0.0-93.0-0.0","43361455","wem/bandit_single","A3U761PEG7MFKT","gain","7","","75","K","2","","1","0","0","0.4266514607","","false","56","0.2513729962","","main_expt","0.3614982187","","0.4266514607","","0.1559096332","","","","","","",""
"170","","bandit","132","346901","0.0-94.0-0.0","43361455","wem/bandit_single","A3U761PEG7MFKT","gain","7","","75","K","2","","0","0","1","0.4351066669","","false","57","0.254621842","","main_expt","0.3219973572","","0.4351066669","","0.139260175","","","","","","",""
"365","","bandit","133","349022","0.0-95.0-0.0","43361455","wem/bandit_single","A3U761PEG7MFKT","gain","7","","75","K","2","","1","0","0","0.4114765848","","false","58","0.2911199408","","main_expt","0.3136466855","","0.4114765848","","0.1101041774","","","","","","",""
"12","","bandit","134","350790","0.0-96.0-0.0","43361455","wem/bandit_single","A3U761PEG7MFKT","gain","7","","75","K","2","","1","0","0","0.4331866813","","false","59","0.3260103257","","main_expt","0.3553654786","","0.4331866813","","0.1619704935","","","","","","",""
"0","","bandit","135","352551","0.0-97.0-0.0","43361455","wem/bandit_single","A3U761PEG7MFKT","gain","7","","75","K","2","","0","0","1","0.4452666195","","false","60","0.3801831719","","main_expt","0.302494743","","0.4452666195","","0.1023472493","","","","","","",""
"1187","","bandit","136","355494","0.0-98.0-0.0","43361455","wem/bandit_single","A3U761PEG7MFKT","gain","7","","75","K","2","","0","0","1","0.4533212266","","false","61","0.4097171909","","main_expt","0.3194951829","","0.4533212266","","0.1659923055","","","","","","",""
"47","","bandit","137","357295","0.0-99.0-0.0","43361455","wem/bandit_single","A3U761PEG7MFKT","gain","7","","75","K","2","","0","0","1","0.4546633602","","false","62","0.4297251169","","main_expt","0.3491175101","","0.4546633602","","0.1773336283","","","","","","",""
"35","","bandit","138","359087","0.0-100.0-0.0","43361455","wem/bandit_single","A3U761PEG7MFKT","gain","7","","74","J","1","","0","0","1","0.3618657485","","false","63","0.4523537282","","main_expt","0.3618657485","","0.431915851","","0.1838898345","","","","","","",""
"20","","bandit","139","360863","0.0-101.0-0.0","43361455","wem/bandit_single","A3U761PEG7MFKT","gain","7","","72","H","0","img/none_selected.jpg","0","0","1","0.4577822331","","false","64","0.4577822331","","main_expt","0.3331995431","","0.4397857724","","0.1535376321","","","","","","",""
"69","","bandit","140","362688","0.0-102.0-0.0","43361455","wem/bandit_single","A3U761PEG7MFKT","gain","7","","76","L","3","","0","0","1","0.1696059705","","false","65","0.4366397349","","main_expt","0.3222916502","","0.3803141428","","0.1696059705","","","","","","",""
"90","","bandit","141","364536","0.0-103.0-0.0","43361455","wem/bandit_single","A3U761PEG7MFKT","gain","7","","74","J","1","","0","0","1","0.2935747005","","false","66","0.4223045317","","main_expt","0.2935747005","","0.4318665216","","0.1747776373","","","","","","",""
"43","","bandit","142","366335","0.0-104.0-0.0","43361455","wem/bandit_single","A3U761PEG7MFKT","gain","7","","72","H","0","img/none_selected.jpg","1","0","0","0.453094409","","false","67","0.453094409","","main_expt","0.272098099","","0.3783394243","","0.1880318686","","","","","","",""
"118","","bandit","143","368208","0.0-105.0-0.0","43361455","wem/bandit_single","A3U761PEG7MFKT","gain","7","","72","H","0","img/none_selected.jpg","0","0","1","0.4441165928","","false","68","0.4441165928","","main_expt","0.2839543474","","0.3424409758","","0.1703396733","","","","","","",""
"73","","bandit","144","370039","0.0-106.0-0.0","43361455","wem/bandit_single","A3U761PEG7MFKT","gain","7","","72","H","0","img/none_selected.jpg","1","0","0","0.437102529","","false","69","0.437102529","","main_expt","0.3106529802","","0.3825588005","","0.2041307244","","","","","","",""
"309","","bandit","145","372103","0.0-107.0-0.0","43361455","wem/bandit_single","A3U761PEG7MFKT","gain","7","","72","H","0","img/none_selected.jpg","1","0","0","0.463010405","","false","70","0.463010405","","main_expt","0.2152651325","","0.4019939479","","0.2380468473","","","","","","",""
"214","","bandit","146","374075","0.0-108.0-0.0","43361455","wem/bandit_single","A3U761PEG7MFKT","gain","7","","72","H","0","img/none_selected.jpg","0","0","1","0.4511055106","","false","71","0.4511055106","","main_expt","0.2150247356","","0.3995375499","","0.2540220497","","","","","","",""
"40","","bandit","147","375873","0.0-109.0-0.0","43361455","wem/bandit_single","A3U761PEG7MFKT","gain","7","","72","H","0","img/none_selected.jpg","0","0","1","0.456238914","","false","72","0.456238914","","main_expt","0.2196699897","","0.3655493795","","0.2877519017","","","","","","",""
"283","","bandit","148","377913","0.0-110.0-0.0","43361455","wem/bandit_single","A3U761PEG7MFKT","gain","7","","72","H","0","img/none_selected.jpg","0","0","1","0.4499554287","","false","73","0.4499554287","","main_expt","0.2086164273","","0.3443296275","","0.3090267326","","","","","","",""
"44","","bandit","149","379712","0.0-111.0-0.0","43361455","wem/bandit_single","A3U761PEG7MFKT","gain","7","","76","L","3","","1","0","0","0.3400901674","","false","74","0.4439780401","","main_expt","0.2226006448","","0.3647916216","","0.3400901674","","","","","","",""
"91","","bandit","150","381561","0.0-112.0-0.0","43361455","wem/bandit_single","A3U761PEG7MFKT","gain","7","","76","L","3","","0","0","1","0.3519214117","","false","75","0.4332341766","","main_expt","0.2015377479","","0.3531956798","","0.3519214117","","","","","","",""
"68","","bandit","151","383385","0.0-113.0-0.0","43361455","wem/bandit_single","A3U761PEG7MFKT","gain","7","","76","L","3","","0","0","1","0.3621584499","","false","76","0.4241516559","","main_expt","0.2614433548","","0.3375826797","","0.3621584499","","","","","","",""
"45","","bandit","152","385187","0.0-114.0-0.0","43361455","wem/bandit_single","A3U761PEG7MFKT","gain","7","","76","L","3","","1","0","0","0.3919288513","","false","77","0.404580079","","main_expt","0.3216300101","","0.3389323042","","0.3919288513","","","","","","",""
"82","","bandit","153","387024","0.0-115.0-0.0","43361455","wem/bandit_single","A3U761PEG7MFKT","gain","7","","76","L","3","","1","0","0","0.3733142104","","false","78","0.4291019186","","main_expt","0.3253900192","","0.3633343286","","0.3733142104","","","","","","",""
"4","","bandit","154","388784","0.0-116.0-0.0","43361455","wem/bandit_single","A3U761PEG7MFKT","gain","7","","76","L","3","","1","0","0","0.3594898906","","false","79","0.4431072694","","main_expt","0.3253799771","","0.35510173","","0.3594898906","","","","","","",""
"869","","bandit","155","391411","0.0-117.0-0.0","43361455","wem/bandit_single","A3U761PEG7MFKT","gain","7","","76","L","3","","1","0","0","0.3740263767","","false","80","0.4443251544","","main_expt","0.321449248","","0.3313699227","","0.3740263767","","","","","","",""
"202","","bandit","156","393369","0.0-118.0-0.0","43361455","wem/bandit_single","A3U761PEG7MFKT","gain","7","","76","L","3","","1","0","0","0.4031190442","","false","81","0.4222806544","","main_expt","0.3644617874","","0.3545786091","","0.4031190442","","","","","","",""
"13","","bandit","157","395136","0.0-119.0-0.0","43361455","wem/bandit_single","A3U761PEG7MFKT","gain","7","","76","L","3","","1","0","0","0.397551472","","false","82","0.4348184101","","main_expt","0.3646727683","","0.36958943","","0.397551472","","","","","","",""
"63","","bandit","158","396958","0.0-120.0-0.0","43361455","wem/bandit_single","A3U761PEG7MFKT","gain","7","","76","L","3","","0","0","1","0.4251589807","","false","83","0.4237956171","","main_expt","0.3823543101","","0.3818301908","","0.4251589807","","","","","","",""
"38","","bandit","159","398755","0.0-121.0-0.0","43361455","wem/bandit_single","A3U761PEG7MFKT","gain","7","","76","L","3","","1","0","0","0.406460911","","false","84","0.4255820551","","main_expt","0.3927357351","","0.3841316884","","0.406460911","","","","","","",""
"139","","bandit","160","400650","0.0-122.0-0.0","43361455","wem/bandit_single","A3U761PEG7MFKT","gain","7","","76","L","3","","0","0","1","0.4190094225","","false","85","0.4407045426","","main_expt","0.3242792488","","0.3769873451","","0.4190094225","","","","","","",""
"109","","bandit","161","402514","0.0-123.0-0.0","43361455","wem/bandit_single","A3U761PEG7MFKT","gain","7","","76","L","3","","0","0","1","0.4006115864","","false","86","0.4276882268","","main_expt","0.3257651096","","0.3624331431","","0.4006115864","","","","","","",""
"13","","bandit","162","404282","0.0-124.0-0.0","43361455","wem/bandit_single","A3U761PEG7MFKT","gain","7","","76","L","3","","1","0","0","0.3761684651","","false","87","0.4430021271","","main_expt","0.3768973447","","0.356636023","","0.3761684651","","","","","","",""
"60","","bandit","163","406098","0.0-125.0-0.0","43361455","wem/bandit_single","A3U761PEG7MFKT","gain","7","","76","L","3","","0","0","1","0.3935355307","","false","88","0.4259892117","","main_expt","0.3333804566","","0.392705536","","0.3935355307","","","","","","",""
"31","","bandit","164","407885","0.0-126.0-0.0","43361455","wem/bandit_single","A3U761PEG7MFKT","gain","7","","76","L","3","","0","0","1","0.3870426381","","false","89","0.4451393147","","main_expt","0.3326985542","","0.39579544","","0.3870426381","","","","","","",""
"9","","bandit","165","409650","0.0-127.0-0.0","43361455","wem/bandit_single","A3U761PEG7MFKT","gain","7","","76","L","3","","0","0","1","0.3838573884","","false","90","0.4450202473","","main_expt","0.3392082427","","0.3832348421","","0.3838573884","","","","","","",""
"12","","bandit","166","411417","0.0-128.0-0.0","43361455","wem/bandit_single","A3U761PEG7MFKT","gain","7","","75","K","2","","1","0","0","0.4009824957","","false","91","0.428726471","","main_expt","0.2686139101","","0.4009824957","","0.376063899","","","","","","",""
"182","","bandit","167","413355","0.0-129.0-0.0","43361455","wem/bandit_single","A3U761PEG7MFKT","gain","7","","75","K","2","","0","0","1","0.360902971","","false","92","0.4207086611","","main_expt","0.247120026","","0.360902971","","0.3877690924","","","","","","",""
"155","","bandit","168","415267","0.0-130.0-0.0","43361455","wem/bandit_single","A3U761PEG7MFKT","gain","7","","75","K","2","","0","0","1","0.4098322422","","false","93","0.4271109851","","main_expt","0.1945967668","","0.4098322422","","0.3832772702","","","","","","",""
"124","","bandit","169","417147","0.0-131.0-0.0","43361455","wem/bandit_single","A3U761PEG7MFKT","gain","7","","75","K","2","","1","0","0","0.365685068","","false","94","0.3988025755","","main_expt","0.2059940606","","0.365685068","","0.3569295009","","","","","","",""
"143","","bandit","170","419045","0.0-132.0-0.0","43361455","wem/bandit_single","A3U761PEG7MFKT","gain","7","","75","K","2","","0","0","1","0.3246475432","","false","95","0.3413505888","","main_expt","0.2276463074","","0.3246475432","","0.3462427099","","","","","","",""
"250","","bandit","171","421052","0.0-133.0-0.0","43361455","wem/bandit_single","A3U761PEG7MFKT","gain","7","","75","K","2","","0","0","1","0.3155220288","","false","96","0.2791034264","","main_expt","0.3088064785","","0.3155220288","","0.2902370181","","","","","","",""
"28","","bandit","172","422835","0.0-134.0-0.0","43361455","wem/bandit_single","A3U761PEG7MFKT","gain","7","","75","K","2","","0","0","1","0.2920368253","","false","97","0.2300358144","","main_expt","0.3167474357","","0.2920368253","","0.2679909325","","","","","","",""
"412","","bandit","173","425003","0.0-135.0-0.0","43361455","wem/bandit_single","A3U761PEG7MFKT","gain","7","","74","J","1","","1","0","0","0.3311058144","","false","98","0.245913642","","main_expt","0.3311058144","","0.3060047135","","0.1827708427","","","","","","",""
"188","","bandit","174","426947","0.0-136.0-0.0","43361455","wem/bandit_single","A3U761PEG7MFKT","gain","7","","74","J","1","","0","0","1","0.2831383079","","false","99","0.1977736678","","main_expt","0.2831383079","","0.2834300817","","0.1847148603","","","","","","",""
"61","","bandit","175","428764","0.0-137.0-0.0","43361455","wem/bandit_single","A3U761PEG7MFKT","gain","7","","74","J","1","","0","0","1","0.2697282324","","false","100","0.2300987319","","main_expt","0.2697282324","","0.3094748938","","0.230590463","","","","","","",""
"94","","bandit","176","430615","0.0-138.0-0.0","43361455","wem/bandit_single","A3U761PEG7MFKT","gain","7","","74","J","1","","1","0","0","0.2908511313","","false","101","0.2375929523","","main_expt","0.2908511313","","0.2776834174","","0.2036778932","","","","","","",""
"65","","bandit","177","432438","0.0-139.0-0.0","43361455","wem/bandit_single","A3U761PEG7MFKT","gain","7","","74","J","1","","0","0","1","0.3371086545","","false","102","0.2034833152","","main_expt","0.3371086545","","0.2649828438","","0.2146692458","","","","","","",""
"105","","bandit","178","434299","0.0-140.0-0.0","43361455","wem/bandit_single","A3U761PEG7MFKT","gain","7","","74","J","1","","1","0","0","0.2925399581","","false","103","0.2510503681","","main_expt","0.2925399581","","0.1977849252","","0.2194044235","","","","","","",""
"29","","bandit","179","436085","0.0-141.0-0.0","43361455","wem/bandit_single","A3U761PEG7MFKT","gain","7","","74","J","1","","1","0","0","0.229866195","","false","104","0.2563420723","","main_expt","0.229866195","","0.164180841","","0.2869514305","","","","","","",""
"107","","bandit","180","437948","0.0-142.0-0.0","43361455","wem/bandit_single","A3U761PEG7MFKT","gain","7","","74","J","1","","0","0","1","0.2786648232","","false","105","0.2025228913","","main_expt","0.2786648232","","0.1410880488","","0.2577924419","","","","","","",""
"148","","bandit","181","439852","0.0-143.0-0.0","43361455","wem/bandit_single","A3U761PEG7MFKT","gain","7","","74","J","1","","0","0","1","0.2907959635","","false","106","0.2288818116","","main_expt","0.2907959635","","0.2151151798","","0.2984789445","","","","","","",""
"150","","bandit","182","441760","0.0-144.0-0.0","43361455","wem/bandit_single","A3U761PEG7MFKT","gain","7","","74","J","1","","1","0","0","0.2934471614","","false","107","0.2725684277","","main_expt","0.2934471614","","0.2068678097","","0.2483059356","","","","","","",""
"17","","bandit","183","443534","0.0-145.0-0.0","43361455","wem/bandit_single","A3U761PEG7MFKT","gain","7","","74","J","1","","0","0","1","0.2761460559","","false","108","0.2725367566","","main_expt","0.2761460559","","0.1775779384","","0.2177203031","","","","","","",""
"18","","bandit","184","445308","0.0-146.0-0.0","43361455","wem/bandit_single","A3U761PEG7MFKT","gain","7","","74","J","1","","0","0","1","0.3154055318","","false","109","0.2645412755","","main_expt","0.3154055318","","0.1633907035","","0.2155336726","","","","","","",""
"396","","bandit","185","447460","0.0-147.0-0.0","43361455","wem/bandit_single","A3U761PEG7MFKT","gain","7","","74","J","1","","0","0","1","0.3375256398","","false","110","0.2537238549","","main_expt","0.3375256398","","0.1918139944","","0.2012134729","","","","","","",""
"156","","bandit","186","449371","0.0-148.0-0.0","43361455","wem/bandit_single","A3U761PEG7MFKT","gain","7","","72","H","0","img/none_selected.jpg","0","0","1","0.2404930496","","false","111","0.2404930496","","main_expt","0.3575411602","","0.1512725872","","0.1362677005","","","","","","",""
"35","","bandit","187","451166","0.0-149.0-0.0","43361455","wem/bandit_single","A3U761PEG7MFKT","gain","7","","72","H","0","img/none_selected.jpg","0","0","1","0.2031918028","","false","112","0.2031918028","","main_expt","0.3357984678","","0.1579322392","","0.1146466799","","","","","","",""
"44","","bandit","188","452967","0.0-150.0-0.0","43361455","wem/bandit_single","A3U761PEG7MFKT","gain","7","","75","K","2","","0","0","1","0.1638150459","","false","113","0.2649243105","","main_expt","0.2950954247","","0.1638150459","","0.1503083978","","","","","","",""
"39","","bandit","189","454763","0.0-151.0-0.0","43361455","wem/bandit_single","A3U761PEG7MFKT","gain","7","","75","K","2","","0","0","1","0.1913716077","","false","114","0.2669290767","","main_expt","0.3242299597","","0.1913716077","","0.1750780752","","","","","","",""
"85","","bandit","190","456604","0.0-152.0-0.0","43361455","wem/bandit_single","A3U761PEG7MFKT","gain","7","","76","L","3","","0","0","1","0.1486636943","","false","115","0.2538219684","","main_expt","0.3224166769","","0.1762938339","","0.1486636943","","","","","","",""
"988","","bandit","191","459348","0.0-153.0-0.0","43361455","wem/bandit_single","A3U761PEG7MFKT","gain","7","","76","L","3","","1","0","0","0.149377163","","false","116","0.2987800907","","main_expt","0.3512221687","","0.1696576366","","0.149377163","","","","","","",""
"20","","bandit","192","461125","0.0-154.0-0.0","43361455","wem/bandit_single","A3U761PEG7MFKT","gain","7","","76","L","3","","1","0","0","0.1255156769","","false","117","0.2863147972","","main_expt","0.3854596622","","0.1743908607","","0.1255156769","","","","","","",""
"93","","bandit","193","462975","0.0-155.0-0.0","43361455","wem/bandit_single","A3U761PEG7MFKT","gain","7","","76","L","3","","0","0","1","0.09405737873","","false","118","0.2863485017","","main_expt","0.3311459155","","0.2187419408","","0.09405737873","","","","","","",""
"121","","bandit","194","464853","0.0-156.0-0.0","43361455","wem/bandit_single","A3U761PEG7MFKT","gain","7","","76","L","3","","0","0","1","0.0580133569","","false","119","0.2704451175","","main_expt","0.3243143835","","0.2602037773","","0.0580133569","","","","","","",""
"29","","bandit","195","466636","0.0-157.0-0.0","43361455","wem/bandit_single","A3U761PEG7MFKT","gain","7","","76","L","3","","0","0","1","0.04965982272","","false","120","0.2545920365","","main_expt","0.3830596167","","0.2665240463","","0.04965982272","","","","","","",""
"60","","bandit","196","468454","0.0-158.0-0.0","43361455","wem/bandit_single","A3U761PEG7MFKT","gain","7","","75","K","2","","0","0","1","0.2300357123","","false","121","0.323502768","","main_expt","0.4451194006","","0.2300357123","","0.05452098248","","","","","","",""
"18","","bandit","197","470231","0.0-159.0-0.0","43361455","wem/bandit_single","A3U761PEG7MFKT","gain","7","","74","J","1","","1","0","0","0.4636898934","","false","122","0.3380353075","","main_expt","0.4636898934","","0.2071140152","","0.0475995955","","","","","","",""
"26","","bandit","198","472014","0.0-160.0-0.0","43361455","wem/bandit_single","A3U761PEG7MFKT","gain","7","","74","J","1","","0","0","1","0.4384370655","","false","123","0.341491638","","main_expt","0.4384370655","","0.2590656513","","0.04799769062","","","","","","",""
"53","","bandit","199","473824","0.0-161.0-0.0","43361455","wem/bandit_single","A3U761PEG7MFKT","gain","7","","74","J","1","","1","0","0","0.456933673","","false","124","0.3269941981","","main_expt","0.456933673","","0.2492473134","","0.06454195205","","","","","","",""
"26","","bandit","200","475607","0.0-162.0-0.0","43361455","wem/bandit_single","A3U761PEG7MFKT","gain","7","","74","J","1","","0","0","1","0.4834692703","","false","125","0.3263020805","","main_expt","0.4834692703","","0.2569957816","","0.0570469748","","","","","","",""
"33","","bandit","201","477398","0.0-163.0-0.0","43361455","wem/bandit_single","A3U761PEG7MFKT","gain","7","","74","J","1","","1","0","0","0.4895912119","","false","126","0.3377655475","","main_expt","0.4895912119","","0.2715808503","","0.06214194377","","","","","","",""
"45","","bandit","202","479199","0.0-164.0-0.0","43361455","wem/bandit_single","A3U761PEG7MFKT","gain","7","","74","J","1","","1","0","0","0.4791977258","","false","127","0.3489319456","","main_expt","0.4791977258","","0.3260406689","","0.06219251386","","","","","","",""
"59","","bandit","203","481015","0.0-165.0-0.0","43361455","wem/bandit_single","A3U761PEG7MFKT","gain","7","","74","J","1","","0","0","1","0.4772399827","","false","128","0.3450526125","","main_expt","0.4772399827","","0.3487232841","","0.06192095676","","","","","","",""
"1060","","bandit","204","483833","0.0-166.0-0.0","43361455","wem/bandit_single","A3U761PEG7MFKT","gain","7","","74","J","1","","1","0","0","0.4688955373","","false","129","0.3297424559","","main_expt","0.4688955373","","0.3601162145","","0.03846933599","","","","","","",""
"16","","bandit","205","485607","0.0-167.0-0.0","43361455","wem/bandit_single","A3U761PEG7MFKT","gain","7","","74","J","1","","0","0","1","0.4651179545","","false","130","0.3731420779","","main_expt","0.4651179545","","0.4185413006","","0.02330960587","","","","","","",""
"707","","bandit","206","488071","0.0-168.0-0.0","43361455","wem/bandit_single","A3U761PEG7MFKT","gain","7","","74","J","1","","0","0","1","0.4794739162","","false","131","0.325638262","","main_expt","0.4794739162","","0.4537663544","","0.03495479357","","","","","","",""
"35","","bandit","207","489863","0.0-169.0-0.0","43361455","wem/bandit_single","A3U761PEG7MFKT","gain","7","","75","K","2","","0","0","1","0.4489861829","","false","132","0.3132782049","","main_expt","0.4679846252","","0.4489861829","","0.02752519027","","","","","","",""
"147","","bandit","208","491766","0.0-170.0-0.0","43361455","wem/bandit_single","A3U761PEG7MFKT","gain","7","","75","K","2","","0","0","1","0.4465240103","","false","133","0.3552481716","","main_expt","0.4636487781","","0.4465240103","","0.03239645132","","","","","","",""
"17773","","bandit","209","511298","0.0-171.0-0.0","43361455","wem/bandit_single","A3U761PEG7MFKT","gain","7","","72","H","0","img/none_selected.jpg","0","0","1","0.3478795997","","false","134","0.3478795997","","main_expt","0.4578614037","","0.4286255731","","0.02361228775","","","","","","",""
"171","","bandit","210","513226","0.0-172.0-0.0","43361455","wem/bandit_single","A3U761PEG7MFKT","gain","7","","74","J","1","","0","0","1","0.4339873336","","false","135","0.3394088604","","main_expt","0.4339873336","","0.3969320342","","0.01378345967","","","","","","",""
"115","","bandit","211","515098","0.0-173.0-0.0","43361455","wem/bandit_single","A3U761PEG7MFKT","gain","7","","75","K","2","","0","0","1","0.3975573163","","false","136","0.3739095734","","main_expt","0.4091277288","","0.3975573163","","0.01349892684","","","","","","",""
"618","","bandit","212","517473","0.0-174.0-0.0","43361455","wem/bandit_single","A3U761PEG7MFKT","gain","7","","76","L","3","","0","0","1","0.01373747566","","false","137","0.3319731639","","main_expt","0.4024864596","","0.4226438881","","0.01373747566","","","","","","",""
"12461","","bandit","213","531691","0.0-175.0-0.0","43361455","wem/bandit_single","A3U761PEG7MFKT","gain","7","","72","H","0","img/none_selected.jpg","0","0","1","0.3427854578","","false","138","0.3427854578","","main_expt","0.3793932322","","0.383622376","","0.009346923256","","","","","","",""
"98","","bandit","214","533547","0.0-176.0-0.0","43361455","wem/bandit_single","A3U761PEG7MFKT","gain","7","","74","J","1","","0","0","1","0.3940691536","","false","139","0.2804250852","","main_expt","0.3940691536","","0.3892077266","","0.005947695369","","","","","","",""
"27","","bandit","215","535331","0.0-177.0-0.0","43361455","wem/bandit_single","A3U761PEG7MFKT","gain","7","","75","K","2","","0","0","1","0.3721285976","","false","140","0.294489168","","main_expt","0.3878174143","","0.3721285976","","0.003062149202","","","","","","",""
"36","","bandit","216","537123","0.0-178.0-0.0","43361455","wem/bandit_single","A3U761PEG7MFKT","gain","7","","76","L","3","","0","0","1","0.003723800288","","false","141","0.2849233321","","main_expt","0.3671315422","","0.403063379","","0.003723800288","","","","","","",""
"84","","bandit","217","538964","0.0-179.0-0.0","43361455","wem/bandit_single","A3U761PEG7MFKT","gain","7","","76","L","3","","0","0","1","0.003048460602","","false","142","0.2605380125","","main_expt","0.338830911","","0.3916907223","","0.003048460602","","","","","","",""
"44","","bandit","218","540765","0.0-180.0-0.0","43361455","wem/bandit_single","A3U761PEG7MFKT","gain","7","","75","K","2","","1","0","0","0.4212357341","","false","143","0.3030740536","","main_expt","0.2709557481","","0.4212357341","","0.002664125267","","","","","","",""
"73","","bandit","219","542596","0.0-181.0-0.0","43361455","wem/bandit_single","A3U761PEG7MFKT","gain","7","","75","K","2","","1","0","0","0.3944164323","","false","144","0.29766321","","main_expt","0.249986241","","0.3944164323","","0.0015633636","","","","","","",""
"147","","bandit","220","544501","0.0-182.0-0.0","43361455","wem/bandit_single","A3U761PEG7MFKT","gain","7","","75","K","2","","0","0","1","0.4129391908","","false","145","0.2862291296","","main_expt","0.2694710106","","0.4129391908","","0.002084593646","","","","","","",""
"74","","bandit","221","546332","0.0-183.0-0.0","43361455","wem/bandit_single","A3U761PEG7MFKT","gain","7","","75","K","2","","1","0","0","0.4027876266","","false","146","0.3151642481","","main_expt","0.3099728414","","0.4027876266","","0.0008356934022","","","","","","",""
"14478","","bandit","222","562567","0.0-184.0-0.0","43361455","wem/bandit_single","A3U761PEG7MFKT","gain","7","","75","K","2","","0","0","1","0.3906291495","","false","147","0.3261334855","","main_expt","0.3010760093","","0.3906291495","","0.00187417998","","","","","","",""
"169","","bandit","223","564493","0.0-185.0-0.0","43361455","wem/bandit_single","A3U761PEG7MFKT","gain","7","","75","K","2","","0","0","1","0.3718958907","","false","148","0.3605999671","","main_expt","0.2861733563","","0.3718958907","","0.001549413081","","","","","","",""
"18","","bandit","224","566269","0.0-186.0-0.0","43361455","wem/bandit_single","A3U761PEG7MFKT","gain","7","","75","K","2","","0","0","1","0.3513552953","","false","149","0.3848975894","","main_expt","0.2613296644","","0.3513552953","","0.002318569837","","","","","","",""
"673","","bandit","225","568703","0.0-187.0-0.0","43361455","wem/bandit_single","A3U761PEG7MFKT","gain","7","","74","J","1","","0","0","1","0.2955554784","","false","150","0.3680345664","","main_expt","0.2955554784","","0.3796712552","","0.002401941109","","","","","","",""
"90","","bandit","226","570550","0.0-188.0-0.0","43361455","wem/bandit_single","A3U761PEG7MFKT","gain","7","","74","J","1","","1","0","0","0.2928365899","","false","151","0.3517559312","","main_expt","0.2928365899","","0.4275550045","","0.002416650241","","","","","","",""
"67","","bandit","227","572374","0.0-189.0-0.0","43361455","wem/bandit_single","A3U761PEG7MFKT","gain","7","","74","J","1","","1","0","0","0.3000067833","","false","152","0.3963282571","","main_expt","0.3000067833","","0.4266807854","","0.002533271813","","","","","","",""
"29","","bandit","228","574160","0.0-190.0-0.0","43361455","wem/bandit_single","A3U761PEG7MFKT","gain","7","","74","J","1","","1","0","0","0.2757802357","","false","153","0.432842039","","main_expt","0.2757802357","","0.4633151701","","0.00322942279","","","","","","",""
"145","","bandit","229","576062","0.0-191.0-0.0","43361455","wem/bandit_single","A3U761PEG7MFKT","gain","7","","74","J","1","","0","0","1","0.3252288772","","false","154","0.4134551824","","main_expt","0.3252288772","","0.4723469507","","0.003404333974","","","","","","",""
"114","","bandit","230","577937","0.0-192.0-0.0","43361455","wem/bandit_single","A3U761PEG7MFKT","gain","7","","74","J","1","","0","0","1","0.2746928085","","false","155","0.426737857","","main_expt","0.2746928085","","0.4829251431","","0.008925030754","","","","","","",""
"32","","bandit","231","579726","0.0-193.0-0.0","43361455","wem/bandit_single","A3U761PEG7MFKT","gain","7","","74","J","1","","0","0","1","0.2881451241","","false","156","0.4289541051","","main_expt","0.2881451241","","0.4753947098","","0.005317619152","","","","","","",""
"84","","bandit","232","581567","0.0-194.0-0.0","43361455","wem/bandit_single","A3U761PEG7MFKT","gain","7","","74","J","1","","0","0","1","0.2861132768","","false","157","0.4593738684","","main_expt","0.2861132768","","0.4686295074","","0.002657446392","","","","","","",""
"507","","bandit","233","583831","0.0-195.0-0.0","43361455","wem/bandit_single","A3U761PEG7MFKT","gain","7","","72","H","0","img/none_selected.jpg","0","0","1","0.4716769587","","false","158","0.4716769587","","main_expt","0.2382703247","","0.4746137902","","0.005349678466","","","","","","",""
"37","","bandit","234","585626","0.0-196.0-0.0","43361455","wem/bandit_single","A3U761PEG7MFKT","gain","7","","72","H","0","img/none_selected.jpg","0","0","1","0.4566829936","","false","159","0.4566829936","","main_expt","0.2650616746","","0.4626257703","","0.00353293949","","","","","","",""
"48","","bandit","235","587431","0.0-197.0-0.0","43361455","wem/bandit_single","A3U761PEG7MFKT","gain","7","","76","L","3","","0","0","1","0.004525880368","","false","160","0.4684401337","","main_expt","0.2841227011","","0.4690497323","","0.004525880368","","","","","","",""
"409","","bandit","236","589599","0.0-198.0-0.0","43361455","wem/bandit_single","A3U761PEG7MFKT","gain","7","","75","K","2","","1","0","0","0.4605728382","","false","161","0.4327192474","","main_expt","0.3103310899","","0.4605728382","","0.00364468733","","","","","","",""
"258","","bandit","237","591615","0.0-199.0-0.0","43361455","wem/bandit_single","A3U761PEG7MFKT","gain","7","","75","K","2","","0","0","1","0.4663204896","","false","162","0.4158578039","","main_expt","0.2990864795","","0.4663204896","","0.004567203872","","","","","","",""
"43","","bandit","238","593416","0.0-200.0-0.0","43361455","wem/bandit_single","A3U761PEG7MFKT","gain","7","","75","K","2","","0","0","1","0.4626626357","","false","163","0.4206849782","","main_expt","0.2650304997","","0.4626626357","","0.003538815","","","","","","",""
"10","","bandit","239","595185","0.0-201.0-0.0","43361455","wem/bandit_single","A3U761PEG7MFKT","gain","7","","75","K","2","","0","0","1","0.4672680551","","false","164","0.4276923589","","main_expt","0.2877519924","","0.4672680551","","0.002896615325","","","","","","",""
"43","","bandit","240","596986","0.0-202.0-0.0","43361455","wem/bandit_single","A3U761PEG7MFKT","gain","7","","74","J","1","","1","0","0","0.2818109827","","false","165","0.4204466813","","main_expt","0.2818109827","","0.455015491","","0.004500484281","","","","","","",""
"391","","bandit","241","599137","0.0-203.0-0.0","43361455","wem/bandit_single","A3U761PEG7MFKT","gain","7","","74","J","1","","0","0","1","0.324785045","","false","166","0.4229734844","","main_expt","0.324785045","","0.4201800218","","0.01017739848","","","","","","",""
"386","","bandit","242","601280","0.0-204.0-0.0","43361455","wem/bandit_single","A3U761PEG7MFKT","gain","7","","74","J","1","","0","0","1","0.3339304688","","false","167","0.4474449943","","main_expt","0.3339304688","","0.4430085171","","0.0129517719","","","","","","",""
"418","","bandit","243","603455","0.0-205.0-0.0","43361455","wem/bandit_single","A3U761PEG7MFKT","gain","7","","74","J","1","","1","0","0","0.3351003476","","false","168","0.4458086367","","main_expt","0.3351003476","","0.4526671473","","0.009045291763","","","","","","",""
"1307","","bandit","244","606521","0.0-206.0-0.0","43361455","wem/bandit_single","A3U761PEG7MFKT","gain","7","","74","J","1","","0","0","1","0.3556935824","","false","169","0.4619433307","","main_expt","0.3556935824","","0.4477525289","","0.01553154223","","","","","","",""
"373","","bandit","245","608651","0.0-207.0-0.0","43361455","wem/bandit_single","A3U761PEG7MFKT","gain","7","","74","J","1","","1","0","0","0.3690608098","","false","170","0.4703570947","","main_expt","0.3690608098","","0.41154262","","0.01787531072","","","","","","",""
"1361","","bandit","246","611769","0.0-208.0-0.0","43361455","wem/bandit_single","A3U761PEG7MFKT","gain","7","","74","J","1","","0","0","1","0.3631266209","","false","171","0.474742395","","main_expt","0.3631266209","","0.37868858","","0.01316551092","","","","","","",""
"490","","bandit","247","614017","0.0-209.0-0.0","43361455","wem/bandit_single","A3U761PEG7MFKT","gain","7","","74","J","1","","0","0","1","0.3392191481","","false","172","0.4773845315","","main_expt","0.3392191481","","0.3971498268","","0.0172037691","","","","","","",""
"82","","bandit","248","615857","0.0-210.0-0.0","43361455","wem/bandit_single","A3U761PEG7MFKT","gain","7","","75","K","2","","1","0","0","0.4319579383","","false","173","0.4680058345","","main_expt","0.2931772585","","0.4319579383","","0.01427011775","","","","","","",""
"4165","","bandit","249","621781","0.0-211.0-0.0","43361455","wem/bandit_single","A3U761PEG7MFKT","gain","7","","75","K","2","","0","0","1","0.4174714043","","false","174","0.4561145842","","main_expt","0.2750831853","","0.4174714043","","0.01057019218","","","","","","",""
"104","","bandit","250","623641","0.0-212.0-0.0","43361455","wem/bandit_single","A3U761PEG7MFKT","gain","7","","75","K","2","","0","0","1","0.3846013355","","false","175","0.472279608","","main_expt","0.2997345097","","0.3846013355","","0.007255369755","","","","","","",""
"1292","","bandit","251","626690","0.0-213.0-0.0","43361455","wem/bandit_single","A3U761PEG7MFKT","gain","7","","75","K","2","","1","0","0","0.4019342833","","false","176","0.4602447812","","main_expt","0.3402413884","","0.4019342833","","0.01305273867","","","","","","",""
"547","","bandit","252","628994","0.0-214.0-0.0","43361455","wem/bandit_single","A3U761PEG7MFKT","gain","7","","75","K","2","","1","0","0","0.4211485366","","false","177","0.4343313091","","main_expt","0.3099882557","","0.4211485366","","0.0133150908","","","","","","",""
"1510","","bandit","253","632263","0.0-215.0-0.0","43361455","wem/bandit_single","A3U761PEG7MFKT","gain","7","","75","K","2","","0","0","1","0.4133977621","","false","178","0.4048428007","","main_expt","0.2761175095","","0.4133977621","","0.01259822705","","","","","","",""
"14169","","bandit","254","648190","0.0-216.0-0.0","43361455","wem/bandit_single","A3U761PEG7MFKT","gain","7","","75","K","2","","1","0","0","0.4395013083","","false","179","0.3826353834","","main_expt","0.3053987856","","0.4395013083","","0.008971211221","","","","","","",""
"145","","bandit","255","650091","0.0-217.0-0.0","43361455","wem/bandit_single","A3U761PEG7MFKT","gain","7","","75","K","2","","1","0","0","0.4385200931","","false","180","0.3352628501","","main_expt","0.291880519","","0.4385200931","","0.01053614943","","","","","","",""
"26","","bandit","256","651876","0.0-218.0-0.0","43361455","wem/bandit_single","A3U761PEG7MFKT","gain","7","","75","K","2","","1","0","0","0.4225113135","","false","181","0.2990499081","","main_expt","0.298429346","","0.4225113135","","0.01184041186","","","","","","",""
"83","","bandit","257","653716","0.0-219.0-0.0","43361455","wem/bandit_single","A3U761PEG7MFKT","gain","7","","75","K","2","","1","0","0","0.3723799893","","false","182","0.3698835663","","main_expt","0.3343264324","","0.3723799893","","0.03042574256","","","","","","",""
"162","","bandit","258","655635","0.0-220.0-0.0","43361455","wem/bandit_single","A3U761PEG7MFKT","gain","7","","75","K","2","","0","0","1","0.3790924375","","false","183","0.3849917371","","main_expt","0.2890729732","","0.3790924375","","0.03286829004","","","","","","",""
"99","","bandit","259","657492","0.0-221.0-0.0","43361455","wem/bandit_single","A3U761PEG7MFKT","gain","7","","75","K","2","","0","0","1","0.4122006093","","false","184","0.3560661239","","main_expt","0.1975841231","","0.4122006093","","0.05565884368","","","","","","",""
"100","","bandit","260","659352","0.0-222.0-0.0","43361455","wem/bandit_single","A3U761PEG7MFKT","gain","7","","75","K","2","","0","0","1","0.3681720139","","false","185","0.3637043243","","main_expt","0.213981158","","0.3681720139","","0.05703602855","","","","","","",""
"197","","bandit","261","661308","0.0-223.0-0.0","43361455","wem/bandit_single","A3U761PEG7MFKT","gain","7","","74","J","1","","0","0","1","0.1690135127","","false","186","0.370254809","","main_expt","0.1690135127","","0.3735732413","","0.08167625523","","","","","","",""
"74","","bandit","262","663141","0.0-224.0-0.0","43361455","wem/bandit_single","A3U761PEG7MFKT","gain","7","","74","J","1","","1","0","0","0.2606776113","","false","187","0.3451477914","","main_expt","0.2606776113","","0.3763431734","","0.08146612985","","","","","","",""
"19","","bandit","263","664918","0.0-225.0-0.0","43361455","wem/bandit_single","A3U761PEG7MFKT","gain","7","","74","J","1","","0","0","1","0.2431197375","","false","188","0.3939300048","","main_expt","0.2431197375","","0.3515668436","","0.09365986726","","","","","","",""
"34","","bandit","264","666710","0.0-226.0-0.0","43361455","wem/bandit_single","A3U761PEG7MFKT","gain","7","","74","J","1","","0","0","1","0.2308206277","","false","189","0.4136030152","","main_expt","0.2308206277","","0.3343836861","","0.09268069957","","","","","","",""
"129","","bandit","265","668598","0.0-227.0-0.0","43361455","wem/bandit_single","A3U761PEG7MFKT","gain","7","","74","J","1","","0","0","1","0.2025271702","","false","190","0.4261376259","","main_expt","0.2025271702","","0.2525345787","","0.08594859785","","","","","","",""
"124","","bandit","266","670478","0.0-228.0-0.0","43361455","wem/bandit_single","A3U761PEG7MFKT","gain","7","","72","H","0","img/none_selected.jpg","1","0","0","0.3908696756","","false","191","0.3908696756","","main_expt","0.2751540988","","0.2685183708","","0.08932588753","","","","","","",""
"138","","bandit","267","672375","0.0-229.0-0.0","43361455","wem/bandit_single","A3U761PEG7MFKT","gain","7","","72","H","0","img/none_selected.jpg","0","0","1","0.4106222578","","false","192","0.4106222578","","main_expt","0.2569606715","","0.2572514827","","0.1064261942","","","","","","",""
"113","","bandit","268","674246","0.0-230.0-0.0","43361455","wem/bandit_single","A3U761PEG7MFKT","gain","7","","72","H","0","img/none_selected.jpg","0","0","1","0.4282135821","","false","193","0.4282135821","","main_expt","0.2874900681","","0.1969756064","","0.1536879749","","","","","","",""
"258","","bandit","269","676261","0.0-231.0-0.0","43361455","wem/bandit_single","A3U761PEG7MFKT","gain","7","","72","H","0","img/none_selected.jpg","1","0","0","0.4423695223","","false","194","0.4423695223","","main_expt","0.1735349233","","0.2134952627","","0.1389913839","","","","","","",""
"163","","bandit","270","678181","0.0-232.0-0.0","43361455","wem/bandit_single","A3U761PEG7MFKT","gain","7","","72","H","0","img/none_selected.jpg","1","0","0","0.4594299266","","false","195","0.4594299266","","main_expt","0.1922880567","","0.1620875807","","0.1439418744","","","","","","",""
"5619","","bandit","271","685559","0.0-233.0-0.0","43361455","wem/bandit_single","A3U761PEG7MFKT","gain","7","","72","H","0","img/none_selected.jpg","0","0","1","0.4446405127","","false","196","0.4446405127","","main_expt","0.180833075","","0.166822232","","0.131143091","","","","","","",""
"601","","bandit","272","687918","0.0-234.0-0.0","43361455","wem/bandit_single","A3U761PEG7MFKT","gain","7","","72","H","0","img/none_selected.jpg","0","0","1","0.4559667881","","false","197","0.4559667881","","main_expt","0.2213655201","","0.1951417713","","0.1358316141","","","","","","",""
"524","","bandit","273","690199","0.0-235.0-0.0","43361455","wem/bandit_single","A3U761PEG7MFKT","gain","7","","72","H","0","img/none_selected.jpg","1","0","0","0.4760465659","","false","198","0.4760465659","","main_expt","0.1886922679","","0.1946571809","","0.1271866158","","","","","","",""
"2948","","bandit","274","694905","0.0-236.0-0.0","43361455","wem/bandit_single","A3U761PEG7MFKT","gain","7","","72","H","0","img/none_selected.jpg","1","0","0","0.4682530898","","false","199","0.4682530898","","main_expt","0.1960792333","","0.125569753","","0.1427164763","","","","","","",""
"256","","bandit","275","696919","0.0-237.0-0.0","43361455","wem/bandit_single","A3U761PEG7MFKT","gain","7","","72","H","0","img/none_selected.jpg","1","0","0","0.4722721777","","false","200","0.4722721777","","main_expt","0.2093645874","","0.110010897","","0.1465126473","","","","","","",""
"186","","bandit","276","698863","0.0-238.0-0.0","43361455","wem/bandit_single","A3U761PEG7MFKT","gain","7","","72","H","0","img/none_selected.jpg","0","0","1","0.4739800601","","false","201","0.4739800601","","main_expt","0.1673165995","","0.1280762957","","0.1271257608","","","","","","",""
"51","","bandit","277","700670","0.0-239.0-0.0","43361455","wem/bandit_single","A3U761PEG7MFKT","gain","7","","72","H","0","img/none_selected.jpg","0","0","1","0.479726886","","false","202","0.479726886","","main_expt","0.2086438453","","0.1402913484","","0.08657179739","","","","","","",""
"235","","bandit","278","702665","0.0-240.0-0.0","43361455","wem/bandit_single","A3U761PEG7MFKT","gain","7","","74","J","1","","1","0","0","0.1973992815","","false","203","0.4642372742","","main_expt","0.1973992815","","0.2217412738","","0.09313456927","","","","","","",""
"1066","","bandit","279","705490","0.0-241.0-0.0","43361455","wem/bandit_single","A3U761PEG7MFKT","gain","7","","74","J","1","","0","0","1","0.2256674954","","false","204","0.4560882558","","main_expt","0.2256674954","","0.2231628045","","0.1497906572","","","","","","",""
"19531","","bandit","280","726779","0.0-242.0-0.0","43361455","wem/bandit_single","A3U761PEG7MFKT","gain","7","","74","J","1","","0","0","1","0.2163874892","","false","205","0.4525737262","","main_expt","0.2163874892","","0.2170181201","","0.1829644856","","","","","","",""
"289","","bandit","281","728825","0.0-243.0-0.0","43361455","wem/bandit_single","A3U761PEG7MFKT","gain","7","","74","J","1","","1","0","0","0.2197086186","","false","206","0.4550624295","","main_expt","0.2197086186","","0.2796725078","","0.1612057882","","","","","","",""
"122","","bandit","282","730706","0.0-244.0-0.0","43361455","wem/bandit_single","A3U761PEG7MFKT","gain","7","","74","J","1","","0","0","1","0.2065154411","","false","207","0.4723612306","","main_expt","0.2065154411","","0.2817680811","","0.1697938272","","","","","","",""
"98","","bandit","283","732563","0.0-245.0-0.0","43361455","wem/bandit_single","A3U761PEG7MFKT","gain","7","","74","J","1","","0","0","1","0.1685179651","","false","208","0.4766034411","","main_expt","0.1685179651","","0.2823403198","","0.1559958766","","","","","","",""
"25","","bandit","284","734347","0.0-246.0-0.0","43361455","wem/bandit_single","A3U761PEG7MFKT","gain","7","","74","J","1","","0","0","1","0.138461816","","false","209","0.483515399","","main_expt","0.138461816","","0.3618902866","","0.1446830505","","","","","","",""
"321","","bandit","285","736426","0.0-247.0-0.0","43361455","wem/bandit_single","A3U761PEG7MFKT","gain","7","","74","J","1","","0","0","1","0.1494322788","","false","210","0.4880418707","","main_expt","0.1494322788","","0.373554641","","0.1231196185","","","","","","",""
"636","","bandit","286","738820","0.0-248.0-0.0","43361455","wem/bandit_single","A3U761PEG7MFKT","gain","7","","74","J","1","","0","0","1","0.1799359977","","false","211","0.4802592994","","main_expt","0.1799359977","","0.4160488284","","0.1456244431","","","","","","",""
"321","","bandit","287","740900","0.0-249.0-0.0","43361455","wem/bandit_single","A3U761PEG7MFKT","gain","7","","75","K","2","","0","0","1","0.381710399","","false","212","0.4738887763","","main_expt","0.1810857181","","0.381710399","","0.1656867557","","","","","","",""
"119","","bandit","288","742779","0.0-250.0-0.0","43361455","wem/bandit_single","A3U761PEG7MFKT","gain","7","","76","L","3","","0","0","1","0.224977978","","false","213","0.4808850683","","main_expt","0.1615137558","","0.3769148707","","0.224977978","","","","","","",""
"193","","bandit","289","744732","0.0-251.0-0.0","43361455","wem/bandit_single","A3U761PEG7MFKT","gain","7","","72","H","0","img/none_selected.jpg","1","0","0","0.4825694391","","false","214","0.4825694391","","main_expt","0.1650702933","","0.3476207329","","0.307554285","","","","","","",""
"1713","","bandit","290","748204","0.0-252.0-0.0","43361455","wem/bandit_single","A3U761PEG7MFKT","gain","7","","72","H","0","img/none_selected.jpg","0","0","1","0.4847107186","","false","215","0.4847107186","","main_expt","0.1804791034","","0.3089741626","","0.3638187162","","","","","","",""
"843","","bandit","291","750805","0.0-253.0-0.0","43361455","wem/bandit_single","A3U761PEG7MFKT","gain","7","","72","H","0","img/none_selected.jpg","0","0","1","0.4809007894","","false","216","0.4809007894","","main_expt","0.1573161505","","0.3674618518","","0.3543809852","","","","","","",""
"216","","bandit","292","752779","0.0-254.0-0.0","43361455","wem/bandit_single","A3U761PEG7MFKT","gain","7","","72","H","0","img/none_selected.jpg","0","0","1","0.4741770765","","false","217","0.4741770765","","main_expt","0.1434716653","","0.3283657719","","0.3301156576","","","","","","",""
"874","","bandit","293","755412","0.0-255.0-0.0","43361455","wem/bandit_single","A3U761PEG7MFKT","gain","7","","72","H","0","img/none_selected.jpg","1","0","0","0.4819245576","","false","218","0.4819245576","","main_expt","0.1911838451","","0.3302734852","","0.3132999057","","","","","","",""
"1375","","bandit","294","758547","0.0-256.0-0.0","43361455","wem/bandit_single","A3U761PEG7MFKT","gain","7","","72","H","0","img/none_selected.jpg","1","0","0","0.4793241995","","false","219","0.4793241995","","main_expt","0.1441129831","","0.3554571327","","0.2205266592","","","","","","",""
"2204","","bandit","295","762511","0.0-257.0-0.0","43361455","wem/bandit_single","A3U761PEG7MFKT","gain","7","","72","H","0","img/none_selected.jpg","1","0","0","0.4713672071","","false","220","0.4713672071","","main_expt","0.1920309772","","0.319330444","","0.2167078271","","","","","","",""
"487","","bandit","296","764756","0.0-258.0-0.0","43361455","wem/bandit_single","A3U761PEG7MFKT","gain","7","","72","H","0","img/none_selected.jpg","0","0","1","0.4728071858","","false","221","0.4728071858","","main_expt","0.1770810464","","0.3105046037","","0.2038989409","","","","","","",""
"970","","bandit","297","767484","0.0-259.0-0.0","43361455","wem/bandit_single","A3U761PEG7MFKT","gain","7","","72","H","0","img/none_selected.jpg","0","0","1","0.4742115633","","false","222","0.4742115633","","main_expt","0.1726735039","","0.2971369975","","0.18760722","","","","","","",""
"6918","","bandit","298","776160","0.0-260.0-0.0","43361455","wem/bandit_single","A3U761PEG7MFKT","gain","7","","72","H","0","img/none_selected.jpg","1","0","0","0.4606319974","","false","223","0.4606319974","","main_expt","0.1935596247","","0.2924153056","","0.1794058889","","","","","","",""
"18338","","bandit","299","796256","0.0-261.0-0.0","43361455","wem/bandit_single","A3U761PEG7MFKT","gain","7","","72","H","0","img/none_selected.jpg","0","0","1","0.4796626282","","false","224","0.4796626282","","main_expt","0.184290804","","0.3251713444","","0.1973287288","","","","","","",""
"1680","","bandit","300","799694","0.0-262.0-0.0","43361455","wem/bandit_single","A3U761PEG7MFKT","gain","7","","74","J","1","","1","0","0","0.1182631535","","false","225","0.4770938662","","main_expt","0.1182631535","","0.3191667618","","0.1657141015","","","","","","",""
"426","","bandit","301","801880","0.0-263.0-0.0","43361455","wem/bandit_single","A3U761PEG7MFKT","gain","7","","72","H","0","img/none_selected.jpg","0","0","1","0.4753940461","","false","226","0.4753940461","","main_expt","0.1243406576","","0.3163975521","","0.1333985498","","","","","","",""
"322","","bandit","302","803960","0.0-264.0-0.0","43361455","wem/bandit_single","A3U761PEG7MFKT","gain","7","","74","J","1","","1","0","0","0.1887705619","","false","227","0.4692559414","","main_expt","0.1887705619","","0.3153023093","","0.1426718429","","","","","","",""
"281","","bandit","303","805999","0.0-265.0-0.0","43361455","wem/bandit_single","A3U761PEG7MFKT","gain","7","","74","J","1","","0","0","1","0.1594511678","","false","228","0.4549715312","","main_expt","0.1594511678","","0.252814401","","0.1510234048","","","","","","",""
"722","","bandit","304","808479","0.0-266.0-0.0","43361455","wem/bandit_single","A3U761PEG7MFKT","gain","7","","74","J","1","","0","0","1","0.1582092687","","false","229","0.4818432606","","main_expt","0.1582092687","","0.2830586582","","0.1786638104","","","","","","",""
"7005","","bandit","305","817242","0.0-267.0-0.0","43361455","wem/bandit_single","A3U761PEG7MFKT","gain","7","","74","J","1","","0","0","1","0.149178519","","false","230","0.4542350274","","main_expt","0.149178519","","0.2124451555","","0.1564383184","","","","","","",""
"23","","bandit","306","819025","0.0-268.0-0.0","43361455","wem/bandit_single","A3U761PEG7MFKT","gain","7","","74","J","1","","1","0","0","0.2063022429","","false","231","0.4646494747","","main_expt","0.2063022429","","0.1175217461","","0.1398607303","","","","","","",""
"858","","bandit","307","821641","0.0-269.0-0.0","43361455","wem/bandit_single","A3U761PEG7MFKT","gain","7","","74","J","1","","0","0","1","0.2424934828","","false","232","0.4617677548","","main_expt","0.2424934828","","0.144677577","","0.1323980205","","","","","","",""
"560","","bandit","308","823961","0.0-270.0-0.0","43361455","wem/bandit_single","A3U761PEG7MFKT","gain","7","","75","K","2","","0","0","1","0.1555092754","","false","233","0.4535872836","","main_expt","0.2404462099","","0.1555092754","","0.1510374747","","","","","","",""
"168","","bandit","309","825888","0.0-271.0-0.0","43361455","wem/bandit_single","A3U761PEG7MFKT","gain","7","","76","L","3","","0","0","1","0.133247495","","false","234","0.4297764401","","main_expt","0.1830028502","","0.1250762939","","0.133247495","","","","","","",""
"4370","","bandit","310","832017","0.0-272.0-0.0","43361455","wem/bandit_single","A3U761PEG7MFKT","gain","7","","74","J","1","","0","0","1","0.2197419317","","false","235","0.4335441617","","main_expt","0.2197419317","","0.1094925358","","0.1666928205","","","","","","",""
"1545","","bandit","311","835321","0.0-273.0-0.0","43361455","wem/bandit_single","A3U761PEG7MFKT","gain","7","","75","K","2","","0","0","1","0.09099935704","","false","236","0.4390497594","","main_expt","0.2537285896","","0.09099935704","","0.1772374327","","","","","","",""
"741","","bandit","312","837819","0.0-274.0-0.0","43361455","wem/bandit_single","A3U761PEG7MFKT","gain","7","","72","H","0","img/none_selected.jpg","1","0","0","0.4557250369","","false","237","0.4557250369","","main_expt","0.2967198922","","0.07445530481","","0.2093850131","","","","","","",""
"1440","","bandit","313","841017","0.0-275.0-0.0","43361455","wem/bandit_single","A3U761PEG7MFKT","gain","7","","72","H","0","img/none_selected.jpg","1","0","0","0.4712934341","","false","238","0.4712934341","","main_expt","0.2716881628","","0.1160826651","","0.2323540058","","","","","","",""
"286","","bandit","314","843063","0.0-276.0-0.0","43361455","wem/bandit_single","A3U761PEG7MFKT","gain","7","","72","H","0","img/none_selected.jpg","0","0","1","0.4744109467","","false","239","0.4744109467","","main_expt","0.2840113657","","0.1935594103","","0.2527052166","","","","","","",""
"188","","bandit","315","845011","0.0-277.0-0.0","43361455","wem/bandit_single","A3U761PEG7MFKT","gain","7","","72","H","0","img/none_selected.jpg","1","0","0","0.4856904038","","false","240","0.4856904038","","main_expt","0.3274134878","","0.2305108235","","0.2429338356","","","","","","",""
"133","","bandit","316","846905","0.0-278.0-0.0","43361455","wem/bandit_single","A3U761PEG7MFKT","gain","7","","72","H","0","img/none_selected.jpg","0","0","1","0.474377245","","false","241","0.474377245","","main_expt","0.3106351565","","0.23744922","","0.2422046893","","","","","","",""
"193","","bandit","317","848858","0.0-279.0-0.0","43361455","wem/bandit_single","A3U761PEG7MFKT","gain","7","","72","H","0","img/none_selected.jpg","1","0","0","0.4699498903","","false","242","0.4699498903","","main_expt","0.276301991","","0.2644088126","","0.1974588069","","","","","","",""
"73","","bandit","318","850691","0.0-280.0-0.0","43361455","wem/bandit_single","A3U761PEG7MFKT","gain","7","","72","H","0","img/none_selected.jpg","1","0","0","0.4696131401","","false","243","0.4696131401","","main_expt","0.2682550828","","0.3029471314","","0.1697106736","","","","","","",""
"104","","bandit","319","852555","0.0-281.0-0.0","43361455","wem/bandit_single","A3U761PEG7MFKT","gain","7","","72","H","0","img/none_selected.jpg","1","0","0","0.4519085084","","false","244","0.4519085084","","main_expt","0.2717267912","","0.2869027424","","0.1495066821","","","","","","",""
"193","","bandit","320","854506","0.0-282.0-0.0","43361455","wem/bandit_single","A3U761PEG7MFKT","gain","7","","72","H","0","img/none_selected.jpg","1","0","0","0.4620487724","","false","245","0.4620487724","","main_expt","0.2480355477","","0.2928347339","","0.1664551864","","","","","","",""
"737","","bandit","321","857003","0.0-283.0-0.0","43361455","wem/bandit_single","A3U761PEG7MFKT","gain","7","","72","H","0","img/none_selected.jpg","0","0","1","0.4553277256","","false","246","0.4553277256","","main_expt","0.2978011657","","0.2537870262","","0.1660340973","","","","","","",""
"3817","","bandit","322","862582","0.0-284.0-0.0","43361455","wem/bandit_single","A3U761PEG7MFKT","gain","7","","72","H","0","img/none_selected.jpg","0","0","1","0.4470790686","","false","247","0.4470790686","","main_expt","0.3183795364","","0.220788829","","0.2232834288","","","","","","",""
"1029","","bandit","323","865371","0.0-285.0-0.0","43361455","wem/bandit_single","A3U761PEG7MFKT","gain","7","","72","H","0","img/none_selected.jpg","0","0","1","0.4370243233","","false","248","0.4370243233","","main_expt","0.3496285813","","0.2260039815","","0.2337066106","","","","","","",""
"1977","","bandit","324","869110","0.0-286.0-0.0","43361455","wem/bandit_single","A3U761PEG7MFKT","gain","7","","72","H","0","img/none_selected.jpg","0","0","1","0.4344986606","","false","249","0.4344986606","","main_expt","0.3450691196","","0.2536259712","","0.2555848542","","","","","","",""
"653","","bandit","325","871524","0.0-287.0-0.0","43361455","wem/bandit_single","A3U761PEG7MFKT","gain","7","","74","J","1","","1","0","0","0.3451339369","","false","250","0.4418367533","","main_expt","0.3451339369","","0.2748463286","","0.2423579198","","","","","","",""
"143","","bandit","326","873427","0.0-288.0-0.0","43361455","wem/bandit_single","A3U761PEG7MFKT","gain","7","","74","J","1","","0","0","1","0.3928119302","","false","251","0.4227475224","","main_expt","0.3928119302","","0.2623633266","","0.2275025436","","","","","","",""
"666","","bandit","327","875853","0.0-289.0-0.0","43361455","wem/bandit_single","A3U761PEG7MFKT","gain","7","","75","K","2","","0","0","1","0.3173920108","","false","252","0.423648384","","main_expt","0.3926241496","","0.3173920108","","0.2868871138","","","","","","",""
"0","","bandit","328","877613","0.0-290.0-0.0","43361455","wem/bandit_single","A3U761PEG7MFKT","gain","7","","76","L","3","","0","0","1","0.2719675916","","false","253","0.4321428437","","main_expt","0.4074069762","","0.3172059241","","0.2719675916","","","","","","",""
"1943","","bandit","329","881316","0.0-291.0-0.0","43361455","wem/bandit_single","A3U761PEG7MFKT","gain","7","","74","J","1","","1","0","0","0.3831412703","","false","254","0.4621147124","","main_expt","0.3831412703","","0.3200237469","","0.3118638267","","","","","","",""
"643","","bandit","330","883719","0.0-292.0-0.0","43361455","wem/bandit_single","A3U761PEG7MFKT","gain","7","","74","J","1","","1","0","0","0.3639457665","","false","255","0.4586218194","","main_expt","0.3639457665","","0.3358809316","","0.2103897122","","","","","","",""
"519","","bandit","331","885997","0.0-293.0-0.0","43361455","wem/bandit_single","A3U761PEG7MFKT","gain","7","","74","J","1","","0","0","1","0.3353936822","","false","256","0.4661438042","","main_expt","0.3353936822","","0.3288682213","","0.2053105091","","","","","","",""
"136","","bandit","332","887893","0.0-294.0-0.0","43361455","wem/bandit_single","A3U761PEG7MFKT","gain","7","","74","J","1","","1","0","0","0.3457786028","","false","257","0.4746145216","","main_expt","0.3457786028","","0.3298558235","","0.2101260802","","","","","","",""
"81","","bandit","333","889734","0.0-295.0-0.0","43361455","wem/bandit_single","A3U761PEG7MFKT","gain","7","","74","J","1","","1","0","0","0.3336199161","","false","258","0.479590246","","main_expt","0.3336199161","","0.3544886593","","0.251470712","","","","","","",""
"217","","bandit","334","891711","0.0-296.0-0.0","43361455","wem/bandit_single","A3U761PEG7MFKT","gain","7","","74","J","1","","0","0","1","0.3182937175","","false","259","0.4543592645","","main_expt","0.3182937175","","0.3380036538","","0.2320991284","","","","","","",""
"2014","","bandit","335","895487","0.0-297.0-0.0","43361455","wem/bandit_single","A3U761PEG7MFKT","gain","7","","74","J","1","","1","0","0","0.3004718715","","false","260","0.4591910344","","main_expt","0.3004718715","","0.2797544445","","0.2850429488","","","","","","",""
"239","","bandit","336","897486","0.0-298.0-0.0","43361455","wem/bandit_single","A3U761PEG7MFKT","gain","7","","74","J","1","","0","0","1","0.2969538951","","false","261","0.4416244086","","main_expt","0.2969538951","","0.2594239605","","0.3396488321","","","","","","",""
"71","","bandit","337","899318","0.0-299.0-0.0","43361455","wem/bandit_single","A3U761PEG7MFKT","gain","7","","74","J","1","","0","0","1","0.336502974","","false","262","0.410126596","","main_expt","0.336502974","","0.2804023839","","0.243241633","","","","","","",""
"689","","bandit","338","901766","0.0-300.0-0.0","43361455","wem/bandit_single","A3U761PEG7MFKT","gain","7","","74","J","1","","0","0","1","0.3417757729","","false","263","0.3852167719","","main_expt","0.3417757729","","0.2526654216","","0.221101122","","","","","","",""
"11913","","bandit","339","915439","0.0-301.0-0.0","43361455","wem/bandit_single","A3U761PEG7MFKT","gain","7","","72","H","0","img/none_selected.jpg","0","0","1","0.4048243192","","false","264","0.4048243192","","main_expt","0.3288238543","","0.2262009497","","0.2475963948","","","","","","",""
"73","","bandit","340","917270","0.0-302.0-0.0","43361455","wem/bandit_single","A3U761PEG7MFKT","gain","7","","74","J","1","","1","0","0","0.2661945806","","false","265","0.3671025299","","main_expt","0.2661945806","","0.2111455706","","0.2472156829","","","","","","",""
"657","","bandit","341","919686","0.0-303.0-0.0","43361455","wem/bandit_single","A3U761PEG7MFKT","gain","7","","74","J","1","","0","0","1","0.2831053071","","false","266","0.366792141","","main_expt","0.2831053071","","0.1816972253","","0.2257792125","","","","","","",""
"177","","bandit","342","921623","0.0-304.0-0.0","43361455","wem/bandit_single","A3U761PEG7MFKT","gain","7","","74","J","1","","0","0","1","0.2814616526","","false","267","0.3187551676","","main_expt","0.2814616526","","0.08996407949","","0.2434052149","","","","","","",""
"80","","bandit","343","923464","0.0-305.0-0.0","43361455","wem/bandit_single","A3U761PEG7MFKT","gain","7","","74","J","1","","0","0","1","0.2698532634","","false","268","0.2992927481","","main_expt","0.2698532634","","0.08316088703","","0.2472891614","","","","","","",""
"106","","bandit","344","925330","0.0-306.0-0.0","43361455","wem/bandit_single","A3U761PEG7MFKT","gain","7","","74","J","1","","0","0","1","0.332936287","","false","269","0.3158706852","","main_expt","0.332936287","","0.132755096","","0.2592343403","","","","","","",""
"159","","bandit","345","927247","0.0-307.0-0.0","43361455","wem/bandit_single","A3U761PEG7MFKT","gain","7","","75","K","2","","1","0","0","0.1295257529","","false","270","0.3399881701","","main_expt","0.3520051328","","0.1295257529","","0.2626766442","","","","","","",""
"760","","bandit","346","929768","0.0-308.0-0.0","43361455","wem/bandit_single","A3U761PEG7MFKT","gain","7","","75","K","2","","1","0","0","0.1243547369","","false","271","0.3425846673","","main_expt","0.319936882","","0.1243547369","","0.2889536683","","","","","","",""
"561","","bandit","347","932088","0.0-309.0-0.0","43361455","wem/bandit_single","A3U761PEG7MFKT","gain","7","","75","K","2","","0","0","1","0.1129401117","","false","272","0.3661992365","","main_expt","0.3526338178","","0.1129401117","","0.3519527746","","","","","","",""
"2089","","bandit","348","935937","0.0-310.0-0.0","43361455","wem/bandit_single","A3U761PEG7MFKT","gain","7","","76","L","3","","0","0","1","0.3142239271","","false","273","0.3548292996","","main_expt","0.3661190652","","0.07602588951","","0.3142239271","","","","","","",""
"495","","bandit","349","938193","0.0-311.0-0.0","43361455","wem/bandit_single","A3U761PEG7MFKT","gain","7","","75","K","2","","0","0","1","0.08326080211","","false","274","0.3015993901","","main_expt","0.3531355024","","0.08326080211","","0.2858465014","","","","","","",""
"1304","","bandit","350","941258","0.0-312.0-0.0","43361455","wem/bandit_single","A3U761PEG7MFKT","gain","7","","75","K","2","","0","0","1","0.1117875064","","false","275","0.3074537736","","main_expt","0.3710682781","","0.1117875064","","0.2833142968","","","","","","",""
"1120","","bandit","351","944138","0.0-313.0-0.0","43361455","wem/bandit_single","A3U761PEG7MFKT","gain","7","","75","K","2","","0","0","1","0.1087564456","","false","276","0.2995557441","","main_expt","0.3039620657","","0.1087564456","","0.303505508","","","","","","",""
"10490","","bandit","352","956388","0.0-314.0-0.0","43361455","wem/bandit_single","A3U761PEG7MFKT","gain","7","","72","H","0","img/none_selected.jpg","1","0","0","0.3372524479","","false","277","0.3372524479","","main_expt","0.3661174243","","0.1402577261","","0.2503405658","","","","","","",""
"1078","","bandit","353","959225","0.0-315.0-0.0","43361455","wem/bandit_single","A3U761PEG7MFKT","gain","7","","72","H","0","img/none_selected.jpg","1","0","0","0.3941332117","","false","278","0.3941332117","","main_expt","0.3603903852","","0.1639331241","","0.2575241406","","","","","","",""
"689","","bandit","354","961673","0.0-316.0-0.0","43361455","wem/bandit_single","A3U761PEG7MFKT","gain","7","","72","H","0","img/none_selected.jpg","0","0","1","0.369807449","","false","279","0.369807449","","main_expt","0.3865241344","","0.08855821706","","0.2537993043","","","","","","",""
"2346","","bandit","355","965778","0.0-317.0-0.0","43361455","wem/bandit_single","A3U761PEG7MFKT","gain","7","","72","H","0","img/none_selected.jpg","0","0","1","0.3726167961","","false","280","0.3726167961","","main_expt","0.3941828848","","0.1116659285","","0.1734094061","","","","","","",""
"5115","","bandit","356","972653","0.0-318.0-0.0","43361455","wem/bandit_single","A3U761PEG7MFKT","gain","7","","72","H","0","img/none_selected.jpg","1","0","0","0.3849966858","","false","281","0.3849966858","","main_expt","0.4060440919","","0.1032088387","","0.1846732939","","","","","","",""
"4532","","bandit","357","978948","0.0-319.0-0.0","43361455","wem/bandit_single","A3U761PEG7MFKT","gain","7","","72","H","0","img/none_selected.jpg","1","0","0","0.4081920515","","false","282","0.4081920515","","main_expt","0.3855255831","","0.1449157137","","0.1808782366","","","","","","",""
"6466","","bandit","358","987174","0.0-320.0-0.0","43361455","wem/bandit_single","A3U761PEG7MFKT","gain","7","","72","H","0","img/none_selected.jpg","1","0","0","0.3930572229","","false","283","0.3930572229","","main_expt","0.3694157076","","0.1649674285","","0.1375342675","","","","","","",""
"415","","bandit","359","989351","0.0-321.0-0.0","43361455","wem/bandit_single","A3U761PEG7MFKT","gain","7","","72","H","0","img/none_selected.jpg","0","0","1","0.379410926","","false","284","0.379410926","","main_expt","0.4137550783","","0.1373277791","","0.1029306966","","","","","","",""
"3235","","bandit","360","994350","0.0-322.0-0.0","43361455","wem/bandit_single","A3U761PEG7MFKT","gain","7","","72","H","0","img/none_selected.jpg","1","0","0","0.3947179778","","false","285","0.3947179778","","main_expt","0.4268254387","","0.1616488504","","0.08821361919","","","","","","",""
"2373","","bandit","361","998487","0.0-323.0-0.0","43361455","wem/bandit_single","A3U761PEG7MFKT","gain","7","","74","J","1","","0","0","1","0.4115685589","","false","286","0.4036344472","","main_expt","0.4115685589","","0.1306737704","","0.08321279743","","","","","","",""
"77","","bandit","362","1000324","0.0-324.0-0.0","43361455","wem/bandit_single","A3U761PEG7MFKT","gain","7","","75","K","2","","0","0","1","0.2059275786","","false","287","0.4025981517","","main_expt","0.3828423493","","0.2059275786","","0.0595967864","","","","","","",""
"65","","bandit","363","1002149","0.0-325.0-0.0","43361455","wem/bandit_single","A3U761PEG7MFKT","gain","7","","75","K","2","","0","0","1","0.1892738114","","false","288","0.4183513528","","main_expt","0.4121581376","","0.1892738114","","0.06539189492","","","","","","",""
"1160","","bandit","364","1005070","0.0-326.0-0.0","43361455","wem/bandit_single","A3U761PEG7MFKT","gain","7","","72","H","0","img/none_selected.jpg","0","0","1","0.4516793017","","false","289","0.4516793017","","main_expt","0.4227758831","","0.1656659279","","0.06484578344","","","","","","",""
"239","","bandit","365","1007068","0.0-327.0-0.0","43361455","wem/bandit_single","A3U761PEG7MFKT","gain","7","","74","J","1","","1","0","0","0.4149367164","","false","290","0.4112115972","","main_expt","0.4149367164","","0.1814252587","","0.06626982825","","","","","","",""
"59","","bandit","366","1008887","0.0-328.0-0.0","43361455","wem/bandit_single","A3U761PEG7MFKT","gain","7","","74","J","1","","0","0","1","0.399757838","","false","291","0.4372982331","","main_expt","0.399757838","","0.2385479929","","0.1096348163","","","","","","",""
"39","","bandit","367","1010686","0.0-329.0-0.0","43361455","wem/bandit_single","A3U761PEG7MFKT","gain","7","","74","J","1","","1","0","0","0.3846886596","","false","292","0.4238416902","","main_expt","0.3846886596","","0.2322046479","","0.1604398542","","","","","","",""
"79","","bandit","368","1012526","0.0-330.0-0.0","43361455","wem/bandit_single","A3U761PEG7MFKT","gain","7","","74","J","1","","0","0","1","0.3364000065","","false","293","0.4034354509","","main_expt","0.3364000065","","0.223393304","","0.1714651471","","","","","","",""
"94","","bandit","369","1014382","0.0-331.0-0.0","43361455","wem/bandit_single","A3U761PEG7MFKT","gain","7","","74","J","1","","0","0","1","0.3545739736","","false","294","0.4093667064","","main_expt","0.3545739736","","0.2290093083","","0.1378543876","","","","","","",""
"135","","bandit","370","1016278","0.0-332.0-0.0","43361455","wem/bandit_single","A3U761PEG7MFKT","gain","7","","75","K","2","","0","0","1","0.2875464899","","false","295","0.4294791191","","main_expt","0.2891777922","","0.2875464899","","0.1243446737","","","","","","",""
"1145","","bandit","371","1019185","0.0-333.0-0.0","43361455","wem/bandit_single","A3U761PEG7MFKT","gain","7","","76","L","3","","0","0","1","0.1831574145","","false","296","0.4289259587","","main_expt","0.2084544567","","0.2880416719","","0.1831574145","","","","","","",""
"163","","bandit","372","1021111","0.0-334.0-0.0","43361455","wem/bandit_single","A3U761PEG7MFKT","gain","7","","76","L","3","","1","0","0","0.1645554297","","false","297","0.4073385017","","main_expt","0.2481546198","","0.2144640116","","0.1645554297","","","","","","",""
"30","","bandit","373","1022903","0.0-335.0-0.0","43361455","wem/bandit_single","A3U761PEG7MFKT","gain","7","","76","L","3","","0","0","1","0.1424629524","","false","298","0.3914212946","","main_expt","0.2961938921","","0.2150894671","","0.1424629524","","","","","","",""
