"rt","responses","trial_type","trial_index","time_elapsed","internal_node_id","subjID","study","MID","cond","drift","key_press","respCharCode","respKey","respChoiceNum","respChoice","gems","bombs","no_reward","GemPrChosen","BombPrChosen","practice","trial_counter","WinPr_0","LosePr_0","trial_label","WinPr_1","LosePr_1","WinPr_2","LosePr_2","WinPr_3","LosePr_3","Q0","Q1","Q2","gender","age","ethnicity"
"11596","{""Q0"":""A3GJWXA13GMS9H""}","survey-text","0","11604","0.0-0.0","43416119","wem/bandit_single","A3GJWXA13GMS9H","pain","1","","","","","","","","","","","","","","","","","","","","","","","","","","",""
"2848","","text","1","15457","0.0-1.0","43416119","wem/bandit_single","A3GJWXA13GMS9H","pain","1","32","","","","","","","","","","","","","","","","","","","","","","","","","",""
"29757","","text","2","45216","0.0-2.0","43416119","wem/bandit_single","A3GJWXA13GMS9H","pain","1","32","","","","","","","","","","","","","","","","","","","","","","","","","",""
"21613","","text","3","66832","0.0-3.0","43416119","wem/bandit_single","A3GJWXA13GMS9H","pain","1","32","","","","","","","","","","","","","","","","","","","","","","","","","",""
"72173","","text","4","139006","0.0-4.0","43416119","wem/bandit_single","A3GJWXA13GMS9H","pain","1","32","","","","","","","","","","","","","","","","","","","","","","","","","",""
"10431","","text","5","149437","0.0-5.0","43416119","wem/bandit_single","A3GJWXA13GMS9H","pain","1","32","","","","","","","","","","","","","","","","","","","","","","","","","",""
"10576","","text","6","160015","0.0-6.0","43416119","wem/bandit_single","A3GJWXA13GMS9H","pain","1","32","","","","","","","","","","","","","","","","","","","","","","","","","",""
"4445","","text","7","164462","0.0-7.0","43416119","wem/bandit_single","A3GJWXA13GMS9H","pain","1","32","","","","","","","","","","","","","","","","","","","","","","","","","",""
"6224","","text","8","170687","0.0-8.0","43416119","wem/bandit_single","A3GJWXA13GMS9H","pain","1","32","","","","","","","","","","","","","","","","","","","","","","","","","",""
"3853","","text","9","174541","0.0-9.0","43416119","wem/bandit_single","A3GJWXA13GMS9H","pain","1","32","","","","","","","","","","","","","","","","","","","","","","","","","",""
"8096","","text","10","182638","0.0-10.0","43416119","wem/bandit_single","A3GJWXA13GMS9H","pain","1","32","","","","","","","","","","","","","","","","","","","","","","","","","",""
"3981","","text","11","186620","0.0-11.0","43416119","wem/bandit_single","A3GJWXA13GMS9H","pain","1","32","","","","","","","","","","","","","","","","","","","","","","","","","",""
"1500","","bandit","12","189629","0.0-12.0-0.0","43416119","wem/bandit_single","A3GJWXA13GMS9H","pain","1","","74","J","0","img/none_selected_demo.jpg","0","0","1","0","0","true","0","0","0","","","","","","","","","","","","",""
"1040","","bandit","13","192426","0.0-13.0-0.0","43416119","wem/bandit_single","A3GJWXA13GMS9H","pain","1","","75","K","0","img/none_selected_demo.jpg","0","0","1","0","0","true","0","0","0","","","","","","","","","","","","",""
"10534","","text","14","203215","0.0-14.0","43416119","wem/bandit_single","A3GJWXA13GMS9H","pain","1","32","","","","","","","","","","","","","","","","","","","","","","","","","",""
"2267","","text","15","205484","0.0-15.0","43416119","wem/bandit_single","A3GJWXA13GMS9H","pain","1","32","","","","","","","","","","","","","","","","","","","","","","","","","",""
"4062","","text","16","209548","0.0-16.0","43416119","wem/bandit_single","A3GJWXA13GMS9H","pain","1","32","","","","","","","","","","","","","","","","","","","","","","","","","",""
"2749","","text","17","212299","0.0-17.0","43416119","wem/bandit_single","A3GJWXA13GMS9H","pain","1","32","","","","","","","","","","","","","","","","","","","","","","","","","",""
"1247","","bandit","18","215053","0.0-18.0-0.0","43416119","wem/bandit_single","A3GJWXA13GMS9H","pain","1","","74","J","0","img/none_selected_demo.jpg","0","1","0","0","0.8","true","0","0","0.8","80_20_practice","0","0.2","","","","","","","","","",""
"129","","bandit","19","216939","0.0-18.0-1.0","43416119","wem/bandit_single","A3GJWXA13GMS9H","pain","1","","74","J","0","img/none_selected_demo.jpg","0","1","0","0","0.8","true","0","0","0.8","80_20_practice","0","0.2","","","","","","","","","",""
"35","","bandit","20","218730","0.0-18.0-2.0","43416119","wem/bandit_single","A3GJWXA13GMS9H","pain","1","","74","J","0","img/none_selected_demo.jpg","0","1","0","0","0.8","true","0","0","0.8","80_20_practice","0","0.2","","","","","","","","","",""
"131","","bandit","21","220618","0.0-18.0-3.0","43416119","wem/bandit_single","A3GJWXA13GMS9H","pain","1","","75","K","1","","0","0","1","0","0.2","true","0","0","0.8","80_20_practice","0","0.2","","","","","","","","","",""
"99","","bandit","22","222475","0.0-18.0-4.0","43416119","wem/bandit_single","A3GJWXA13GMS9H","pain","1","","75","K","1","","0","0","1","0","0.2","true","0","0","0.8","80_20_practice","0","0.2","","","","","","","","","",""
"35","","bandit","23","224268","0.0-18.0-5.0","43416119","wem/bandit_single","A3GJWXA13GMS9H","pain","1","","74","J","0","img/none_selected_demo.jpg","0","0","1","0","0.8","true","0","0","0.8","80_20_practice","0","0.2","","","","","","","","","",""
"52","","bandit","24","226076","0.0-18.0-6.0","43416119","wem/bandit_single","A3GJWXA13GMS9H","pain","1","","74","J","0","img/none_selected_demo.jpg","0","1","0","0","0.8","true","0","0","0.8","80_20_practice","0","0.2","","","","","","","","","",""
"65","","bandit","25","227898","0.0-18.0-7.0","43416119","wem/bandit_single","A3GJWXA13GMS9H","pain","1","","74","J","0","img/none_selected_demo.jpg","0","1","0","0","0.8","true","0","0","0.8","80_20_practice","0","0.2","","","","","","","","","",""
"371","","bandit","26","230026","0.0-18.0-8.0","43416119","wem/bandit_single","A3GJWXA13GMS9H","pain","1","","74","J","0","img/none_selected_demo.jpg","0","1","0","0","0.8","true","0","0","0.8","80_20_practice","0","0.2","","","","","","","","","",""
"51","","bandit","27","231835","0.0-18.0-9.0","43416119","wem/bandit_single","A3GJWXA13GMS9H","pain","1","","74","J","0","img/none_selected_demo.jpg","0","1","0","0","0.8","true","0","0","0.8","80_20_practice","0","0.2","","","","","","","","","",""
"18","","bandit","28","233610","0.0-18.0-10.0","43416119","wem/bandit_single","A3GJWXA13GMS9H","pain","1","","74","J","0","img/none_selected_demo.jpg","0","0","1","0","0.8","true","0","0","0.8","80_20_practice","0","0.2","","","","","","","","","",""
"915","","bandit","29","236285","0.0-18.0-11.0","43416119","wem/bandit_single","A3GJWXA13GMS9H","pain","1","","74","J","0","img/none_selected_demo.jpg","0","1","0","0","0.8","true","0","0","0.8","80_20_practice","0","0.2","","","","","","","","","",""
"112","","bandit","30","238154","0.0-18.0-12.0","43416119","wem/bandit_single","A3GJWXA13GMS9H","pain","1","","74","J","0","img/none_selected_demo.jpg","0","0","1","0","0.8","true","0","0","0.8","80_20_practice","0","0.2","","","","","","","","","",""
"467","","bandit","31","240378","0.0-18.0-13.0","43416119","wem/bandit_single","A3GJWXA13GMS9H","pain","1","","74","J","0","img/none_selected_demo.jpg","0","1","0","0","0.8","true","0","0","0.8","80_20_practice","0","0.2","","","","","","","","","",""
"82","","bandit","32","242218","0.0-18.0-14.0","43416119","wem/bandit_single","A3GJWXA13GMS9H","pain","1","","74","J","0","img/none_selected_demo.jpg","0","1","0","0","0.8","true","0","0","0.8","80_20_practice","0","0.2","","","","","","","","","",""
"292","","bandit","33","244266","0.0-18.0-15.0","43416119","wem/bandit_single","A3GJWXA13GMS9H","pain","1","","75","K","1","","0","0","1","0","0.2","true","0","0","0.8","80_20_practice","0","0.2","","","","","","","","","",""
"436","","bandit","34","246460","0.0-18.0-16.0","43416119","wem/bandit_single","A3GJWXA13GMS9H","pain","1","","75","K","1","","0","0","1","0","0.2","true","0","0","0.8","80_20_practice","0","0.2","","","","","","","","","",""
"272","","bandit","35","248490","0.0-18.0-17.0","43416119","wem/bandit_single","A3GJWXA13GMS9H","pain","1","","75","K","1","","0","1","0","0","0.2","true","0","0","0.8","80_20_practice","0","0.2","","","","","","","","","",""
"131","","bandit","36","250378","0.0-18.0-18.0","43416119","wem/bandit_single","A3GJWXA13GMS9H","pain","1","","75","K","1","","0","0","1","0","0.2","true","0","0","0.8","80_20_practice","0","0.2","","","","","","","","","",""
"929","","bandit","37","253066","0.0-18.0-19.0","43416119","wem/bandit_single","A3GJWXA13GMS9H","pain","1","","75","K","1","","0","1","0","0","0.2","true","0","0","0.8","80_20_practice","0","0.2","","","","","","","","","",""
"5011","","text","38","258331","0.0-19.0","43416119","wem/bandit_single","A3GJWXA13GMS9H","pain","1","32","","","","","","","","","","","","","","","","","","","","","","","","","",""
"2973","","bandit","39","262810","0.0-20.0-0.0","43416119","wem/bandit_single","A3GJWXA13GMS9H","pain","1","","74","J","0","img/none_selected_demo.jpg","0","0","1","0","0","true","0","0","0","","0","0","","","","","","","","","",""
"4339","","text","40","267404","0.0-21.0","43416119","wem/bandit_single","A3GJWXA13GMS9H","pain","1","32","","","","","","","","","","","","","","","","","","","","","","","","","",""
"5374","","text","41","272780","0.0-22.0","43416119","wem/bandit_single","A3GJWXA13GMS9H","pain","1","32","","","","","","","","","","","","","","","","","","","","","","","","","",""
"2941","","text","42","275723","0.0-23.0","43416119","wem/bandit_single","A3GJWXA13GMS9H","pain","1","32","","","","","","","","","","","","","","","","","","","","","","","","","",""
"1502","","text","43","277227","0.0-24.0","43416119","wem/bandit_single","A3GJWXA13GMS9H","pain","1","32","","","","","","","","","","","","","","","","","","","","","","","","","",""
"75294","","text","44","352523","0.0-25.0","43416119","wem/bandit_single","A3GJWXA13GMS9H","pain","1","32","","","","","","","","","","","","","","","","","","","","","","","","","",""
"3996","","text","45","356521","0.0-26.0","43416119","wem/bandit_single","A3GJWXA13GMS9H","pain","1","32","","","","","","","","","","","","","","","","","","","","","","","","","",""
"5598","","text","46","362121","0.0-27.0","43416119","wem/bandit_single","A3GJWXA13GMS9H","pain","1","32","","","","","","","","","","","","","","","","","","","","","","","","","",""
"4144","","text","47","366266","0.0-28.0","43416119","wem/bandit_single","A3GJWXA13GMS9H","pain","1","32","","","","","","","","","","","","","","","","","","","","","","","","","",""
"8300","","text","48","374569","0.0-29.0","43416119","wem/bandit_single","A3GJWXA13GMS9H","pain","1","32","","","","","","","","","","","","","","","","","","","","","","","","","",""
"2367","","text","49","376938","0.0-30.0","43416119","wem/bandit_single","A3GJWXA13GMS9H","pain","1","32","","","","","","","","","","","","","","","","","","","","","","","","","",""
"2765","","text","50","379705","0.0-31.0","43416119","wem/bandit_single","A3GJWXA13GMS9H","pain","1","32","","","","","","","","","","","","","","","","","","","","","","","","","",""
"1421","","bandit","51","382631","0.0-32.0-0.0","43416119","wem/bandit_single","A3GJWXA13GMS9H","pain","1","","72","H","0","img/none_selected.jpg","0","1","0","0","0.8","true","0","0","0.8","full_practice","0","0.2","0","0.6","0","0.2","","","","","",""
"99","","bandit","52","384487","0.0-32.0-1.0","43416119","wem/bandit_single","A3GJWXA13GMS9H","pain","1","","72","H","0","img/none_selected.jpg","0","1","0","0","0.8","true","0","0","0.8","full_practice","0","0.2","0","0.6","0","0.2","","","","","",""
"257","","bandit","53","386503","0.0-32.0-2.0","43416119","wem/bandit_single","A3GJWXA13GMS9H","pain","1","","72","H","0","img/none_selected.jpg","0","1","0","0","0.8","true","0","0","0.8","full_practice","0","0.2","0","0.6","0","0.2","","","","","",""
"67","","bandit","54","388328","0.0-32.0-3.0","43416119","wem/bandit_single","A3GJWXA13GMS9H","pain","1","","72","H","0","img/none_selected.jpg","0","1","0","0","0.8","true","0","0","0.8","full_practice","0","0.2","0","0.6","0","0.2","","","","","",""
"115","","bandit","55","390201","0.0-32.0-4.0","43416119","wem/bandit_single","A3GJWXA13GMS9H","pain","1","","74","J","1","","0","0","1","0","0.2","true","0","0","0.8","full_practice","0","0.2","0","0.6","0","0.2","","","","","",""
"354","","bandit","56","392311","0.0-32.0-5.0","43416119","wem/bandit_single","A3GJWXA13GMS9H","pain","1","","75","K","2","","0","0","1","0","0.6","true","0","0","0.8","full_practice","0","0.2","0","0.6","0","0.2","","","","","",""
"49","","bandit","57","394119","0.0-32.0-6.0","43416119","wem/bandit_single","A3GJWXA13GMS9H","pain","1","","76","L","3","","0","0","1","0","0.2","true","0","0","0.8","full_practice","0","0.2","0","0.6","0","0.2","","","","","",""
"274","","bandit","58","396150","0.0-32.0-7.0","43416119","wem/bandit_single","A3GJWXA13GMS9H","pain","1","","72","H","0","img/none_selected.jpg","0","0","1","0","0.8","true","0","0","0.8","full_practice","0","0.2","0","0.6","0","0.2","","","","","",""
"83","","bandit","59","397990","0.0-32.0-8.0","43416119","wem/bandit_single","A3GJWXA13GMS9H","pain","1","","72","H","0","img/none_selected.jpg","0","1","0","0","0.8","true","0","0","0.8","full_practice","0","0.2","0","0.6","0","0.2","","","","","",""
"1540","","bandit","60","401288","0.0-32.0-9.0","43416119","wem/bandit_single","A3GJWXA13GMS9H","pain","1","","72","H","0","img/none_selected.jpg","0","1","0","0","0.8","true","0","0","0.8","full_practice","0","0.2","0","0.6","0","0.2","","","","","",""
"286","","bandit","61","403336","0.0-32.0-10.0","43416119","wem/bandit_single","A3GJWXA13GMS9H","pain","1","","72","H","0","img/none_selected.jpg","0","1","0","0","0.8","true","0","0","0.8","full_practice","0","0.2","0","0.6","0","0.2","","","","","",""
"49","","bandit","62","405142","0.0-32.0-11.0","43416119","wem/bandit_single","A3GJWXA13GMS9H","pain","1","","72","H","0","img/none_selected.jpg","0","1","0","0","0.8","true","0","0","0.8","full_practice","0","0.2","0","0.6","0","0.2","","","","","",""
"98","","bandit","63","406998","0.0-32.0-12.0","43416119","wem/bandit_single","A3GJWXA13GMS9H","pain","1","","72","H","0","img/none_selected.jpg","0","1","0","0","0.8","true","0","0","0.8","full_practice","0","0.2","0","0.6","0","0.2","","","","","",""
"274","","bandit","64","409032","0.0-32.0-13.0","43416119","wem/bandit_single","A3GJWXA13GMS9H","pain","1","","72","H","0","img/none_selected.jpg","0","1","0","0","0.8","true","0","0","0.8","full_practice","0","0.2","0","0.6","0","0.2","","","","","",""
"643","","bandit","65","411432","0.0-32.0-14.0","43416119","wem/bandit_single","A3GJWXA13GMS9H","pain","1","","72","H","0","img/none_selected.jpg","0","1","0","0","0.8","true","0","0","0.8","full_practice","0","0.2","0","0.6","0","0.2","","","","","",""
"240","","bandit","66","413430","0.0-32.0-15.0","43416119","wem/bandit_single","A3GJWXA13GMS9H","pain","1","","72","H","0","img/none_selected.jpg","0","1","0","0","0.8","true","0","0","0.8","full_practice","0","0.2","0","0.6","0","0.2","","","","","",""
"482","","bandit","67","415670","0.0-32.0-16.0","43416119","wem/bandit_single","A3GJWXA13GMS9H","pain","1","","72","H","0","img/none_selected.jpg","0","0","1","0","0.8","true","0","0","0.8","full_practice","0","0.2","0","0.6","0","0.2","","","","","",""
"354","","bandit","68","417783","0.0-32.0-17.0","43416119","wem/bandit_single","A3GJWXA13GMS9H","pain","1","","72","H","0","img/none_selected.jpg","0","1","0","0","0.8","true","0","0","0.8","full_practice","0","0.2","0","0.6","0","0.2","","","","","",""
"82","","bandit","69","419622","0.0-32.0-18.0","43416119","wem/bandit_single","A3GJWXA13GMS9H","pain","1","","72","H","0","img/none_selected.jpg","0","1","0","0","0.8","true","0","0","0.8","full_practice","0","0.2","0","0.6","0","0.2","","","","","",""
"84","","bandit","70","421465","0.0-32.0-19.0","43416119","wem/bandit_single","A3GJWXA13GMS9H","pain","1","","72","H","0","img/none_selected.jpg","0","1","0","0","0.8","true","0","0","0.8","full_practice","0","0.2","0","0.6","0","0.2","","","","","",""
"4029","","text","71","425752","0.0-33.0","43416119","wem/bandit_single","A3GJWXA13GMS9H","pain","1","32","","","","","","","","","","","","","","","","","","","","","","","","","",""
"16743","","text","72","443499","0.0-34.0","43416119","wem/bandit_single","A3GJWXA13GMS9H","pain","1","32","","","","","","","","","","","","","","","","","","","","","","","","","",""
"8760","","text","73","452263","0.0-35.0","43416119","wem/bandit_single","A3GJWXA13GMS9H","pain","1","32","","","","","","","","","","","","","","","","","","","","","","","","","",""
"8895","","text","74","461161","0.0-36.0","43416119","wem/bandit_single","A3GJWXA13GMS9H","pain","1","32","","","","","","","","","","","","","","","","","","","","","","","","","",""
"7211","","text","75","468375","0.0-37.0","43416119","wem/bandit_single","A3GJWXA13GMS9H","pain","1","32","","","","","","","","","","","","","","","","","","","","","","","","","",""
"1577","","bandit","76","471461","0.0-38.0-0.0","43416119","wem/bandit_single","A3GJWXA13GMS9H","pain","1","","72","H","0","img/none_selected.jpg","0","0","1","","0.04371116513","false","1","","0.04371116513","main_expt","","0.433486002","","0.1079408374","","0.1765468105","","","","","",""
"68","","bandit","77","473290","0.0-39.0-0.0","43416119","wem/bandit_single","A3GJWXA13GMS9H","pain","1","","72","H","0","img/none_selected.jpg","0","0","1","","0.0204546363","false","2","","0.0204546363","main_expt","","0.4446307222","","0.1605706499","","0.1569258514","","","","","",""
"94","","bandit","78","475141","0.0-40.0-0.0","43416119","wem/bandit_single","A3GJWXA13GMS9H","pain","1","","74","J","1","","0","1","0","","0.4522438858","false","3","","0.02109221713","main_expt","","0.4522438858","","0.1829447669","","0.1639246388","","","","","",""
"35","","bandit","79","476933","0.0-41.0-0.0","43416119","wem/bandit_single","A3GJWXA13GMS9H","pain","1","","74","J","1","","0","1","0","","0.4330109471","false","4","","0.04448829896","main_expt","","0.4330109471","","0.1756642407","","0.2130332657","","","","","",""
"371","","bandit","80","479061","0.0-42.0-0.0","43416119","wem/bandit_single","A3GJWXA13GMS9H","pain","1","","74","J","1","","0","0","1","","0.4678508314","false","5","","0.03824555068","main_expt","","0.4678508314","","0.1349544936","","0.1939577492","","","","","",""
"67","","bandit","81","480885","0.0-43.0-0.0","43416119","wem/bandit_single","A3GJWXA13GMS9H","pain","1","","74","J","1","","0","0","1","","0.4644602632","false","6","","0.03028715703","main_expt","","0.4644602632","","0.1356037804","","0.2419857306","","","","","",""
"258","","bandit","82","482901","0.0-44.0-0.0","43416119","wem/bandit_single","A3GJWXA13GMS9H","pain","1","","74","J","1","","0","0","1","","0.4575746565","false","7","","0.0280090558","main_expt","","0.4575746565","","0.1731738011","","0.2437977828","","","","","",""
"52","","bandit","83","484710","0.0-45.0-0.0","43416119","wem/bandit_single","A3GJWXA13GMS9H","pain","1","","75","K","2","","0","0","1","","0.1697830552","false","8","","0.01994926529","main_expt","","0.4508833002","","0.1697830552","","0.2910779813","","","","","",""
"2","","bandit","84","486469","0.0-46.0-0.0","43416119","wem/bandit_single","A3GJWXA13GMS9H","pain","1","","75","K","2","","0","0","1","","0.1792782501","false","9","","0.02255652904","main_expt","","0.446295775","","0.1792782501","","0.3043628405","","","","","",""
"272","","bandit","85","488502","0.0-47.0-0.0","43416119","wem/bandit_single","A3GJWXA13GMS9H","pain","1","","75","K","2","","0","0","1","","0.1705688187","false","10","","0.02794315976","main_expt","","0.4564580261","","0.1705688187","","0.3568141906","","","","","",""
"448","","bandit","86","490709","0.0-48.0-0.0","43416119","wem/bandit_single","A3GJWXA13GMS9H","pain","1","","76","L","3","","0","1","0","","0.3439843329","false","11","","0.02289966844","main_expt","","0.4233437492","","0.1974022207","","0.3439843329","","","","","",""
"274","","bandit","87","492741","0.0-49.0-0.0","43416119","wem/bandit_single","A3GJWXA13GMS9H","pain","1","","76","L","3","","0","0","1","","0.2959247237","false","12","","0.01510656417","main_expt","","0.4129107721","","0.1753487428","","0.2959247237","","","","","",""
"65","","bandit","88","494565","0.0-50.0-0.0","43416119","wem/bandit_single","A3GJWXA13GMS9H","pain","1","","76","L","3","","0","0","1","","0.2711511111","false","13","","0.01475809492","main_expt","","0.4188058581","","0.1858973774","","0.2711511111","","","","","",""
"68","","bandit","89","496390","0.0-51.0-0.0","43416119","wem/bandit_single","A3GJWXA13GMS9H","pain","1","","76","L","3","","0","0","1","","0.2351285692","false","14","","0.00909265887","main_expt","","0.4542155744","","0.1873997244","","0.2351285692","","","","","",""
"289","","bandit","90","498437","0.0-52.0-0.0","43416119","wem/bandit_single","A3GJWXA13GMS9H","pain","1","","72","H","0","img/none_selected.jpg","0","0","1","","0.004683339805","false","15","","0.004683339805","main_expt","","0.4436127815","","0.2079034381","","0.3299180318","","","","","",""
"241","","bandit","91","500436","0.0-53.0-0.0","43416119","wem/bandit_single","A3GJWXA13GMS9H","pain","1","","72","H","0","img/none_selected.jpg","0","0","1","","0.007493295572","false","16","","0.007493295572","main_expt","","0.4255220112","","0.2116662278","","0.3382291528","","","","","",""
"33","","bandit","92","502228","0.0-54.0-0.0","43416119","wem/bandit_single","A3GJWXA13GMS9H","pain","1","","74","J","1","","0","0","1","","0.4221090449","false","17","","0.009835384986","main_expt","","0.4221090449","","0.2460799228","","0.3890963744","","","","","",""
"257","","bandit","93","504245","0.0-55.0-0.0","43416119","wem/bandit_single","A3GJWXA13GMS9H","pain","1","","74","J","1","","0","1","0","","0.4157246332","false","18","","0.01282838009","main_expt","","0.4157246332","","0.2725156425","","0.3102907615","","","","","",""
"194","","bandit","94","506196","0.0-56.0-0.0","43416119","wem/bandit_single","A3GJWXA13GMS9H","pain","1","","74","J","1","","0","0","1","","0.4000612909","false","19","","0.03935122736","main_expt","","0.4000612909","","0.319312936","","0.2734902963","","","","","",""
"67","","bandit","95","508024","0.0-57.0-0.0","43416119","wem/bandit_single","A3GJWXA13GMS9H","pain","1","","74","J","1","","0","0","1","","0.4116546581","false","20","","0.03712672215","main_expt","","0.4116546581","","0.3449168397","","0.2157414593","","","","","",""
"47","","bandit","96","509830","0.0-58.0-0.0","43416119","wem/bandit_single","A3GJWXA13GMS9H","pain","1","","74","J","1","","0","1","0","","0.4276829816","false","21","","0.02631596187","main_expt","","0.4276829816","","0.2668327531","","0.2148325275","","","","","",""
"112","","bandit","97","511700","0.0-59.0-0.0","43416119","wem/bandit_single","A3GJWXA13GMS9H","pain","1","","74","J","1","","0","0","1","","0.3861543943","false","22","","0.0338100911","main_expt","","0.3861543943","","0.2786929748","","0.1819582271","","","","","",""
"34","","bandit","98","513492","0.0-60.0-0.0","43416119","wem/bandit_single","A3GJWXA13GMS9H","pain","1","","74","J","1","","0","0","1","","0.3815006395","false","23","","0.06132921526","main_expt","","0.3815006395","","0.2012253143","","0.1776669961","","","","","",""
"896","","bandit","99","516148","0.0-61.0-0.0","43416119","wem/bandit_single","A3GJWXA13GMS9H","pain","1","","75","K","2","","0","1","0","","0.1363446769","false","24","","0.06546003458","main_expt","","0.4063144844","","0.1363446769","","0.2595803745","","","","","",""
"277","","bandit","100","518182","0.0-62.0-0.0","43416119","wem/bandit_single","A3GJWXA13GMS9H","pain","1","","75","K","2","","0","0","1","","0.1395957504","false","25","","0.08327489459","main_expt","","0.3218764758","","0.1395957504","","0.2184946748","","","","","",""
"465","","bandit","101","520403","0.0-63.0-0.0","43416119","wem/bandit_single","A3GJWXA13GMS9H","pain","1","","75","K","2","","0","0","1","","0.1095431569","false","26","","0.06117167893","main_expt","","0.3190898414","","0.1095431569","","0.2382025465","","","","","",""
"2","","bandit","102","522164","0.0-64.0-0.0","43416119","wem/bandit_single","A3GJWXA13GMS9H","pain","1","","75","K","2","","0","0","1","","0.1290148999","false","27","","0.03494965278","main_expt","","0.361309168","","0.1290148999","","0.2249508913","","","","","",""
"49","","bandit","103","523972","0.0-65.0-0.0","43416119","wem/bandit_single","A3GJWXA13GMS9H","pain","1","","75","K","2","","0","0","1","","0.09304199486","false","28","","0.02964638986","main_expt","","0.3247985582","","0.09304199486","","0.2388683754","","","","","",""
"66","","bandit","104","525796","0.0-66.0-0.0","43416119","wem/bandit_single","A3GJWXA13GMS9H","pain","1","","75","K","2","","0","1","0","","0.1042487788","false","29","","0.03498116837","main_expt","","0.3358989687","","0.1042487788","","0.238121012","","","","","",""
"96","","bandit","105","527652","0.0-67.0-0.0","43416119","wem/bandit_single","A3GJWXA13GMS9H","pain","1","","75","K","2","","0","0","1","","0.1177759499","false","30","","0.04244048525","main_expt","","0.3833706669","","0.1177759499","","0.2995264376","","","","","",""
"20","","bandit","106","529430","0.0-68.0-0.0","43416119","wem/bandit_single","A3GJWXA13GMS9H","pain","1","","76","L","3","","0","1","0","","0.2738636663","false","31","","0.06152315655","main_expt","","0.365606812","","0.1177925617","","0.2738636663","","","","","",""
"94","","bandit","107","531284","0.0-69.0-0.0","43416119","wem/bandit_single","A3GJWXA13GMS9H","pain","1","","76","L","3","","0","0","1","","0.3185168498","false","32","","0.04890303061","main_expt","","0.3376656117","","0.08495919706","","0.3185168498","","","","","",""
"50","","bandit","108","533092","0.0-70.0-0.0","43416119","wem/bandit_single","A3GJWXA13GMS9H","pain","1","","76","L","3","","0","1","0","","0.3160257618","false","33","","0.06913310411","main_expt","","0.3632929272","","0.09918690981","","0.3160257618","","","","","",""
"65","","bandit","109","534916","0.0-71.0-0.0","43416119","wem/bandit_single","A3GJWXA13GMS9H","pain","1","","76","L","3","","0","0","1","","0.3411570355","false","34","","0.07311713639","main_expt","","0.4008603673","","0.1267106232","","0.3411570355","","","","","",""
"65","","bandit","110","536740","0.0-72.0-0.0","43416119","wem/bandit_single","A3GJWXA13GMS9H","pain","1","","76","L","3","","0","0","1","","0.3190481916","false","35","","0.08374615962","main_expt","","0.4024879816","","0.1076928618","","0.3190481916","","","","","",""
"65","","bandit","111","538564","0.0-73.0-0.0","43416119","wem/bandit_single","A3GJWXA13GMS9H","pain","1","","76","L","3","","0","0","1","","0.3264142162","false","36","","0.08182693844","main_expt","","0.3740303516","","0.1298816773","","0.3264142162","","","","","",""
"81","","bandit","112","540405","0.0-74.0-0.0","43416119","wem/bandit_single","A3GJWXA13GMS9H","pain","1","","76","L","3","","0","0","1","","0.3198880486","false","37","","0.1343371601","main_expt","","0.3728306432","","0.1459487567","","0.3198880486","","","","","",""
"48","","bandit","113","542212","0.0-75.0-0.0","43416119","wem/bandit_single","A3GJWXA13GMS9H","pain","1","","75","K","2","","0","1","0","","0.1339045699","false","38","","0.155986589","main_expt","","0.3805434418","","0.1339045699","","0.3683112265","","","","","",""
"65","","bandit","114","544035","0.0-76.0-0.0","43416119","wem/bandit_single","A3GJWXA13GMS9H","pain","1","","75","K","2","","0","0","1","","0.1345127174","false","39","","0.1477757124","main_expt","","0.3969568822","","0.1345127174","","0.3427238384","","","","","",""
"35","","bandit","115","545828","0.0-77.0-0.0","43416119","wem/bandit_single","A3GJWXA13GMS9H","pain","1","","75","K","2","","0","0","1","","0.1283460502","false","40","","0.1673850924","main_expt","","0.3988554294","","0.1283460502","","0.3218453083","","","","","",""
"289","","bandit","116","547876","0.0-78.0-0.0","43416119","wem/bandit_single","A3GJWXA13GMS9H","pain","1","","75","K","2","","0","0","1","","0.120913883","false","41","","0.1798739011","main_expt","","0.4510691137","","0.120913883","","0.3085515908","","","","","",""
"112","","bandit","117","549747","0.0-79.0-0.0","43416119","wem/bandit_single","A3GJWXA13GMS9H","pain","1","","75","K","2","","0","0","1","","0.1045942129","false","42","","0.1559165864","main_expt","","0.4575220824","","0.1045942129","","0.3072415044","","","","","",""
"115","","bandit","118","551621","0.0-80.0-0.0","43416119","wem/bandit_single","A3GJWXA13GMS9H","pain","1","","75","K","2","","0","0","1","","0.09432917568","false","43","","0.1058033922","main_expt","","0.4425049573","","0.09432917568","","0.272500382","","","","","",""
"272","","bandit","119","553651","0.0-81.0-0.0","43416119","wem/bandit_single","A3GJWXA13GMS9H","pain","1","","75","K","2","","0","0","1","","0.07221407183","false","44","","0.08489334424","main_expt","","0.4232077065","","0.07221407183","","0.2865836788","","","","","",""
"226","","bandit","120","555635","0.0-82.0-0.0","43416119","wem/bandit_single","A3GJWXA13GMS9H","pain","1","","74","J","1","","0","0","1","","0.4098430077","false","45","","0.05905190464","main_expt","","0.4098430077","","0.05666738762","","0.2991622886","","","","","",""
"320","","bandit","121","557715","0.0-83.0-0.0","43416119","wem/bandit_single","A3GJWXA13GMS9H","pain","1","","74","J","1","","0","0","1","","0.4038708701","false","46","","0.06331323714","main_expt","","0.4038708701","","0.03432969329","","0.2531917612","","","","","",""
"65","","bandit","122","559539","0.0-84.0-0.0","43416119","wem/bandit_single","A3GJWXA13GMS9H","pain","1","","74","J","1","","0","0","1","","0.4162646915","false","47","","0.05657329797","main_expt","","0.4162646915","","0.03955917442","","0.174020607","","","","","",""
"82","","bandit","123","561379","0.0-85.0-0.0","43416119","wem/bandit_single","A3GJWXA13GMS9H","pain","1","","74","J","1","","0","1","0","","0.4188900116","false","48","","0.04718629669","main_expt","","0.4188900116","","0.02792503423","","0.1890064997","","","","","",""
"290","","bandit","124","563430","0.0-86.0-0.0","43416119","wem/bandit_single","A3GJWXA13GMS9H","pain","1","","74","J","1","","0","1","0","","0.4566014176","false","49","","0.03289244517","main_expt","","0.4566014176","","0.03726959289","","0.218442061","","","","","",""
"238","","bandit","125","565427","0.0-87.0-0.0","43416119","wem/bandit_single","A3GJWXA13GMS9H","pain","1","","74","J","1","","0","1","0","","0.4447058567","false","50","","0.03266450512","main_expt","","0.4447058567","","0.03358305353","","0.1635183119","","","","","",""
"112","","bandit","126","567300","0.0-88.0-0.0","43416119","wem/bandit_single","A3GJWXA13GMS9H","pain","1","","74","J","1","","0","1","0","","0.4304926469","false","51","","0.03026904774","main_expt","","0.4304926469","","0.03344521258","","0.1366577914","","","","","",""
"111","","bandit","127","569170","0.0-89.0-0.0","43416119","wem/bandit_single","A3GJWXA13GMS9H","pain","1","","74","J","1","","0","0","1","","0.4221781581","false","52","","0.03251993274","main_expt","","0.4221781581","","0.04269272659","","0.1797398031","","","","","",""
"18","","bandit","128","570947","0.0-90.0-0.0","43416119","wem/bandit_single","A3GJWXA13GMS9H","pain","1","","74","J","1","","0","1","0","","0.3687481665","false","53","","0.03960602941","main_expt","","0.3687481665","","0.023815337","","0.2893410322","","","","","",""
"113","","bandit","129","572819","0.0-91.0-0.0","43416119","wem/bandit_single","A3GJWXA13GMS9H","pain","1","","74","J","1","","0","1","0","","0.3458934235","false","54","","0.05707063203","main_expt","","0.3458934235","","0.02455785224","","0.2985665456","","","","","",""
"66","","bandit","130","574644","0.0-92.0-0.0","43416119","wem/bandit_single","A3GJWXA13GMS9H","pain","1","","74","J","1","","0","0","1","","0.4042580408","false","55","","0.04044117434","main_expt","","0.4042580408","","0.03998391886","","0.3336948264","","","","","",""
"80","","bandit","131","576483","0.0-93.0-0.0","43416119","wem/bandit_single","A3GJWXA13GMS9H","pain","1","","74","J","1","","0","1","0","","0.4471112694","false","56","","0.05627119328","main_expt","","0.4471112694","","0.06538112884","","0.282194417","","","","","",""
"81","","bandit","132","578325","0.0-94.0-0.0","43416119","wem/bandit_single","A3GJWXA13GMS9H","pain","1","","74","J","1","","0","1","0","","0.4640351361","false","57","","0.06172895681","main_expt","","0.4640351361","","0.08662171517","","0.3239389597","","","","","",""
"144","","bandit","133","580226","0.0-95.0-0.0","43416119","wem/bandit_single","A3GJWXA13GMS9H","pain","1","","74","J","1","","0","0","1","","0.4654795878","false","58","","0.0708730922","main_expt","","0.4654795878","","0.08191290536","","0.3114288274","","","","","",""
"18","","bandit","134","582003","0.0-96.0-0.0","43416119","wem/bandit_single","A3GJWXA13GMS9H","pain","1","","74","J","1","","0","0","1","","0.477644797","false","59","","0.06307994893","main_expt","","0.477644797","","0.06359390603","","0.3090129124","","","","","",""
"65","","bandit","135","583827","0.0-97.0-0.0","43416119","wem/bandit_single","A3GJWXA13GMS9H","pain","1","","74","J","1","","0","1","0","","0.4637057102","false","60","","0.06865221942","main_expt","","0.4637057102","","0.1113565871","","0.3273240357","","","","","",""
"323","","bandit","136","585989","0.0-98.0-0.0","43416119","wem/bandit_single","A3GJWXA13GMS9H","pain","1","","74","J","1","","0","1","0","","0.4575353452","false","61","","0.04710261487","main_expt","","0.4575353452","","0.1224908949","","0.333760802","","","","","",""
"28","","bandit","137","587780","0.0-99.0-0.0","43416119","wem/bandit_single","A3GJWXA13GMS9H","pain","1","","74","J","1","","0","1","0","","0.4511824808","false","62","","0.04180279512","main_expt","","0.4511824808","","0.1011510181","","0.3721083552","","","","","",""
"33","","bandit","138","589571","0.0-100.0-0.0","43416119","wem/bandit_single","A3GJWXA13GMS9H","pain","1","","74","J","1","","0","0","1","","0.4522744543","false","63","","0.04669584184","main_expt","","0.4522744543","","0.1241823521","","0.3366911892","","","","","",""
"33","","bandit","139","591363","0.0-101.0-0.0","43416119","wem/bandit_single","A3GJWXA13GMS9H","pain","1","","74","J","1","","0","0","1","","0.4534383651","false","64","","0.04699929359","main_expt","","0.4534383651","","0.1277445844","","0.352845708","","","","","",""
"33","","bandit","140","593156","0.0-102.0-0.0","43416119","wem/bandit_single","A3GJWXA13GMS9H","pain","1","","74","J","1","","0","0","1","","0.4578128414","false","65","","0.06422912444","main_expt","","0.4578128414","","0.1594820305","","0.3797865956","","","","","",""
"96","","bandit","141","595011","0.0-103.0-0.0","43416119","wem/bandit_single","A3GJWXA13GMS9H","pain","1","","74","J","1","","0","0","1","","0.4675149648","false","66","","0.09107067683","main_expt","","0.4675149648","","0.1902728197","","0.3776123686","","","","","",""
"1312","","bandit","142","598083","0.0-104.0-0.0","43416119","wem/bandit_single","A3GJWXA13GMS9H","pain","1","","74","J","1","","0","0","1","","0.4801185054","false","67","","0.1295134299","main_expt","","0.4801185054","","0.1915604568","","0.3520302909","","","","","",""
"129","","bandit","143","599972","0.0-105.0-0.0","43416119","wem/bandit_single","A3GJWXA13GMS9H","pain","1","","74","J","1","","0","0","1","","0.4853911876","false","68","","0.1501953896","main_expt","","0.4853911876","","0.2292904293","","0.3563070861","","","","","",""
"63","","bandit","144","601794","0.0-106.0-0.0","43416119","wem/bandit_single","A3GJWXA13GMS9H","pain","1","","72","H","0","img/none_selected.jpg","0","0","1","","0.2120393587","false","69","","0.2120393587","main_expt","","0.45952887","","0.2982444272","","0.3773129781","","","","","",""
"784","","bandit","145","604340","0.0-107.0-0.0","43416119","wem/bandit_single","A3GJWXA13GMS9H","pain","1","","72","H","0","img/none_selected.jpg","0","0","1","","0.2046372205","false","70","","0.2046372205","main_expt","","0.4519788387","","0.2038928517","","0.3620092878","","","","","",""
"95","","bandit","146","606195","0.0-108.0-0.0","43416119","wem/bandit_single","A3GJWXA13GMS9H","pain","1","","75","K","2","","0","1","0","","0.2470144531","false","71","","0.1711657315","main_expt","","0.4644284496","","0.2470144531","","0.3689610789","","","","","",""
"66","","bandit","147","608021","0.0-109.0-0.0","43416119","wem/bandit_single","A3GJWXA13GMS9H","pain","1","","75","K","2","","0","0","1","","0.2339224101","false","72","","0.1804367846","main_expt","","0.4275080271","","0.2339224101","","0.335535794","","","","","",""
"46","","bandit","148","609826","0.0-110.0-0.0","43416119","wem/bandit_single","A3GJWXA13GMS9H","pain","1","","75","K","2","","0","0","1","","0.198403553","false","73","","0.1582310148","main_expt","","0.4333248441","","0.198403553","","0.3669127126","","","","","",""
"79","","bandit","149","611669","0.0-111.0-0.0","43416119","wem/bandit_single","A3GJWXA13GMS9H","pain","1","","75","K","2","","0","1","0","","0.2162510441","false","74","","0.1300952354","main_expt","","0.4272577829","","0.2162510441","","0.3360165716","","","","","",""
"142","","bandit","150","613572","0.0-112.0-0.0","43416119","wem/bandit_single","A3GJWXA13GMS9H","pain","1","","75","K","2","","0","0","1","","0.2467290531","false","75","","0.1414689969","main_expt","","0.353629049","","0.2467290531","","0.3379177146","","","","","",""
"413","","bandit","151","615748","0.0-113.0-0.0","43416119","wem/bandit_single","A3GJWXA13GMS9H","pain","1","","75","K","2","","0","0","1","","0.2199510863","false","76","","0.1315789974","main_expt","","0.3526453175","","0.2199510863","","0.3489784935","","","","","",""
"112","","bandit","152","617618","0.0-114.0-0.0","43416119","wem/bandit_single","A3GJWXA13GMS9H","pain","1","","75","K","2","","0","0","1","","0.1600424727","false","77","","0.1054244057","main_expt","","0.397337216","","0.1600424727","","0.2843927136","","","","","",""
"256","","bandit","153","619636","0.0-115.0-0.0","43416119","wem/bandit_single","A3GJWXA13GMS9H","pain","1","","75","K","2","","0","0","1","","0.1366877547","false","78","","0.1028875903","main_expt","","0.3747850168","","0.1366877547","","0.2585585406","","","","","",""
"80","","bandit","154","621476","0.0-116.0-0.0","43416119","wem/bandit_single","A3GJWXA13GMS9H","pain","1","","76","L","3","","0","0","1","","0.2211992803","false","79","","0.1010795136","main_expt","","0.3500135026","","0.1608027171","","0.2211992803","","","","","",""
"63","","bandit","155","623298","0.0-117.0-0.0","43416119","wem/bandit_single","A3GJWXA13GMS9H","pain","1","","76","L","3","","0","0","1","","0.1670678668","false","80","","0.09661145037","main_expt","","0.3362224365","","0.2004121585","","0.1670678668","","","","","",""
"97","","bandit","156","625156","0.0-118.0-0.0","43416119","wem/bandit_single","A3GJWXA13GMS9H","pain","1","","76","L","3","","0","0","1","","0.1536487801","false","81","","0.06079528701","main_expt","","0.3626400229","","0.2100463009","","0.1536487801","","","","","",""
"14","","bandit","157","626930","0.0-119.0-0.0","43416119","wem/bandit_single","A3GJWXA13GMS9H","pain","1","","76","L","3","","0","0","1","","0.164055667","false","82","","0.0561923849","main_expt","","0.3433004166","","0.2313995655","","0.164055667","","","","","",""
"33","","bandit","158","628724","0.0-120.0-0.0","43416119","wem/bandit_single","A3GJWXA13GMS9H","pain","1","","74","J","1","","0","1","0","","0.3564809269","false","83","","0.05471979201","main_expt","","0.3564809269","","0.1805974068","","0.1795096781","","","","","",""
"62","","bandit","159","630546","0.0-121.0-0.0","43416119","wem/bandit_single","A3GJWXA13GMS9H","pain","1","","74","J","1","","0","1","0","","0.3403656385","false","84","","0.04961315052","main_expt","","0.3403656385","","0.1351257884","","0.1568762326","","","","","",""
"256","","bandit","160","632563","0.0-122.0-0.0","43416119","wem/bandit_single","A3GJWXA13GMS9H","pain","1","","74","J","1","","0","0","1","","0.3009252634","false","85","","0.05195310968","main_expt","","0.3009252634","","0.1372280885","","0.1857208284","","","","","",""
"656","","bandit","161","634979","0.0-123.0-0.0","43416119","wem/bandit_single","A3GJWXA13GMS9H","pain","1","","74","J","1","","0","0","1","","0.3067316121","false","86","","0.05385113756","main_expt","","0.3067316121","","0.1685840628","","0.2180329602","","","","","",""
"158","","bandit","162","636899","0.0-124.0-0.0","43416119","wem/bandit_single","A3GJWXA13GMS9H","pain","1","","74","J","1","","0","0","1","","0.3073916088","false","87","","0.08202519069","main_expt","","0.3073916088","","0.1654340797","","0.1893737279","","","","","",""
"305","","bandit","163","638966","0.0-125.0-0.0","43416119","wem/bandit_single","A3GJWXA13GMS9H","pain","1","","74","J","1","","0","0","1","","0.301504441","false","88","","0.04873944257","main_expt","","0.301504441","","0.1870328522","","0.2309201776","","","","","",""
"94","","bandit","164","640820","0.0-126.0-0.0","43416119","wem/bandit_single","A3GJWXA13GMS9H","pain","1","","75","K","2","","0","0","1","","0.1786415591","false","89","","0.05553778571","main_expt","","0.3324072184","","0.1786415591","","0.2368651839","","","","","",""
"269","","bandit","165","642851","0.0-127.0-0.0","43416119","wem/bandit_single","A3GJWXA13GMS9H","pain","1","","76","L","3","","0","0","1","","0.2459093935","false","90","","0.04980790846","main_expt","","0.3245139686","","0.2293974223","","0.2459093935","","","","","",""
"111","","bandit","166","644723","0.0-128.0-0.0","43416119","wem/bandit_single","A3GJWXA13GMS9H","pain","1","","72","H","0","img/none_selected.jpg","0","0","1","","0.05804880768","false","91","","0.05804880768","main_expt","","0.3310751299","","0.2407797963","","0.2371609774","","","","","",""
"399","","bandit","167","646883","0.0-129.0-0.0","43416119","wem/bandit_single","A3GJWXA13GMS9H","pain","1","","74","J","1","","0","1","0","","0.3717444616","false","92","","0.0614883172","main_expt","","0.3717444616","","0.2337544695","","0.260478489","","","","","",""
"191","","bandit","168","648834","0.0-130.0-0.0","43416119","wem/bandit_single","A3GJWXA13GMS9H","pain","1","","74","J","1","","0","1","0","","0.3846532122","false","93","","0.0764333552","main_expt","","0.3846532122","","0.2589688886","","0.2595992258","","","","","",""
"275","","bandit","169","650868","0.0-131.0-0.0","43416119","wem/bandit_single","A3GJWXA13GMS9H","pain","1","","74","J","1","","0","0","1","","0.4017211595","false","94","","0.1280824273","main_expt","","0.4017211595","","0.2699529923","","0.206568391","","","","","",""
"127","","bandit","170","652755","0.0-132.0-0.0","43416119","wem/bandit_single","A3GJWXA13GMS9H","pain","1","","74","J","1","","0","0","1","","0.3736639641","false","95","","0.1191245721","main_expt","","0.3736639641","","0.2626559999","","0.1846794781","","","","","",""
"29","","bandit","171","654546","0.0-133.0-0.0","43416119","wem/bandit_single","A3GJWXA13GMS9H","pain","1","","74","J","1","","0","0","1","","0.3220453652","false","96","","0.08526153109","main_expt","","0.3220453652","","0.2196428224","","0.2484851932","","","","","",""
"639","","bandit","172","656947","0.0-134.0-0.0","43416119","wem/bandit_single","A3GJWXA13GMS9H","pain","1","","74","J","1","","0","0","1","","0.2964534367","false","97","","0.0775518538","main_expt","","0.2964534367","","0.1922289922","","0.198145661","","","","","",""
"78","","bandit","173","658787","0.0-135.0-0.0","43416119","wem/bandit_single","A3GJWXA13GMS9H","pain","1","","74","J","1","","0","0","1","","0.3388366936","false","98","","0.08824897118","main_expt","","0.3388366936","","0.2328023708","","0.1738253929","","","","","",""
"543","","bandit","174","661092","0.0-136.0-0.0","43416119","wem/bandit_single","A3GJWXA13GMS9H","pain","1","","74","J","1","","0","1","0","","0.4233536788","false","99","","0.08912321317","main_expt","","0.4233536788","","0.2606341713","","0.1261523865","","","","","",""
"541","","bandit","175","663394","0.0-137.0-0.0","43416119","wem/bandit_single","A3GJWXA13GMS9H","pain","1","","74","J","1","","0","1","0","","0.3799029244","false","100","","0.1217067293","main_expt","","0.3799029244","","0.310387162","","0.1368684177","","","","","",""
"366","","bandit","176","665522","0.0-138.0-0.0","43416119","wem/bandit_single","A3GJWXA13GMS9H","pain","1","","74","J","1","","0","1","0","","0.3644029447","false","101","","0.08537200695","main_expt","","0.3644029447","","0.3802628165","","0.1262970555","","","","","",""
"190","","bandit","177","667474","0.0-139.0-0.0","43416119","wem/bandit_single","A3GJWXA13GMS9H","pain","1","","74","J","1","","0","1","0","","0.3414838768","false","102","","0.09606980913","main_expt","","0.3414838768","","0.4133848668","","0.1022564356","","","","","",""
"240","","bandit","178","669473","0.0-140.0-0.0","43416119","wem/bandit_single","A3GJWXA13GMS9H","pain","1","","74","J","1","","0","0","1","","0.3691073091","false","103","","0.09968925047","main_expt","","0.3691073091","","0.4352089555","","0.07046703442","","","","","",""
"114","","bandit","179","671349","0.0-141.0-0.0","43416119","wem/bandit_single","A3GJWXA13GMS9H","pain","1","","74","J","1","","0","1","0","","0.3386210986","false","104","","0.1070137741","main_expt","","0.3386210986","","0.4248252031","","0.08582175226","","","","","",""
"75","","bandit","180","673186","0.0-142.0-0.0","43416119","wem/bandit_single","A3GJWXA13GMS9H","pain","1","","74","J","1","","0","0","1","","0.3517858304","false","105","","0.1086060941","main_expt","","0.3517858304","","0.4382512542","","0.08910626196","","","","","",""
"272","","bandit","181","675220","0.0-143.0-0.0","43416119","wem/bandit_single","A3GJWXA13GMS9H","pain","1","","74","J","1","","0","0","1","","0.4016578568","false","106","","0.1006724549","main_expt","","0.4016578568","","0.4551412652","","0.09380004764","","","","","",""
"317","","bandit","182","677299","0.0-144.0-0.0","43416119","wem/bandit_single","A3GJWXA13GMS9H","pain","1","","74","J","1","","0","0","1","","0.3951748439","false","107","","0.07769839914","main_expt","","0.3951748439","","0.4481373055","","0.08916311959","","","","","",""
"94","","bandit","183","679155","0.0-145.0-0.0","43416119","wem/bandit_single","A3GJWXA13GMS9H","pain","1","","74","J","1","","0","0","1","","0.3933810371","false","108","","0.09470950607","main_expt","","0.3933810371","","0.4611843773","","0.1635033392","","","","","",""
"512","","bandit","184","681427","0.0-146.0-0.0","43416119","wem/bandit_single","A3GJWXA13GMS9H","pain","1","","72","H","0","img/none_selected.jpg","0","1","0","","0.1117426234","false","109","","0.1117426234","main_expt","","0.3961603237","","0.416280782","","0.1923408453","","","","","",""
"174","","bandit","185","683362","0.0-147.0-0.0","43416119","wem/bandit_single","A3GJWXA13GMS9H","pain","1","","72","H","0","img/none_selected.jpg","0","0","1","","0.1190643529","false","110","","0.1190643529","main_expt","","0.3933476799","","0.3959176693","","0.1668397223","","","","","",""
"271","","bandit","186","685393","0.0-148.0-0.0","43416119","wem/bandit_single","A3GJWXA13GMS9H","pain","1","","72","H","0","img/none_selected.jpg","0","1","0","","0.1605091549","false","111","","0.1605091549","main_expt","","0.3953313537","","0.3881072513","","0.1254506171","","","","","",""
"224","","bandit","187","687378","0.0-149.0-0.0","43416119","wem/bandit_single","A3GJWXA13GMS9H","pain","1","","72","H","0","img/none_selected.jpg","0","0","1","","0.1531505469","false","112","","0.1531505469","main_expt","","0.3398422341","","0.3430735849","","0.1596839241","","","","","",""
"95","","bandit","188","689233","0.0-150.0-0.0","43416119","wem/bandit_single","A3GJWXA13GMS9H","pain","1","","72","H","0","img/none_selected.jpg","0","0","1","","0.1796188848","false","113","","0.1796188848","main_expt","","0.375538402","","0.3036143476","","0.1986187203","","","","","",""
"49","","bandit","189","691041","0.0-151.0-0.0","43416119","wem/bandit_single","A3GJWXA13GMS9H","pain","1","","72","H","0","img/none_selected.jpg","0","0","1","","0.1820080726","false","114","","0.1820080726","main_expt","","0.3629483147","","0.3581708668","","0.2334514198","","","","","",""
"49","","bandit","190","692851","0.0-152.0-0.0","43416119","wem/bandit_single","A3GJWXA13GMS9H","pain","1","","72","H","0","img/none_selected.jpg","0","1","0","","0.2050936175","false","115","","0.2050936175","main_expt","","0.2969550108","","0.2948471219","","0.1892672839","","","","","",""
"140","","bandit","191","694754","0.0-153.0-0.0","43416119","wem/bandit_single","A3GJWXA13GMS9H","pain","1","","72","H","0","img/none_selected.jpg","0","0","1","","0.2071503316","false","116","","0.2071503316","main_expt","","0.260261953","","0.2711132382","","0.1507180646","","","","","",""
"63","","bandit","192","696578","0.0-154.0-0.0","43416119","wem/bandit_single","A3GJWXA13GMS9H","pain","1","","72","H","0","img/none_selected.jpg","0","0","1","","0.2359882763","false","117","","0.2359882763","main_expt","","0.2626326191","","0.3124997295","","0.1830546279","","","","","",""
"13","","bandit","193","698352","0.0-155.0-0.0","43416119","wem/bandit_single","A3GJWXA13GMS9H","pain","1","","72","H","0","img/none_selected.jpg","0","1","0","","0.2388261631","false","118","","0.2388261631","main_expt","","0.2933310536","","0.3888019654","","0.1415506149","","","","","",""
"175","","bandit","194","700292","0.0-156.0-0.0","43416119","wem/bandit_single","A3GJWXA13GMS9H","pain","1","","72","H","0","img/none_selected.jpg","0","1","0","","0.2470137322","false","119","","0.2470137322","main_expt","","0.2469992957","","0.3695751837","","0.1814909568","","","","","",""
"394","","bandit","195","702449","0.0-157.0-0.0","43416119","wem/bandit_single","A3GJWXA13GMS9H","pain","1","","72","H","0","img/none_selected.jpg","0","0","1","","0.209676098","false","120","","0.209676098","main_expt","","0.2186909282","","0.3471196364","","0.1900691043","","","","","",""
"80","","bandit","196","704291","0.0-158.0-0.0","43416119","wem/bandit_single","A3GJWXA13GMS9H","pain","1","","72","H","0","img/none_selected.jpg","0","0","1","","0.2058519679","false","121","","0.2058519679","main_expt","","0.1915374776","","0.3164400491","","0.2002257321","","","","","",""
"188","","bandit","197","706242","0.0-159.0-0.0","43416119","wem/bandit_single","A3GJWXA13GMS9H","pain","1","","72","H","0","img/none_selected.jpg","0","1","0","","0.1409467191","false","122","","0.1409467191","main_expt","","0.1666700693","","0.3565888941","","0.2000360786","","","","","",""
"429","","bandit","198","708433","0.0-160.0-0.0","43416119","wem/bandit_single","A3GJWXA13GMS9H","pain","1","","72","H","0","img/none_selected.jpg","0","0","1","","0.08785727187","false","123","","0.08785727187","main_expt","","0.1779758636","","0.3293983066","","0.1656706666","","","","","",""
"45","","bandit","199","710241","0.0-161.0-0.0","43416119","wem/bandit_single","A3GJWXA13GMS9H","pain","1","","72","H","0","img/none_selected.jpg","0","0","1","","0.1153756664","false","124","","0.1153756664","main_expt","","0.2483730269","","0.3202360925","","0.2433115295","","","","","",""
"78","","bandit","200","712081","0.0-162.0-0.0","43416119","wem/bandit_single","A3GJWXA13GMS9H","pain","1","","72","H","0","img/none_selected.jpg","0","0","1","","0.1211147435","false","125","","0.1211147435","main_expt","","0.2274485556","","0.3478690395","","0.1810024247","","","","","",""
"62","","bandit","201","713906","0.0-163.0-0.0","43416119","wem/bandit_single","A3GJWXA13GMS9H","pain","1","","72","H","0","img/none_selected.jpg","0","0","1","","0.1434737457","false","126","","0.1434737457","main_expt","","0.2506805994","","0.3312811416","","0.2138299762","","","","","",""
"80","","bandit","202","715747","0.0-164.0-0.0","43416119","wem/bandit_single","A3GJWXA13GMS9H","pain","1","","72","H","0","img/none_selected.jpg","0","0","1","","0.1970801631","false","127","","0.1970801631","main_expt","","0.2520497492","","0.2641060438","","0.1993304114","","","","","",""
"93","","bandit","203","717601","0.0-165.0-0.0","43416119","wem/bandit_single","A3GJWXA13GMS9H","pain","1","","72","H","0","img/none_selected.jpg","0","0","1","","0.2891253811","false","128","","0.2891253811","main_expt","","0.1948091286","","0.2239657692","","0.2602773644","","","","","",""
"30","","bandit","204","719392","0.0-166.0-0.0","43416119","wem/bandit_single","A3GJWXA13GMS9H","pain","1","","74","J","1","","0","1","0","","0.1749799719","false","129","","0.2389970352","main_expt","","0.1749799719","","0.2243581634","","0.2960784606","","","","","",""
"78","","bandit","205","721234","0.0-167.0-0.0","43416119","wem/bandit_single","A3GJWXA13GMS9H","pain","1","","74","J","1","","0","0","1","","0.1950546205","false","130","","0.2613596901","main_expt","","0.1950546205","","0.2215765871","","0.2720271615","","","","","",""
"45","","bandit","206","723041","0.0-168.0-0.0","43416119","wem/bandit_single","A3GJWXA13GMS9H","pain","1","","74","J","1","","0","0","1","","0.2501377387","false","131","","0.2254289723","main_expt","","0.2501377387","","0.1796651873","","0.2403459828","","","","","",""
"46","","bandit","207","724848","0.0-169.0-0.0","43416119","wem/bandit_single","A3GJWXA13GMS9H","pain","1","","74","J","1","","0","1","0","","0.2275015869","false","132","","0.2759434303","main_expt","","0.2275015869","","0.1946412172","","0.2261584059","","","","","",""
"33","","bandit","208","726644","0.0-170.0-0.0","43416119","wem/bandit_single","A3GJWXA13GMS9H","pain","1","","74","J","1","","0","0","1","","0.1961271051","false","133","","0.3153186182","main_expt","","0.1961271051","","0.2390261597","","0.225512635","","","","","",""
"43","","bandit","209","728449","0.0-171.0-0.0","43416119","wem/bandit_single","A3GJWXA13GMS9H","pain","1","","74","J","1","","0","0","1","","0.2508816485","false","134","","0.2950667763","main_expt","","0.2508816485","","0.227958871","","0.2119287539","","","","","",""
"942","","bandit","210","731153","0.0-172.0-0.0","43416119","wem/bandit_single","A3GJWXA13GMS9H","pain","1","","74","J","1","","0","1","0","","0.3394706536","false","135","","0.3307223606","main_expt","","0.3394706536","","0.2312014448","","0.1980603764","","","","","",""
"256","","bandit","211","733168","0.0-173.0-0.0","43416119","wem/bandit_single","A3GJWXA13GMS9H","pain","1","","74","J","1","","0","0","1","","0.2837829406","false","136","","0.3298223854","main_expt","","0.2837829406","","0.27599984","","0.2325476757","","","","","",""
"1","","bandit","212","734929","0.0-174.0-0.0","43416119","wem/bandit_single","A3GJWXA13GMS9H","pain","1","","74","J","1","","0","0","1","","0.3024244849","false","137","","0.3330531331","main_expt","","0.3024244849","","0.2313694212","","0.2334264213","","","","","",""
"592","","bandit","213","737283","0.0-175.0-0.0","43416119","wem/bandit_single","A3GJWXA13GMS9H","pain","1","","74","J","1","","0","1","0","","0.3473265679","false","138","","0.292929501","main_expt","","0.3473265679","","0.1816115857","","0.3107735177","","","","","",""
"29","","bandit","214","739073","0.0-176.0-0.0","43416119","wem/bandit_single","A3GJWXA13GMS9H","pain","1","","74","J","1","","0","0","1","","0.2828336224","false","139","","0.2849421758","main_expt","","0.2828336224","","0.1658496667","","0.3374098654","","","","","",""
"29","","bandit","215","740864","0.0-177.0-0.0","43416119","wem/bandit_single","A3GJWXA13GMS9H","pain","1","","74","J","1","","0","0","1","","0.3238397914","false","140","","0.3149573531","main_expt","","0.3238397914","","0.1644365985","","0.3401298673","","","","","",""
"124","","bandit","216","742751","0.0-178.0-0.0","43416119","wem/bandit_single","A3GJWXA13GMS9H","pain","1","","74","J","1","","0","0","1","","0.3490905252","false","141","","0.2937847178","main_expt","","0.3490905252","","0.16055167","","0.363539884","","","","","",""
"449","","bandit","217","744960","0.0-179.0-0.0","43416119","wem/bandit_single","A3GJWXA13GMS9H","pain","1","","74","J","1","","0","0","1","","0.337853111","false","142","","0.2695919138","main_expt","","0.337853111","","0.1426499966","","0.3207651517","","","","","",""
"352","","bandit","218","747073","0.0-180.0-0.0","43416119","wem/bandit_single","A3GJWXA13GMS9H","pain","1","","74","J","1","","0","1","0","","0.3475703167","false","143","","0.206179854","main_expt","","0.3475703167","","0.1133276474","","0.2976941359","","","","","",""
"63","","bandit","219","748898","0.0-181.0-0.0","43416119","wem/bandit_single","A3GJWXA13GMS9H","pain","1","","74","J","1","","0","0","1","","0.3809945211","false","144","","0.2123329462","main_expt","","0.3809945211","","0.1351054788","","0.2405576463","","","","","",""
"46","","bandit","220","750705","0.0-182.0-0.0","43416119","wem/bandit_single","A3GJWXA13GMS9H","pain","1","","74","J","1","","0","1","0","","0.3842622547","false","145","","0.2144195617","main_expt","","0.3842622547","","0.1703546958","","0.2513929943","","","","","",""
"141","","bandit","221","752609","0.0-183.0-0.0","43416119","wem/bandit_single","A3GJWXA13GMS9H","pain","1","","74","J","1","","0","0","1","","0.4068715463","false","146","","0.2264269311","main_expt","","0.4068715463","","0.1382352341","","0.2665850657","","","","","",""
"78","","bandit","222","754451","0.0-184.0-0.0","43416119","wem/bandit_single","A3GJWXA13GMS9H","pain","1","","74","J","1","","0","0","1","","0.3690267696","false","147","","0.2458089499","main_expt","","0.3690267696","","0.1111211324","","0.2742171136","","","","","",""
"107","","bandit","223","756320","0.0-185.0-0.0","43416119","wem/bandit_single","A3GJWXA13GMS9H","pain","1","","74","J","1","","0","1","0","","0.3999465919","false","148","","0.2581131455","main_expt","","0.3999465919","","0.1046256567","","0.2504516377","","","","","",""
"175","","bandit","224","758256","0.0-186.0-0.0","43416119","wem/bandit_single","A3GJWXA13GMS9H","pain","1","","74","J","1","","0","0","1","","0.3823047489","false","149","","0.2055420423","main_expt","","0.3823047489","","0.09450025474","","0.2749888299","","","","","",""
"192","","bandit","225","760210","0.0-187.0-0.0","43416119","wem/bandit_single","A3GJWXA13GMS9H","pain","1","","74","J","1","","0","1","0","","0.3970301866","false","150","","0.2196547661","main_expt","","0.3970301866","","0.08682851814","","0.2199302859","","","","","",""
"93","","bandit","226","762065","0.0-188.0-0.0","43416119","wem/bandit_single","A3GJWXA13GMS9H","pain","1","","74","J","1","","0","0","1","","0.4141828336","false","151","","0.2311854424","main_expt","","0.4141828336","","0.0775356828","","0.228921305","","","","","",""
"93","","bandit","227","763921","0.0-189.0-0.0","43416119","wem/bandit_single","A3GJWXA13GMS9H","pain","1","","74","J","1","","0","0","1","","0.4233092002","false","152","","0.2692750042","main_expt","","0.4233092002","","0.08719832593","","0.1858313389","","","","","",""
"14","","bandit","228","765695","0.0-190.0-0.0","43416119","wem/bandit_single","A3GJWXA13GMS9H","pain","1","","74","J","1","","0","0","1","","0.3961827626","false","153","","0.3209664266","main_expt","","0.3961827626","","0.06950392785","","0.2253380596","","","","","",""
"78","","bandit","229","767535","0.0-191.0-0.0","43416119","wem/bandit_single","A3GJWXA13GMS9H","pain","1","","74","J","1","","0","1","0","","0.4023640633","false","154","","0.2633096479","main_expt","","0.4023640633","","0.09734883616","","0.1787374968","","","","","",""
"94","","bandit","230","769393","0.0-192.0-0.0","43416119","wem/bandit_single","A3GJWXA13GMS9H","pain","1","","74","J","1","","0","1","0","","0.3927422998","false","155","","0.2611493198","main_expt","","0.3927422998","","0.1078867986","","0.1026625787","","","","","",""
"30","","bandit","231","771187","0.0-193.0-0.0","43416119","wem/bandit_single","A3GJWXA13GMS9H","pain","1","","74","J","1","","0","0","1","","0.3696188161","false","156","","0.2556392324","main_expt","","0.3696188161","","0.09294383108","","0.1201393653","","","","","",""
"203","","bandit","232","773153","0.0-194.0-0.0","43416119","wem/bandit_single","A3GJWXA13GMS9H","pain","1","","74","J","1","","0","0","1","","0.3562863837","false","157","","0.2237912435","main_expt","","0.3562863837","","0.1344904143","","0.1601810659","","","","","",""
"606","","bandit","233","775520","0.0-195.0-0.0","43416119","wem/bandit_single","A3GJWXA13GMS9H","pain","1","","74","J","1","","0","0","1","","0.3891013447","false","158","","0.2269937079","main_expt","","0.3891013447","","0.1682501471","","0.2178666355","","","","","",""
"142","","bandit","234","777423","0.0-196.0-0.0","43416119","wem/bandit_single","A3GJWXA13GMS9H","pain","1","","74","J","1","","0","0","1","","0.3771509201","false","159","","0.2244600926","main_expt","","0.3771509201","","0.1859978291","","0.2088119712","","","","","",""
"64","","bandit","235","779248","0.0-197.0-0.0","43416119","wem/bandit_single","A3GJWXA13GMS9H","pain","1","","75","K","2","","0","0","1","","0.1169857497","false","160","","0.231654425","main_expt","","0.3677966378","","0.1169857497","","0.2853399033","","","","","",""
"13","","bandit","236","781023","0.0-198.0-0.0","43416119","wem/bandit_single","A3GJWXA13GMS9H","pain","1","","75","K","2","","0","0","1","","0.1131976547","false","161","","0.2415747561","main_expt","","0.3691576932","","0.1131976547","","0.2755093387","","","","","",""
"31","","bandit","237","782816","0.0-199.0-0.0","43416119","wem/bandit_single","A3GJWXA13GMS9H","pain","1","","75","K","2","","0","0","1","","0.1560378341","false","162","","0.1807921844","main_expt","","0.3102253273","","0.1560378341","","0.2706635439","","","","","",""
"94","","bandit","238","784671","0.0-200.0-0.0","43416119","wem/bandit_single","A3GJWXA13GMS9H","pain","1","","76","L","3","","0","0","1","","0.2856851073","false","163","","0.1986212186","main_expt","","0.3361037566","","0.1200759877","","0.2856851073","","","","","",""
"382","","bandit","239","786816","0.0-201.0-0.0","43416119","wem/bandit_single","A3GJWXA13GMS9H","pain","1","","76","L","3","","0","0","1","","0.3188827228","false","164","","0.1799022971","main_expt","","0.3097300036","","0.1198838954","","0.3188827228","","","","","",""
"174","","bandit","240","788752","0.0-202.0-0.0","43416119","wem/bandit_single","A3GJWXA13GMS9H","pain","1","","76","L","3","","0","0","1","","0.3258940933","false","165","","0.2610149466","main_expt","","0.3234169084","","0.1397308529","","0.3258940933","","","","","",""
"268","","bandit","241","790782","0.0-203.0-0.0","43416119","wem/bandit_single","A3GJWXA13GMS9H","pain","1","","72","H","0","img/none_selected.jpg","0","0","1","","0.2673729835","false","166","","0.2673729835","main_expt","","0.3201458278","","0.1506282743","","0.3525092479","","","","","",""
"79","","bandit","242","792624","0.0-204.0-0.0","43416119","wem/bandit_single","A3GJWXA13GMS9H","pain","1","","72","H","0","img/none_selected.jpg","0","0","1","","0.169486101","false","167","","0.169486101","main_expt","","0.366643239","","0.1407574557","","0.3919017073","","","","","",""
"365","","bandit","243","794751","0.0-205.0-0.0","43416119","wem/bandit_single","A3GJWXA13GMS9H","pain","1","","74","J","1","","0","1","0","","0.3877512758","false","168","","0.1997030364","main_expt","","0.3877512758","","0.1217255528","","0.3855955566","","","","","",""
"222","","bandit","244","796736","0.0-206.0-0.0","43416119","wem/bandit_single","A3GJWXA13GMS9H","pain","1","","74","J","1","","0","1","0","","0.3733196812","false","169","","0.2391799942","main_expt","","0.3733196812","","0.118108524","","0.3882436634","","","","","",""
"78","","bandit","245","798576","0.0-207.0-0.0","43416119","wem/bandit_single","A3GJWXA13GMS9H","pain","1","","74","J","1","","0","0","1","","0.3616719183","false","170","","0.2239577552","main_expt","","0.3616719183","","0.0750780909","","0.4096789578","","","","","",""
"749","","bandit","246","801087","0.0-208.0-0.0","43416119","wem/bandit_single","A3GJWXA13GMS9H","pain","1","","74","J","1","","0","0","1","","0.3222484871","false","171","","0.2175962327","main_expt","","0.3222484871","","0.07048665386","","0.4326257363","","","","","",""
"141","","bandit","247","802990","0.0-209.0-0.0","43416119","wem/bandit_single","A3GJWXA13GMS9H","pain","1","","74","J","1","","0","0","1","","0.2849842628","false","172","","0.2061205584","main_expt","","0.2849842628","","0.09439478605","","0.4381189537","","","","","",""
"112","","bandit","248","804865","0.0-210.0-0.0","43416119","wem/bandit_single","A3GJWXA13GMS9H","pain","1","","74","J","1","","0","0","1","","0.2896949147","false","173","","0.1787022686","main_expt","","0.2896949147","","0.05932603211","","0.3823577146","","","","","",""
"315","","bandit","249","806942","0.0-211.0-0.0","43416119","wem/bandit_single","A3GJWXA13GMS9H","pain","1","","74","J","1","","0","0","1","","0.260829927","false","174","","0.1782801474","main_expt","","0.260829927","","0.1019229976","","0.4155511425","","","","","",""
"95","","bandit","250","808799","0.0-212.0-0.0","43416119","wem/bandit_single","A3GJWXA13GMS9H","pain","1","","74","J","1","","0","0","1","","0.1608433896","false","175","","0.1723114597","main_expt","","0.1608433896","","0.1270031357","","0.4391025654","","","","","",""
"13","","bandit","251","810575","0.0-213.0-0.0","43416119","wem/bandit_single","A3GJWXA13GMS9H","pain","1","","72","H","0","img/none_selected.jpg","0","0","1","","0.1714247165","false","176","","0.1714247165","main_expt","","0.1924323662","","0.1519507126","","0.4654332747","","","","","",""
"46","","bandit","252","812383","0.0-214.0-0.0","43416119","wem/bandit_single","A3GJWXA13GMS9H","pain","1","","72","H","0","img/none_selected.jpg","0","0","1","","0.2003569552","false","177","","0.2003569552","main_expt","","0.1942299772","","0.2645819263","","0.4862166952","","","","","",""
"397","","bandit","253","814543","0.0-215.0-0.0","43416119","wem/bandit_single","A3GJWXA13GMS9H","pain","1","","75","K","2","","0","0","1","","0.2497033982","false","178","","0.1848954505","main_expt","","0.2266891382","","0.2497033982","","0.4878504479","","","","","",""
"269","","bandit","254","816575","0.0-216.0-0.0","43416119","wem/bandit_single","A3GJWXA13GMS9H","pain","1","","75","K","2","","0","1","0","","0.2464833147","false","179","","0.120488448","main_expt","","0.193755509","","0.2464833147","","0.4925433574","","","","","",""
"206","","bandit","255","818542","0.0-217.0-0.0","43416119","wem/bandit_single","A3GJWXA13GMS9H","pain","1","","75","K","2","","0","0","1","","0.191435525","false","180","","0.09518531587","main_expt","","0.2143300014","","0.191435525","","0.4863546804","","","","","",""
"111","","bandit","256","820414","0.0-218.0-0.0","43416119","wem/bandit_single","A3GJWXA13GMS9H","pain","1","","75","K","2","","0","0","1","","0.2095150634","false","181","","0.1110105533","main_expt","","0.1996101457","","0.2095150634","","0.4898831258","","","","","",""
"45","","bandit","257","822222","0.0-219.0-0.0","43416119","wem/bandit_single","A3GJWXA13GMS9H","pain","1","","75","K","2","","0","0","1","","0.2238619417","false","182","","0.1321710188","main_expt","","0.220362663","","0.2238619417","","0.4702328405","","","","","",""
"255","","bandit","258","824239","0.0-220.0-0.0","43416119","wem/bandit_single","A3GJWXA13GMS9H","pain","1","","75","K","2","","0","0","1","","0.172430875","false","183","","0.07205074818","main_expt","","0.2087999581","","0.172430875","","0.4443650637","","","","","",""
"27","","bandit","259","826031","0.0-221.0-0.0","43416119","wem/bandit_single","A3GJWXA13GMS9H","pain","1","","75","K","2","","0","0","1","","0.1537152065","false","184","","0.08140980564","main_expt","","0.2693368533","","0.1537152065","","0.4395551327","","","","","",""
"430","","bandit","260","828223","0.0-222.0-0.0","43416119","wem/bandit_single","A3GJWXA13GMS9H","pain","1","","76","L","3","","0","1","0","","0.427498872","false","185","","0.07005875891","main_expt","","0.3177788722","","0.1089078126","","0.427498872","","","","","",""
"93","","bandit","261","830079","0.0-223.0-0.0","43416119","wem/bandit_single","A3GJWXA13GMS9H","pain","1","","76","L","3","","0","1","0","","0.4126395781","false","186","","0.04712836877","main_expt","","0.3093747324","","0.1150542287","","0.4126395781","","","","","",""
"44","","bandit","262","831884","0.0-224.0-0.0","43416119","wem/bandit_single","A3GJWXA13GMS9H","pain","1","","76","L","3","","0","0","1","","0.4059631444","false","187","","0.07097221374","main_expt","","0.3361469263","","0.07877539194","","0.4059631444","","","","","",""
"207","","bandit","263","833854","0.0-225.0-0.0","43416119","wem/bandit_single","A3GJWXA13GMS9H","pain","1","","76","L","3","","0","1","0","","0.4007853126","false","188","","0.04255461481","main_expt","","0.3096611705","","0.06234325246","","0.4007853126","","","","","",""
"109","","bandit","264","835728","0.0-226.0-0.0","43416119","wem/bandit_single","A3GJWXA13GMS9H","pain","1","","76","L","3","","0","0","1","","0.4208201059","false","189","","0.03834091028","main_expt","","0.298651231","","0.07748383332","","0.4208201059","","","","","",""
"43","","bandit","265","837535","0.0-227.0-0.0","43416119","wem/bandit_single","A3GJWXA13GMS9H","pain","1","","76","L","3","","0","1","0","","0.4249824956","false","190","","0.03101500858","main_expt","","0.3361123746","","0.08864116925","","0.4249824956","","","","","",""
"47","","bandit","266","839344","0.0-228.0-0.0","43416119","wem/bandit_single","A3GJWXA13GMS9H","pain","1","","76","L","3","","0","0","1","","0.4519194686","false","191","","0.05137759752","main_expt","","0.3529126189","","0.1114019665","","0.4519194686","","","","","",""
"459","","bandit","267","841566","0.0-229.0-0.0","43416119","wem/bandit_single","A3GJWXA13GMS9H","pain","1","","76","L","3","","0","0","1","","0.449072141","false","192","","0.05101019331","main_expt","","0.3806900048","","0.0944181321","","0.449072141","","","","","",""
"143","","bandit","268","843470","0.0-230.0-0.0","43416119","wem/bandit_single","A3GJWXA13GMS9H","pain","1","","76","L","3","","0","0","1","","0.4069092802","false","193","","0.0408087357","main_expt","","0.3191299148","","0.09015445577","","0.4069092802","","","","","",""
"62","","bandit","269","845294","0.0-231.0-0.0","43416119","wem/bandit_single","A3GJWXA13GMS9H","pain","1","","76","L","3","","0","1","0","","0.399300076","false","194","","0.04787233925","main_expt","","0.3350705725","","0.09569888082","","0.399300076","","","","","",""
"47","","bandit","270","847103","0.0-232.0-0.0","43416119","wem/bandit_single","A3GJWXA13GMS9H","pain","1","","76","L","3","","0","0","1","","0.4028519225","false","195","","0.07297342555","main_expt","","0.3579412151","","0.1521563302","","0.4028519225","","","","","",""
"29","","bandit","271","848895","0.0-233.0-0.0","43416119","wem/bandit_single","A3GJWXA13GMS9H","pain","1","","76","L","3","","0","1","0","","0.3708283831","false","196","","0.1090796252","main_expt","","0.4135102269","","0.1612876033","","0.3708283831","","","","","",""
"286","","bandit","272","850944","0.0-234.0-0.0","43416119","wem/bandit_single","A3GJWXA13GMS9H","pain","1","","76","L","3","","0","1","0","","0.3992028251","false","197","","0.1141593934","main_expt","","0.4368922102","","0.1818980103","","0.3992028251","","","","","",""
"59","","bandit","273","852767","0.0-235.0-0.0","43416119","wem/bandit_single","A3GJWXA13GMS9H","pain","1","","76","L","3","","0","0","1","","0.3662313723","false","198","","0.1247063377","main_expt","","0.4329908538","","0.1426991491","","0.3662313723","","","","","",""
"123","","bandit","274","854655","0.0-236.0-0.0","43416119","wem/bandit_single","A3GJWXA13GMS9H","pain","1","","76","L","3","","0","0","1","","0.3667285709","false","199","","0.1324590526","main_expt","","0.4458308372","","0.1339470975","","0.3667285709","","","","","",""
"13","","bandit","275","856430","0.0-237.0-0.0","43416119","wem/bandit_single","A3GJWXA13GMS9H","pain","1","","76","L","3","","0","1","0","","0.365396467","false","200","","0.1062358191","main_expt","","0.4535445428","","0.1615481579","","0.365396467","","","","","",""
"396","","bandit","276","858589","0.0-238.0-0.0","43416119","wem/bandit_single","A3GJWXA13GMS9H","pain","1","","76","L","3","","0","0","1","","0.3413602931","false","201","","0.1027729413","main_expt","","0.4258040833","","0.1889616495","","0.3413602931","","","","","",""
"126","","bandit","277","860479","0.0-239.0-0.0","43416119","wem/bandit_single","A3GJWXA13GMS9H","pain","1","","76","L","3","","0","1","0","","0.3655369163","false","202","","0.09207086273","main_expt","","0.413157784","","0.2043886565","","0.3655369163","","","","","",""
"396","","bandit","278","862638","0.0-240.0-0.0","43416119","wem/bandit_single","A3GJWXA13GMS9H","pain","1","","76","L","3","","0","0","1","","0.3301706169","false","203","","0.1409949376","main_expt","","0.358983575","","0.2274570119","","0.3301706169","","","","","",""
"61","","bandit","279","864462","0.0-241.0-0.0","43416119","wem/bandit_single","A3GJWXA13GMS9H","pain","1","","76","L","3","","0","1","0","","0.3305557625","false","204","","0.2067441942","main_expt","","0.3354839288","","0.1795680912","","0.3305557625","","","","","",""
"271","","bandit","280","866494","0.0-242.0-0.0","43416119","wem/bandit_single","A3GJWXA13GMS9H","pain","1","","76","L","3","","0","0","1","","0.3332543728","false","205","","0.2171549514","main_expt","","0.3814446138","","0.1823506393","","0.3332543728","","","","","",""
"413","","bandit","281","868670","0.0-243.0-0.0","43416119","wem/bandit_single","A3GJWXA13GMS9H","pain","1","","76","L","3","","0","0","1","","0.270761893","false","206","","0.1399251859","main_expt","","0.4069937863","","0.1401809595","","0.270761893","","","","","",""
"205","","bandit","282","870638","0.0-244.0-0.0","43416119","wem/bandit_single","A3GJWXA13GMS9H","pain","1","","76","L","3","","0","0","1","","0.2595670132","false","207","","0.1700254018","main_expt","","0.4261201247","","0.1651993972","","0.2595670132","","","","","",""
"1","","bandit","283","872402","0.0-245.0-0.0","43416119","wem/bandit_single","A3GJWXA13GMS9H","pain","1","","76","L","3","","0","1","0","","0.2772442529","false","208","","0.1831619311","main_expt","","0.4105702951","","0.1803987852","","0.2772442529","","","","","",""
"73","","bandit","284","874237","0.0-246.0-0.0","43416119","wem/bandit_single","A3GJWXA13GMS9H","pain","1","","76","L","3","","0","0","1","","0.2654441326","false","209","","0.151215806","main_expt","","0.402481318","","0.1470434113","","0.2654441326","","","","","",""
"205","","bandit","285","876206","0.0-247.0-0.0","43416119","wem/bandit_single","A3GJWXA13GMS9H","pain","1","","76","L","3","","0","0","1","","0.2475709295","false","210","","0.1841878728","main_expt","","0.4378094136","","0.1375860563","","0.2475709295","","","","","",""
"1","","bandit","286","877968","0.0-248.0-0.0","43416119","wem/bandit_single","A3GJWXA13GMS9H","pain","1","","76","L","3","","0","0","1","","0.1836637302","false","211","","0.190591144","main_expt","","0.4174257438","","0.1181257803","","0.1836637302","","","","","",""
"428","","bandit","287","880158","0.0-249.0-0.0","43416119","wem/bandit_single","A3GJWXA13GMS9H","pain","1","","76","L","3","","0","0","1","","0.2018671691","false","212","","0.2024219406","main_expt","","0.4235695044","","0.1284194295","","0.2018671691","","","","","",""
"1248","","bandit","288","883168","0.0-250.0-0.0","43416119","wem/bandit_single","A3GJWXA13GMS9H","pain","1","","76","L","3","","0","1","0","","0.1807811906","false","213","","0.1985525674","main_expt","","0.4112054282","","0.1088774305","","0.1807811906","","","","","",""
"139","","bandit","289","885070","0.0-251.0-0.0","43416119","wem/bandit_single","A3GJWXA13GMS9H","pain","1","","76","L","3","","0","0","1","","0.2432807767","false","214","","0.1940352924","main_expt","","0.3986702209","","0.07230623063","","0.2432807767","","","","","",""
"123","","bandit","290","886957","0.0-252.0-0.0","43416119","wem/bandit_single","A3GJWXA13GMS9H","pain","1","","76","L","3","","0","0","1","","0.2167976264","false","215","","0.1155678072","main_expt","","0.4379561577","","0.07963887701","","0.2167976264","","","","","",""
"414","","bandit","291","889134","0.0-253.0-0.0","43416119","wem/bandit_single","A3GJWXA13GMS9H","pain","1","","76","L","3","","0","0","1","","0.2963745884","false","216","","0.08288275022","main_expt","","0.425003275","","0.0792987172","","0.2963745884","","","","","",""
"237","","bandit","292","891133","0.0-254.0-0.0","43416119","wem/bandit_single","A3GJWXA13GMS9H","pain","1","","76","L","3","","0","0","1","","0.2704200786","false","217","","0.1108164962","main_expt","","0.4398514333","","0.07576557353","","0.2704200786","","","","","",""
"109","","bandit","293","893006","0.0-255.0-0.0","43416119","wem/bandit_single","A3GJWXA13GMS9H","pain","1","","76","L","3","","0","0","1","","0.2057322541","false","218","","0.1166222362","main_expt","","0.4307107256","","0.05946619603","","0.2057322541","","","","","",""
"62","","bandit","294","894830","0.0-256.0-0.0","43416119","wem/bandit_single","A3GJWXA13GMS9H","pain","1","","76","L","3","","0","0","1","","0.2143414454","false","219","","0.1441412427","main_expt","","0.4236121262","","0.07419684477","","0.2143414454","","","","","",""
"92","","bandit","295","896686","0.0-257.0-0.0","43416119","wem/bandit_single","A3GJWXA13GMS9H","pain","1","","76","L","3","","0","1","0","","0.1630835619","false","220","","0.1460318591","main_expt","","0.4020148519","","0.09297922461","","0.1630835619","","","","","",""
"76","","bandit","296","898525","0.0-258.0-0.0","43416119","wem/bandit_single","A3GJWXA13GMS9H","pain","1","","76","L","3","","0","0","1","","0.1536312793","false","221","","0.1068666799","main_expt","","0.4073181559","","0.1429286242","","0.1536312793","","","","","",""
"60","","bandit","297","900350","0.0-259.0-0.0","43416119","wem/bandit_single","A3GJWXA13GMS9H","pain","1","","76","L","3","","0","1","0","","0.2214617817","false","222","","0.1101844092","main_expt","","0.3651123295","","0.1708286753","","0.2214617817","","","","","",""
"43","","bandit","298","902158","0.0-260.0-0.0","43416119","wem/bandit_single","A3GJWXA13GMS9H","pain","1","","76","L","3","","0","1","0","","0.2273662723","false","223","","0.0707480467","main_expt","","0.3836441325","","0.1461267001","","0.2273662723","","","","","",""
"28","","bandit","299","903949","0.0-261.0-0.0","43416119","wem/bandit_single","A3GJWXA13GMS9H","pain","1","","76","L","3","","0","0","1","","0.1894352557","false","224","","0.06117493494","main_expt","","0.3982756155","","0.144808321","","0.1894352557","","","","","",""
"270","","bandit","300","905981","0.0-262.0-0.0","43416119","wem/bandit_single","A3GJWXA13GMS9H","pain","1","","76","L","3","","0","0","1","","0.1292085382","false","225","","0.0615688762","main_expt","","0.3942448394","","0.1890777341","","0.1292085382","","","","","",""
"154","","bandit","301","907902","0.0-263.0-0.0","43416119","wem/bandit_single","A3GJWXA13GMS9H","pain","1","","76","L","3","","0","1","0","","0.1530858041","false","226","","0.05052633559","main_expt","","0.4169515918","","0.1442837472","","0.1530858041","","","","","",""
"28","","bandit","302","909693","0.0-264.0-0.0","43416119","wem/bandit_single","A3GJWXA13GMS9H","pain","1","","76","L","3","","0","0","1","","0.1593334253","false","227","","0.05726050712","main_expt","","0.4204191544","","0.1425852804","","0.1593334253","","","","","",""
"14","","bandit","303","911471","0.0-265.0-0.0","43416119","wem/bandit_single","A3GJWXA13GMS9H","pain","1","","76","L","3","","0","0","1","","0.1247523642","false","228","","0.0758768547","main_expt","","0.4091886","","0.1116716659","","0.1247523642","","","","","",""
"43","","bandit","304","913276","0.0-266.0-0.0","43416119","wem/bandit_single","A3GJWXA13GMS9H","pain","1","","76","L","3","","0","0","1","","0.1463700977","false","229","","0.07022353505","main_expt","","0.407276644","","0.1206121499","","0.1463700977","","","","","",""
"300","","bandit","305","915341","0.0-267.0-0.0","43416119","wem/bandit_single","A3GJWXA13GMS9H","pain","1","","76","L","3","","0","0","1","","0.1402324221","false","230","","0.06577032649","main_expt","","0.4254558538","","0.1168532629","","0.1402324221","","","","","",""
"126","","bandit","306","917231","0.0-268.0-0.0","43416119","wem/bandit_single","A3GJWXA13GMS9H","pain","1","","76","L","3","","0","0","1","","0.1914784592","false","231","","0.06313303242","main_expt","","0.4259586803","","0.0916199044","","0.1914784592","","","","","",""
"395","","bandit","307","919388","0.0-269.0-0.0","43416119","wem/bandit_single","A3GJWXA13GMS9H","pain","1","","76","L","3","","0","1","0","","0.1507361932","false","232","","0.05490827263","main_expt","","0.4429649496","","0.09573807812","","0.1507361932","","","","","",""
"364","","bandit","308","921516","0.0-270.0-0.0","43416119","wem/bandit_single","A3GJWXA13GMS9H","pain","1","","76","L","3","","0","0","1","","0.1902650793","false","233","","0.04200611561","main_expt","","0.4456598826","","0.1246926578","","0.1902650793","","","","","",""
"89","","bandit","309","923372","0.0-271.0-0.0","43416119","wem/bandit_single","A3GJWXA13GMS9H","pain","1","","76","L","3","","0","0","1","","0.2663902881","false","234","","0.0550058871","main_expt","","0.4504169918","","0.122457211","","0.2663902881","","","","","",""
"365","","bandit","310","925500","0.0-272.0-0.0","43416119","wem/bandit_single","A3GJWXA13GMS9H","pain","1","","76","L","3","","0","1","0","","0.257874652","false","235","","0.06273227262","main_expt","","0.4255816076","","0.1561374187","","0.257874652","","","","","",""
"350","","bandit","311","927614","0.0-273.0-0.0","43416119","wem/bandit_single","A3GJWXA13GMS9H","pain","1","","76","L","3","","0","0","1","","0.2134416149","false","236","","0.09869136657","main_expt","","0.4262424011","","0.1726763947","","0.2134416149","","","","","",""
"74","","bandit","312","929453","0.0-274.0-0.0","43416119","wem/bandit_single","A3GJWXA13GMS9H","pain","1","","76","L","3","","0","0","1","","0.1655180868","false","237","","0.06464195797","main_expt","","0.4314914545","","0.163453789","","0.1655180868","","","","","",""
"331","","bandit","313","931549","0.0-275.0-0.0","43416119","wem/bandit_single","A3GJWXA13GMS9H","pain","1","","76","L","3","","0","1","0","","0.1528926348","false","238","","0.1092425733","main_expt","","0.4580147213","","0.1511244057","","0.1528926348","","","","","",""
"187","","bandit","314","933500","0.0-276.0-0.0","43416119","wem/bandit_single","A3GJWXA13GMS9H","pain","1","","76","L","3","","0","0","1","","0.1594670864","false","239","","0.08920017271","main_expt","","0.4437162142","","0.1170855371","","0.1594670864","","","","","",""
"317","","bandit","315","935580","0.0-277.0-0.0","43416119","wem/bandit_single","A3GJWXA13GMS9H","pain","1","","76","L","3","","0","0","1","","0.104293197","false","240","","0.138477068","main_expt","","0.4423909474","","0.1281478965","","0.104293197","","","","","",""
"301","","bandit","316","937647","0.0-278.0-0.0","43416119","wem/bandit_single","A3GJWXA13GMS9H","pain","1","","76","L","3","","0","0","1","","0.07968297136","false","241","","0.1249513709","main_expt","","0.4542424264","","0.1579661802","","0.07968297136","","","","","",""
"312","","bandit","317","939725","0.0-279.0-0.0","43416119","wem/bandit_single","A3GJWXA13GMS9H","pain","1","","76","L","3","","0","0","1","","0.07079416442","false","242","","0.09754639251","main_expt","","0.4659063812","","0.1345462726","","0.07079416442","","","","","",""
"329","","bandit","318","941821","0.0-280.0-0.0","43416119","wem/bandit_single","A3GJWXA13GMS9H","pain","1","","76","L","3","","0","0","1","","0.08709770617","false","243","","0.1223474156","main_expt","","0.4702771719","","0.1793426478","","0.08709770617","","","","","",""
"331","","bandit","319","943915","0.0-281.0-0.0","43416119","wem/bandit_single","A3GJWXA13GMS9H","pain","1","","76","L","3","","0","0","1","","0.08252109256","false","244","","0.1004902073","main_expt","","0.4678480784","","0.1623289848","","0.08252109256","","","","","",""
"75","","bandit","320","945755","0.0-282.0-0.0","43416119","wem/bandit_single","A3GJWXA13GMS9H","pain","1","","76","L","3","","0","0","1","","0.07130924754","false","245","","0.09372717231","main_expt","","0.4608336118","","0.1638267454","","0.07130924754","","","","","",""
"415","","bandit","321","947935","0.0-283.0-0.0","43416119","wem/bandit_single","A3GJWXA13GMS9H","pain","1","","76","L","3","","0","0","1","","0.06886742221","false","246","","0.1004977064","main_expt","","0.4455928316","","0.1794660524","","0.06886742221","","","","","",""
"88","","bandit","322","949789","0.0-284.0-0.0","43416119","wem/bandit_single","A3GJWXA13GMS9H","pain","1","","76","L","3","","0","0","1","","0.064138504","false","247","","0.09336015453","main_expt","","0.4322927154","","0.1751092572","","0.064138504","","","","","",""
"90","","bandit","323","951644","0.0-285.0-0.0","43416119","wem/bandit_single","A3GJWXA13GMS9H","pain","1","","72","H","0","img/none_selected.jpg","0","0","1","","0.09552903486","false","248","","0.09552903486","main_expt","","0.4293825987","","0.188480637","","0.05051083443","","","","","",""
"27","","bandit","324","953435","0.0-286.0-0.0","43416119","wem/bandit_single","A3GJWXA13GMS9H","pain","1","","74","J","1","","0","1","0","","0.4338924945","false","249","","0.1087111068","main_expt","","0.4338924945","","0.1718025207","","0.05514480776","","","","","",""
"125","","bandit","325","955325","0.0-287.0-0.0","43416119","wem/bandit_single","A3GJWXA13GMS9H","pain","1","","74","J","1","","0","1","0","","0.4356531551","false","250","","0.08296073337","main_expt","","0.4356531551","","0.1377417152","","0.02780796002","","","","","",""
"154","","bandit","326","957243","0.0-288.0-0.0","43416119","wem/bandit_single","A3GJWXA13GMS9H","pain","1","","74","J","1","","0","0","1","","0.4561881598","false","251","","0.08988728922","main_expt","","0.4561881598","","0.1623098307","","0.02786711831","","","","","",""
"76","","bandit","327","959086","0.0-289.0-0.0","43416119","wem/bandit_single","A3GJWXA13GMS9H","pain","1","","74","J","1","","0","1","0","","0.4517263236","false","252","","0.07043490844","main_expt","","0.4517263236","","0.1702242208","","0.03881205422","","","","","",""
"250","","bandit","328","961100","0.0-290.0-0.0","43416119","wem/bandit_single","A3GJWXA13GMS9H","pain","1","","74","J","1","","0","1","0","","0.4280730872","false","253","","0.06648959932","main_expt","","0.4280730872","","0.1571297736","","0.03211176865","","","","","",""
"91","","bandit","329","962956","0.0-291.0-0.0","43416119","wem/bandit_single","A3GJWXA13GMS9H","pain","1","","74","J","1","","0","0","1","","0.3976691957","false","254","","0.04750248463","main_expt","","0.3976691957","","0.1311762281","","0.02501863174","","","","","",""
"186","","bandit","330","964909","0.0-292.0-0.0","43416119","wem/bandit_single","A3GJWXA13GMS9H","pain","1","","74","J","1","","0","0","1","","0.3920211634","false","255","","0.0685067328","main_expt","","0.3920211634","","0.1262313745","","0.03845468041","","","","","",""
"444","","bandit","331","967117","0.0-293.0-0.0","43416119","wem/bandit_single","A3GJWXA13GMS9H","pain","1","","74","J","1","","0","0","1","","0.3802568344","false","256","","0.06106940649","main_expt","","0.3802568344","","0.08888936201","","0.03093107714","","","","","",""
"285","","bandit","332","969167","0.0-294.0-0.0","43416119","wem/bandit_single","A3GJWXA13GMS9H","pain","1","","74","J","1","","0","0","1","","0.4153547565","false","257","","0.03925251802","main_expt","","0.4153547565","","0.1016624202","","0.02284381284","","","","","",""
"103","","bandit","333","971036","0.0-295.0-0.0","43416119","wem/bandit_single","A3GJWXA13GMS9H","pain","1","","74","J","1","","0","0","1","","0.412770775","false","258","","0.07528758783","main_expt","","0.412770775","","0.1201960749","","0.01195927332","","","","","",""
"107","","bandit","334","972908","0.0-296.0-0.0","43416119","wem/bandit_single","A3GJWXA13GMS9H","pain","1","","74","J","1","","0","0","1","","0.4364469878","false","259","","0.06168900656","main_expt","","0.4364469878","","0.09869940493","","0.009837890866","","","","","",""
"426","","bandit","335","975100","0.0-297.0-0.0","43416119","wem/bandit_single","A3GJWXA13GMS9H","pain","1","","74","J","1","","0","0","1","","0.4143686848","false","260","","0.05358732337","main_expt","","0.4143686848","","0.140367269","","0.01652501309","","","","","",""
"43","","bandit","336","976908","0.0-298.0-0.0","43416119","wem/bandit_single","A3GJWXA13GMS9H","pain","1","","75","K","2","","0","1","0","","0.107121031","false","261","","0.05974294151","main_expt","","0.3932103286","","0.107121031","","0.0246934762","","","","","",""
"42","","bandit","337","978716","0.0-299.0-0.0","43416119","wem/bandit_single","A3GJWXA13GMS9H","pain","1","","75","K","2","","0","0","1","","0.142880744","false","262","","0.0656558392","main_expt","","0.4299042069","","0.142880744","","0.02217338967","","","","","",""
"13","","bandit","338","980494","0.0-300.0-0.0","43416119","wem/bandit_single","A3GJWXA13GMS9H","pain","1","","75","K","2","","0","1","0","","0.1398656543","false","263","","0.08006927963","main_expt","","0.3864913748","","0.1398656543","","0.02538488248","","","","","",""
"56","","bandit","339","982315","0.0-301.0-0.0","43416119","wem/bandit_single","A3GJWXA13GMS9H","pain","1","","75","K","2","","0","0","1","","0.185630342","false","264","","0.07803510261","main_expt","","0.3721946297","","0.185630342","","0.03542132602","","","","","",""
"27","","bandit","340","984106","0.0-302.0-0.0","43416119","wem/bandit_single","A3GJWXA13GMS9H","pain","1","","75","K","2","","0","0","1","","0.1483619715","false","265","","0.08917846028","main_expt","","0.3326379545","","0.1483619715","","0.03052618628","","","","","",""
"365","","bandit","341","986236","0.0-303.0-0.0","43416119","wem/bandit_single","A3GJWXA13GMS9H","pain","1","","75","K","2","","0","0","1","","0.1677753502","false","266","","0.1562168236","main_expt","","0.3337002386","","0.1677753502","","0.02388326919","","","","","",""
"252","","bandit","342","988252","0.0-304.0-0.0","43416119","wem/bandit_single","A3GJWXA13GMS9H","pain","1","","75","K","2","","0","0","1","","0.1748953786","false","267","","0.1873085091","main_expt","","0.3044940876","","0.1748953786","","0.01496915784","","","","","",""
"429","","bandit","343","990444","0.0-305.0-0.0","43416119","wem/bandit_single","A3GJWXA13GMS9H","pain","1","","75","K","2","","0","1","0","","0.152215306","false","268","","0.1850807086","main_expt","","0.2966269971","","0.152215306","","0.01735494223","","","","","",""
"268","","bandit","344","992478","0.0-306.0-0.0","43416119","wem/bandit_single","A3GJWXA13GMS9H","pain","1","","75","K","2","","0","0","1","","0.1420691147","false","269","","0.1461958128","main_expt","","0.2617435325","","0.1420691147","","0.01365938384","","","","","",""
"9","","bandit","345","994253","0.0-307.0-0.0","43416119","wem/bandit_single","A3GJWXA13GMS9H","pain","1","","75","K","2","","0","0","1","","0.1338049101","false","270","","0.1348565207","main_expt","","0.2599280147","","0.1338049101","","0.01871615964","","","","","",""
"105","","bandit","346","996124","0.0-308.0-0.0","43416119","wem/bandit_single","A3GJWXA13GMS9H","pain","1","","75","K","2","","0","1","0","","0.1178923734","false","271","","0.1588166083","main_expt","","0.2499936179","","0.1178923734","","0.01663887187","","","","","",""
"139","","bandit","347","998026","0.0-309.0-0.0","43416119","wem/bandit_single","A3GJWXA13GMS9H","pain","1","","75","K","2","","0","1","0","","0.1436833609","false","272","","0.1288650497","main_expt","","0.2703142459","","0.1436833609","","0.01973971225","","","","","",""
"285","","bandit","348","1000075","0.0-310.0-0.0","43416119","wem/bandit_single","A3GJWXA13GMS9H","pain","1","","75","K","2","","0","0","1","","0.1917782062","false","273","","0.1414039315","main_expt","","0.2835249431","","0.1917782062","","0.01954424634","","","","","",""
"139","","bandit","349","1001979","0.0-311.0-0.0","43416119","wem/bandit_single","A3GJWXA13GMS9H","pain","1","","75","K","2","","0","0","1","","0.1657285368","false","274","","0.1132613661","main_expt","","0.2906451875","","0.1657285368","","0.008862655739","","","","","",""
"476","","bandit","350","1004221","0.0-312.0-0.0","43416119","wem/bandit_single","A3GJWXA13GMS9H","pain","1","","75","K","2","","0","0","1","","0.1420329436","false","275","","0.1396690899","main_expt","","0.2670480505","","0.1420329436","","0.0094605031","","","","","",""
"73","","bandit","351","1006060","0.0-313.0-0.0","43416119","wem/bandit_single","A3GJWXA13GMS9H","pain","1","","75","K","2","","0","0","1","","0.1369756733","false","276","","0.1109816737","main_expt","","0.2358592403","","0.1369756733","","0.01191149084","","","","","",""
"42","","bandit","352","1007868","0.0-314.0-0.0","43416119","wem/bandit_single","A3GJWXA13GMS9H","pain","1","","75","K","2","","0","0","1","","0.1781068979","false","277","","0.08046464388","main_expt","","0.1877967456","","0.1781068979","","0.00904810236","","","","","",""
"74","","bandit","353","1009707","0.0-315.0-0.0","43416119","wem/bandit_single","A3GJWXA13GMS9H","pain","1","","76","L","3","","0","0","1","","0.007795284796","false","278","","0.07407019324","main_expt","","0.1537245983","","0.248352092","","0.007795284796","","","","","",""
"122","","bandit","354","1011594","0.0-316.0-0.0","43416119","wem/bandit_single","A3GJWXA13GMS9H","pain","1","","72","H","0","img/none_selected.jpg","0","0","1","","0.06478755197","false","279","","0.06478755197","main_expt","","0.1662011111","","0.263219496","","0.01747653863","","","","","",""
"683","","bandit","355","1014042","0.0-317.0-0.0","43416119","wem/bandit_single","A3GJWXA13GMS9H","pain","1","","74","J","1","","0","0","1","","0.1622625537","false","280","","0.04895059186","main_expt","","0.1622625537","","0.210776847","","0.02326096521","","","","","",""
"126","","bandit","356","1015934","0.0-318.0-0.0","43416119","wem/bandit_single","A3GJWXA13GMS9H","pain","1","","75","K","2","","0","0","1","","0.1901401854","false","281","","0.04598133094","main_expt","","0.2160365104","","0.1901401854","","0.03290281633","","","","","",""
"55","","bandit","357","1017756","0.0-319.0-0.0","43416119","wem/bandit_single","A3GJWXA13GMS9H","pain","1","","76","L","3","","0","0","1","","0.03647511751","false","282","","0.0454431083","main_expt","","0.2031844556","","0.1692674388","","0.03647511751","","","","","",""
"410","","bandit","358","1019931","0.0-320.0-0.0","43416119","wem/bandit_single","A3GJWXA13GMS9H","pain","1","","72","H","0","img/none_selected.jpg","0","0","1","","0.0377119091","false","283","","0.0377119091","main_expt","","0.236778666","","0.1697823826","","0.0381479171","","","","","",""
"43","","bandit","359","1021739","0.0-321.0-0.0","43416119","wem/bandit_single","A3GJWXA13GMS9H","pain","1","","74","J","1","","0","0","1","","0.2082896542","false","284","","0.0346676025","main_expt","","0.2082896542","","0.1647860582","","0.04237273713","","","","","",""
"202","","bandit","360","1023707","0.0-322.0-0.0","43416119","wem/bandit_single","A3GJWXA13GMS9H","pain","1","","75","K","2","","0","0","1","","0.2346467376","false","285","","0.03394591187","main_expt","","0.1682052712","","0.2346467376","","0.08736605616","","","","","",""
"219","","bandit","361","1025689","0.0-323.0-0.0","43416119","wem/bandit_single","A3GJWXA13GMS9H","pain","1","","76","L","3","","0","0","1","","0.149418319","false","286","","0.03437308726","main_expt","","0.1287852917","","0.1651037306","","0.149418319","","","","","",""
"174","","bandit","362","1027628","0.0-324.0-0.0","43416119","wem/bandit_single","A3GJWXA13GMS9H","pain","1","","72","H","0","img/none_selected.jpg","0","0","1","","0.043905831","false","287","","0.043905831","main_expt","","0.0739145169","","0.113933185","","0.2149685411","","","","","",""
"57","","bandit","363","1029451","0.0-325.0-0.0","43416119","wem/bandit_single","A3GJWXA13GMS9H","pain","1","","74","J","1","","0","0","1","","0.08295252225","false","288","","0.02064047927","main_expt","","0.08295252225","","0.08260993421","","0.181398065","","","","","",""
"106","","bandit","364","1031322","0.0-326.0-0.0","43416119","wem/bandit_single","A3GJWXA13GMS9H","pain","1","","75","K","2","","0","0","1","","0.07260323305","false","289","","0.0250169619","main_expt","","0.0479508895","","0.07260323305","","0.1523032639","","","","","",""
"90","","bandit","365","1033177","0.0-327.0-0.0","43416119","wem/bandit_single","A3GJWXA13GMS9H","pain","1","","76","L","3","","0","0","1","","0.1404761367","false","290","","0.04785043425","main_expt","","0.05498143303","","0.06306400378","","0.1404761367","","","","","",""
"572","","bandit","366","1035514","0.0-328.0-0.0","43416119","wem/bandit_single","A3GJWXA13GMS9H","pain","1","","72","H","0","img/none_selected.jpg","0","0","1","","0.05997729544","false","291","","0.05997729544","main_expt","","0.06238518006","","0.06173149747","","0.1639955189","","","","","",""
"74","","bandit","367","1037355","0.0-329.0-0.0","43416119","wem/bandit_single","A3GJWXA13GMS9H","pain","1","","74","J","1","","0","0","1","","0.06246846358","false","292","","0.08013724224","main_expt","","0.06246846358","","0.049421281","","0.1365824739","","","","","",""
"140","","bandit","368","1039260","0.0-330.0-0.0","43416119","wem/bandit_single","A3GJWXA13GMS9H","pain","1","","75","K","2","","0","0","1","","0.04661139695","false","293","","0.08257915178","main_expt","","0.0635142122","","0.04661139695","","0.2190436779","","","","","",""
"56","","bandit","369","1041083","0.0-331.0-0.0","43416119","wem/bandit_single","A3GJWXA13GMS9H","pain","1","","76","L","3","","0","0","1","","0.2961987497","false","294","","0.07979116831","main_expt","","0.1078883856","","0.05266196286","","0.2961987497","","","","","",""
"395","","bandit","370","1043243","0.0-332.0-0.0","43416119","wem/bandit_single","A3GJWXA13GMS9H","pain","1","","72","H","0","img/none_selected.jpg","0","1","0","","0.1168190604","false","295","","0.1168190604","main_expt","","0.1065048767","","0.0541153793","","0.3422413176","","","","","",""
"73","","bandit","371","1045083","0.0-333.0-0.0","43416119","wem/bandit_single","A3GJWXA13GMS9H","pain","1","","72","H","0","img/none_selected.jpg","0","0","1","","0.1280513587","false","296","","0.1280513587","main_expt","","0.1528862056","","0.03514166697","","0.3023757447","","","","","",""
"121","","bandit","372","1046970","0.0-334.0-0.0","43416119","wem/bandit_single","A3GJWXA13GMS9H","pain","1","","72","H","0","img/none_selected.jpg","0","0","1","","0.1545711336","false","297","","0.1545711336","main_expt","","0.1655716118","","0.0293008482","","0.3744966898","","","","","",""
"138","","bandit","373","1048873","0.0-335.0-0.0","43416119","wem/bandit_single","A3GJWXA13GMS9H","pain","1","","72","H","0","img/none_selected.jpg","0","0","1","","0.1485956324","false","298","","0.1485956324","main_expt","","0.1725180782","","0.03311380314","","0.3702548021","","","","","",""
"349","","bandit","374","1050987","0.0-336.0-0.0","43416119","wem/bandit_single","A3GJWXA13GMS9H","pain","1","","74","J","1","","0","0","1","","0.1569797065","false","299","","0.1680902507","main_expt","","0.1569797065","","0.02365994183","","0.3675060033","","","","","",""
"73","","bandit","375","1052827","0.0-337.0-0.0","43416119","wem/bandit_single","A3GJWXA13GMS9H","pain","1","","75","K","2","","0","0","1","","0.03748312384","false","300","","0.1461034277","main_expt","","0.2025314082","","0.03748312384","","0.3623977575","","","","","",""
