"rt","responses","trial_type","trial_index","time_elapsed","internal_node_id","subjID","study","MID","cond","drift","key_press","respCharCode","respKey","respChoiceNum","respChoice","gems","bombs","no_reward","GemPrChosen","BombPrChosen","practice","trial_counter","WinPr_0","LosePr_0","trial_label","WinPr_1","LosePr_1","WinPr_2","LosePr_2","WinPr_3","LosePr_3","Q0","Q1","Q2","gender","age","ethnicity"
"26564","{""Q0"":""AVD6HMIO1HLFI""}","survey-text","0","26590","0.0-0.0","46133396","wem/bandit_single","AVD6HMIO1HLFI","gain","4","","","","","","","","","","","","","","","","","","","","","","","","","","",""
"2411","","text","1","30008","0.0-1.0","46133396","wem/bandit_single","AVD6HMIO1HLFI","gain","4","32","","","","","","","","","","","","","","","","","","","","","","","","","",""
"12305","","text","2","42318","0.0-2.0","46133396","wem/bandit_single","AVD6HMIO1HLFI","gain","4","32","","","","","","","","","","","","","","","","","","","","","","","","","",""
"26092","","text","3","68414","0.0-3.0","46133396","wem/bandit_single","AVD6HMIO1HLFI","gain","4","32","","","","","","","","","","","","","","","","","","","","","","","","","",""
"20202","","text","4","88620","0.0-4.0","46133396","wem/bandit_single","AVD6HMIO1HLFI","gain","4","32","","","","","","","","","","","","","","","","","","","","","","","","","",""
"14579","","text","5","103201","0.0-5.0","46133396","wem/bandit_single","AVD6HMIO1HLFI","gain","4","32","","","","","","","","","","","","","","","","","","","","","","","","","",""
"5760","","text","6","108964","0.0-6.0","46133396","wem/bandit_single","AVD6HMIO1HLFI","gain","4","32","","","","","","","","","","","","","","","","","","","","","","","","","",""
"3604","","text","7","112571","0.0-7.0","46133396","wem/bandit_single","AVD6HMIO1HLFI","gain","4","32","","","","","","","","","","","","","","","","","","","","","","","","","",""
"2787","","text","8","115361","0.0-8.0","46133396","wem/bandit_single","AVD6HMIO1HLFI","gain","4","32","","","","","","","","","","","","","","","","","","","","","","","","","",""
"3857","","text","9","119221","0.0-9.0","46133396","wem/bandit_single","AVD6HMIO1HLFI","gain","4","32","","","","","","","","","","","","","","","","","","","","","","","","","",""
"3619","","text","10","122845","0.0-10.0","46133396","wem/bandit_single","AVD6HMIO1HLFI","gain","4","32","","","","","","","","","","","","","","","","","","","","","","","","","",""
"20191","","text","11","143043","0.0-11.0","46133396","wem/bandit_single","AVD6HMIO1HLFI","gain","4","32","","","","","","","","","","","","","","","","","","","","","","","","","",""
"2836","","bandit","12","147439","0.0-12.0-0.0","46133396","wem/bandit_single","AVD6HMIO1HLFI","gain","4","","74","J","0","img/none_selected_demo.jpg","0","0","1","0","0","true","0","0","0","","","","","","","","","","","","",""
"840","","bandit","13","150050","0.0-13.0-0.0","46133396","wem/bandit_single","AVD6HMIO1HLFI","gain","4","","75","K","0","img/none_selected_demo.jpg","0","0","1","0","0","true","0","0","0","","","","","","","","","","","","",""
"4398","","text","14","154755","0.0-14.0","46133396","wem/bandit_single","AVD6HMIO1HLFI","gain","4","32","","","","","","","","","","","","","","","","","","","","","","","","","",""
"1663","","text","15","156420","0.0-15.0","46133396","wem/bandit_single","AVD6HMIO1HLFI","gain","4","32","","","","","","","","","","","","","","","","","","","","","","","","","",""
"2372","","text","16","158794","0.0-16.0","46133396","wem/bandit_single","AVD6HMIO1HLFI","gain","4","32","","","","","","","","","","","","","","","","","","","","","","","","","",""
"2878","","text","17","161674","0.0-17.0","46133396","wem/bandit_single","AVD6HMIO1HLFI","gain","4","32","","","","","","","","","","","","","","","","","","","","","","","","","",""
"982","","bandit","18","164177","0.0-18.0-0.0","46133396","wem/bandit_single","AVD6HMIO1HLFI","gain","4","","74","J","0","img/none_selected_demo.jpg","1","0","0","0.8","0","true","0","0.8","0","80_20_practice","0.2","0","","","","","","","","","",""
"870","","bandit","19","166817","0.0-18.0-1.0","46133396","wem/bandit_single","AVD6HMIO1HLFI","gain","4","","74","J","0","img/none_selected_demo.jpg","1","0","0","0.8","0","true","0","0.8","0","80_20_practice","0.2","0","","","","","","","","","",""
"318","","bandit","20","169099","0.0-18.0-2.0","46133396","wem/bandit_single","AVD6HMIO1HLFI","gain","4","","74","J","0","img/none_selected_demo.jpg","1","0","0","0.8","0","true","0","0.8","0","80_20_practice","0.2","0","","","","","","","","","",""
"18","","bandit","21","170897","0.0-18.0-3.0","46133396","wem/bandit_single","AVD6HMIO1HLFI","gain","4","","74","J","0","img/none_selected_demo.jpg","0","0","1","0.8","0","true","0","0.8","0","80_20_practice","0.2","0","","","","","","","","","",""
"1","","bandit","22","172725","0.0-18.0-4.0","46133396","wem/bandit_single","AVD6HMIO1HLFI","gain","4","","74","J","0","img/none_selected_demo.jpg","1","0","0","0.8","0","true","0","0.8","0","80_20_practice","0.2","0","","","","","","","","","",""
"73","","bandit","23","174578","0.0-18.0-5.0","46133396","wem/bandit_single","AVD6HMIO1HLFI","gain","4","","74","J","0","img/none_selected_demo.jpg","1","0","0","0.8","0","true","0","0.8","0","80_20_practice","0.2","0","","","","","","","","","",""
"234","","bandit","24","176580","0.0-18.0-6.0","46133396","wem/bandit_single","AVD6HMIO1HLFI","gain","4","","74","J","0","img/none_selected_demo.jpg","1","0","0","0.8","0","true","0","0.8","0","80_20_practice","0.2","0","","","","","","","","","",""
"752","","bandit","25","179107","0.0-18.0-7.0","46133396","wem/bandit_single","AVD6HMIO1HLFI","gain","4","","74","J","0","img/none_selected_demo.jpg","1","0","0","0.8","0","true","0","0.8","0","80_20_practice","0.2","0","","","","","","","","","",""
"5","","bandit","26","180890","0.0-18.0-8.0","46133396","wem/bandit_single","AVD6HMIO1HLFI","gain","4","","74","J","0","img/none_selected_demo.jpg","1","0","0","0.8","0","true","0","0.8","0","80_20_practice","0.2","0","","","","","","","","","",""
"204","","bandit","27","182934","0.0-18.0-9.0","46133396","wem/bandit_single","AVD6HMIO1HLFI","gain","4","","74","J","0","img/none_selected_demo.jpg","1","0","0","0.8","0","true","0","0.8","0","80_20_practice","0.2","0","","","","","","","","","",""
"0","","bandit","28","185083","0.0-18.0-10.0","46133396","wem/bandit_single","AVD6HMIO1HLFI","gain","4","","74","J","0","img/none_selected_demo.jpg","1","0","0","0.8","0","true","0","0.8","0","80_20_practice","0.2","0","","","","","","","","","",""
"288","","bandit","29","187264","0.0-18.0-11.0","46133396","wem/bandit_single","AVD6HMIO1HLFI","gain","4","","75","K","1","","0","0","1","0.2","0","true","0","0.8","0","80_20_practice","0.2","0","","","","","","","","","",""
"3","","bandit","30","189240","0.0-18.0-12.0","46133396","wem/bandit_single","AVD6HMIO1HLFI","gain","4","","75","K","1","","1","0","0","0.2","0","true","0","0.8","0","80_20_practice","0.2","0","","","","","","","","","",""
"880","","bandit","31","191925","0.0-18.0-13.0","46133396","wem/bandit_single","AVD6HMIO1HLFI","gain","4","","75","K","1","","0","0","1","0.2","0","true","0","0.8","0","80_20_practice","0.2","0","","","","","","","","","",""
"1","","bandit","32","193935","0.0-18.0-14.0","46133396","wem/bandit_single","AVD6HMIO1HLFI","gain","4","","74","J","0","img/none_selected_demo.jpg","0","0","1","0.8","0","true","0","0.8","0","80_20_practice","0.2","0","","","","","","","","","",""
"136","","bandit","33","196087","0.0-18.0-15.0","46133396","wem/bandit_single","AVD6HMIO1HLFI","gain","4","","74","J","0","img/none_selected_demo.jpg","1","0","0","0.8","0","true","0","0.8","0","80_20_practice","0.2","0","","","","","","","","","",""
"109","","bandit","34","198246","0.0-18.0-16.0","46133396","wem/bandit_single","AVD6HMIO1HLFI","gain","4","","74","J","0","img/none_selected_demo.jpg","1","0","0","0.8","0","true","0","0.8","0","80_20_practice","0.2","0","","","","","","","","","",""
"1","","bandit","35","200112","0.0-18.0-17.0","46133396","wem/bandit_single","AVD6HMIO1HLFI","gain","4","","74","J","0","img/none_selected_demo.jpg","1","0","0","0.8","0","true","0","0.8","0","80_20_practice","0.2","0","","","","","","","","","",""
"109","","bandit","36","202229","0.0-18.0-18.0","46133396","wem/bandit_single","AVD6HMIO1HLFI","gain","4","","74","J","0","img/none_selected_demo.jpg","1","0","0","0.8","0","true","0","0.8","0","80_20_practice","0.2","0","","","","","","","","","",""
"1744","","bandit","37","205761","0.0-18.0-19.0","46133396","wem/bandit_single","AVD6HMIO1HLFI","gain","4","","74","J","0","img/none_selected_demo.jpg","1","0","0","0.8","0","true","0","0.8","0","80_20_practice","0.2","0","","","","","","","","","",""
"4788","","text","38","210814","0.0-19.0","46133396","wem/bandit_single","AVD6HMIO1HLFI","gain","4","32","","","","","","","","","","","","","","","","","","","","","","","","","",""
"1496","","bandit","39","213969","0.0-20.0-0.0","46133396","wem/bandit_single","AVD6HMIO1HLFI","gain","4","","74","J","0","img/none_selected_demo.jpg","0","0","1","0","0","true","0","0","0","","0","0","","","","","","","","","",""
"132","","text","40","214361","0.0-21.0","46133396","wem/bandit_single","AVD6HMIO1HLFI","gain","4","74","","","","","","","","","","","","","","","","","","","","","","","","","",""
"5712","","text","41","220084","0.0-22.0","46133396","wem/bandit_single","AVD6HMIO1HLFI","gain","4","32","","","","","","","","","","","","","","","","","","","","","","","","","",""
"3477","","text","42","223571","0.0-23.0","46133396","wem/bandit_single","AVD6HMIO1HLFI","gain","4","32","","","","","","","","","","","","","","","","","","","","","","","","","",""
"6083","","text","43","229666","0.0-24.0","46133396","wem/bandit_single","AVD6HMIO1HLFI","gain","4","32","","","","","","","","","","","","","","","","","","","","","","","","","",""
"10877","","text","44","240556","0.0-25.0","46133396","wem/bandit_single","AVD6HMIO1HLFI","gain","4","32","","","","","","","","","","","","","","","","","","","","","","","","","",""
"3422","","text","45","243984","0.0-26.0","46133396","wem/bandit_single","AVD6HMIO1HLFI","gain","4","32","","","","","","","","","","","","","","","","","","","","","","","","","",""
"5353","","text","46","249344","0.0-27.0","46133396","wem/bandit_single","AVD6HMIO1HLFI","gain","4","32","","","","","","","","","","","","","","","","","","","","","","","","","",""
"3443","","text","47","252792","0.0-28.0","46133396","wem/bandit_single","AVD6HMIO1HLFI","gain","4","32","","","","","","","","","","","","","","","","","","","","","","","","","",""
"4746","","text","48","257544","0.0-29.0","46133396","wem/bandit_single","AVD6HMIO1HLFI","gain","4","32","","","","","","","","","","","","","","","","","","","","","","","","","",""
"2635","","text","49","260184","0.0-30.0","46133396","wem/bandit_single","AVD6HMIO1HLFI","gain","4","32","","","","","","","","","","","","","","","","","","","","","","","","","",""
"5332","","text","50","265528","0.0-31.0","46133396","wem/bandit_single","AVD6HMIO1HLFI","gain","4","32","","","","","","","","","","","","","","","","","","","","","","","","","",""
"559","","bandit","51","267631","0.0-32.0-0.0","46133396","wem/bandit_single","AVD6HMIO1HLFI","gain","4","","72","H","0","img/none_selected.jpg","1","0","0","0.8","0","true","0","0.8","0","full_practice","0.2","0","0.6","0","0.2","0","","","","","",""
"1","","bandit","52","269582","0.0-32.0-1.0","46133396","wem/bandit_single","AVD6HMIO1HLFI","gain","4","","72","H","0","img/none_selected.jpg","1","0","0","0.8","0","true","0","0.8","0","full_practice","0.2","0","0.6","0","0.2","0","","","","","",""
"33","","bandit","53","271428","0.0-32.0-2.0","46133396","wem/bandit_single","AVD6HMIO1HLFI","gain","4","","72","H","0","img/none_selected.jpg","1","0","0","0.8","0","true","0","0.8","0","full_practice","0.2","0","0.6","0","0.2","0","","","","","",""
"804","","bandit","54","274210","0.0-32.0-3.0","46133396","wem/bandit_single","AVD6HMIO1HLFI","gain","4","","72","H","0","img/none_selected.jpg","0","0","1","0.8","0","true","0","0.8","0","full_practice","0.2","0","0.6","0","0.2","0","","","","","",""
"535","","bandit","55","276518","0.0-32.0-4.0","46133396","wem/bandit_single","AVD6HMIO1HLFI","gain","4","","72","H","0","img/none_selected.jpg","1","0","0","0.8","0","true","0","0.8","0","full_practice","0.2","0","0.6","0","0.2","0","","","","","",""
"615","","bandit","56","278912","0.0-32.0-5.0","46133396","wem/bandit_single","AVD6HMIO1HLFI","gain","4","","72","H","0","img/none_selected.jpg","1","0","0","0.8","0","true","0","0.8","0","full_practice","0.2","0","0.6","0","0.2","0","","","","","",""
"4","","bandit","57","280964","0.0-32.0-6.0","46133396","wem/bandit_single","AVD6HMIO1HLFI","gain","4","","72","H","0","img/none_selected.jpg","1","0","0","0.8","0","true","0","0.8","0","full_practice","0.2","0","0.6","0","0.2","0","","","","","",""
"16","","bandit","58","282759","0.0-32.0-7.0","46133396","wem/bandit_single","AVD6HMIO1HLFI","gain","4","","72","H","0","img/none_selected.jpg","0","0","1","0.8","0","true","0","0.8","0","full_practice","0.2","0","0.6","0","0.2","0","","","","","",""
"4","","bandit","59","284589","0.0-32.0-8.0","46133396","wem/bandit_single","AVD6HMIO1HLFI","gain","4","","74","J","1","","0","0","1","0.2","0","true","0","0.8","0","full_practice","0.2","0","0.6","0","0.2","0","","","","","",""
"898","","bandit","60","287266","0.0-32.0-9.0","46133396","wem/bandit_single","AVD6HMIO1HLFI","gain","4","","75","K","2","","1","0","0","0.6","0","true","0","0.8","0","full_practice","0.2","0","0.6","0","0.2","0","","","","","",""
"3","","bandit","61","289223","0.0-32.0-10.0","46133396","wem/bandit_single","AVD6HMIO1HLFI","gain","4","","76","L","3","","0","0","1","0.2","0","true","0","0.8","0","full_practice","0.2","0","0.6","0","0.2","0","","","","","",""
"9","","bandit","62","291225","0.0-32.0-11.0","46133396","wem/bandit_single","AVD6HMIO1HLFI","gain","4","","72","H","0","img/none_selected.jpg","1","0","0","0.8","0","true","0","0.8","0","full_practice","0.2","0","0.6","0","0.2","0","","","","","",""
"7","","bandit","63","293004","0.0-32.0-12.0","46133396","wem/bandit_single","AVD6HMIO1HLFI","gain","4","","72","H","0","img/none_selected.jpg","1","0","0","0.8","0","true","0","0.8","0","full_practice","0.2","0","0.6","0","0.2","0","","","","","",""
"84","","bandit","64","294898","0.0-32.0-13.0","46133396","wem/bandit_single","AVD6HMIO1HLFI","gain","4","","72","H","0","img/none_selected.jpg","0","0","1","0.8","0","true","0","0.8","0","full_practice","0.2","0","0.6","0","0.2","0","","","","","",""
"1","","bandit","65","296725","0.0-32.0-14.0","46133396","wem/bandit_single","AVD6HMIO1HLFI","gain","4","","72","H","0","img/none_selected.jpg","0","0","1","0.8","0","true","0","0.8","0","full_practice","0.2","0","0.6","0","0.2","0","","","","","",""
"10","","bandit","66","298530","0.0-32.0-15.0","46133396","wem/bandit_single","AVD6HMIO1HLFI","gain","4","","72","H","0","img/none_selected.jpg","1","0","0","0.8","0","true","0","0.8","0","full_practice","0.2","0","0.6","0","0.2","0","","","","","",""
"10","","bandit","67","300324","0.0-32.0-16.0","46133396","wem/bandit_single","AVD6HMIO1HLFI","gain","4","","72","H","0","img/none_selected.jpg","1","0","0","0.8","0","true","0","0.8","0","full_practice","0.2","0","0.6","0","0.2","0","","","","","",""
"98","","bandit","68","302244","0.0-32.0-17.0","46133396","wem/bandit_single","AVD6HMIO1HLFI","gain","4","","72","H","0","img/none_selected.jpg","1","0","0","0.8","0","true","0","0.8","0","full_practice","0.2","0","0.6","0","0.2","0","","","","","",""
"183","","bandit","69","304326","0.0-32.0-18.0","46133396","wem/bandit_single","AVD6HMIO1HLFI","gain","4","","72","H","0","img/none_selected.jpg","1","0","0","0.8","0","true","0","0.8","0","full_practice","0.2","0","0.6","0","0.2","0","","","","","",""
"65","","bandit","70","306234","0.0-32.0-19.0","46133396","wem/bandit_single","AVD6HMIO1HLFI","gain","4","","72","H","0","img/none_selected.jpg","1","0","0","0.8","0","true","0","0.8","0","full_practice","0.2","0","0.6","0","0.2","0","","","","","",""
"2896","","text","71","309409","0.0-33.0","46133396","wem/bandit_single","AVD6HMIO1HLFI","gain","4","32","","","","","","","","","","","","","","","","","","","","","","","","","",""
"9823","","text","72","320239","0.0-34.0","46133396","wem/bandit_single","AVD6HMIO1HLFI","gain","4","32","","","","","","","","","","","","","","","","","","","","","","","","","",""
"4351","","text","73","324602","0.0-35.0","46133396","wem/bandit_single","AVD6HMIO1HLFI","gain","4","32","","","","","","","","","","","","","","","","","","","","","","","","","",""
"5007","","text","74","329615","0.0-36.0","46133396","wem/bandit_single","AVD6HMIO1HLFI","gain","4","32","","","","","","","","","","","","","","","","","","","","","","","","","",""
"5768","","text","75","335400","0.0-37.0","46133396","wem/bandit_single","AVD6HMIO1HLFI","gain","4","32","","","","","","","","","","","","","","","","","","","","","","","","","",""
"995","","bandit","76","338123","0.0-38.0-0.0","46133396","wem/bandit_single","AVD6HMIO1HLFI","gain","4","","72","H","0","img/none_selected.jpg","0","0","1","0.1530555908","","false","1","0.1530555908","","main_expt","0.2633340886","","0.1534711312","","0.04789219489","","","","","","",""
"74","","bandit","77","340073","0.0-39.0-0.0","46133396","wem/bandit_single","AVD6HMIO1HLFI","gain","4","","74","J","1","","0","0","1","0.288049036","","false","2","0.103598712","","main_expt","0.288049036","","0.1140054314","","0.06526788736","","","","","","",""
"1","","bandit","78","341907","0.0-40.0-0.0","46133396","wem/bandit_single","AVD6HMIO1HLFI","gain","4","","75","K","2","","0","0","1","0.1012650834","","false","3","0.08136741005","","main_expt","0.2979487298","","0.1012650834","","0.04764418461","","","","","","",""
"8","","bandit","79","343760","0.0-41.0-0.0","46133396","wem/bandit_single","AVD6HMIO1HLFI","gain","4","","76","L","3","","0","0","1","0.05056035824","","false","4","0.08723083084","","main_expt","0.3306303211","","0.09541256236","","0.05056035824","","","","","","",""
"22","","bandit","80","345568","0.0-42.0-0.0","46133396","wem/bandit_single","AVD6HMIO1HLFI","gain","4","","72","H","0","img/none_selected.jpg","0","0","1","0.1255982651","","false","5","0.1255982651","","main_expt","0.2438199519","","0.07842998328","","0.05944929255","","","","","","",""
"1","","bandit","81","347479","0.0-43.0-0.0","46133396","wem/bandit_single","AVD6HMIO1HLFI","gain","4","","74","J","1","","0","0","1","0.2362074668","","false","6","0.09044777998","","main_expt","0.2362074668","","0.09158282766","","0.09562353852","","","","","","",""
"620","","bandit","82","349910","0.0-44.0-0.0","46133396","wem/bandit_single","AVD6HMIO1HLFI","gain","4","","75","K","2","","0","0","1","0.09712353232","","false","7","0.1067491613","","main_expt","0.2591683673","","0.09712353232","","0.08069121891","","","","","","",""
"9","","bandit","83","351713","0.0-45.0-0.0","46133396","wem/bandit_single","AVD6HMIO1HLFI","gain","4","","76","L","3","","0","0","1","0.07203927837","","false","8","0.15597148","","main_expt","0.2299415188","","0.08440361392","","0.07203927837","","","","","","",""
"335","","bandit","84","353831","0.0-46.0-0.0","46133396","wem/bandit_single","AVD6HMIO1HLFI","gain","4","","74","J","1","","0","0","1","0.2057198223","","false","9","0.2250404859","","main_expt","0.2057198223","","0.102519384","","0.08219025907","","","","","","",""
"0","","bandit","85","355784","0.0-47.0-0.0","46133396","wem/bandit_single","AVD6HMIO1HLFI","gain","4","","74","J","1","","0","0","1","0.2002554128","","false","10","0.2205918947","","main_expt","0.2002554128","","0.06157476224","","0.06517742799","","","","","","",""
"848","","bandit","86","358433","0.0-48.0-0.0","46133396","wem/bandit_single","AVD6HMIO1HLFI","gain","4","","72","H","0","img/none_selected.jpg","0","0","1","0.1999173076","","false","11","0.1999173076","","main_expt","0.2390702858","","0.05516119966","","0.0549201251","","","","","","",""
"512","","bandit","87","360773","0.0-49.0-0.0","46133396","wem/bandit_single","AVD6HMIO1HLFI","gain","4","","72","H","0","img/none_selected.jpg","0","0","1","0.2006159367","","false","12","0.2006159367","","main_expt","0.2309669968","","0.04311537102","","0.0630283727","","","","","","",""
"123","","bandit","88","362795","0.0-50.0-0.0","46133396","wem/bandit_single","AVD6HMIO1HLFI","gain","4","","75","K","2","","0","0","1","0.03895599675","","false","13","0.202674457","","main_expt","0.2667386483","","0.03895599675","","0.07136250487","","","","","","",""
"4","","bandit","89","364583","0.0-51.0-0.0","46133396","wem/bandit_single","AVD6HMIO1HLFI","gain","4","","76","L","3","","0","0","1","0.07333211558","","false","14","0.152812741","","main_expt","0.2057326914","","0.03256744162","","0.07333211558","","","","","","",""
"380","","bandit","90","366762","0.0-52.0-0.0","46133396","wem/bandit_single","AVD6HMIO1HLFI","gain","4","","75","K","2","","0","0","1","0.01982065674","","false","15","0.1648564856","","main_expt","0.2081585857","","0.01982065674","","0.1154740655","","","","","","",""
"386","","bandit","91","369040","0.0-53.0-0.0","46133396","wem/bandit_single","AVD6HMIO1HLFI","gain","4","","76","L","3","","0","0","1","0.1011313391","","false","16","0.1619055423","","main_expt","0.1909184248","","0.04082574049","","0.1011313391","","","","","","",""
"3","","bandit","92","371058","0.0-54.0-0.0","46133396","wem/bandit_single","AVD6HMIO1HLFI","gain","4","","72","H","0","img/none_selected.jpg","1","0","0","0.1651197045","","false","17","0.1651197045","","main_expt","0.2198432556","","0.0363298649","","0.1447019112","","","","","","",""
"390","","bandit","93","373373","0.0-55.0-0.0","46133396","wem/bandit_single","AVD6HMIO1HLFI","gain","4","","72","H","0","img/none_selected.jpg","0","0","1","0.1079041081","","false","18","0.1079041081","","main_expt","0.2347766335","","0.07917382237","","0.1039364862","","","","","","",""
"19","","bandit","94","375315","0.0-56.0-0.0","46133396","wem/bandit_single","AVD6HMIO1HLFI","gain","4","","72","H","0","img/none_selected.jpg","1","0","0","0.1059999363","","false","19","0.1059999363","","main_expt","0.24668571","","0.08476555987","","0.08759831402","","","","","","",""
"551","","bandit","95","377647","0.0-57.0-0.0","46133396","wem/bandit_single","AVD6HMIO1HLFI","gain","4","","72","H","0","img/none_selected.jpg","0","0","1","0.1197169881","","false","20","0.1197169881","","main_expt","0.2355281317","","0.04047152317","","0.08010338479","","","","","","",""
"41","","bandit","96","379470","0.0-58.0-0.0","46133396","wem/bandit_single","AVD6HMIO1HLFI","gain","4","","72","H","0","img/none_selected.jpg","1","0","0","0.1338215077","","false","21","0.1338215077","","main_expt","0.2290721377","","0.07021106672","","0.07820488182","","","","","","",""
"4","","bandit","97","381303","0.0-59.0-0.0","46133396","wem/bandit_single","AVD6HMIO1HLFI","gain","4","","72","H","0","img/none_selected.jpg","0","0","1","0.1691749215","","false","22","0.1691749215","","main_expt","0.1982968879","","0.08794503477","","0.06301774499","","","","","","",""
"4","","bandit","98","383093","0.0-60.0-0.0","46133396","wem/bandit_single","AVD6HMIO1HLFI","gain","4","","74","J","1","","0","0","1","0.1991555028","","false","23","0.2100599157","","main_expt","0.1991555028","","0.07274518233","","0.04380944514","","","","","","",""
"289","","bandit","99","385394","0.0-61.0-0.0","46133396","wem/bandit_single","AVD6HMIO1HLFI","gain","4","","75","K","2","","0","0","1","0.09602528561","","false","24","0.1763606332","","main_expt","0.1700743611","","0.09602528561","","0.04485861341","","","","","","",""
"333","","bandit","100","387558","0.0-62.0-0.0","46133396","wem/bandit_single","AVD6HMIO1HLFI","gain","4","","76","L","3","","0","0","1","0.08350983839","","false","25","0.1155065599","","main_expt","0.2303117276","","0.07148754983","","0.08350983839","","","","","","",""
"10","","bandit","101","389617","0.0-63.0-0.0","46133396","wem/bandit_single","AVD6HMIO1HLFI","gain","4","","72","H","0","img/none_selected.jpg","0","0","1","0.08411514459","","false","26","0.08411514459","","main_expt","0.2615068669","","0.05591681381","","0.04946014148","","","","","","",""
"66","","bandit","102","391470","0.0-64.0-0.0","46133396","wem/bandit_single","AVD6HMIO1HLFI","gain","4","","72","H","0","img/none_selected.jpg","0","0","1","0.1192049255","","false","27","0.1192049255","","main_expt","0.2108316327","","0.06488914964","","0.07008172503","","","","","","",""
"326","","bandit","103","393581","0.0-65.0-0.0","46133396","wem/bandit_single","AVD6HMIO1HLFI","gain","4","","72","H","0","img/none_selected.jpg","0","0","1","0.1530516972","","false","28","0.1530516972","","main_expt","0.2616222854","","0.07067710387","","0.09766989806","","","","","","",""
"1","","bandit","104","395506","0.0-66.0-0.0","46133396","wem/bandit_single","AVD6HMIO1HLFI","gain","4","","74","J","1","","1","0","0","0.2754145478","","false","29","0.1243035263","","main_expt","0.2754145478","","0.06184318105","","0.1020433103","","","","","","",""
"446","","bandit","105","397814","0.0-67.0-0.0","46133396","wem/bandit_single","AVD6HMIO1HLFI","gain","4","","74","J","1","","0","0","1","0.3091083038","","false","30","0.2106934108","","main_expt","0.3091083038","","0.06562203124","","0.1128186897","","","","","","",""
"304","","bandit","106","399968","0.0-68.0-0.0","46133396","wem/bandit_single","AVD6HMIO1HLFI","gain","4","","74","J","1","","0","0","1","0.3032558385","","false","31","0.269819176","","main_expt","0.3032558385","","0.06340423818","","0.1021038766","","","","","","",""
"19","","bandit","107","401763","0.0-69.0-0.0","46133396","wem/bandit_single","AVD6HMIO1HLFI","gain","4","","74","J","1","","0","0","1","0.3160124579","","false","32","0.2415851803","","main_expt","0.3160124579","","0.08582013972","","0.1010238501","","","","","","",""
"277","","bandit","108","403829","0.0-70.0-0.0","46133396","wem/bandit_single","AVD6HMIO1HLFI","gain","4","","75","K","2","","0","0","1","0.1020351259","","false","33","0.2754451294","","main_expt","0.355825184","","0.1020351259","","0.0674926465","","","","","","",""
"26","","bandit","109","405657","0.0-71.0-0.0","46133396","wem/bandit_single","AVD6HMIO1HLFI","gain","4","","75","K","2","","0","0","1","0.07925884201","","false","34","0.3566428969","","main_expt","0.3380280112","","0.07925884201","","0.1007783216","","","","","","",""
"67","","bandit","110","407610","0.0-72.0-0.0","46133396","wem/bandit_single","AVD6HMIO1HLFI","gain","4","","75","K","2","","0","0","1","0.06071167626","","false","35","0.2652811253","","main_expt","0.3772093912","","0.06071167626","","0.09542819821","","","","","","",""
"404","","bandit","111","409795","0.0-73.0-0.0","46133396","wem/bandit_single","AVD6HMIO1HLFI","gain","4","","75","K","2","","0","0","1","0.05331310492","","false","36","0.2472166127","","main_expt","0.3916459715","","0.05331310492","","0.07425724813","","","","","","",""
"116","","bandit","112","411706","0.0-74.0-0.0","46133396","wem/bandit_single","AVD6HMIO1HLFI","gain","4","","76","L","3","","0","0","1","0.07325651263","","false","37","0.2941536534","","main_expt","0.3724196513","","0.08395737389","","0.07325651263","","","","","","",""
"6","","bandit","113","413582","0.0-75.0-0.0","46133396","wem/bandit_single","AVD6HMIO1HLFI","gain","4","","76","L","3","","0","0","1","0.06058557764","","false","38","0.2850199379","","main_expt","0.3885064771","","0.07562804978","","0.06058557764","","","","","","",""
"1","","bandit","114","415434","0.0-76.0-0.0","46133396","wem/bandit_single","AVD6HMIO1HLFI","gain","4","","76","L","3","","0","0","1","0.05480529152","","false","39","0.2308750992","","main_expt","0.4332305888","","0.06339693541","","0.05480529152","","","","","","",""
"357","","bandit","115","417592","0.0-77.0-0.0","46133396","wem/bandit_single","AVD6HMIO1HLFI","gain","4","","74","J","1","","0","0","1","0.4320021358","","false","40","0.2166928419","","main_expt","0.4320021358","","0.07741261751","","0.08480448704","","","","","","",""
"61","","bandit","116","419450","0.0-78.0-0.0","46133396","wem/bandit_single","AVD6HMIO1HLFI","gain","4","","72","H","0","img/none_selected.jpg","0","0","1","0.222341992","","false","41","0.222341992","","main_expt","0.4378374231","","0.08199889575","","0.07863220129","","","","","","",""
"215","","bandit","117","421462","0.0-79.0-0.0","46133396","wem/bandit_single","AVD6HMIO1HLFI","gain","4","","72","H","0","img/none_selected.jpg","0","0","1","0.2420609394","","false","42","0.2420609394","","main_expt","0.4138470733","","0.1252939417","","0.07947159818","","","","","","",""
"186","","bandit","118","423437","0.0-80.0-0.0","46133396","wem/bandit_single","AVD6HMIO1HLFI","gain","4","","74","J","1","","0","0","1","0.3618848001","","false","43","0.2683234569","","main_expt","0.3618848001","","0.1464491551","","0.0747194724","","","","","","",""
"223","","bandit","119","425487","0.0-81.0-0.0","46133396","wem/bandit_single","AVD6HMIO1HLFI","gain","4","","72","H","0","img/none_selected.jpg","1","0","0","0.2592073096","","false","44","0.2592073096","","main_expt","0.3902132048","","0.1846315016","","0.06873866496","","","","","","",""
"458","","bandit","120","427800","0.0-82.0-0.0","46133396","wem/bandit_single","AVD6HMIO1HLFI","gain","4","","72","H","0","img/none_selected.jpg","0","0","1","0.258850709","","false","45","0.258850709","","main_expt","0.370584769","","0.1454302639","","0.05624711086","","","","","","",""
"127","","bandit","121","429720","0.0-83.0-0.0","46133396","wem/bandit_single","AVD6HMIO1HLFI","gain","4","","72","H","0","img/none_selected.jpg","1","0","0","0.2162528617","","false","46","0.2162528617","","main_expt","0.3416192418","","0.1420401956","","0.06710767933","","","","","","",""
"14","","bandit","122","431621","0.0-84.0-0.0","46133396","wem/bandit_single","AVD6HMIO1HLFI","gain","4","","72","H","0","img/none_selected.jpg","0","0","1","0.1380472806","","false","47","0.1380472806","","main_expt","0.3254497978","","0.2049545467","","0.05828218186","","","","","","",""
"77","","bandit","123","433546","0.0-85.0-0.0","46133396","wem/bandit_single","AVD6HMIO1HLFI","gain","4","","72","H","0","img/none_selected.jpg","0","0","1","0.1673270425","","false","48","0.1673270425","","main_expt","0.3438960799","","0.1608881285","","0.1161016377","","","","","","",""
"6","","bandit","124","435363","0.0-86.0-0.0","46133396","wem/bandit_single","AVD6HMIO1HLFI","gain","4","","72","H","0","img/none_selected.jpg","0","0","1","0.1637821127","","false","49","0.1637821127","","main_expt","0.3405395495","","0.2001806823","","0.1135844416","","","","","","",""
"12","","bandit","125","437162","0.0-87.0-0.0","46133396","wem/bandit_single","AVD6HMIO1HLFI","gain","4","","72","H","0","img/none_selected.jpg","0","0","1","0.1826101584","","false","50","0.1826101584","","main_expt","0.3305224856","","0.2061381611","","0.1646239324","","","","","","",""
"1015","","bandit","126","440061","0.0-88.0-0.0","46133396","wem/bandit_single","AVD6HMIO1HLFI","gain","4","","72","H","0","img/none_selected.jpg","1","0","0","0.2270371056","","false","51","0.2270371056","","main_expt","0.2304924019","","0.2369791141","","0.1699716213","","","","","","",""
"159","","bandit","127","442160","0.0-89.0-0.0","46133396","wem/bandit_single","AVD6HMIO1HLFI","gain","4","","72","H","0","img/none_selected.jpg","0","0","1","0.2203225001","","false","52","0.2203225001","","main_expt","0.2832256505","","0.2378663067","","0.1762937123","","","","","","",""
"286","","bandit","128","444275","0.0-90.0-0.0","46133396","wem/bandit_single","AVD6HMIO1HLFI","gain","4","","72","H","0","img/none_selected.jpg","0","0","1","0.2776849753","","false","53","0.2776849753","","main_expt","0.2391441838","","0.2063519028","","0.2287193473","","","","","","",""
"173","","bandit","129","446284","0.0-91.0-0.0","46133396","wem/bandit_single","AVD6HMIO1HLFI","gain","4","","74","J","1","","1","0","0","0.2697071588","","false","54","0.2454572706","","main_expt","0.2697071588","","0.2439582882","","0.2356834932","","","","","","",""
"157","","bandit","130","448284","0.0-92.0-0.0","46133396","wem/bandit_single","AVD6HMIO1HLFI","gain","4","","74","J","1","","1","0","0","0.2875326611","","false","55","0.2382153161","","main_expt","0.2875326611","","0.2381950618","","0.306547883","","","","","","",""
"85","","bandit","131","450319","0.0-93.0-0.0","46133396","wem/bandit_single","AVD6HMIO1HLFI","gain","4","","74","J","1","","0","0","1","0.2854258916","","false","56","0.1960908288","","main_expt","0.2854258916","","0.1800346575","","0.2853582168","","","","","","",""
"32","","bandit","132","452210","0.0-94.0-0.0","46133396","wem/bandit_single","AVD6HMIO1HLFI","gain","4","","74","J","1","","0","0","1","0.3445045135","","false","57","0.2042340564","","main_expt","0.3445045135","","0.2336203315","","0.2834250679","","","","","","",""
"53","","bandit","133","454202","0.0-95.0-0.0","46133396","wem/bandit_single","AVD6HMIO1HLFI","gain","4","","74","J","1","","0","0","1","0.3390226593","","false","58","0.1490893454","","main_expt","0.3390226593","","0.189887459","","0.2690284398","","","","","","",""
"6","","bandit","134","456203","0.0-96.0-0.0","46133396","wem/bandit_single","AVD6HMIO1HLFI","gain","4","","74","J","1","","0","0","1","0.2666291788","","false","59","0.1581154669","","main_expt","0.2666291788","","0.1548607402","","0.2616697142","","","","","","",""
"407","","bandit","135","458401","0.0-97.0-0.0","46133396","wem/bandit_single","AVD6HMIO1HLFI","gain","4","","75","K","2","","0","0","1","0.1233285174","","false","60","0.1715954381","","main_expt","0.246985882","","0.1233285174","","0.2704186185","","","","","","",""
"175","","bandit","136","460388","0.0-98.0-0.0","46133396","wem/bandit_single","AVD6HMIO1HLFI","gain","4","","76","L","3","","0","0","1","0.3376037184","","false","61","0.1999420892","","main_expt","0.2171589204","","0.186549837","","0.3376037184","","","","","","",""
"401","","bandit","137","462593","0.0-99.0-0.0","46133396","wem/bandit_single","AVD6HMIO1HLFI","gain","4","","75","K","2","","0","0","1","0.1420872584","","false","62","0.1539309088","","main_expt","0.2677831299","","0.1420872584","","0.3098521258","","","","","","",""
"254","","bandit","138","464685","0.0-100.0-0.0","46133396","wem/bandit_single","AVD6HMIO1HLFI","gain","4","","76","L","3","","1","0","0","0.3137631198","","false","63","0.1085632924","","main_expt","0.2303454974","","0.151707711","","0.3137631198","","","","","","",""
"307","","bandit","139","466993","0.0-101.0-0.0","46133396","wem/bandit_single","AVD6HMIO1HLFI","gain","4","","76","L","3","","0","0","1","0.3179430645","","false","64","0.1370187426","","main_expt","0.196947777","","0.1474827626","","0.3179430645","","","","","","",""
"76","","bandit","140","468853","0.0-102.0-0.0","46133396","wem/bandit_single","AVD6HMIO1HLFI","gain","4","","76","L","3","","0","0","1","0.2980330155","","false","65","0.1322062037","","main_expt","0.1645630622","","0.1746529425","","0.2980330155","","","","","","",""
"184","","bandit","141","470851","0.0-103.0-0.0","46133396","wem/bandit_single","AVD6HMIO1HLFI","gain","4","","74","J","1","","0","0","1","0.1533283495","","false","66","0.1496501041","","main_expt","0.1533283495","","0.1310865155","","0.2537140377","","","","","","",""
"0","","bandit","142","473025","0.0-104.0-0.0","46133396","wem/bandit_single","AVD6HMIO1HLFI","gain","4","","72","H","0","img/none_selected.jpg","0","0","1","0.1626820295","","false","67","0.1626820295","","main_expt","0.1708403009","","0.1370872981","","0.2153704701","","","","","","",""
"28","","bandit","143","474880","0.0-105.0-0.0","46133396","wem/bandit_single","AVD6HMIO1HLFI","gain","4","","75","K","2","","0","0","1","0.09914494933","","false","68","0.1989514297","","main_expt","0.1887917493","","0.09914494933","","0.2417705853","","","","","","",""
"1","","bandit","144","476731","0.0-106.0-0.0","46133396","wem/bandit_single","AVD6HMIO1HLFI","gain","4","","74","J","1","","0","0","1","0.2160515082","","false","69","0.1888867792","","main_expt","0.2160515082","","0.1092411584","","0.3235463827","","","","","","",""
"52","","bandit","145","478569","0.0-107.0-0.0","46133396","wem/bandit_single","AVD6HMIO1HLFI","gain","4","","76","L","3","","1","0","0","0.3647615206","","false","70","0.1767550628","","main_expt","0.2778565133","","0.1213917008","","0.3647615206","","","","","","",""
"4","","bandit","146","480381","0.0-108.0-0.0","46133396","wem/bandit_single","AVD6HMIO1HLFI","gain","4","","76","L","3","","0","0","1","0.3472934012","","false","71","0.1253641033","","main_expt","0.2623699359","","0.1479005197","","0.3472934012","","","","","","",""
"447","","bandit","147","482629","0.0-109.0-0.0","46133396","wem/bandit_single","AVD6HMIO1HLFI","gain","4","","76","L","3","","1","0","0","0.2965124106","","false","72","0.1319365506","","main_expt","0.2574081817","","0.1931369739","","0.2965124106","","","","","","",""
"1","","bandit","148","484421","0.0-110.0-0.0","46133396","wem/bandit_single","AVD6HMIO1HLFI","gain","4","","76","L","3","","0","0","1","0.2823595977","","false","73","0.1061905376","","main_expt","0.2503470883","","0.1900103681","","0.2823595977","","","","","","",""
"82","","bandit","149","486291","0.0-111.0-0.0","46133396","wem/bandit_single","AVD6HMIO1HLFI","gain","4","","76","L","3","","1","0","0","0.2835749375","","false","74","0.1303083533","","main_expt","0.2710758316","","0.1344428369","","0.2835749375","","","","","","",""
"69","","bandit","150","488168","0.0-112.0-0.0","46133396","wem/bandit_single","AVD6HMIO1HLFI","gain","4","","76","L","3","","1","0","0","0.3526847528","","false","75","0.1359111238","","main_expt","0.260759121","","0.1528357022","","0.3526847528","","","","","","",""
"74","","bandit","151","490117","0.0-113.0-0.0","46133396","wem/bandit_single","AVD6HMIO1HLFI","gain","4","","76","L","3","","1","0","0","0.3434196486","","false","76","0.1128391495","","main_expt","0.2610050464","","0.1898592508","","0.3434196486","","","","","","",""
"157","","bandit","152","492081","0.0-114.0-0.0","46133396","wem/bandit_single","AVD6HMIO1HLFI","gain","4","","76","L","3","","0","0","1","0.3073782559","","false","77","0.1118044987","","main_expt","0.1920601856","","0.191464519","","0.3073782559","","","","","","",""
"110","","bandit","153","494171","0.0-115.0-0.0","46133396","wem/bandit_single","AVD6HMIO1HLFI","gain","4","","76","L","3","","0","0","1","0.3200097729","","false","78","0.1315400358","","main_expt","0.1726035312","","0.2665821314","","0.3200097729","","","","","","",""
"36","","bandit","154","496036","0.0-116.0-0.0","46133396","wem/bandit_single","AVD6HMIO1HLFI","gain","4","","76","L","3","","0","0","1","0.3406321397","","false","79","0.1421279646","","main_expt","0.1974193715","","0.2510402579","","0.3406321397","","","","","","",""
"50","","bandit","155","497876","0.0-117.0-0.0","46133396","wem/bandit_single","AVD6HMIO1HLFI","gain","4","","76","L","3","","0","0","1","0.2934749235","","false","80","0.1666910293","","main_expt","0.1771423485","","0.2803090616","","0.2934749235","","","","","","",""
"0","","bandit","156","499821","0.0-118.0-0.0","46133396","wem/bandit_single","AVD6HMIO1HLFI","gain","4","","76","L","3","","1","0","0","0.3080678564","","false","81","0.1514130178","","main_expt","0.1689426189","","0.3053401272","","0.3080678564","","","","","","",""
"134","","bandit","157","501836","0.0-119.0-0.0","46133396","wem/bandit_single","AVD6HMIO1HLFI","gain","4","","76","L","3","","0","0","1","0.3118316764","","false","82","0.1667518413","","main_expt","0.2008945118","","0.3079009489","","0.3118316764","","","","","","",""
"6","","bandit","158","503657","0.0-120.0-0.0","46133396","wem/bandit_single","AVD6HMIO1HLFI","gain","4","","76","L","3","","0","0","1","0.2539803618","","false","83","0.1620161121","","main_expt","0.2679993971","","0.3294465445","","0.2539803618","","","","","","",""
"24","","bandit","159","505545","0.0-121.0-0.0","46133396","wem/bandit_single","AVD6HMIO1HLFI","gain","4","","76","L","3","","1","0","0","0.2665148507","","false","84","0.1920696542","","main_expt","0.2187304288","","0.3567704092","","0.2665148507","","","","","","",""
"108","","bandit","160","507433","0.0-122.0-0.0","46133396","wem/bandit_single","AVD6HMIO1HLFI","gain","4","","76","L","3","","0","0","1","0.2638978108","","false","85","0.1790321084","","main_expt","0.2668074714","","0.3637986046","","0.2638978108","","","","","","",""
"9","","bandit","161","509308","0.0-123.0-0.0","46133396","wem/bandit_single","AVD6HMIO1HLFI","gain","4","","76","L","3","","0","0","1","0.2430370424","","false","86","0.1644507099","","main_expt","0.3011617684","","0.3661817966","","0.2430370424","","","","","","",""
"645","","bandit","162","511787","0.0-124.0-0.0","46133396","wem/bandit_single","AVD6HMIO1HLFI","gain","4","","76","L","3","","0","0","1","0.2369050713","","false","87","0.1731377232","","main_expt","0.2866912597","","0.349996741","","0.2369050713","","","","","","",""
"12","","bandit","163","513585","0.0-125.0-0.0","46133396","wem/bandit_single","AVD6HMIO1HLFI","gain","4","","74","J","1","","0","0","1","0.2921806028","","false","88","0.1562940882","","main_expt","0.2921806028","","0.3021468993","","0.2322244834","","","","","","",""
"285","","bandit","164","515821","0.0-126.0-0.0","46133396","wem/bandit_single","AVD6HMIO1HLFI","gain","4","","75","K","2","","1","0","0","0.2752269066","","false","89","0.1344734597","","main_expt","0.2877077994","","0.2752269066","","0.214722025","","","","","","",""
"42","","bandit","165","517907","0.0-127.0-0.0","46133396","wem/bandit_single","AVD6HMIO1HLFI","gain","4","","75","K","2","","0","0","1","0.3172240337","","false","90","0.1192135027","","main_expt","0.2390413286","","0.3172240337","","0.1767670318","","","","","","",""
"18","","bandit","166","519722","0.0-128.0-0.0","46133396","wem/bandit_single","AVD6HMIO1HLFI","gain","4","","75","K","2","","0","0","1","0.3049723864","","false","91","0.1639104845","","main_expt","0.2582098676","","0.3049723864","","0.1391375388","","","","","","",""
"2","","bandit","167","521550","0.0-129.0-0.0","46133396","wem/bandit_single","AVD6HMIO1HLFI","gain","4","","75","K","2","","0","0","1","0.3261529518","","false","92","0.1960431165","","main_expt","0.3066747335","","0.3261529518","","0.1283323985","","","","","","",""
"117","","bandit","168","523457","0.0-130.0-0.0","46133396","wem/bandit_single","AVD6HMIO1HLFI","gain","4","","72","H","0","img/none_selected.jpg","0","0","1","0.2137056669","","false","93","0.2137056669","","main_expt","0.3051362106","","0.3550538726","","0.07538544447","","","","","","",""
"491","","bandit","169","525756","0.0-131.0-0.0","46133396","wem/bandit_single","AVD6HMIO1HLFI","gain","4","","72","H","0","img/none_selected.jpg","1","0","0","0.2188004936","","false","94","0.2188004936","","main_expt","0.3433649514","","0.3335231974","","0.07407963518","","","","","","",""
"392","","bandit","170","527947","0.0-132.0-0.0","46133396","wem/bandit_single","AVD6HMIO1HLFI","gain","4","","72","H","0","img/none_selected.jpg","0","0","1","0.2442185641","","false","95","0.2442185641","","main_expt","0.3638642947","","0.3060397856","","0.06265185683","","","","","","",""
"19","","bandit","171","529956","0.0-133.0-0.0","46133396","wem/bandit_single","AVD6HMIO1HLFI","gain","4","","72","H","0","img/none_selected.jpg","0","0","1","0.2062156096","","false","96","0.2062156096","","main_expt","0.3433071503","","0.3420618169","","0.0626930361","","","","","","",""
"55","","bandit","172","531946","0.0-134.0-0.0","46133396","wem/bandit_single","AVD6HMIO1HLFI","gain","4","","72","H","0","img/none_selected.jpg","0","0","1","0.1824441478","","false","97","0.1824441478","","main_expt","0.3287523936","","0.3451805041","","0.03702031205","","","","","","",""
"461","","bandit","173","534247","0.0-135.0-0.0","46133396","wem/bandit_single","AVD6HMIO1HLFI","gain","4","","74","J","1","","1","0","0","0.3384657171","","false","98","0.1741419228","","main_expt","0.3384657171","","0.3067376926","","0.02896114516","","","","","","",""
"65","","bandit","174","536126","0.0-136.0-0.0","46133396","wem/bandit_single","AVD6HMIO1HLFI","gain","4","","74","J","1","","1","0","0","0.3929596429","","false","99","0.1402348549","","main_expt","0.3929596429","","0.2980645096","","0.04301278827","","","","","","",""
"118","","bandit","175","538244","0.0-137.0-0.0","46133396","wem/bandit_single","AVD6HMIO1HLFI","gain","4","","74","J","1","","0","0","1","0.3972918561","","false","100","0.1856728267","","main_expt","0.3972918561","","0.2862788702","","0.03198738169","","","","","","",""
"56","","bandit","176","540271","0.0-138.0-0.0","46133396","wem/bandit_single","AVD6HMIO1HLFI","gain","4","","74","J","1","","1","0","0","0.4064604032","","false","101","0.1731032509","","main_expt","0.4064604032","","0.2622165861","","0.03387094668","","","","","","",""
"4","","bandit","177","542206","0.0-139.0-0.0","46133396","wem/bandit_single","AVD6HMIO1HLFI","gain","4","","74","J","1","","0","0","1","0.4273413635","","false","102","0.1387116465","","main_expt","0.4273413635","","0.3261799811","","0.0235124197","","","","","","",""
"173","","bandit","178","544303","0.0-140.0-0.0","46133396","wem/bandit_single","AVD6HMIO1HLFI","gain","4","","74","J","1","","0","0","1","0.4566487837","","false","103","0.1880660303","","main_expt","0.4566487837","","0.334814711","","0.02482610326","","","","","","",""
"21","","bandit","179","546234","0.0-141.0-0.0","46133396","wem/bandit_single","AVD6HMIO1HLFI","gain","4","","74","J","1","","0","0","1","0.459539636","","false","104","0.142060421","","main_expt","0.459539636","","0.3486298313","","0.03330094042","","","","","","",""
"114","","bandit","180","548175","0.0-142.0-0.0","46133396","wem/bandit_single","AVD6HMIO1HLFI","gain","4","","75","K","2","","0","0","1","0.3538911629","","false","105","0.1839839798","","main_expt","0.4462881264","","0.3538911629","","0.06543537915","","","","","","",""
"4","","bandit","181","550048","0.0-143.0-0.0","46133396","wem/bandit_single","AVD6HMIO1HLFI","gain","4","","75","K","2","","0","0","1","0.3886974852","","false","106","0.1691947451","","main_expt","0.4417011126","","0.3886974852","","0.07051160025","","","","","","",""
"785","","bandit","182","552614","0.0-144.0-0.0","46133396","wem/bandit_single","AVD6HMIO1HLFI","gain","4","","76","L","3","","1","0","0","0.08830456602","","false","107","0.180010917","","main_expt","0.4419194373","","0.3489433712","","0.08830456602","","","","","","",""
"357","","bandit","183","554759","0.0-145.0-0.0","46133396","wem/bandit_single","AVD6HMIO1HLFI","gain","4","","76","L","3","","0","0","1","0.05921849724","","false","108","0.1338722415","","main_expt","0.4061848383","","0.3901728218","","0.05921849724","","","","","","",""
"276","","bandit","184","556836","0.0-146.0-0.0","46133396","wem/bandit_single","AVD6HMIO1HLFI","gain","4","","76","L","3","","0","0","1","0.04581125366","","false","109","0.1350853679","","main_expt","0.3906669636","","0.4006799949","","0.04581125366","","","","","","",""
"31","","bandit","185","558677","0.0-147.0-0.0","46133396","wem/bandit_single","AVD6HMIO1HLFI","gain","4","","75","K","2","","0","0","1","0.3867714499","","false","110","0.184551263","","main_expt","0.3969614195","","0.3867714499","","0.08345510588","","","","","","",""
"221","","bandit","186","560692","0.0-148.0-0.0","46133396","wem/bandit_single","AVD6HMIO1HLFI","gain","4","","76","L","3","","0","0","1","0.07355878572","","false","111","0.2635344293","","main_expt","0.370186674","","0.4252141842","","0.07355878572","","","","","","",""
"269","","bandit","187","562754","0.0-149.0-0.0","46133396","wem/bandit_single","AVD6HMIO1HLFI","gain","4","","74","J","1","","0","0","1","0.3488043283","","false","112","0.2972025743","","main_expt","0.3488043283","","0.4197282726","","0.09226575929","","","","","","",""
"167","","bandit","188","564733","0.0-150.0-0.0","46133396","wem/bandit_single","AVD6HMIO1HLFI","gain","4","","72","H","0","img/none_selected.jpg","1","0","0","0.2853398636","","false","113","0.2853398636","","main_expt","0.2886117592","","0.4371411526","","0.07711661396","","","","","","",""
"354","","bandit","189","566890","0.0-151.0-0.0","46133396","wem/bandit_single","AVD6HMIO1HLFI","gain","4","","72","H","0","img/none_selected.jpg","1","0","0","0.2354235092","","false","114","0.2354235092","","main_expt","0.3507025671","","0.4523407119","","0.09366406151","","","","","","",""
"7","","bandit","190","568972","0.0-152.0-0.0","46133396","wem/bandit_single","AVD6HMIO1HLFI","gain","4","","72","H","0","img/none_selected.jpg","1","0","0","0.2228923984","","false","115","0.2228923984","","main_expt","0.3308051733","","0.4544977282","","0.09297781317","","","","","","",""
"216","","bandit","191","571185","0.0-153.0-0.0","46133396","wem/bandit_single","AVD6HMIO1HLFI","gain","4","","72","H","0","img/none_selected.jpg","0","0","1","0.182615248","","false","116","0.182615248","","main_expt","0.2696902145","","0.4458191396","","0.09292735615","","","","","","",""
"92","","bandit","192","573261","0.0-154.0-0.0","46133396","wem/bandit_single","AVD6HMIO1HLFI","gain","4","","72","H","0","img/none_selected.jpg","0","0","1","0.1702457594","","false","117","0.1702457594","","main_expt","0.3048340551","","0.4384124693","","0.1277349031","","","","","","",""
"53","","bandit","193","575134","0.0-155.0-0.0","46133396","wem/bandit_single","AVD6HMIO1HLFI","gain","4","","72","H","0","img/none_selected.jpg","0","0","1","0.2075823826","","false","118","0.2075823826","","main_expt","0.2682044258","","0.4590850855","","0.1057820856","","","","","","",""
"28","","bandit","194","577106","0.0-156.0-0.0","46133396","wem/bandit_single","AVD6HMIO1HLFI","gain","4","","72","H","0","img/none_selected.jpg","0","0","1","0.2281388084","","false","119","0.2281388084","","main_expt","0.2314514612","","0.4718937063","","0.08453932314","","","","","","",""
"125","","bandit","195","579023","0.0-157.0-0.0","46133396","wem/bandit_single","AVD6HMIO1HLFI","gain","4","","72","H","0","img/none_selected.jpg","0","0","1","0.2620651535","","false","120","0.2620651535","","main_expt","0.197474053","","0.4645470247","","0.1106897037","","","","","","",""
"283","","bandit","196","581114","0.0-158.0-0.0","46133396","wem/bandit_single","AVD6HMIO1HLFI","gain","4","","74","J","1","","1","0","0","0.1819521248","","false","121","0.2953433235","","main_expt","0.1819521248","","0.4422277234","","0.1200625234","","","","","","",""
"87","","bandit","197","582991","0.0-159.0-0.0","46133396","wem/bandit_single","AVD6HMIO1HLFI","gain","4","","74","J","1","","0","0","1","0.171732915","","false","122","0.2702367277","","main_expt","0.171732915","","0.4150525319","","0.1570760405","","","","","","",""
"1","","bandit","198","584893","0.0-160.0-0.0","46133396","wem/bandit_single","AVD6HMIO1HLFI","gain","4","","74","J","1","","0","0","1","0.1577660673","","false","123","0.3190818872","","main_expt","0.1577660673","","0.4356762379","","0.1616024906","","","","","","",""
"4","","bandit","199","586793","0.0-161.0-0.0","46133396","wem/bandit_single","AVD6HMIO1HLFI","gain","4","","75","K","2","","0","0","1","0.4475351861","","false","124","0.3415455108","","main_expt","0.1384195938","","0.4475351861","","0.1371750093","","","","","","",""
"42","","bandit","200","588658","0.0-162.0-0.0","46133396","wem/bandit_single","AVD6HMIO1HLFI","gain","4","","76","L","3","","0","0","1","0.1293707667","","false","125","0.3955313072","","main_expt","0.1367208018","","0.4310995666","","0.1293707667","","","","","","",""
"499","","bandit","201","591311","0.0-163.0-0.0","46133396","wem/bandit_single","AVD6HMIO1HLFI","gain","4","","72","H","0","img/none_selected.jpg","1","0","0","0.4150522509","","false","126","0.4150522509","","main_expt","0.14570125","","0.4246911586","","0.1231453761","","","","","","",""
"51","","bandit","202","593161","0.0-164.0-0.0","46133396","wem/bandit_single","AVD6HMIO1HLFI","gain","4","","72","H","0","img/none_selected.jpg","1","0","0","0.3803228979","","false","127","0.3803228979","","main_expt","0.116128816","","0.3855858577","","0.1044431599","","","","","","",""
"100","","bandit","203","595317","0.0-165.0-0.0","46133396","wem/bandit_single","AVD6HMIO1HLFI","gain","4","","72","H","0","img/none_selected.jpg","1","0","0","0.4028097642","","false","128","0.4028097642","","main_expt","0.1118736017","","0.3886900275","","0.07509994275","","","","","","",""
"4","","bandit","204","597225","0.0-166.0-0.0","46133396","wem/bandit_single","AVD6HMIO1HLFI","gain","4","","72","H","0","img/none_selected.jpg","0","0","1","0.3759087187","","false","129","0.3759087187","","main_expt","0.1153634536","","0.3712880315","","0.07499531951","","","","","","",""
"127","","bandit","205","599163","0.0-167.0-0.0","46133396","wem/bandit_single","AVD6HMIO1HLFI","gain","4","","74","J","1","","1","0","0","0.09323577747","","false","130","0.3578404683","","main_expt","0.09323577747","","0.3163545042","","0.06898381409","","","","","","",""
"245","","bandit","206","601255","0.0-168.0-0.0","46133396","wem/bandit_single","AVD6HMIO1HLFI","gain","4","","74","J","1","","0","0","1","0.1064947735","","false","131","0.3874222675","","main_expt","0.1064947735","","0.3203759455","","0.08255272978","","","","","","",""
"21","","bandit","207","603257","0.0-169.0-0.0","46133396","wem/bandit_single","AVD6HMIO1HLFI","gain","4","","75","K","2","","0","0","1","0.3128419263","","false","132","0.3773694481","","main_expt","0.1574274544","","0.3128419263","","0.06266196304","","","","","","",""
"5","","bandit","208","605057","0.0-170.0-0.0","46133396","wem/bandit_single","AVD6HMIO1HLFI","gain","4","","76","L","3","","0","0","1","0.06584579886","","false","133","0.3961249281","","main_expt","0.1613106331","","0.3057041938","","0.06584579886","","","","","","",""
"4","","bandit","209","606863","0.0-171.0-0.0","46133396","wem/bandit_single","AVD6HMIO1HLFI","gain","4","","74","J","1","","0","0","1","0.1660744508","","false","134","0.4152923946","","main_expt","0.1660744508","","0.2816585421","","0.05935363428","","","","","","",""
"166","","bandit","210","608871","0.0-172.0-0.0","46133396","wem/bandit_single","AVD6HMIO1HLFI","gain","4","","72","H","0","img/none_selected.jpg","1","0","0","0.4424865849","","false","135","0.4424865849","","main_expt","0.1973964499","","0.2955422992","","0.05732645975","","","","","","",""
"1","","bandit","211","611038","0.0-173.0-0.0","46133396","wem/bandit_single","AVD6HMIO1HLFI","gain","4","","72","H","0","img/none_selected.jpg","0","0","1","0.4465543098","","false","136","0.4465543098","","main_expt","0.1813196928","","0.3509846551","","0.07342087183","","","","","","",""
"81","","bandit","212","613170","0.0-174.0-0.0","46133396","wem/bandit_single","AVD6HMIO1HLFI","gain","4","","72","H","0","img/none_selected.jpg","0","0","1","0.4520996047","","false","137","0.4520996047","","main_expt","0.1859539446","","0.3344410146","","0.07676045657","","","","","","",""
"121","","bandit","213","615215","0.0-175.0-0.0","46133396","wem/bandit_single","AVD6HMIO1HLFI","gain","4","","74","J","1","","1","0","0","0.1014888705","","false","138","0.428300575","","main_expt","0.1014888705","","0.2657268636","","0.09127868582","","","","","","",""
"543","","bandit","214","617559","0.0-176.0-0.0","46133396","wem/bandit_single","AVD6HMIO1HLFI","gain","4","","74","J","1","","0","0","1","0.09034098631","","false","139","0.419833238","","main_expt","0.09034098631","","0.2267955479","","0.1057771966","","","","","","",""
"40","","bandit","215","619409","0.0-177.0-0.0","46133396","wem/bandit_single","AVD6HMIO1HLFI","gain","4","","74","J","1","","0","0","1","0.09102227313","","false","140","0.423721229","","main_expt","0.09102227313","","0.2278141127","","0.1134354218","","","","","","",""
"83","","bandit","216","621324","0.0-178.0-0.0","46133396","wem/bandit_single","AVD6HMIO1HLFI","gain","4","","75","K","2","","0","0","1","0.23653477","","false","141","0.4382479885","","main_expt","0.1095349378","","0.23653477","","0.1205694848","","","","","","",""
"68","","bandit","217","623183","0.0-179.0-0.0","46133396","wem/bandit_single","AVD6HMIO1HLFI","gain","4","","76","L","3","","0","0","1","0.1423721259","","false","142","0.4247465964","","main_expt","0.1184068784","","0.2155890047","","0.1423721259","","","","","","",""
"54","","bandit","218","625221","0.0-180.0-0.0","46133396","wem/bandit_single","AVD6HMIO1HLFI","gain","4","","76","L","3","","0","0","1","0.1199770031","","false","143","0.3978340057","","main_expt","0.1056920569","","0.2203428631","","0.1199770031","","","","","","",""
"2","","bandit","219","627212","0.0-181.0-0.0","46133396","wem/bandit_single","AVD6HMIO1HLFI","gain","4","","75","K","2","","1","0","0","0.1834171178","","false","144","0.4094639435","","main_expt","0.1563123998","","0.1834171178","","0.1431068991","","","","","","",""
"529","","bandit","220","629631","0.0-182.0-0.0","46133396","wem/bandit_single","AVD6HMIO1HLFI","gain","4","","75","K","2","","0","0","1","0.2064693802","","false","145","0.4198905501","","main_expt","0.09088636348","","0.2064693802","","0.1630017245","","","","","","",""
"373","","bandit","221","631889","0.0-183.0-0.0","46133396","wem/bandit_single","AVD6HMIO1HLFI","gain","4","","75","K","2","","0","0","1","0.1342941172","","false","146","0.4050886303","","main_expt","0.0827806059","","0.1342941172","","0.145034553","","","","","","",""
"36","","bandit","222","633761","0.0-184.0-0.0","46133396","wem/bandit_single","AVD6HMIO1HLFI","gain","4","","74","J","1","","0","0","1","0.1149215639","","false","147","0.3785891444","","main_expt","0.1149215639","","0.1515740161","","0.1488017726","","","","","","",""
"56","","bandit","223","635616","0.0-185.0-0.0","46133396","wem/bandit_single","AVD6HMIO1HLFI","gain","4","","72","H","0","img/none_selected.jpg","0","0","1","0.3854511928","","false","148","0.3854511928","","main_expt","0.1099148444","","0.1212747878","","0.1582677895","","","","","","",""
"4","","bandit","224","637447","0.0-186.0-0.0","46133396","wem/bandit_single","AVD6HMIO1HLFI","gain","4","","72","H","0","img/none_selected.jpg","0","0","1","0.3928641012","","false","149","0.3928641012","","main_expt","0.1127327795","","0.08453377975","","0.1647072654","","","","","","",""
"30","","bandit","225","639271","0.0-187.0-0.0","46133396","wem/bandit_single","AVD6HMIO1HLFI","gain","4","","74","J","1","","0","0","1","0.1477728786","","false","150","0.3981420368","","main_expt","0.1477728786","","0.1060211344","","0.1333243968","","","","","","",""
"34","","bandit","226","641121","0.0-188.0-0.0","46133396","wem/bandit_single","AVD6HMIO1HLFI","gain","4","","75","K","2","","0","0","1","0.06473992137","","false","151","0.3954234158","","main_expt","0.1634569086","","0.06473992137","","0.1232516149","","","","","","",""
"8","","bandit","227","643095","0.0-189.0-0.0","46133396","wem/bandit_single","AVD6HMIO1HLFI","gain","4","","76","L","3","","0","0","1","0.1218764731","","false","152","0.3684376671","","main_expt","0.2119786212","","0.07847139908","","0.1218764731","","","","","","",""
"54","","bandit","228","644942","0.0-190.0-0.0","46133396","wem/bandit_single","AVD6HMIO1HLFI","gain","4","","76","L","3","","0","0","1","0.1181944444","","false","153","0.3586265296","","main_expt","0.190815194","","0.06170083269","","0.1181944444","","","","","","",""
"8","","bandit","229","647030","0.0-191.0-0.0","46133396","wem/bandit_single","AVD6HMIO1HLFI","gain","4","","72","H","0","img/none_selected.jpg","0","0","1","0.3711835277","","false","154","0.3711835277","","main_expt","0.2539230859","","0.07752027139","","0.1524072167","","","","","","",""
"229","","bandit","230","649220","0.0-192.0-0.0","46133396","wem/bandit_single","AVD6HMIO1HLFI","gain","4","","72","H","0","img/none_selected.jpg","0","0","1","0.3296220366","","false","155","0.3296220366","","main_expt","0.2214647723","","0.07430376846","","0.2181316645","","","","","","",""
"194","","bandit","231","651307","0.0-193.0-0.0","46133396","wem/bandit_single","AVD6HMIO1HLFI","gain","4","","74","J","1","","0","0","1","0.1812397975","","false","156","0.287903252","","main_expt","0.1812397975","","0.05925504694","","0.213475765","","","","","","",""
"126","","bandit","232","653223","0.0-194.0-0.0","46133396","wem/bandit_single","AVD6HMIO1HLFI","gain","4","","74","J","1","","0","0","1","0.1447548225","","false","157","0.296290929","","main_expt","0.1447548225","","0.0737155059","","0.2264995707","","","","","","",""
"59","","bandit","233","655237","0.0-195.0-0.0","46133396","wem/bandit_single","AVD6HMIO1HLFI","gain","4","","75","K","2","","0","0","1","0.05755321342","","false","158","0.2721348168","","main_expt","0.1458137519","","0.05755321342","","0.2991482761","","","","","","",""
"165","","bandit","234","657294","0.0-196.0-0.0","46133396","wem/bandit_single","AVD6HMIO1HLFI","gain","4","","75","K","2","","0","0","1","0.1007830752","","false","159","0.2765185667","","main_expt","0.1035755389","","0.1007830752","","0.3365391658","","","","","","",""
"75","","bandit","235","659242","0.0-197.0-0.0","46133396","wem/bandit_single","AVD6HMIO1HLFI","gain","4","","76","L","3","","0","0","1","0.313402929","","false","160","0.3162688162","","main_expt","0.1142027444","","0.06149362121","","0.313402929","","","","","","",""
"153","","bandit","236","661305","0.0-198.0-0.0","46133396","wem/bandit_single","AVD6HMIO1HLFI","gain","4","","76","L","3","","0","0","1","0.3529908654","","false","161","0.3302336848","","main_expt","0.1510988582","","0.09516109007","","0.3529908654","","","","","","",""
"28","","bandit","237","663282","0.0-199.0-0.0","46133396","wem/bandit_single","AVD6HMIO1HLFI","gain","4","","72","H","0","img/none_selected.jpg","0","0","1","0.3622896815","","false","162","0.3622896815","","main_expt","0.1720124831","","0.08429007215","","0.3608295961","","","","","","",""
"5","","bandit","238","665093","0.0-200.0-0.0","46133396","wem/bandit_single","AVD6HMIO1HLFI","gain","4","","74","J","1","","0","0","1","0.2119433459","","false","163","0.3696580379","","main_expt","0.2119433459","","0.1199893575","","0.4197284319","","","","","","",""
"8","","bandit","239","666900","0.0-201.0-0.0","46133396","wem/bandit_single","AVD6HMIO1HLFI","gain","4","","75","K","2","","0","0","1","0.1353867718","","false","164","0.3217553384","","main_expt","0.2413639604","","0.1353867718","","0.4162507976","","","","","","",""
"112","","bandit","240","668865","0.0-202.0-0.0","46133396","wem/bandit_single","AVD6HMIO1HLFI","gain","4","","76","L","3","","0","0","1","0.424344073","","false","165","0.2370356752","","main_expt","0.3231443763","","0.08700720397","","0.424344073","","","","","","",""
"13","","bandit","241","670963","0.0-203.0-0.0","46133396","wem/bandit_single","AVD6HMIO1HLFI","gain","4","","72","H","0","img/none_selected.jpg","1","0","0","0.1952619304","","false","166","0.1952619304","","main_expt","0.2907209657","","0.09613155095","","0.4385436022","","","","","","",""
"224","","bandit","242","673234","0.0-204.0-0.0","46133396","wem/bandit_single","AVD6HMIO1HLFI","gain","4","","72","H","0","img/none_selected.jpg","0","0","1","0.2008635704","","false","167","0.2008635704","","main_expt","0.2386263765","","0.08740230362","","0.4428370211","","","","","","",""
"438","","bandit","243","675472","0.0-205.0-0.0","46133396","wem/bandit_single","AVD6HMIO1HLFI","gain","4","","72","H","0","img/none_selected.jpg","0","0","1","0.2872582577","","false","168","0.2872582577","","main_expt","0.2802872421","","0.1033010443","","0.4475632301","","","","","","",""
"8","","bandit","244","677455","0.0-206.0-0.0","46133396","wem/bandit_single","AVD6HMIO1HLFI","gain","4","","72","H","0","img/none_selected.jpg","0","0","1","0.2478638945","","false","169","0.2478638945","","main_expt","0.2858578204","","0.1288835215","","0.4358894507","","","","","","",""
"120","","bandit","245","679448","0.0-207.0-0.0","46133396","wem/bandit_single","AVD6HMIO1HLFI","gain","4","","74","J","1","","0","0","1","0.3542119366","","false","170","0.2335785199","","main_expt","0.3542119366","","0.0821831217","","0.4401344765","","","","","","",""
"110","","bandit","246","681368","0.0-208.0-0.0","46133396","wem/bandit_single","AVD6HMIO1HLFI","gain","4","","75","K","2","","0","0","1","0.08448133796","","false","171","0.263029084","","main_expt","0.363516632","","0.08448133796","","0.4182824287","","","","","","",""
"21","","bandit","247","683191","0.0-209.0-0.0","46133396","wem/bandit_single","AVD6HMIO1HLFI","gain","4","","76","L","3","","0","0","1","0.4206293302","","false","172","0.282237019","","main_expt","0.3285232471","","0.1142172702","","0.4206293302","","","","","","",""
"227","","bandit","248","685425","0.0-210.0-0.0","46133396","wem/bandit_single","AVD6HMIO1HLFI","gain","4","","74","J","1","","0","0","1","0.3379934215","","false","173","0.2798091978","","main_expt","0.3379934215","","0.1585219493","","0.4424673434","","","","","","",""
"4","","bandit","249","687332","0.0-211.0-0.0","46133396","wem/bandit_single","AVD6HMIO1HLFI","gain","4","","75","K","2","","0","0","1","0.2167008269","","false","174","0.2782342077","","main_expt","0.2937018888","","0.2167008269","","0.4470793942","","","","","","",""
"124","","bandit","250","689264","0.0-212.0-0.0","46133396","wem/bandit_single","AVD6HMIO1HLFI","gain","4","","76","L","3","","1","0","0","0.4466152725","","false","175","0.3095951925","","main_expt","0.2691073907","","0.2564405216","","0.4466152725","","","","","","",""
"4","","bandit","251","691304","0.0-213.0-0.0","46133396","wem/bandit_single","AVD6HMIO1HLFI","gain","4","","76","L","3","","0","0","1","0.4622816701","","false","176","0.3149167583","","main_expt","0.2797966768","","0.2740916264","","0.4622816701","","","","","","",""
"102","","bandit","252","693276","0.0-214.0-0.0","46133396","wem/bandit_single","AVD6HMIO1HLFI","gain","4","","76","L","3","","0","0","1","0.4791174255","","false","177","0.3057016371","","main_expt","0.2956207272","","0.2701885048","","0.4791174255","","","","","","",""
"387","","bandit","253","695477","0.0-215.0-0.0","46133396","wem/bandit_single","AVD6HMIO1HLFI","gain","4","","72","H","0","img/none_selected.jpg","0","0","1","0.2973749651","","false","178","0.2973749651","","main_expt","0.2903749226","","0.2525299603","","0.4878404122","","","","","","",""
"598","","bandit","254","697905","0.0-216.0-0.0","46133396","wem/bandit_single","AVD6HMIO1HLFI","gain","4","","74","J","1","","0","0","1","0.2324022499","","false","179","0.3205080684","","main_expt","0.2324022499","","0.2923151224","","0.4871204803","","","","","","",""
"47","","bandit","255","699751","0.0-217.0-0.0","46133396","wem/bandit_single","AVD6HMIO1HLFI","gain","4","","75","K","2","","0","0","1","0.2712435876","","false","180","0.3668921479","","main_expt","0.157369965","","0.2712435876","","0.4783768728","","","","","","",""
"86","","bandit","256","701675","0.0-218.0-0.0","46133396","wem/bandit_single","AVD6HMIO1HLFI","gain","4","","76","L","3","","1","0","0","0.4791844977","","false","181","0.36743573","","main_expt","0.1928111427","","0.2911825171","","0.4791844977","","","","","","",""
"59","","bandit","257","703564","0.0-219.0-0.0","46133396","wem/bandit_single","AVD6HMIO1HLFI","gain","4","","76","L","3","","0","0","1","0.4796326775","","false","182","0.3444330154","","main_expt","0.1831473083","","0.2812290194","","0.4796326775","","","","","","",""
"124","","bandit","258","705498","0.0-220.0-0.0","46133396","wem/bandit_single","AVD6HMIO1HLFI","gain","4","","76","L","3","","1","0","0","0.4610412729","","false","183","0.376594699","","main_expt","0.1367876881","","0.2998653002","","0.4610412729","","","","","","",""
"3","","bandit","259","707336","0.0-221.0-0.0","46133396","wem/bandit_single","AVD6HMIO1HLFI","gain","4","","76","L","3","","1","0","0","0.4654872089","","false","184","0.3576767422","","main_expt","0.1225312115","","0.3019566185","","0.4654872089","","","","","","",""
"35","","bandit","260","709243","0.0-222.0-0.0","46133396","wem/bandit_single","AVD6HMIO1HLFI","gain","4","","76","L","3","","0","0","1","0.4579605539","","false","185","0.3420219295","","main_expt","0.1342014861","","0.3297019868","","0.4579605539","","","","","","",""
"41","","bandit","261","711195","0.0-223.0-0.0","46133396","wem/bandit_single","AVD6HMIO1HLFI","gain","4","","76","L","3","","1","0","0","0.4285966985","","false","186","0.3398722127","","main_expt","0.1302900424","","0.3522504082","","0.4285966985","","","","","","",""
"453","","bandit","262","713470","0.0-224.0-0.0","46133396","wem/bandit_single","AVD6HMIO1HLFI","gain","4","","76","L","3","","1","0","0","0.4348535533","","false","187","0.3329123812","","main_expt","0.1721475048","","0.3716798598","","0.4348535533","","","","","","",""
"145","","bandit","263","715419","0.0-225.0-0.0","46133396","wem/bandit_single","AVD6HMIO1HLFI","gain","4","","76","L","3","","1","0","0","0.4485299143","","false","188","0.3185375489","","main_expt","0.194848396","","0.3516931858","","0.4485299143","","","","","","",""
"87","","bandit","264","717441","0.0-226.0-0.0","46133396","wem/bandit_single","AVD6HMIO1HLFI","gain","4","","76","L","3","","0","0","1","0.4108460603","","false","189","0.2819885058","","main_expt","0.2010474049","","0.311825216","","0.4108460603","","","","","","",""
"475","","bandit","265","719715","0.0-227.0-0.0","46133396","wem/bandit_single","AVD6HMIO1HLFI","gain","4","","76","L","3","","1","0","0","0.4276881046","","false","190","0.2938453289","","main_expt","0.2388592571","","0.3228194114","","0.4276881046","","","","","","",""
"299","","bandit","266","721818","0.0-228.0-0.0","46133396","wem/bandit_single","AVD6HMIO1HLFI","gain","4","","76","L","3","","1","0","0","0.4252680513","","false","191","0.3252392313","","main_expt","0.2125939305","","0.3070679034","","0.4252680513","","","","","","",""
"63","","bandit","267","723683","0.0-229.0-0.0","46133396","wem/bandit_single","AVD6HMIO1HLFI","gain","4","","76","L","3","","1","0","0","0.4128843357","","false","192","0.2886148476","","main_expt","0.2494953747","","0.3224985291","","0.4128843357","","","","","","",""
"70","","bandit","268","725650","0.0-230.0-0.0","46133396","wem/bandit_single","AVD6HMIO1HLFI","gain","4","","76","L","3","","1","0","0","0.3935422506","","false","193","0.2985788169","","main_expt","0.2831479201","","0.3869795439","","0.3935422506","","","","","","",""
"89","","bandit","269","727549","0.0-231.0-0.0","46133396","wem/bandit_single","AVD6HMIO1HLFI","gain","4","","76","L","3","","0","0","1","0.3844836544","","false","194","0.2480640489","","main_expt","0.3119862296","","0.4012627402","","0.3844836544","","","","","","",""
"1","","bandit","270","729364","0.0-232.0-0.0","46133396","wem/bandit_single","AVD6HMIO1HLFI","gain","4","","76","L","3","","0","0","1","0.3676726872","","false","195","0.2512767584","","main_expt","0.3216729489","","0.3984750166","","0.3676726872","","","","","","",""
"119","","bandit","271","731269","0.0-233.0-0.0","46133396","wem/bandit_single","AVD6HMIO1HLFI","gain","4","","76","L","3","","0","0","1","0.3789354293","","false","196","0.2465093633","","main_expt","0.3321806914","","0.354698241","","0.3789354293","","","","","","",""
"10","","bandit","272","733318","0.0-234.0-0.0","46133396","wem/bandit_single","AVD6HMIO1HLFI","gain","4","","76","L","3","","0","0","1","0.3163718389","","false","197","0.2064088789","","main_expt","0.3046277309","","0.388220233","","0.3163718389","","","","","","",""
"5","","bandit","273","735284","0.0-235.0-0.0","46133396","wem/bandit_single","AVD6HMIO1HLFI","gain","4","","72","H","0","img/none_selected.jpg","0","0","1","0.1991167995","","false","198","0.1991167995","","main_expt","0.2780350238","","0.3702696144","","0.3791854339","","","","","","",""
"117","","bandit","274","737198","0.0-236.0-0.0","46133396","wem/bandit_single","AVD6HMIO1HLFI","gain","4","","74","J","1","","1","0","0","0.2933352516","","false","199","0.217931059","","main_expt","0.2933352516","","0.3901406761","","0.3677616307","","","","","","",""
"121","","bandit","275","739244","0.0-237.0-0.0","46133396","wem/bandit_single","AVD6HMIO1HLFI","gain","4","","74","J","1","","0","0","1","0.2826656477","","false","200","0.1684289921","","main_expt","0.2826656477","","0.3606677237","","0.3696360463","","","","","","",""
"60","","bandit","276","741248","0.0-238.0-0.0","46133396","wem/bandit_single","AVD6HMIO1HLFI","gain","4","","74","J","1","","1","0","0","0.2337361703","","false","201","0.1526494416","","main_expt","0.2337361703","","0.3608273241","","0.3685313937","","","","","","",""
"1","","bandit","277","743095","0.0-239.0-0.0","46133396","wem/bandit_single","AVD6HMIO1HLFI","gain","4","","74","J","1","","0","0","1","0.1697000529","","false","202","0.1474087426","","main_expt","0.1697000529","","0.3495453025","","0.354480527","","","","","","",""
"57","","bandit","278","745135","0.0-240.0-0.0","46133396","wem/bandit_single","AVD6HMIO1HLFI","gain","4","","74","J","1","","0","0","1","0.1941246875","","false","203","0.1499100939","","main_expt","0.1941246875","","0.3660628182","","0.3420940801","","","","","","",""
"103","","bandit","279","747027","0.0-241.0-0.0","46133396","wem/bandit_single","AVD6HMIO1HLFI","gain","4","","74","J","1","","1","0","0","0.2006574904","","false","204","0.173155318","","main_expt","0.2006574904","","0.337040125","","0.3365711719","","","","","","",""
"1","","bandit","280","749126","0.0-242.0-0.0","46133396","wem/bandit_single","AVD6HMIO1HLFI","gain","4","","74","J","1","","0","0","1","0.1905393187","","false","205","0.1813441082","","main_expt","0.1905393187","","0.303371863","","0.3517226909","","","","","","",""
"135","","bandit","281","751196","0.0-243.0-0.0","46133396","wem/bandit_single","AVD6HMIO1HLFI","gain","4","","74","J","1","","0","0","1","0.1715448013","","false","206","0.1491413167","","main_expt","0.1715448013","","0.256221391","","0.3476038752","","","","","","",""
"86","","bandit","282","753255","0.0-244.0-0.0","46133396","wem/bandit_single","AVD6HMIO1HLFI","gain","4","","75","K","2","","0","0","1","0.2368802791","","false","207","0.08847738283","","main_expt","0.1857981004","","0.2368802791","","0.3349551135","","","","","","",""
"551","","bandit","283","755595","0.0-245.0-0.0","46133396","wem/bandit_single","AVD6HMIO1HLFI","gain","4","","76","L","3","","1","0","0","0.342580335","","false","208","0.1283817583","","main_expt","0.2102455122","","0.1949321076","","0.342580335","","","","","","",""
"44","","bandit","284","757470","0.0-246.0-0.0","46133396","wem/bandit_single","AVD6HMIO1HLFI","gain","4","","76","L","3","","1","0","0","0.3043768385","","false","209","0.116273769","","main_expt","0.2400108979","","0.1838736563","","0.3043768385","","","","","","",""
"39","","bandit","285","759367","0.0-247.0-0.0","46133396","wem/bandit_single","AVD6HMIO1HLFI","gain","4","","76","L","3","","0","0","1","0.2578785415","","false","210","0.1255054793","","main_expt","0.2756077388","","0.2021797606","","0.2578785415","","","","","","",""
"80","","bandit","286","761252","0.0-248.0-0.0","46133396","wem/bandit_single","AVD6HMIO1HLFI","gain","4","","76","L","3","","0","0","1","0.2684152162","","false","211","0.1183517879","","main_expt","0.2509099491","","0.1724183734","","0.2684152162","","","","","","",""
"41","","bandit","287","763260","0.0-249.0-0.0","46133396","wem/bandit_single","AVD6HMIO1HLFI","gain","4","","76","L","3","","1","0","0","0.2734791169","","false","212","0.05794836862","","main_expt","0.1980821896","","0.1730984207","","0.2734791169","","","","","","",""
"39","","bandit","288","765335","0.0-250.0-0.0","46133396","wem/bandit_single","AVD6HMIO1HLFI","gain","4","","76","L","3","","0","0","1","0.2278558496","","false","213","0.05975327623","","main_expt","0.1925164192","","0.1324166562","","0.2278558496","","","","","","",""
"39","","bandit","289","767182","0.0-251.0-0.0","46133396","wem/bandit_single","AVD6HMIO1HLFI","gain","4","","76","L","3","","0","0","1","0.3028606466","","false","214","0.08438277685","","main_expt","0.2265747235","","0.1503769339","","0.3028606466","","","","","","",""
"112","","bandit","290","769263","0.0-252.0-0.0","46133396","wem/bandit_single","AVD6HMIO1HLFI","gain","4","","76","L","3","","0","0","1","0.2931323275","","false","215","0.06249742642","","main_expt","0.2019374621","","0.1957560139","","0.2931323275","","","","","","",""
"120","","bandit","291","771204","0.0-253.0-0.0","46133396","wem/bandit_single","AVD6HMIO1HLFI","gain","4","","76","L","3","","0","0","1","0.3496422565","","false","216","0.03962767808","","main_expt","0.1789305456","","0.2405167914","","0.3496422565","","","","","","",""
"119","","bandit","292","773132","0.0-254.0-0.0","46133396","wem/bandit_single","AVD6HMIO1HLFI","gain","4","","72","H","0","img/none_selected.jpg","0","0","1","0.04234009702","","false","217","0.04234009702","","main_expt","0.1749198907","","0.1730494568","","0.3773047798","","","","","","",""
"4","","bandit","293","775151","0.0-255.0-0.0","46133396","wem/bandit_single","AVD6HMIO1HLFI","gain","4","","74","J","1","","0","0","1","0.1735363699","","false","218","0.03503126556","","main_expt","0.1735363699","","0.194438436","","0.3416605923","","","","","","",""
"211","","bandit","294","777261","0.0-256.0-0.0","46133396","wem/bandit_single","AVD6HMIO1HLFI","gain","4","","75","K","2","","0","0","1","0.1883779435","","false","219","0.04555228435","","main_expt","0.2007391453","","0.1883779435","","0.3559276739","","","","","","",""
"4","","bandit","295","779052","0.0-257.0-0.0","46133396","wem/bandit_single","AVD6HMIO1HLFI","gain","4","","74","J","1","","0","0","1","0.2082644318","","false","220","0.03183460319","","main_expt","0.2082644318","","0.146052069","","0.3535435837","","","","","","",""
"3","","bandit","296","781135","0.0-258.0-0.0","46133396","wem/bandit_single","AVD6HMIO1HLFI","gain","4","","75","K","2","","0","0","1","0.1494285134","","false","221","0.05071015327","","main_expt","0.1821586712","","0.1494285134","","0.3418709783","","","","","","",""
"142","","bandit","297","783084","0.0-259.0-0.0","46133396","wem/bandit_single","AVD6HMIO1HLFI","gain","4","","76","L","3","","0","0","1","0.3004905908","","false","222","0.04027023507","","main_expt","0.2158533928","","0.182387278","","0.3004905908","","","","","","",""
"1","","bandit","298","785141","0.0-260.0-0.0","46133396","wem/bandit_single","AVD6HMIO1HLFI","gain","4","","76","L","3","","0","0","1","0.3691689592","","false","223","0.05247893246","","main_expt","0.1832968935","","0.198140534","","0.3691689592","","","","","","",""
"6","","bandit","299","787198","0.0-261.0-0.0","46133396","wem/bandit_single","AVD6HMIO1HLFI","gain","4","","74","J","1","","0","0","1","0.1701073256","","false","224","0.06352932029","","main_expt","0.1701073256","","0.1957066115","","0.2915556832","","","","","","",""
"54","","bandit","300","789254","0.0-262.0-0.0","46133396","wem/bandit_single","AVD6HMIO1HLFI","gain","4","","72","H","0","img/none_selected.jpg","0","0","1","0.04388745626","","false","225","0.04388745626","","main_expt","0.1599508429","","0.2132826896","","0.3175642321","","","","","","",""
"68","","bandit","301","791124","0.0-263.0-0.0","46133396","wem/bandit_single","AVD6HMIO1HLFI","gain","4","","75","K","2","","0","0","1","0.2679811769","","false","226","0.0536624769","","main_expt","0.1801289829","","0.2679811769","","0.2803716623","","","","","","",""
"5","","bandit","302","793141","0.0-264.0-0.0","46133396","wem/bandit_single","AVD6HMIO1HLFI","gain","4","","72","H","0","img/none_selected.jpg","0","0","1","0.07211167966","","false","227","0.07211167966","","main_expt","0.1920788888","","0.2101601544","","0.2506224893","","","","","","",""
"75","","bandit","303","795205","0.0-265.0-0.0","46133396","wem/bandit_single","AVD6HMIO1HLFI","gain","4","","74","J","1","","0","0","1","0.1540575712","","false","228","0.04486621846","","main_expt","0.1540575712","","0.1808571688","","0.2890404278","","","","","","",""
"98","","bandit","304","797102","0.0-266.0-0.0","46133396","wem/bandit_single","AVD6HMIO1HLFI","gain","4","","75","K","2","","1","0","0","0.1132309001","","false","229","0.05387953984","","main_expt","0.161449161","","0.1132309001","","0.2746035793","","","","","","",""
"18","","bandit","305","799152","0.0-267.0-0.0","46133396","wem/bandit_single","AVD6HMIO1HLFI","gain","4","","75","K","2","","1","0","0","0.1450818377","","false","230","0.03848872117","","main_expt","0.1413021421","","0.1450818377","","0.282726532","","","","","","",""
"41","","bandit","306","800989","0.0-268.0-0.0","46133396","wem/bandit_single","AVD6HMIO1HLFI","gain","4","","75","K","2","","0","0","1","0.1077137685","","false","231","0.04669383004","","main_expt","0.1745796094","","0.1077137685","","0.3472256411","","","","","","",""
"113","","bandit","307","803068","0.0-269.0-0.0","46133396","wem/bandit_single","AVD6HMIO1HLFI","gain","4","","75","K","2","","1","0","0","0.06427161289","","false","232","0.03395804074","","main_expt","0.1680880834","","0.06427161289","","0.3994934702","","","","","","",""
"44","","bandit","308","804984","0.0-270.0-0.0","46133396","wem/bandit_single","AVD6HMIO1HLFI","gain","4","","75","K","2","","0","0","1","0.1060089469","","false","233","0.05150109453","","main_expt","0.213250795","","0.1060089469","","0.4029083043","","","","","","",""
"18","","bandit","309","806794","0.0-271.0-0.0","46133396","wem/bandit_single","AVD6HMIO1HLFI","gain","4","","75","K","2","","0","0","1","0.1117154146","","false","234","0.06099663442","","main_expt","0.221091899","","0.1117154146","","0.4486287737","","","","","","",""
"34","","bandit","310","808715","0.0-272.0-0.0","46133396","wem/bandit_single","AVD6HMIO1HLFI","gain","4","","75","K","2","","0","0","1","0.1276115887","","false","235","0.05202127711","","main_expt","0.2688923835","","0.1276115887","","0.4561120354","","","","","","",""
"90","","bandit","311","810596","0.0-273.0-0.0","46133396","wem/bandit_single","AVD6HMIO1HLFI","gain","4","","76","L","3","","1","0","0","0.4375102443","","false","236","0.07001303924","","main_expt","0.2323123402","","0.1786916187","","0.4375102443","","","","","","",""
"1","","bandit","312","812621","0.0-274.0-0.0","46133396","wem/bandit_single","AVD6HMIO1HLFI","gain","4","","76","L","3","","0","0","1","0.4582573195","","false","237","0.07602679398","","main_expt","0.174764536","","0.1896980961","","0.4582573195","","","","","","",""
"9","","bandit","313","814664","0.0-275.0-0.0","46133396","wem/bandit_single","AVD6HMIO1HLFI","gain","4","","76","L","3","","0","0","1","0.4463811869","","false","238","0.08775462142","","main_expt","0.1654919337","","0.2205101014","","0.4463811869","","","","","","",""
"61","","bandit","314","816530","0.0-276.0-0.0","46133396","wem/bandit_single","AVD6HMIO1HLFI","gain","4","","75","K","2","","0","0","1","0.2661717939","","false","239","0.06721086637","","main_expt","0.2402574844","","0.2661717939","","0.4507479662","","","","","","",""
"80","","bandit","315","818414","0.0-277.0-0.0","46133396","wem/bandit_single","AVD6HMIO1HLFI","gain","4","","75","K","2","","1","0","0","0.1972661282","","false","240","0.07433064979","","main_expt","0.2445968751","","0.1972661282","","0.4504038859","","","","","","",""
"6","","bandit","316","820322","0.0-278.0-0.0","46133396","wem/bandit_single","AVD6HMIO1HLFI","gain","4","","75","K","2","","0","0","1","0.1868253343","","false","241","0.08919714094","","main_expt","0.2708632627","","0.1868253343","","0.4346931185","","","","","","",""
"102","","bandit","317","822301","0.0-279.0-0.0","46133396","wem/bandit_single","AVD6HMIO1HLFI","gain","4","","74","J","1","","0","0","1","0.2047807489","","false","242","0.06159770715","","main_expt","0.2047807489","","0.1649449253","","0.3898892773","","","","","","",""
"119","","bandit","318","824301","0.0-280.0-0.0","46133396","wem/bandit_single","AVD6HMIO1HLFI","gain","4","","74","J","1","","0","0","1","0.222122474","","false","243","0.05299296545","","main_expt","0.222122474","","0.184368772","","0.4033463229","","","","","","",""
"6","","bandit","319","826359","0.0-281.0-0.0","46133396","wem/bandit_single","AVD6HMIO1HLFI","gain","4","","72","H","0","img/none_selected.jpg","0","0","1","0.06275569833","","false","244","0.06275569833","","main_expt","0.2425992204","","0.2121467569","","0.4096532456","","","","","","",""
"101","","bandit","320","828281","0.0-282.0-0.0","46133396","wem/bandit_single","AVD6HMIO1HLFI","gain","4","","72","H","0","img/none_selected.jpg","0","0","1","0.06673215917","","false","245","0.06673215917","","main_expt","0.2173978931","","0.1894702338","","0.3779527256","","","","","","",""
"53","","bandit","321","830209","0.0-283.0-0.0","46133396","wem/bandit_single","AVD6HMIO1HLFI","gain","4","","72","H","0","img/none_selected.jpg","0","0","1","0.06500670021","","false","246","0.06500670021","","main_expt","0.2218069129","","0.2018459735","","0.3953318503","","","","","","",""
"11","","bandit","322","832266","0.0-284.0-0.0","46133396","wem/bandit_single","AVD6HMIO1HLFI","gain","4","","74","J","1","","1","0","0","0.1888628326","","false","247","0.07271559664","","main_expt","0.1888628326","","0.1986179994","","0.4287890539","","","","","","",""
"159","","bandit","323","834271","0.0-285.0-0.0","46133396","wem/bandit_single","AVD6HMIO1HLFI","gain","4","","74","J","1","","0","0","1","0.1722509531","","false","248","0.09654775784","","main_expt","0.1722509531","","0.1299779064","","0.4104310255","","","","","","",""
"18","","bandit","324","836162","0.0-286.0-0.0","46133396","wem/bandit_single","AVD6HMIO1HLFI","gain","4","","74","J","1","","0","0","1","0.2541205998","","false","249","0.1179039307","","main_expt","0.2541205998","","0.1590650881","","0.4116337798","","","","","","",""
"56","","bandit","325","838050","0.0-287.0-0.0","46133396","wem/bandit_single","AVD6HMIO1HLFI","gain","4","","75","K","2","","0","0","1","0.1213614167","","false","250","0.1265890049","","main_expt","0.2664885101","","0.1213614167","","0.426505214","","","","","","",""
"145","","bandit","326","839987","0.0-288.0-0.0","46133396","wem/bandit_single","AVD6HMIO1HLFI","gain","4","","76","L","3","","1","0","0","0.3949293487","","false","251","0.1039398773","","main_expt","0.2519669898","","0.1099334476","","0.3949293487","","","","","","",""
"18","","bandit","327","841835","0.0-289.0-0.0","46133396","wem/bandit_single","AVD6HMIO1HLFI","gain","4","","76","L","3","","1","0","0","0.3913077142","","false","252","0.107940897","","main_expt","0.2932098873","","0.1087011898","","0.3913077142","","","","","","",""
"125","","bandit","328","843980","0.0-290.0-0.0","46133396","wem/bandit_single","AVD6HMIO1HLFI","gain","4","","76","L","3","","0","0","1","0.3648650894","","false","253","0.1136461566","","main_expt","0.3179249839","","0.09397011719","","0.3648650894","","","","","","",""
"107","","bandit","329","845883","0.0-291.0-0.0","46133396","wem/bandit_single","AVD6HMIO1HLFI","gain","4","","76","L","3","","1","0","0","0.3452883024","","false","254","0.1374631792","","main_expt","0.2908620441","","0.08474648857","","0.3452883024","","","","","","",""
"0","","bandit","330","847797","0.0-292.0-0.0","46133396","wem/bandit_single","AVD6HMIO1HLFI","gain","4","","76","L","3","","1","0","0","0.2943306686","","false","255","0.1453945637","","main_expt","0.3067265453","","0.1025854271","","0.2943306686","","","","","","",""
"13","","bandit","331","849633","0.0-293.0-0.0","46133396","wem/bandit_single","AVD6HMIO1HLFI","gain","4","","76","L","3","","0","0","1","0.3225000795","","false","256","0.1543600678","","main_expt","0.3133222149","","0.08686152536","","0.3225000795","","","","","","",""
"2","","bandit","332","851504","0.0-294.0-0.0","46133396","wem/bandit_single","AVD6HMIO1HLFI","gain","4","","76","L","3","","1","0","0","0.3199750271","","false","257","0.107160473","","main_expt","0.3194106209","","0.08667022303","","0.3199750271","","","","","","",""
"132","","bandit","333","853489","0.0-295.0-0.0","46133396","wem/bandit_single","AVD6HMIO1HLFI","gain","4","","76","L","3","","1","0","0","0.355105101","","false","258","0.0567043194","","main_expt","0.35032938","","0.1158580788","","0.355105101","","","","","","",""
"41","","bandit","334","855342","0.0-296.0-0.0","46133396","wem/bandit_single","AVD6HMIO1HLFI","gain","4","","76","L","3","","1","0","0","0.3566572827","","false","259","0.05418204449","","main_expt","0.3856615787","","0.08241329339","","0.3566572827","","","","","","",""
"4","","bandit","335","857174","0.0-297.0-0.0","46133396","wem/bandit_single","AVD6HMIO1HLFI","gain","4","","76","L","3","","1","0","0","0.3492833521","","false","260","0.0423658587","","main_expt","0.3977147975","","0.09346186364","","0.3492833521","","","","","","",""
"100","","bandit","336","859263","0.0-298.0-0.0","46133396","wem/bandit_single","AVD6HMIO1HLFI","gain","4","","76","L","3","","0","0","1","0.3406934897","","false","261","0.08097208102","","main_expt","0.4011116255","","0.07434745577","","0.3406934897","","","","","","",""
"88","","bandit","337","861335","0.0-299.0-0.0","46133396","wem/bandit_single","AVD6HMIO1HLFI","gain","4","","76","L","3","","1","0","0","0.3604065233","","false","262","0.05731993864","","main_expt","0.4149706566","","0.1177047137","","0.3604065233","","","","","","",""
"79","","bandit","338","863207","0.0-300.0-0.0","46133396","wem/bandit_single","AVD6HMIO1HLFI","gain","4","","76","L","3","","0","0","1","0.3584147688","","false","263","0.07314079116","","main_expt","0.4476629791","","0.09530987449","","0.3584147688","","","","","","",""
"132","","bandit","339","865304","0.0-301.0-0.0","46133396","wem/bandit_single","AVD6HMIO1HLFI","gain","4","","76","L","3","","0","0","1","0.3723043834","","false","264","0.08382102311","","main_expt","0.4640453953","","0.07595610255","","0.3723043834","","","","","","",""
"2","","bandit","340","867246","0.0-302.0-0.0","46133396","wem/bandit_single","AVD6HMIO1HLFI","gain","4","","76","L","3","","0","0","1","0.316280577","","false","265","0.1065624759","","main_expt","0.4465377191","","0.08850347459","","0.316280577","","","","","","",""
"23","","bandit","341","869082","0.0-303.0-0.0","46133396","wem/bandit_single","AVD6HMIO1HLFI","gain","4","","72","H","0","img/none_selected.jpg","0","0","1","0.1253885588","","false","266","0.1253885588","","main_expt","0.4183068553","","0.1215706641","","0.269287162","","","","","","",""
"143","","bandit","342","871251","0.0-304.0-0.0","46133396","wem/bandit_single","AVD6HMIO1HLFI","gain","4","","74","J","1","","1","0","0","0.4268145795","","false","267","0.09016252172","","main_expt","0.4268145795","","0.1841144129","","0.2280314931","","","","","","",""
"113","","bandit","343","873295","0.0-305.0-0.0","46133396","wem/bandit_single","AVD6HMIO1HLFI","gain","4","","74","J","1","","0","0","1","0.4319202891","","false","268","0.08700052181","","main_expt","0.4319202891","","0.1409141681","","0.2243604643","","","","","","",""
"31","","bandit","344","875176","0.0-306.0-0.0","46133396","wem/bandit_single","AVD6HMIO1HLFI","gain","4","","74","J","1","","0","0","1","0.4493038861","","false","269","0.09500676271","","main_expt","0.4493038861","","0.1011197226","","0.2334807581","","","","","","",""
"123","","bandit","345","877260","0.0-307.0-0.0","46133396","wem/bandit_single","AVD6HMIO1HLFI","gain","4","","74","J","1","","0","0","1","0.443059266","","false","270","0.07607499825","","main_expt","0.443059266","","0.118556502","","0.2376518603","","","","","","",""
"82","","bandit","346","879257","0.0-308.0-0.0","46133396","wem/bandit_single","AVD6HMIO1HLFI","gain","4","","75","K","2","","1","0","0","0.131750931","","false","271","0.08946946819","","main_expt","0.4362671961","","0.131750931","","0.2139372972","","","","","","",""
"159","","bandit","347","881215","0.0-309.0-0.0","46133396","wem/bandit_single","AVD6HMIO1HLFI","gain","4","","75","K","2","","1","0","0","0.174678733","","false","272","0.108288805","","main_expt","0.4452199348","","0.174678733","","0.157688628","","","","","","",""
"5","","bandit","348","883206","0.0-310.0-0.0","46133396","wem/bandit_single","AVD6HMIO1HLFI","gain","4","","75","K","2","","0","0","1","0.1730415972","","false","273","0.105491008","","main_expt","0.454652927","","0.1730415972","","0.271098703","","","","","","",""
"105","","bandit","349","885303","0.0-311.0-0.0","46133396","wem/bandit_single","AVD6HMIO1HLFI","gain","4","","75","K","2","","0","0","1","0.1520576313","","false","274","0.1059149547","","main_expt","0.4646374989","","0.1520576313","","0.2778056479","","","","","","",""
"28","","bandit","350","887120","0.0-312.0-0.0","46133396","wem/bandit_single","AVD6HMIO1HLFI","gain","4","","75","K","2","","1","0","0","0.1007060326","","false","275","0.09894283875","","main_expt","0.4535579815","","0.1007060326","","0.2698457611","","","","","","",""
"6","","bandit","351","888942","0.0-313.0-0.0","46133396","wem/bandit_single","AVD6HMIO1HLFI","gain","4","","75","K","2","","0","0","1","0.08844777519","","false","276","0.07695295732","","main_expt","0.4319407295","","0.08844777519","","0.2774836338","","","","","","",""
"5","","bandit","352","890797","0.0-314.0-0.0","46133396","wem/bandit_single","AVD6HMIO1HLFI","gain","4","","76","L","3","","0","0","1","0.3222794015","","false","277","0.0896712608","","main_expt","0.4475260374","","0.1315613084","","0.3222794015","","","","","","",""
"1","","bandit","353","892972","0.0-315.0-0.0","46133396","wem/bandit_single","AVD6HMIO1HLFI","gain","4","","75","K","2","","0","0","1","0.1508492864","","false","278","0.1343695578","","main_expt","0.4553849104","","0.1508492864","","0.3122447371","","","","","","",""
"169","","bandit","354","894959","0.0-316.0-0.0","46133396","wem/bandit_single","AVD6HMIO1HLFI","gain","4","","74","J","1","","0","0","1","0.4621871954","","false","279","0.1106050404","","main_expt","0.4621871954","","0.1181182825","","0.2934764685","","","","","","",""
"164","","bandit","355","896930","0.0-317.0-0.0","46133396","wem/bandit_single","AVD6HMIO1HLFI","gain","4","","72","H","0","img/none_selected.jpg","0","0","1","0.114105974","","false","280","0.114105974","","main_expt","0.4482597109","","0.1244803533","","0.290984208","","","","","","",""
"6","","bandit","356","899120","0.0-318.0-0.0","46133396","wem/bandit_single","AVD6HMIO1HLFI","gain","4","","74","J","1","","0","0","1","0.4347423019","","false","281","0.1246337516","","main_expt","0.4347423019","","0.105821284","","0.2974260948","","","","","","",""
"133","","bandit","357","901236","0.0-319.0-0.0","46133396","wem/bandit_single","AVD6HMIO1HLFI","gain","4","","72","H","0","img/none_selected.jpg","0","0","1","0.079988156","","false","282","0.079988156","","main_expt","0.4583393623","","0.1562468179","","0.2972171025","","","","","","",""
"21","","bandit","358","903055","0.0-320.0-0.0","46133396","wem/bandit_single","AVD6HMIO1HLFI","gain","4","","75","K","2","","0","0","1","0.1478322318","","false","283","0.06901380195","","main_expt","0.4497532375","","0.1478322318","","0.2821487798","","","","","","",""
"97","","bandit","359","905191","0.0-321.0-0.0","46133396","wem/bandit_single","AVD6HMIO1HLFI","gain","4","","76","L","3","","0","0","1","0.2739939459","","false","284","0.05901051183","","main_expt","0.4312811421","","0.1371678423","","0.2739939459","","","","","","",""
"64","","bandit","360","907279","0.0-322.0-0.0","46133396","wem/bandit_single","AVD6HMIO1HLFI","gain","4","","72","H","0","img/none_selected.jpg","0","0","1","0.1126944794","","false","285","0.1126944794","","main_expt","0.4599346403","","0.12762277","","0.2251097973","","","","","","",""
"181","","bandit","361","909334","0.0-323.0-0.0","46133396","wem/bandit_single","AVD6HMIO1HLFI","gain","4","","74","J","1","","0","0","1","0.4588450488","","false","286","0.09646131279","","main_expt","0.4588450488","","0.1587978561","","0.2124690726","","","","","","",""
"58","","bandit","362","911184","0.0-324.0-0.0","46133396","wem/bandit_single","AVD6HMIO1HLFI","gain","4","","75","K","2","","0","0","1","0.1262084743","","false","287","0.0795853072","","main_expt","0.4684539465","","0.1262084743","","0.2311163105","","","","","","",""
"164","","bandit","363","913271","0.0-325.0-0.0","46133396","wem/bandit_single","AVD6HMIO1HLFI","gain","4","","76","L","3","","0","0","1","0.2178761709","","false","288","0.07210460151","","main_expt","0.4555823871","","0.08849331384","","0.2178761709","","","","","","",""
"46","","bandit","364","915340","0.0-326.0-0.0","46133396","wem/bandit_single","AVD6HMIO1HLFI","gain","4","","72","H","0","img/none_selected.jpg","1","0","0","0.08807043944","","false","289","0.08807043944","","main_expt","0.4779982095","","0.1082793638","","0.2656120211","","","","","","",""
"7","","bandit","365","917213","0.0-327.0-0.0","46133396","wem/bandit_single","AVD6HMIO1HLFI","gain","4","","72","H","0","img/none_selected.jpg","0","0","1","0.09097769709","","false","290","0.09097769709","","main_expt","0.4806691972","","0.1591187351","","0.2756957417","","","","","","",""
"107","","bandit","366","919307","0.0-328.0-0.0","46133396","wem/bandit_single","AVD6HMIO1HLFI","gain","4","","74","J","1","","0","0","1","0.4856322508","","false","291","0.1486720085","","main_expt","0.4856322508","","0.1766493085","","0.3111580235","","","","","","",""
"164","","bandit","367","921330","0.0-329.0-0.0","46133396","wem/bandit_single","AVD6HMIO1HLFI","gain","4","","72","H","0","img/none_selected.jpg","0","0","1","0.166368556","","false","292","0.166368556","","main_expt","0.4905538215","","0.1303677554","","0.3019137931","","","","","","",""
"26","","bandit","368","923175","0.0-330.0-0.0","46133396","wem/bandit_single","AVD6HMIO1HLFI","gain","4","","75","K","2","","1","0","0","0.1553518032","","false","293","0.1516979355","","main_expt","0.4915741327","","0.1553518032","","0.2930542664","","","","","","",""
"3","","bandit","369","925221","0.0-331.0-0.0","46133396","wem/bandit_single","AVD6HMIO1HLFI","gain","4","","75","K","2","","0","0","1","0.1586445557","","false","294","0.142642289","","main_expt","0.4854109815","","0.1586445557","","0.294566814","","","","","","",""
"160","","bandit","370","927362","0.0-332.0-0.0","46133396","wem/bandit_single","AVD6HMIO1HLFI","gain","4","","75","K","2","","0","0","1","0.1474370852","","false","295","0.1038045902","","main_expt","0.4737464351","","0.1474370852","","0.2590601899","","","","","","",""
"40","","bandit","371","929208","0.0-333.0-0.0","46133396","wem/bandit_single","AVD6HMIO1HLFI","gain","4","","76","L","3","","0","0","1","0.260130188","","false","296","0.1055366566","","main_expt","0.4752126994","","0.1281429101","","0.260130188","","","","","","",""
"30","","bandit","372","931163","0.0-334.0-0.0","46133396","wem/bandit_single","AVD6HMIO1HLFI","gain","4","","75","K","2","","0","0","1","0.1486346553","","false","297","0.07292146603","","main_expt","0.47087989","","0.1486346553","","0.243487995","","","","","","",""
"23","","bandit","373","933203","0.0-335.0-0.0","46133396","wem/bandit_single","AVD6HMIO1HLFI","gain","4","","76","L","3","","0","0","1","0.2746908113","","false","298","0.07361350609","","main_expt","0.454436629","","0.154412059","","0.2746908113","","","","","","",""
"6","","bandit","374","934999","0.0-336.0-0.0","46133396","wem/bandit_single","AVD6HMIO1HLFI","gain","4","","74","J","1","","1","0","0","0.4553067608","","false","299","0.06838735966","","main_expt","0.4553067608","","0.1773434797","","0.2709745525","","","","","","",""
