"rt","responses","trial_type","trial_index","time_elapsed","internal_node_id","subjID","study","MID","cond","drift","key_press","respCharCode","respKey","respChoiceNum","respChoice","gems","bombs","no_reward","GemPrChosen","BombPrChosen","practice","trial_counter","WinPr_0","LosePr_0","trial_label","WinPr_1","LosePr_1","WinPr_2","LosePr_2","WinPr_3","LosePr_3","Q0","Q1","Q2","gender","age","ethnicity"
"3207","{""Q0"":""A21SIPO89DP66I""}","survey-text","0","3221","0.0-0.0","46860864","wem/bandit_single","A21SIPO89DP66I","gain","7","","","","","","","","","","","","","","","","","","","","","","","","","","",""
"1020","","text","1","5263","0.0-1.0","46860864","wem/bandit_single","A21SIPO89DP66I","gain","7","32","","","","","","","","","","","","","","","","","","","","","","","","","",""
"3613","","text","2","8879","0.0-2.0","46860864","wem/bandit_single","A21SIPO89DP66I","gain","7","32","","","","","","","","","","","","","","","","","","","","","","","","","",""
"16530","","text","3","25414","0.0-3.0","46860864","wem/bandit_single","A21SIPO89DP66I","gain","7","32","","","","","","","","","","","","","","","","","","","","","","","","","",""
"12220","","text","4","37638","0.0-4.0","46860864","wem/bandit_single","A21SIPO89DP66I","gain","7","32","","","","","","","","","","","","","","","","","","","","","","","","","",""
"7793","","text","5","45437","0.0-5.0","46860864","wem/bandit_single","A21SIPO89DP66I","gain","7","32","","","","","","","","","","","","","","","","","","","","","","","","","",""
"3197","","text","6","48642","0.0-6.0","46860864","wem/bandit_single","A21SIPO89DP66I","gain","7","32","","","","","","","","","","","","","","","","","","","","","","","","","",""
"2365","","text","7","51013","0.0-7.0","46860864","wem/bandit_single","A21SIPO89DP66I","gain","7","32","","","","","","","","","","","","","","","","","","","","","","","","","",""
"1452","","text","8","52469","0.0-8.0","46860864","wem/bandit_single","A21SIPO89DP66I","gain","7","32","","","","","","","","","","","","","","","","","","","","","","","","","",""
"1480","","text","9","53953","0.0-9.0","46860864","wem/bandit_single","A21SIPO89DP66I","gain","7","32","","","","","","","","","","","","","","","","","","","","","","","","","",""
"2020","","text","10","55978","0.0-10.0","46860864","wem/bandit_single","A21SIPO89DP66I","gain","7","32","","","","","","","","","","","","","","","","","","","","","","","","","",""
"5315","","text","11","61299","0.0-11.0","46860864","wem/bandit_single","A21SIPO89DP66I","gain","7","32","","","","","","","","","","","","","","","","","","","","","","","","","",""
"817","","bandit","12","63643","0.0-12.0-0.0","46860864","wem/bandit_single","A21SIPO89DP66I","gain","7","","74","J","0","img/none_selected_demo.jpg","0","0","1","0","0","true","0","0","0","","","","","","","","","","","","",""
"554","","bandit","13","65986","0.0-13.0-0.0","46860864","wem/bandit_single","A21SIPO89DP66I","gain","7","","75","K","0","img/none_selected_demo.jpg","0","0","1","0","0","true","0","0","0","","","","","","","","","","","","",""
"1641","","text","14","67884","0.0-14.0","46860864","wem/bandit_single","A21SIPO89DP66I","gain","7","32","","","","","","","","","","","","","","","","","","","","","","","","","",""
"1041","","text","15","68930","0.0-15.0","46860864","wem/bandit_single","A21SIPO89DP66I","gain","7","32","","","","","","","","","","","","","","","","","","","","","","","","","",""
"2598","","text","16","71533","0.0-16.0","46860864","wem/bandit_single","A21SIPO89DP66I","gain","7","32","","","","","","","","","","","","","","","","","","","","","","","","","",""
"1491","","text","17","73028","0.0-17.0","46860864","wem/bandit_single","A21SIPO89DP66I","gain","7","32","","","","","","","","","","","","","","","","","","","","","","","","","",""
"1558","","bandit","18","76125","0.0-18.0-0.0","46860864","wem/bandit_single","A21SIPO89DP66I","gain","7","","74","J","0","img/none_selected_demo.jpg","0","0","1","0.8","0","true","0","0.8","0","80_20_practice","0.2","0","","","","","","","","","",""
"462","","bandit","19","78383","0.0-18.0-1.0","46860864","wem/bandit_single","A21SIPO89DP66I","gain","7","","74","J","0","img/none_selected_demo.jpg","1","0","0","0.8","0","true","0","0.8","0","80_20_practice","0.2","0","","","","","","","","","",""
"182","","bandit","20","80360","0.0-18.0-2.0","46860864","wem/bandit_single","A21SIPO89DP66I","gain","7","","74","J","0","img/none_selected_demo.jpg","1","0","0","0.8","0","true","0","0.8","0","80_20_practice","0.2","0","","","","","","","","","",""
"78","","bandit","21","82210","0.0-18.0-3.0","46860864","wem/bandit_single","A21SIPO89DP66I","gain","7","","74","J","0","img/none_selected_demo.jpg","1","0","0","0.8","0","true","0","0.8","0","80_20_practice","0.2","0","","","","","","","","","",""
"13","","bandit","22","84000","0.0-18.0-4.0","46860864","wem/bandit_single","A21SIPO89DP66I","gain","7","","74","J","0","img/none_selected_demo.jpg","1","0","0","0.8","0","true","0","0.8","0","80_20_practice","0.2","0","","","","","","","","","",""
"4135","","bandit","23","89921","0.0-18.0-5.0","46860864","wem/bandit_single","A21SIPO89DP66I","gain","7","","74","J","0","img/none_selected_demo.jpg","1","0","0","0.8","0","true","0","0.8","0","80_20_practice","0.2","0","","","","","","","","","",""
"808","","bandit","24","92515","0.0-18.0-6.0","46860864","wem/bandit_single","A21SIPO89DP66I","gain","7","","74","J","0","img/none_selected_demo.jpg","1","0","0","0.8","0","true","0","0.8","0","80_20_practice","0.2","0","","","","","","","","","",""
"70","","bandit","25","94360","0.0-18.0-7.0","46860864","wem/bandit_single","A21SIPO89DP66I","gain","7","","74","J","0","img/none_selected_demo.jpg","0","0","1","0.8","0","true","0","0.8","0","80_20_practice","0.2","0","","","","","","","","","",""
"831","","bandit","26","96991","0.0-18.0-8.0","46860864","wem/bandit_single","A21SIPO89DP66I","gain","7","","74","J","0","img/none_selected_demo.jpg","1","0","0","0.8","0","true","0","0.8","0","80_20_practice","0.2","0","","","","","","","","","",""
"32","","bandit","27","98802","0.0-18.0-9.0","46860864","wem/bandit_single","A21SIPO89DP66I","gain","7","","74","J","0","img/none_selected_demo.jpg","1","0","0","0.8","0","true","0","0.8","0","80_20_practice","0.2","0","","","","","","","","","",""
"3259","","bandit","28","103847","0.0-18.0-10.0","46860864","wem/bandit_single","A21SIPO89DP66I","gain","7","","74","J","0","img/none_selected_demo.jpg","1","0","0","0.8","0","true","0","0.8","0","80_20_practice","0.2","0","","","","","","","","","",""
"133","","bandit","29","105756","0.0-18.0-11.0","46860864","wem/bandit_single","A21SIPO89DP66I","gain","7","","74","J","0","img/none_selected_demo.jpg","1","0","0","0.8","0","true","0","0.8","0","80_20_practice","0.2","0","","","","","","","","","",""
"64","","bandit","30","107605","0.0-18.0-12.0","46860864","wem/bandit_single","A21SIPO89DP66I","gain","7","","74","J","0","img/none_selected_demo.jpg","1","0","0","0.8","0","true","0","0.8","0","80_20_practice","0.2","0","","","","","","","","","",""
"15","","bandit","31","109386","0.0-18.0-13.0","46860864","wem/bandit_single","A21SIPO89DP66I","gain","7","","74","J","0","img/none_selected_demo.jpg","1","0","0","0.8","0","true","0","0.8","0","80_20_practice","0.2","0","","","","","","","","","",""
"16","","bandit","32","111182","0.0-18.0-14.0","46860864","wem/bandit_single","A21SIPO89DP66I","gain","7","","74","J","0","img/none_selected_demo.jpg","1","0","0","0.8","0","true","0","0.8","0","80_20_practice","0.2","0","","","","","","","","","",""
"13","","bandit","33","112979","0.0-18.0-15.0","46860864","wem/bandit_single","A21SIPO89DP66I","gain","7","","74","J","0","img/none_selected_demo.jpg","0","0","1","0.8","0","true","0","0.8","0","80_20_practice","0.2","0","","","","","","","","","",""
"698","","bandit","34","115454","0.0-18.0-16.0","46860864","wem/bandit_single","A21SIPO89DP66I","gain","7","","74","J","0","img/none_selected_demo.jpg","1","0","0","0.8","0","true","0","0.8","0","80_20_practice","0.2","0","","","","","","","","","",""
"71","","bandit","35","117305","0.0-18.0-17.0","46860864","wem/bandit_single","A21SIPO89DP66I","gain","7","","74","J","0","img/none_selected_demo.jpg","1","0","0","0.8","0","true","0","0.8","0","80_20_practice","0.2","0","","","","","","","","","",""
"105","","bandit","36","119216","0.0-18.0-18.0","46860864","wem/bandit_single","A21SIPO89DP66I","gain","7","","75","K","1","","0","0","1","0.2","0","true","0","0.8","0","80_20_practice","0.2","0","","","","","","","","","",""
"420","","bandit","37","121418","0.0-18.0-19.0","46860864","wem/bandit_single","A21SIPO89DP66I","gain","7","","75","K","1","","0","0","1","0.2","0","true","0","0.8","0","80_20_practice","0.2","0","","","","","","","","","",""
"2846","","text","38","124536","0.0-19.0","46860864","wem/bandit_single","A21SIPO89DP66I","gain","7","32","","","","","","","","","","","","","","","","","","","","","","","","","",""
"871","","bandit","39","126935","0.0-20.0-0.0","46860864","wem/bandit_single","A21SIPO89DP66I","gain","7","","74","J","0","img/none_selected_demo.jpg","0","0","1","0","0","true","0","0","0","","0","0","","","","","","","","","",""
"2625","","text","40","129833","0.0-21.0","46860864","wem/bandit_single","A21SIPO89DP66I","gain","7","32","","","","","","","","","","","","","","","","","","","","","","","","","",""
"5405","","text","41","135245","0.0-22.0","46860864","wem/bandit_single","A21SIPO89DP66I","gain","7","32","","","","","","","","","","","","","","","","","","","","","","","","","",""
"2223","","text","42","137473","0.0-23.0","46860864","wem/bandit_single","A21SIPO89DP66I","gain","7","32","","","","","","","","","","","","","","","","","","","","","","","","","",""
"1798","","text","43","139275","0.0-24.0","46860864","wem/bandit_single","A21SIPO89DP66I","gain","7","32","","","","","","","","","","","","","","","","","","","","","","","","","",""
"1195","","text","44","140476","0.0-25.0","46860864","wem/bandit_single","A21SIPO89DP66I","gain","7","32","","","","","","","","","","","","","","","","","","","","","","","","","",""
"716","","text","45","141196","0.0-26.0","46860864","wem/bandit_single","A21SIPO89DP66I","gain","7","32","","","","","","","","","","","","","","","","","","","","","","","","","",""
"1315","","text","46","142517","0.0-27.0","46860864","wem/bandit_single","A21SIPO89DP66I","gain","7","32","","","","","","","","","","","","","","","","","","","","","","","","","",""
"3637","","text","47","146158","0.0-28.0","46860864","wem/bandit_single","A21SIPO89DP66I","gain","7","32","","","","","","","","","","","","","","","","","","","","","","","","","",""
"3288","","text","48","149453","0.0-29.0","46860864","wem/bandit_single","A21SIPO89DP66I","gain","7","32","","","","","","","","","","","","","","","","","","","","","","","","","",""
"1888","","text","49","151347","0.0-30.0","46860864","wem/bandit_single","A21SIPO89DP66I","gain","7","32","","","","","","","","","","","","","","","","","","","","","","","","","",""
"3741","","text","50","155094","0.0-31.0","46860864","wem/bandit_single","A21SIPO89DP66I","gain","7","32","","","","","","","","","","","","","","","","","","","","","","","","","",""
"572","","bandit","51","157203","0.0-32.0-0.0","46860864","wem/bandit_single","A21SIPO89DP66I","gain","7","","72","H","0","img/none_selected.jpg","0","0","1","0.8","0","true","0","0.8","0","full_practice","0.2","0","0.6","0","0.2","0","","","","","",""
"10","","bandit","52","158988","0.0-32.0-1.0","46860864","wem/bandit_single","A21SIPO89DP66I","gain","7","","72","H","0","img/none_selected.jpg","1","0","0","0.8","0","true","0","0.8","0","full_practice","0.2","0","0.6","0","0.2","0","","","","","",""
"22","","bandit","53","160791","0.0-32.0-2.0","46860864","wem/bandit_single","A21SIPO89DP66I","gain","7","","72","H","0","img/none_selected.jpg","1","0","0","0.8","0","true","0","0.8","0","full_practice","0.2","0","0.6","0","0.2","0","","","","","",""
"326","","bandit","54","162912","0.0-32.0-3.0","46860864","wem/bandit_single","A21SIPO89DP66I","gain","7","","72","H","0","img/none_selected.jpg","0","0","1","0.8","0","true","0","0.8","0","full_practice","0.2","0","0.6","0","0.2","0","","","","","",""
"442","","bandit","55","165127","0.0-32.0-4.0","46860864","wem/bandit_single","A21SIPO89DP66I","gain","7","","74","J","1","","0","0","1","0.2","0","true","0","0.8","0","full_practice","0.2","0","0.6","0","0.2","0","","","","","",""
"81","","bandit","56","166998","0.0-32.0-5.0","46860864","wem/bandit_single","A21SIPO89DP66I","gain","7","","74","J","1","","0","0","1","0.2","0","true","0","0.8","0","full_practice","0.2","0","0.6","0","0.2","0","","","","","",""
"441","","bandit","57","169222","0.0-32.0-6.0","46860864","wem/bandit_single","A21SIPO89DP66I","gain","7","","74","J","1","","1","0","0","0.2","0","true","0","0.8","0","full_practice","0.2","0","0.6","0","0.2","0","","","","","",""
"41","","bandit","58","171043","0.0-32.0-7.0","46860864","wem/bandit_single","A21SIPO89DP66I","gain","7","","74","J","1","","0","0","1","0.2","0","true","0","0.8","0","full_practice","0.2","0","0.6","0","0.2","0","","","","","",""
"39","","bandit","59","172876","0.0-32.0-8.0","46860864","wem/bandit_single","A21SIPO89DP66I","gain","7","","75","K","2","","0","0","1","0.6","0","true","0","0.8","0","full_practice","0.2","0","0.6","0","0.2","0","","","","","",""
"31","","bandit","60","174702","0.0-32.0-9.0","46860864","wem/bandit_single","A21SIPO89DP66I","gain","7","","75","K","2","","1","0","0","0.6","0","true","0","0.8","0","full_practice","0.2","0","0.6","0","0.2","0","","","","","",""
"86","","bandit","61","176572","0.0-32.0-10.0","46860864","wem/bandit_single","A21SIPO89DP66I","gain","7","","75","K","2","","0","0","1","0.6","0","true","0","0.8","0","full_practice","0.2","0","0.6","0","0.2","0","","","","","",""
"4","","bandit","62","178364","0.0-32.0-11.0","46860864","wem/bandit_single","A21SIPO89DP66I","gain","7","","75","K","2","","1","0","0","0.6","0","true","0","0.8","0","full_practice","0.2","0","0.6","0","0.2","0","","","","","",""
"16","","bandit","63","180161","0.0-32.0-12.0","46860864","wem/bandit_single","A21SIPO89DP66I","gain","7","","76","L","3","","0","0","1","0.2","0","true","0","0.8","0","full_practice","0.2","0","0.6","0","0.2","0","","","","","",""
"27","","bandit","64","181982","0.0-32.0-13.0","46860864","wem/bandit_single","A21SIPO89DP66I","gain","7","","76","L","3","","0","0","1","0.2","0","true","0","0.8","0","full_practice","0.2","0","0.6","0","0.2","0","","","","","",""
"24","","bandit","65","183791","0.0-32.0-14.0","46860864","wem/bandit_single","A21SIPO89DP66I","gain","7","","76","L","3","","0","0","1","0.2","0","true","0","0.8","0","full_practice","0.2","0","0.6","0","0.2","0","","","","","",""
"2","","bandit","66","185576","0.0-32.0-15.0","46860864","wem/bandit_single","A21SIPO89DP66I","gain","7","","76","L","3","","0","0","1","0.2","0","true","0","0.8","0","full_practice","0.2","0","0.6","0","0.2","0","","","","","",""
"549","","bandit","67","187915","0.0-32.0-16.0","46860864","wem/bandit_single","A21SIPO89DP66I","gain","7","","72","H","0","img/none_selected.jpg","1","0","0","0.8","0","true","0","0.8","0","full_practice","0.2","0","0.6","0","0.2","0","","","","","",""
"3","","bandit","68","189704","0.0-32.0-17.0","46860864","wem/bandit_single","A21SIPO89DP66I","gain","7","","72","H","0","img/none_selected.jpg","0","0","1","0.8","0","true","0","0.8","0","full_practice","0.2","0","0.6","0","0.2","0","","","","","",""
"71","","bandit","69","191581","0.0-32.0-18.0","46860864","wem/bandit_single","A21SIPO89DP66I","gain","7","","72","H","0","img/none_selected.jpg","1","0","0","0.8","0","true","0","0.8","0","full_practice","0.2","0","0.6","0","0.2","0","","","","","",""
"467","","bandit","70","193855","0.0-32.0-19.0","46860864","wem/bandit_single","A21SIPO89DP66I","gain","7","","72","H","0","img/none_selected.jpg","1","0","0","0.8","0","true","0","0.8","0","full_practice","0.2","0","0.6","0","0.2","0","","","","","",""
"1770","","text","71","195901","0.0-33.0","46860864","wem/bandit_single","A21SIPO89DP66I","gain","7","32","","","","","","","","","","","","","","","","","","","","","","","","","",""
"6092","","text","72","203013","0.0-34.0","46860864","wem/bandit_single","A21SIPO89DP66I","gain","7","32","","","","","","","","","","","","","","","","","","","","","","","","","",""
"1437","","text","73","204456","0.0-35.0","46860864","wem/bandit_single","A21SIPO89DP66I","gain","7","32","","","","","","","","","","","","","","","","","","","","","","","","","",""
"496","","text","74","204957","0.0-36.0","46860864","wem/bandit_single","A21SIPO89DP66I","gain","7","32","","","","","","","","","","","","","","","","","","","","","","","","","",""
"359","","text","75","205323","0.0-37.0","46860864","wem/bandit_single","A21SIPO89DP66I","gain","7","32","","","","","","","","","","","","","","","","","","","","","","","","","",""
"841","","bandit","76","207702","0.0-38.0-0.0","46860864","wem/bandit_single","A21SIPO89DP66I","gain","7","","74","J","1","","0","0","1","0.2046929885","","false","1","0.05137684772","","main_expt","0.2046929885","","0.4656663819","","0.182860278","","","","","","",""
"239","","bandit","77","209730","0.0-39.0-0.0","46860864","wem/bandit_single","A21SIPO89DP66I","gain","7","","74","J","1","","0","0","1","0.1903203277","","false","2","0.07150319997","","main_expt","0.1903203277","","0.4696156166","","0.1824128093","","","","","","",""
"139","","bandit","78","211649","0.0-40.0-0.0","46860864","wem/bandit_single","A21SIPO89DP66I","gain","7","","74","J","1","","0","0","1","0.1806567389","","false","3","0.080703679","","main_expt","0.1806567389","","0.477042595","","0.1671989933","","","","","","",""
"12","","bandit","79","213441","0.0-41.0-0.0","46860864","wem/bandit_single","A21SIPO89DP66I","gain","7","","74","J","1","","0","0","1","0.1746643784","","false","4","0.09206073837","","main_expt","0.1746643784","","0.4833388502","","0.1769774761","","","","","","",""
"476","","bandit","80","215696","0.0-42.0-0.0","46860864","wem/bandit_single","A21SIPO89DP66I","gain","7","","74","J","1","","0","0","1","0.1575849224","","false","5","0.09846378213","","main_expt","0.1575849224","","0.4679643189","","0.1847579949","","","","","","",""
"203","","bandit","81","217699","0.0-43.0-0.0","46860864","wem/bandit_single","A21SIPO89DP66I","gain","7","","75","K","2","","0","0","1","0.4728114282","","false","6","0.07982937149","","main_expt","0.1848921601","","0.4728114282","","0.2263389119","","","","","","",""
"7","","bandit","82","219498","0.0-44.0-0.0","46860864","wem/bandit_single","A21SIPO89DP66I","gain","7","","75","K","2","","0","0","1","0.4763129956","","false","7","0.08361087011","","main_expt","0.2090417599","","0.4763129956","","0.233500047","","","","","","",""
"63","","bandit","83","221343","0.0-45.0-0.0","46860864","wem/bandit_single","A21SIPO89DP66I","gain","7","","75","K","2","","1","0","0","0.4605171502","","false","8","0.1210475052","","main_expt","0.2340345007","","0.4605171502","","0.2213385325","","","","","","",""
"94","","bandit","84","223234","0.0-46.0-0.0","46860864","wem/bandit_single","A21SIPO89DP66I","gain","7","","75","K","2","","1","0","0","0.457599345","","false","9","0.1023248189","","main_expt","0.2388832632","","0.457599345","","0.216727727","","","","","","",""
"59","","bandit","85","225097","0.0-47.0-0.0","46860864","wem/bandit_single","A21SIPO89DP66I","gain","7","","75","K","2","","0","0","1","0.4514273669","","false","10","0.1311876697","","main_expt","0.2336568073","","0.4514273669","","0.1757193701","","","","","","",""
"299","","bandit","86","227180","0.0-48.0-0.0","46860864","wem/bandit_single","A21SIPO89DP66I","gain","7","","76","L","3","","0","0","1","0.221687112","","false","11","0.1171839072","","main_expt","0.2682397485","","0.461109344","","0.221687112","","","","","","",""
"6","","bandit","87","228963","0.0-49.0-0.0","46860864","wem/bandit_single","A21SIPO89DP66I","gain","7","","76","L","3","","1","0","0","0.1693148256","","false","12","0.09103905321","","main_expt","0.2855743842","","0.4750360261","","0.1693148256","","","","","","",""
"39","","bandit","88","230782","0.0-50.0-0.0","46860864","wem/bandit_single","A21SIPO89DP66I","gain","7","","76","L","3","","0","0","1","0.1861997022","","false","13","0.08195125901","","main_expt","0.2877368863","","0.4882900813","","0.1861997022","","","","","","",""
"343","","bandit","89","232921","0.0-51.0-0.0","46860864","wem/bandit_single","A21SIPO89DP66I","gain","7","","76","L","3","","0","0","1","0.2056371894","","false","14","0.1022478824","","main_expt","0.2904717711","","0.4836145896","","0.2056371894","","","","","","",""
"21","","bandit","90","234736","0.0-52.0-0.0","46860864","wem/bandit_single","A21SIPO89DP66I","gain","7","","76","L","3","","1","0","0","0.207651467","","false","15","0.1295923723","","main_expt","0.3145527135","","0.4841526839","","0.207651467","","","","","","",""
"128","","bandit","91","236651","0.0-53.0-0.0","46860864","wem/bandit_single","A21SIPO89DP66I","gain","7","","72","H","0","img/none_selected.jpg","0","0","1","0.1259026636","","false","16","0.1259026636","","main_expt","0.2919685568","","0.4733209008","","0.264879833","","","","","","",""
"136","","bandit","92","238587","0.0-54.0-0.0","46860864","wem/bandit_single","A21SIPO89DP66I","gain","7","","72","H","0","img/none_selected.jpg","1","0","0","0.08714849596","","false","17","0.08714849596","","main_expt","0.2437915417","","0.4548629562","","0.301226273","","","","","","",""
"137","","bandit","93","240511","0.0-55.0-0.0","46860864","wem/bandit_single","A21SIPO89DP66I","gain","7","","72","H","0","img/none_selected.jpg","0","0","1","0.06082296625","","false","18","0.06082296625","","main_expt","0.2139729843","","0.4423108412","","0.3355017989","","","","","","",""
"557","","bandit","94","242864","0.0-56.0-0.0","46860864","wem/bandit_single","A21SIPO89DP66I","gain","7","","72","H","0","img/none_selected.jpg","0","0","1","0.04376078701","","false","19","0.04376078701","","main_expt","0.2117718275","","0.4510346454","","0.4066928382","","","","","","",""
"194","","bandit","95","244843","0.0-57.0-0.0","46860864","wem/bandit_single","A21SIPO89DP66I","gain","7","","72","H","0","img/none_selected.jpg","1","0","0","0.0431273538","","false","20","0.0431273538","","main_expt","0.2128214431","","0.4522943673","","0.4152799178","","","","","","",""
"134","","bandit","96","246759","0.0-58.0-0.0","46860864","wem/bandit_single","A21SIPO89DP66I","gain","7","","74","J","1","","0","0","1","0.2557511999","","false","21","0.05700218709","","main_expt","0.2557511999","","0.4213917452","","0.4005545413","","","","","","",""
"32","","bandit","97","248563","0.0-59.0-0.0","46860864","wem/bandit_single","A21SIPO89DP66I","gain","7","","74","J","1","","0","0","1","0.2240556206","","false","22","0.03008320558","","main_expt","0.2240556206","","0.4055738921","","0.4065945052","","","","","","",""
"54","","bandit","98","250403","0.0-60.0-0.0","46860864","wem/bandit_single","A21SIPO89DP66I","gain","7","","74","J","1","","0","0","1","0.1913455436","","false","23","0.04675245401","","main_expt","0.1913455436","","0.4102744642","","0.4396923884","","","","","","",""
"497","","bandit","99","252681","0.0-61.0-0.0","46860864","wem/bandit_single","A21SIPO89DP66I","gain","7","","74","J","1","","1","0","0","0.1767964116","","false","24","0.02664245213","","main_expt","0.1767964116","","0.4215519413","","0.4414607804","","","","","","",""
"96","","bandit","100","254560","0.0-62.0-0.0","46860864","wem/bandit_single","A21SIPO89DP66I","gain","7","","75","K","2","","1","0","0","0.4076768117","","false","25","0.02443183667","","main_expt","0.1667721477","","0.4076768117","","0.430597795","","","","","","",""
"31","","bandit","101","256372","0.0-63.0-0.0","46860864","wem/bandit_single","A21SIPO89DP66I","gain","7","","75","K","2","","0","0","1","0.3563873355","","false","26","0.02765515704","","main_expt","0.132468293","","0.3563873355","","0.4049624372","","","","","","",""
"83","","bandit","102","258238","0.0-64.0-0.0","46860864","wem/bandit_single","A21SIPO89DP66I","gain","7","","75","K","2","","0","0","1","0.3305608977","","false","27","0.05751586542","","main_expt","0.1283549716","","0.3305608977","","0.3959859591","","","","","","",""
"22","","bandit","103","260050","0.0-65.0-0.0","46860864","wem/bandit_single","A21SIPO89DP66I","gain","7","","75","K","2","","1","0","0","0.323916825","","false","28","0.1046410472","","main_expt","0.1218888314","","0.323916825","","0.4316273603","","","","","","",""
"41","","bandit","104","261896","0.0-66.0-0.0","46860864","wem/bandit_single","A21SIPO89DP66I","gain","7","","76","L","3","","0","0","1","0.4618757987","","false","29","0.1174110135","","main_expt","0.08739650486","","0.3256975875","","0.4618757987","","","","","","",""
"377","","bandit","105","264075","0.0-67.0-0.0","46860864","wem/bandit_single","A21SIPO89DP66I","gain","7","","76","L","3","","0","0","1","0.4764599947","","false","30","0.09344635718","","main_expt","0.1113113005","","0.3590663193","","0.4764599947","","","","","","",""
"102","","bandit","106","265960","0.0-68.0-0.0","46860864","wem/bandit_single","A21SIPO89DP66I","gain","7","","76","L","3","","0","0","1","0.4870567238","","false","31","0.07228097062","","main_expt","0.1234593762","","0.2794303661","","0.4870567238","","","","","","",""
"51","","bandit","107","267797","0.0-69.0-0.0","46860864","wem/bandit_single","A21SIPO89DP66I","gain","7","","76","L","3","","0","0","1","0.4744541924","","false","32","0.06660380695","","main_expt","0.1204693509","","0.2725021833","","0.4744541924","","","","","","",""
"341","","bandit","108","269936","0.0-70.0-0.0","46860864","wem/bandit_single","A21SIPO89DP66I","gain","7","","72","H","0","img/none_selected.jpg","0","0","1","0.06161000393","","false","33","0.06161000393","","main_expt","0.1525092538","","0.2662358977","","0.4595636441","","","","","","",""
"87","","bandit","109","271819","0.0-71.0-0.0","46860864","wem/bandit_single","A21SIPO89DP66I","gain","7","","72","H","0","img/none_selected.jpg","0","0","1","0.08245015188","","false","34","0.08245015188","","main_expt","0.0933794629","","0.3062719381","","0.4700794195","","","","","","",""
"235","","bandit","110","273855","0.0-72.0-0.0","46860864","wem/bandit_single","A21SIPO89DP66I","gain","7","","72","H","0","img/none_selected.jpg","0","0","1","0.08195488018","","false","35","0.08195488018","","main_expt","0.06693018499","","0.3199342551","","0.46481425","","","","","","",""
"64","","bandit","111","275717","0.0-73.0-0.0","46860864","wem/bandit_single","A21SIPO89DP66I","gain","7","","72","H","0","img/none_selected.jpg","0","0","1","0.1004102013","","false","36","0.1004102013","","main_expt","0.09916465935","","0.3039619122","","0.4518384169","","","","","","",""
"36","","bandit","112","277566","0.0-74.0-0.0","46860864","wem/bandit_single","A21SIPO89DP66I","gain","7","","75","K","2","","0","0","1","0.2927636057","","false","37","0.1390326598","","main_expt","0.08872434017","","0.2927636057","","0.439581627","","","","","","",""
"7","","bandit","113","279369","0.0-75.0-0.0","46860864","wem/bandit_single","A21SIPO89DP66I","gain","7","","75","K","2","","0","0","1","0.3513205482","","false","38","0.143322519","","main_expt","0.08103487055","","0.3513205482","","0.3994664239","","","","","","",""
"446","","bandit","114","281602","0.0-76.0-0.0","46860864","wem/bandit_single","A21SIPO89DP66I","gain","7","","75","K","2","","0","0","1","0.3199725693","","false","39","0.1439849427","","main_expt","0.09262773223","","0.3199725693","","0.399239641","","","","","","",""
"151","","bandit","115","283540","0.0-77.0-0.0","46860864","wem/bandit_single","A21SIPO89DP66I","gain","7","","75","K","2","","0","0","1","0.2899826696","","false","40","0.1813186375","","main_expt","0.08276392867","","0.2899826696","","0.3842971785","","","","","","",""
"69","","bandit","116","285387","0.0-78.0-0.0","46860864","wem/bandit_single","A21SIPO89DP66I","gain","7","","74","J","1","","0","0","1","0.07889170896","","false","41","0.182623784","","main_expt","0.07889170896","","0.2470457707","","0.3584077127","","","","","","",""
"132","","bandit","117","287309","0.0-79.0-0.0","46860864","wem/bandit_single","A21SIPO89DP66I","gain","7","","74","J","1","","0","0","1","0.1007082374","","false","42","0.1310997782","","main_expt","0.1007082374","","0.2860815649","","0.2940512223","","","","","","",""
"63","","bandit","118","289165","0.0-80.0-0.0","46860864","wem/bandit_single","A21SIPO89DP66I","gain","7","","74","J","1","","0","0","1","0.04983151166","","false","43","0.1211351308","","main_expt","0.04983151166","","0.3649324249","","0.3274682868","","","","","","",""
"449","","bandit","119","291402","0.0-81.0-0.0","46860864","wem/bandit_single","A21SIPO89DP66I","gain","7","","74","J","1","","0","0","1","0.06772206808","","false","44","0.1032393721","","main_expt","0.06772206808","","0.3722884938","","0.3105097628","","","","","","",""
"129","","bandit","120","293337","0.0-82.0-0.0","46860864","wem/bandit_single","A21SIPO89DP66I","gain","7","","72","H","0","img/none_selected.jpg","0","0","1","0.145243047","","false","45","0.145243047","","main_expt","0.07082322934","","0.3589666793","","0.3253779088","","","","","","",""
"78","","bandit","121","295218","0.0-83.0-0.0","46860864","wem/bandit_single","A21SIPO89DP66I","gain","7","","72","H","0","img/none_selected.jpg","1","0","0","0.1871821161","","false","46","0.1871821161","","main_expt","0.08302100682","","0.309469461","","0.2907447256","","","","","","",""
"191","","bandit","122","297182","0.0-84.0-0.0","46860864","wem/bandit_single","A21SIPO89DP66I","gain","7","","72","H","0","img/none_selected.jpg","0","0","1","0.1827431821","","false","47","0.1827431821","","main_expt","0.04947507936","","0.3486132663","","0.2922490699","","","","","","",""
"62","","bandit","123","299044","0.0-85.0-0.0","46860864","wem/bandit_single","A21SIPO89DP66I","gain","7","","72","H","0","img/none_selected.jpg","0","0","1","0.1863443356","","false","48","0.1863443356","","main_expt","0.05970491685","","0.3613151755","","0.3012354267","","","","","","",""
"87","","bandit","124","300933","0.0-86.0-0.0","46860864","wem/bandit_single","A21SIPO89DP66I","gain","7","","72","H","0","img/none_selected.jpg","1","0","0","0.2089920758","","false","49","0.2089920758","","main_expt","0.05846806591","","0.3810076255","","0.3199255499","","","","","","",""
"41","","bandit","125","302759","0.0-87.0-0.0","46860864","wem/bandit_single","A21SIPO89DP66I","gain","7","","72","H","0","img/none_selected.jpg","0","0","1","0.2204805957","","false","50","0.2204805957","","main_expt","0.08078022322","","0.3528158806","","0.3246792682","","","","","","",""
"98","","bandit","126","304644","0.0-88.0-0.0","46860864","wem/bandit_single","A21SIPO89DP66I","gain","7","","72","H","0","img/none_selected.jpg","1","0","0","0.2796788854","","false","51","0.2796788854","","main_expt","0.08366705542","","0.4127521961","","0.3158487008","","","","","","",""
"150","","bandit","127","306577","0.0-89.0-0.0","46860864","wem/bandit_single","A21SIPO89DP66I","gain","7","","72","H","0","img/none_selected.jpg","1","0","0","0.2870992152","","false","52","0.2870992152","","main_expt","0.1365111474","","0.4034362436","","0.2764666405","","","","","","",""
"180","","bandit","128","308553","0.0-90.0-0.0","46860864","wem/bandit_single","A21SIPO89DP66I","gain","7","","72","H","0","img/none_selected.jpg","0","0","1","0.3176469779","","false","53","0.3176469779","","main_expt","0.1238361543","","0.4268522392","","0.2740398937","","","","","","",""
"82","","bandit","129","310418","0.0-91.0-0.0","46860864","wem/bandit_single","A21SIPO89DP66I","gain","7","","72","H","0","img/none_selected.jpg","0","0","1","0.3407727651","","false","54","0.3407727651","","main_expt","0.1150058699","","0.4471231168","","0.2499565254","","","","","","",""
"126","","bandit","130","312334","0.0-92.0-0.0","46860864","wem/bandit_single","A21SIPO89DP66I","gain","7","","74","J","1","","0","0","1","0.1498695165","","false","55","0.380871147","","main_expt","0.1498695165","","0.4397300441","","0.221305586","","","","","","",""
"226","","bandit","131","314351","0.0-93.0-0.0","46860864","wem/bandit_single","A21SIPO89DP66I","gain","7","","74","J","1","","0","0","1","0.1559096332","","false","56","0.3614982187","","main_expt","0.1559096332","","0.4266514607","","0.2513729962","","","","","","",""
"138","","bandit","132","316284","0.0-94.0-0.0","46860864","wem/bandit_single","A21SIPO89DP66I","gain","7","","74","J","1","","0","0","1","0.139260175","","false","57","0.3219973572","","main_expt","0.139260175","","0.4351066669","","0.254621842","","","","","","",""
"163","","bandit","133","318238","0.0-95.0-0.0","46860864","wem/bandit_single","A21SIPO89DP66I","gain","7","","74","J","1","","0","0","1","0.1101041774","","false","58","0.3136466855","","main_expt","0.1101041774","","0.4114765848","","0.2911199408","","","","","","",""
"4","","bandit","134","320050","0.0-96.0-0.0","46860864","wem/bandit_single","A21SIPO89DP66I","gain","7","","74","J","1","","0","0","1","0.1619704935","","false","59","0.3553654786","","main_expt","0.1619704935","","0.4331866813","","0.3260103257","","","","","","",""
"37","","bandit","135","321886","0.0-97.0-0.0","46860864","wem/bandit_single","A21SIPO89DP66I","gain","7","","75","K","2","","1","0","0","0.4452666195","","false","60","0.302494743","","main_expt","0.1023472493","","0.4452666195","","0.3801831719","","","","","","",""
"110","","bandit","136","323774","0.0-98.0-0.0","46860864","wem/bandit_single","A21SIPO89DP66I","gain","7","","75","K","2","","1","0","0","0.4533212266","","false","61","0.3194951829","","main_expt","0.1659923055","","0.4533212266","","0.4097171909","","","","","","",""
"49","","bandit","137","325599","0.0-99.0-0.0","46860864","wem/bandit_single","A21SIPO89DP66I","gain","7","","75","K","2","","0","0","1","0.4546633602","","false","62","0.3491175101","","main_expt","0.1773336283","","0.4546633602","","0.4297251169","","","","","","",""
"102","","bandit","138","327490","0.0-100.0-0.0","46860864","wem/bandit_single","A21SIPO89DP66I","gain","7","","75","K","2","","0","0","1","0.431915851","","false","63","0.3618657485","","main_expt","0.1838898345","","0.431915851","","0.4523537282","","","","","","",""
"28","","bandit","139","329292","0.0-101.0-0.0","46860864","wem/bandit_single","A21SIPO89DP66I","gain","7","","75","K","2","","0","0","1","0.4397857724","","false","64","0.3331995431","","main_expt","0.1535376321","","0.4397857724","","0.4577822331","","","","","","",""
"14","","bandit","140","331105","0.0-102.0-0.0","46860864","wem/bandit_single","A21SIPO89DP66I","gain","7","","75","K","2","","0","0","1","0.3803141428","","false","65","0.3222916502","","main_expt","0.1696059705","","0.3803141428","","0.4366397349","","","","","","",""
"277","","bandit","141","333192","0.0-103.0-0.0","46860864","wem/bandit_single","A21SIPO89DP66I","gain","7","","75","K","2","","1","0","0","0.4318665216","","false","66","0.2935747005","","main_expt","0.1747776373","","0.4318665216","","0.4223045317","","","","","","",""
"123","","bandit","142","335100","0.0-104.0-0.0","46860864","wem/bandit_single","A21SIPO89DP66I","gain","7","","75","K","2","","0","0","1","0.3783394243","","false","67","0.272098099","","main_expt","0.1880318686","","0.3783394243","","0.453094409","","","","","","",""
"63","","bandit","143","336965","0.0-105.0-0.0","46860864","wem/bandit_single","A21SIPO89DP66I","gain","7","","75","K","2","","0","0","1","0.3424409758","","false","68","0.2839543474","","main_expt","0.1703396733","","0.3424409758","","0.4441165928","","","","","","",""
"420","","bandit","144","339187","0.0-106.0-0.0","46860864","wem/bandit_single","A21SIPO89DP66I","gain","7","","75","K","2","","1","0","0","0.3825588005","","false","69","0.3106529802","","main_expt","0.2041307244","","0.3825588005","","0.437102529","","","","","","",""
"76","","bandit","145","341047","0.0-107.0-0.0","46860864","wem/bandit_single","A21SIPO89DP66I","gain","7","","76","L","3","","0","0","1","0.463010405","","false","70","0.2152651325","","main_expt","0.2380468473","","0.4019939479","","0.463010405","","","","","","",""
"388","","bandit","146","343220","0.0-108.0-0.0","46860864","wem/bandit_single","A21SIPO89DP66I","gain","7","","76","L","3","","0","0","1","0.4511055106","","false","71","0.2150247356","","main_expt","0.2540220497","","0.3995375499","","0.4511055106","","","","","","",""
"208","","bandit","147","345209","0.0-109.0-0.0","46860864","wem/bandit_single","A21SIPO89DP66I","gain","7","","76","L","3","","0","0","1","0.456238914","","false","72","0.2196699897","","main_expt","0.2877519017","","0.3655493795","","0.456238914","","","","","","",""
"14","","bandit","148","347008","0.0-110.0-0.0","46860864","wem/bandit_single","A21SIPO89DP66I","gain","7","","76","L","3","","0","0","1","0.4499554287","","false","73","0.2086164273","","main_expt","0.3090267326","","0.3443296275","","0.4499554287","","","","","","",""
"491","","bandit","149","349295","0.0-111.0-0.0","46860864","wem/bandit_single","A21SIPO89DP66I","gain","7","","76","L","3","","0","0","1","0.4439780401","","false","74","0.2226006448","","main_expt","0.3400901674","","0.3647916216","","0.4439780401","","","","","","",""
"5","","bandit","150","351096","0.0-112.0-0.0","46860864","wem/bandit_single","A21SIPO89DP66I","gain","7","","76","L","3","","1","0","0","0.4332341766","","false","75","0.2015377479","","main_expt","0.3519214117","","0.3531956798","","0.4332341766","","","","","","",""
"189","","bandit","151","353088","0.0-113.0-0.0","46860864","wem/bandit_single","A21SIPO89DP66I","gain","7","","76","L","3","","0","0","1","0.4241516559","","false","76","0.2614433548","","main_expt","0.3621584499","","0.3375826797","","0.4241516559","","","","","","",""
"93","","bandit","152","354991","0.0-114.0-0.0","46860864","wem/bandit_single","A21SIPO89DP66I","gain","7","","76","L","3","","1","0","0","0.404580079","","false","77","0.3216300101","","main_expt","0.3919288513","","0.3389323042","","0.404580079","","","","","","",""
"20","","bandit","153","356805","0.0-115.0-0.0","46860864","wem/bandit_single","A21SIPO89DP66I","gain","7","","76","L","3","","0","0","1","0.4291019186","","false","78","0.3253900192","","main_expt","0.3733142104","","0.3633343286","","0.4291019186","","","","","","",""
"8","","bandit","154","358599","0.0-116.0-0.0","46860864","wem/bandit_single","A21SIPO89DP66I","gain","7","","76","L","3","","0","0","1","0.4431072694","","false","79","0.3253799771","","main_expt","0.3594898906","","0.35510173","","0.4431072694","","","","","","",""
"103","","bandit","155","360475","0.0-117.0-0.0","46860864","wem/bandit_single","A21SIPO89DP66I","gain","7","","76","L","3","","0","0","1","0.4443251544","","false","80","0.321449248","","main_expt","0.3740263767","","0.3313699227","","0.4443251544","","","","","","",""
"356","","bandit","156","362616","0.0-118.0-0.0","46860864","wem/bandit_single","A21SIPO89DP66I","gain","7","","76","L","3","","0","0","1","0.4222806544","","false","81","0.3644617874","","main_expt","0.4031190442","","0.3545786091","","0.4222806544","","","","","","",""
"126","","bandit","157","364533","0.0-119.0-0.0","46860864","wem/bandit_single","A21SIPO89DP66I","gain","7","","76","L","3","","1","0","0","0.4348184101","","false","82","0.3646727683","","main_expt","0.397551472","","0.36958943","","0.4348184101","","","","","","",""
"241","","bandit","158","366573","0.0-120.0-0.0","46860864","wem/bandit_single","A21SIPO89DP66I","gain","7","","76","L","3","","1","0","0","0.4237956171","","false","83","0.3823543101","","main_expt","0.4251589807","","0.3818301908","","0.4237956171","","","","","","",""
"105","","bandit","159","368461","0.0-121.0-0.0","46860864","wem/bandit_single","A21SIPO89DP66I","gain","7","","76","L","3","","1","0","0","0.4255820551","","false","84","0.3927357351","","main_expt","0.406460911","","0.3841316884","","0.4255820551","","","","","","",""
"69","","bandit","160","370326","0.0-122.0-0.0","46860864","wem/bandit_single","A21SIPO89DP66I","gain","7","","76","L","3","","0","0","1","0.4407045426","","false","85","0.3242792488","","main_expt","0.4190094225","","0.3769873451","","0.4407045426","","","","","","",""
"84","","bandit","161","372200","0.0-123.0-0.0","46860864","wem/bandit_single","A21SIPO89DP66I","gain","7","","76","L","3","","0","0","1","0.4276882268","","false","86","0.3257651096","","main_expt","0.4006115864","","0.3624331431","","0.4276882268","","","","","","",""
"413","","bandit","162","374401","0.0-124.0-0.0","46860864","wem/bandit_single","A21SIPO89DP66I","gain","7","","76","L","3","","0","0","1","0.4430021271","","false","87","0.3768973447","","main_expt","0.3761684651","","0.356636023","","0.4430021271","","","","","","",""
"109","","bandit","163","376299","0.0-125.0-0.0","46860864","wem/bandit_single","A21SIPO89DP66I","gain","7","","76","L","3","","0","0","1","0.4259892117","","false","88","0.3333804566","","main_expt","0.3935355307","","0.392705536","","0.4259892117","","","","","","",""
"38","","bandit","164","378131","0.0-126.0-0.0","46860864","wem/bandit_single","A21SIPO89DP66I","gain","7","","76","L","3","","0","0","1","0.4451393147","","false","89","0.3326985542","","main_expt","0.3870426381","","0.39579544","","0.4451393147","","","","","","",""
"301","","bandit","165","380235","0.0-127.0-0.0","46860864","wem/bandit_single","A21SIPO89DP66I","gain","7","","76","L","3","","0","0","1","0.4450202473","","false","90","0.3392082427","","main_expt","0.3838573884","","0.3832348421","","0.4450202473","","","","","","",""
"10","","bandit","166","382038","0.0-128.0-0.0","46860864","wem/bandit_single","A21SIPO89DP66I","gain","7","","76","L","3","","1","0","0","0.428726471","","false","91","0.2686139101","","main_expt","0.376063899","","0.4009824957","","0.428726471","","","","","","",""
"71","","bandit","167","383908","0.0-129.0-0.0","46860864","wem/bandit_single","A21SIPO89DP66I","gain","7","","76","L","3","","0","0","1","0.4207086611","","false","92","0.247120026","","main_expt","0.3877690924","","0.360902971","","0.4207086611","","","","","","",""
"357","","bandit","168","386067","0.0-130.0-0.0","46860864","wem/bandit_single","A21SIPO89DP66I","gain","7","","76","L","3","","1","0","0","0.4271109851","","false","93","0.1945967668","","main_expt","0.3832772702","","0.4098322422","","0.4271109851","","","","","","",""
"115","","bandit","169","387999","0.0-131.0-0.0","46860864","wem/bandit_single","A21SIPO89DP66I","gain","7","","76","L","3","","1","0","0","0.3988025755","","false","94","0.2059940606","","main_expt","0.3569295009","","0.365685068","","0.3988025755","","","","","","",""
"371","","bandit","170","390162","0.0-132.0-0.0","46860864","wem/bandit_single","A21SIPO89DP66I","gain","7","","76","L","3","","0","0","1","0.3413505888","","false","95","0.2276463074","","main_expt","0.3462427099","","0.3246475432","","0.3413505888","","","","","","",""
"372","","bandit","171","392327","0.0-133.0-0.0","46860864","wem/bandit_single","A21SIPO89DP66I","gain","7","","76","L","3","","0","0","1","0.2791034264","","false","96","0.3088064785","","main_expt","0.2902370181","","0.3155220288","","0.2791034264","","","","","","",""
"41","","bandit","172","394161","0.0-134.0-0.0","46860864","wem/bandit_single","A21SIPO89DP66I","gain","7","","76","L","3","","0","0","1","0.2300358144","","false","97","0.3167474357","","main_expt","0.2679909325","","0.2920368253","","0.2300358144","","","","","","",""
"35","","bandit","173","395988","0.0-135.0-0.0","46860864","wem/bandit_single","A21SIPO89DP66I","gain","7","","76","L","3","","0","0","1","0.245913642","","false","98","0.3311058144","","main_expt","0.1827708427","","0.3060047135","","0.245913642","","","","","","",""
"86","","bandit","174","397875","0.0-136.0-0.0","46860864","wem/bandit_single","A21SIPO89DP66I","gain","7","","76","L","3","","0","0","1","0.1977736678","","false","99","0.2831383079","","main_expt","0.1847148603","","0.2834300817","","0.1977736678","","","","","","",""
"73","","bandit","175","399739","0.0-137.0-0.0","46860864","wem/bandit_single","A21SIPO89DP66I","gain","7","","75","K","2","","0","0","1","0.3094748938","","false","100","0.2697282324","","main_expt","0.230590463","","0.3094748938","","0.2300987319","","","","","","",""
"42","","bandit","176","401561","0.0-138.0-0.0","46860864","wem/bandit_single","A21SIPO89DP66I","gain","7","","75","K","2","","1","0","0","0.2776834174","","false","101","0.2908511313","","main_expt","0.2036778932","","0.2776834174","","0.2375929523","","","","","","",""
"127","","bandit","177","403477","0.0-139.0-0.0","46860864","wem/bandit_single","A21SIPO89DP66I","gain","7","","75","K","2","","1","0","0","0.2649828438","","false","102","0.3371086545","","main_expt","0.2146692458","","0.2649828438","","0.2034833152","","","","","","",""
"159","","bandit","178","405441","0.0-140.0-0.0","46860864","wem/bandit_single","A21SIPO89DP66I","gain","7","","75","K","2","","0","0","1","0.1977849252","","false","103","0.2925399581","","main_expt","0.2194044235","","0.1977849252","","0.2510503681","","","","","","",""
"99","","bandit","179","407329","0.0-141.0-0.0","46860864","wem/bandit_single","A21SIPO89DP66I","gain","7","","75","K","2","","0","0","1","0.164180841","","false","104","0.229866195","","main_expt","0.2869514305","","0.164180841","","0.2563420723","","","","","","",""
"80","","bandit","180","409208","0.0-142.0-0.0","46860864","wem/bandit_single","A21SIPO89DP66I","gain","7","","75","K","2","","0","0","1","0.1410880488","","false","105","0.2786648232","","main_expt","0.2577924419","","0.1410880488","","0.2025228913","","","","","","",""
"135","","bandit","181","411124","0.0-143.0-0.0","46860864","wem/bandit_single","A21SIPO89DP66I","gain","7","","75","K","2","","1","0","0","0.2151151798","","false","106","0.2907959635","","main_expt","0.2984789445","","0.2151151798","","0.2288818116","","","","","","",""
"109","","bandit","182","413034","0.0-144.0-0.0","46860864","wem/bandit_single","A21SIPO89DP66I","gain","7","","75","K","2","","1","0","0","0.2068678097","","false","107","0.2934471614","","main_expt","0.2483059356","","0.2068678097","","0.2725684277","","","","","","",""
"425","","bandit","183","415247","0.0-145.0-0.0","46860864","wem/bandit_single","A21SIPO89DP66I","gain","7","","75","K","2","","0","0","1","0.1775779384","","false","108","0.2761460559","","main_expt","0.2177203031","","0.1775779384","","0.2725367566","","","","","","",""
"26","","bandit","184","417069","0.0-146.0-0.0","46860864","wem/bandit_single","A21SIPO89DP66I","gain","7","","75","K","2","","0","0","1","0.1633907035","","false","109","0.3154055318","","main_expt","0.2155336726","","0.1633907035","","0.2645412755","","","","","","",""
"79","","bandit","185","418941","0.0-147.0-0.0","46860864","wem/bandit_single","A21SIPO89DP66I","gain","7","","75","K","2","","0","0","1","0.1918139944","","false","110","0.3375256398","","main_expt","0.2012134729","","0.1918139944","","0.2537238549","","","","","","",""
"5","","bandit","186","420731","0.0-148.0-0.0","46860864","wem/bandit_single","A21SIPO89DP66I","gain","7","","75","K","2","","0","0","1","0.1512725872","","false","111","0.3575411602","","main_expt","0.1362677005","","0.1512725872","","0.2404930496","","","","","","",""
"50","","bandit","187","422561","0.0-149.0-0.0","46860864","wem/bandit_single","A21SIPO89DP66I","gain","7","","75","K","2","","0","0","1","0.1579322392","","false","112","0.3357984678","","main_expt","0.1146466799","","0.1579322392","","0.2031918028","","","","","","",""
"9","","bandit","188","424352","0.0-150.0-0.0","46860864","wem/bandit_single","A21SIPO89DP66I","gain","7","","75","K","2","","1","0","0","0.1638150459","","false","113","0.2950954247","","main_expt","0.1503083978","","0.1638150459","","0.2649243105","","","","","","",""
"320","","bandit","189","426462","0.0-151.0-0.0","46860864","wem/bandit_single","A21SIPO89DP66I","gain","7","","75","K","2","","0","0","1","0.1913716077","","false","114","0.3242299597","","main_expt","0.1750780752","","0.1913716077","","0.2669290767","","","","","","",""
"45","","bandit","190","428303","0.0-152.0-0.0","46860864","wem/bandit_single","A21SIPO89DP66I","gain","7","","75","K","2","","0","0","1","0.1762938339","","false","115","0.3224166769","","main_expt","0.1486636943","","0.1762938339","","0.2538219684","","","","","","",""
"35","","bandit","191","430138","0.0-153.0-0.0","46860864","wem/bandit_single","A21SIPO89DP66I","gain","7","","75","K","2","","0","0","1","0.1696576366","","false","116","0.3512221687","","main_expt","0.149377163","","0.1696576366","","0.2987800907","","","","","","",""
"150","","bandit","192","432094","0.0-154.0-0.0","46860864","wem/bandit_single","A21SIPO89DP66I","gain","7","","75","K","2","","0","0","1","0.1743908607","","false","117","0.3854596622","","main_expt","0.1255156769","","0.1743908607","","0.2863147972","","","","","","",""
"54","","bandit","193","433935","0.0-155.0-0.0","46860864","wem/bandit_single","A21SIPO89DP66I","gain","7","","75","K","2","","0","0","1","0.2187419408","","false","118","0.3311459155","","main_expt","0.09405737873","","0.2187419408","","0.2863485017","","","","","","",""
"145","","bandit","194","435882","0.0-156.0-0.0","46860864","wem/bandit_single","A21SIPO89DP66I","gain","7","","75","K","2","","0","0","1","0.2602037773","","false","119","0.3243143835","","main_expt","0.0580133569","","0.2602037773","","0.2704451175","","","","","","",""
"20","","bandit","195","437695","0.0-157.0-0.0","46860864","wem/bandit_single","A21SIPO89DP66I","gain","7","","75","K","2","","0","0","1","0.2665240463","","false","120","0.3830596167","","main_expt","0.04965982272","","0.2665240463","","0.2545920365","","","","","","",""
"90","","bandit","196","439575","0.0-158.0-0.0","46860864","wem/bandit_single","A21SIPO89DP66I","gain","7","","75","K","2","","0","0","1","0.2300357123","","false","121","0.4451194006","","main_expt","0.05452098248","","0.2300357123","","0.323502768","","","","","","",""
"54","","bandit","197","441420","0.0-159.0-0.0","46860864","wem/bandit_single","A21SIPO89DP66I","gain","7","","75","K","2","","0","0","1","0.2071140152","","false","122","0.4636898934","","main_expt","0.0475995955","","0.2071140152","","0.3380353075","","","","","","",""
"151","","bandit","198","443369","0.0-160.0-0.0","46860864","wem/bandit_single","A21SIPO89DP66I","gain","7","","75","K","2","","0","0","1","0.2590656513","","false","123","0.4384370655","","main_expt","0.04799769062","","0.2590656513","","0.341491638","","","","","","",""
"80","","bandit","199","445241","0.0-161.0-0.0","46860864","wem/bandit_single","A21SIPO89DP66I","gain","7","","75","K","2","","0","0","1","0.2492473134","","false","124","0.456933673","","main_expt","0.06454195205","","0.2492473134","","0.3269941981","","","","","","",""
"49","","bandit","200","447082","0.0-162.0-0.0","46860864","wem/bandit_single","A21SIPO89DP66I","gain","7","","74","J","1","","0","0","1","0.0570469748","","false","125","0.4834692703","","main_expt","0.0570469748","","0.2569957816","","0.3263020805","","","","","","",""
"14","","bandit","201","448886","0.0-163.0-0.0","46860864","wem/bandit_single","A21SIPO89DP66I","gain","7","","74","J","1","","0","0","1","0.06214194377","","false","126","0.4895912119","","main_expt","0.06214194377","","0.2715808503","","0.3377655475","","","","","","",""
"89","","bandit","202","450757","0.0-164.0-0.0","46860864","wem/bandit_single","A21SIPO89DP66I","gain","7","","74","J","1","","0","0","1","0.06219251386","","false","127","0.4791977258","","main_expt","0.06219251386","","0.3260406689","","0.3489319456","","","","","","",""
"70","","bandit","203","452613","0.0-165.0-0.0","46860864","wem/bandit_single","A21SIPO89DP66I","gain","7","","74","J","1","","0","0","1","0.06192095676","","false","128","0.4772399827","","main_expt","0.06192095676","","0.3487232841","","0.3450526125","","","","","","",""
"48","","bandit","204","454448","0.0-166.0-0.0","46860864","wem/bandit_single","A21SIPO89DP66I","gain","7","","74","J","1","","0","0","1","0.03846933599","","false","129","0.4688955373","","main_expt","0.03846933599","","0.3601162145","","0.3297424559","","","","","","",""
"102","","bandit","205","456339","0.0-167.0-0.0","46860864","wem/bandit_single","A21SIPO89DP66I","gain","7","","74","J","1","","0","0","1","0.02330960587","","false","130","0.4651179545","","main_expt","0.02330960587","","0.4185413006","","0.3731420779","","","","","","",""
"79","","bandit","206","458220","0.0-168.0-0.0","46860864","wem/bandit_single","A21SIPO89DP66I","gain","7","","74","J","1","","0","0","1","0.03495479357","","false","131","0.4794739162","","main_expt","0.03495479357","","0.4537663544","","0.325638262","","","","","","",""
"80","","bandit","207","460084","0.0-169.0-0.0","46860864","wem/bandit_single","A21SIPO89DP66I","gain","7","","74","J","1","","0","0","1","0.02752519027","","false","132","0.4679846252","","main_expt","0.02752519027","","0.4489861829","","0.3132782049","","","","","","",""
"30","","bandit","208","461913","0.0-170.0-0.0","46860864","wem/bandit_single","A21SIPO89DP66I","gain","7","","74","J","1","","0","0","1","0.03239645132","","false","133","0.4636487781","","main_expt","0.03239645132","","0.4465240103","","0.3552481716","","","","","","",""
"349","","bandit","209","464054","0.0-171.0-0.0","46860864","wem/bandit_single","A21SIPO89DP66I","gain","7","","74","J","1","","0","0","1","0.02361228775","","false","134","0.4578614037","","main_expt","0.02361228775","","0.4286255731","","0.3478795997","","","","","","",""
"36","","bandit","210","465884","0.0-172.0-0.0","46860864","wem/bandit_single","A21SIPO89DP66I","gain","7","","74","J","1","","0","0","1","0.01378345967","","false","135","0.4339873336","","main_expt","0.01378345967","","0.3969320342","","0.3394088604","","","","","","",""
"118","","bandit","211","467820","0.0-173.0-0.0","46860864","wem/bandit_single","A21SIPO89DP66I","gain","7","","74","J","1","","0","0","1","0.01349892684","","false","136","0.4091277288","","main_expt","0.01349892684","","0.3975573163","","0.3739095734","","","","","","",""
"382","","bandit","212","469979","0.0-174.0-0.0","46860864","wem/bandit_single","A21SIPO89DP66I","gain","7","","74","J","1","","0","0","1","0.01373747566","","false","137","0.4024864596","","main_expt","0.01373747566","","0.4226438881","","0.3319731639","","","","","","",""
"138","","bandit","213","471913","0.0-175.0-0.0","46860864","wem/bandit_single","A21SIPO89DP66I","gain","7","","74","J","1","","0","0","1","0.009346923256","","false","138","0.3793932322","","main_expt","0.009346923256","","0.383622376","","0.3427854578","","","","","","",""
"225","","bandit","214","473932","0.0-176.0-0.0","46860864","wem/bandit_single","A21SIPO89DP66I","gain","7","","74","J","1","","0","0","1","0.005947695369","","false","139","0.3940691536","","main_expt","0.005947695369","","0.3892077266","","0.2804250852","","","","","","",""
"259","","bandit","215","475992","0.0-177.0-0.0","46860864","wem/bandit_single","A21SIPO89DP66I","gain","7","","74","J","1","","0","0","1","0.003062149202","","false","140","0.3878174143","","main_expt","0.003062149202","","0.3721285976","","0.294489168","","","","","","",""
"172","","bandit","216","477962","0.0-178.0-0.0","46860864","wem/bandit_single","A21SIPO89DP66I","gain","7","","74","J","1","","0","0","1","0.003723800288","","false","141","0.3671315422","","main_expt","0.003723800288","","0.403063379","","0.2849233321","","","","","","",""
"176","","bandit","217","479930","0.0-179.0-0.0","46860864","wem/bandit_single","A21SIPO89DP66I","gain","7","","74","J","1","","0","0","1","0.003048460602","","false","142","0.338830911","","main_expt","0.003048460602","","0.3916907223","","0.2605380125","","","","","","",""
"135","","bandit","218","481854","0.0-180.0-0.0","46860864","wem/bandit_single","A21SIPO89DP66I","gain","7","","74","J","1","","0","0","1","0.002664125267","","false","143","0.2709557481","","main_expt","0.002664125267","","0.4212357341","","0.3030740536","","","","","","",""
"108","","bandit","219","483758","0.0-181.0-0.0","46860864","wem/bandit_single","A21SIPO89DP66I","gain","7","","74","J","1","","0","0","1","0.0015633636","","false","144","0.249986241","","main_expt","0.0015633636","","0.3944164323","","0.29766321","","","","","","",""
"96","","bandit","220","485644","0.0-182.0-0.0","46860864","wem/bandit_single","A21SIPO89DP66I","gain","7","","72","H","0","img/none_selected.jpg","0","0","1","0.2694710106","","false","145","0.2694710106","","main_expt","0.002084593646","","0.4129391908","","0.2862291296","","","","","","",""
"639","","bandit","221","488070","0.0-183.0-0.0","46860864","wem/bandit_single","A21SIPO89DP66I","gain","7","","72","H","0","img/none_selected.jpg","0","0","1","0.3099728414","","false","146","0.3099728414","","main_expt","0.0008356934022","","0.4027876266","","0.3151642481","","","","","","",""
"204","","bandit","222","490064","0.0-184.0-0.0","46860864","wem/bandit_single","A21SIPO89DP66I","gain","7","","72","H","0","img/none_selected.jpg","0","0","1","0.3010760093","","false","147","0.3010760093","","main_expt","0.00187417998","","0.3906291495","","0.3261334855","","","","","","",""
"249","","bandit","223","492118","0.0-185.0-0.0","46860864","wem/bandit_single","A21SIPO89DP66I","gain","7","","72","H","0","img/none_selected.jpg","0","0","1","0.2861733563","","false","148","0.2861733563","","main_expt","0.001549413081","","0.3718958907","","0.3605999671","","","","","","",""
"953","","bandit","224","494888","0.0-186.0-0.0","46860864","wem/bandit_single","A21SIPO89DP66I","gain","7","","72","H","0","img/none_selected.jpg","0","0","1","0.2613296644","","false","149","0.2613296644","","main_expt","0.002318569837","","0.3513552953","","0.3848975894","","","","","","",""
"334","","bandit","225","497023","0.0-187.0-0.0","46860864","wem/bandit_single","A21SIPO89DP66I","gain","7","","72","H","0","img/none_selected.jpg","0","0","1","0.2955554784","","false","150","0.2955554784","","main_expt","0.002401941109","","0.3796712552","","0.3680345664","","","","","","",""
"368","","bandit","226","499197","0.0-188.0-0.0","46860864","wem/bandit_single","A21SIPO89DP66I","gain","7","","72","H","0","img/none_selected.jpg","0","0","1","0.2928365899","","false","151","0.2928365899","","main_expt","0.002416650241","","0.4275550045","","0.3517559312","","","","","","",""
"176","","bandit","227","501150","0.0-189.0-0.0","46860864","wem/bandit_single","A21SIPO89DP66I","gain","7","","72","H","0","img/none_selected.jpg","0","0","1","0.3000067833","","false","152","0.3000067833","","main_expt","0.002533271813","","0.4266807854","","0.3963282571","","","","","","",""
"335","","bandit","228","503297","0.0-190.0-0.0","46860864","wem/bandit_single","A21SIPO89DP66I","gain","7","","72","H","0","img/none_selected.jpg","0","0","1","0.2757802357","","false","153","0.2757802357","","main_expt","0.00322942279","","0.4633151701","","0.432842039","","","","","","",""
"72","","bandit","229","505153","0.0-191.0-0.0","46860864","wem/bandit_single","A21SIPO89DP66I","gain","7","","72","H","0","img/none_selected.jpg","0","0","1","0.3252288772","","false","154","0.3252288772","","main_expt","0.003404333974","","0.4723469507","","0.4134551824","","","","","","",""
"177","","bandit","230","507140","0.0-192.0-0.0","46860864","wem/bandit_single","A21SIPO89DP66I","gain","7","","72","H","0","img/none_selected.jpg","1","0","0","0.2746928085","","false","155","0.2746928085","","main_expt","0.008925030754","","0.4829251431","","0.426737857","","","","","","",""
"201","","bandit","231","509145","0.0-193.0-0.0","46860864","wem/bandit_single","A21SIPO89DP66I","gain","7","","72","H","0","img/none_selected.jpg","0","0","1","0.2881451241","","false","156","0.2881451241","","main_expt","0.005317619152","","0.4753947098","","0.4289541051","","","","","","",""
"106","","bandit","232","511041","0.0-194.0-0.0","46860864","wem/bandit_single","A21SIPO89DP66I","gain","7","","72","H","0","img/none_selected.jpg","1","0","0","0.2861132768","","false","157","0.2861132768","","main_expt","0.002657446392","","0.4686295074","","0.4593738684","","","","","","",""
"633","","bandit","233","513455","0.0-195.0-0.0","46860864","wem/bandit_single","A21SIPO89DP66I","gain","7","","72","H","0","img/none_selected.jpg","0","0","1","0.2382703247","","false","158","0.2382703247","","main_expt","0.005349678466","","0.4746137902","","0.4716769587","","","","","","",""
"429","","bandit","234","515685","0.0-196.0-0.0","46860864","wem/bandit_single","A21SIPO89DP66I","gain","7","","72","H","0","img/none_selected.jpg","0","0","1","0.2650616746","","false","159","0.2650616746","","main_expt","0.00353293949","","0.4626257703","","0.4566829936","","","","","","",""
"597","","bandit","235","518065","0.0-197.0-0.0","46860864","wem/bandit_single","A21SIPO89DP66I","gain","7","","72","H","0","img/none_selected.jpg","0","0","1","0.2841227011","","false","160","0.2841227011","","main_expt","0.004525880368","","0.4690497323","","0.4684401337","","","","","","",""
"285","","bandit","236","520158","0.0-198.0-0.0","46860864","wem/bandit_single","A21SIPO89DP66I","gain","7","","72","H","0","img/none_selected.jpg","1","0","0","0.3103310899","","false","161","0.3103310899","","main_expt","0.00364468733","","0.4605728382","","0.4327192474","","","","","","",""
"371","","bandit","237","522318","0.0-199.0-0.0","46860864","wem/bandit_single","A21SIPO89DP66I","gain","7","","72","H","0","img/none_selected.jpg","1","0","0","0.2990864795","","false","162","0.2990864795","","main_expt","0.004567203872","","0.4663204896","","0.4158578039","","","","","","",""
"274","","bandit","238","524390","0.0-200.0-0.0","46860864","wem/bandit_single","A21SIPO89DP66I","gain","7","","72","H","0","img/none_selected.jpg","0","0","1","0.2650304997","","false","163","0.2650304997","","main_expt","0.003538815","","0.4626626357","","0.4206849782","","","","","","",""
"272","","bandit","239","526452","0.0-201.0-0.0","46860864","wem/bandit_single","A21SIPO89DP66I","gain","7","","72","H","0","img/none_selected.jpg","0","0","1","0.2877519924","","false","164","0.2877519924","","main_expt","0.002896615325","","0.4672680551","","0.4276923589","","","","","","",""
"134","","bandit","240","528387","0.0-202.0-0.0","46860864","wem/bandit_single","A21SIPO89DP66I","gain","7","","72","H","0","img/none_selected.jpg","0","0","1","0.2818109827","","false","165","0.2818109827","","main_expt","0.004500484281","","0.455015491","","0.4204466813","","","","","","",""
"157","","bandit","241","530353","0.0-203.0-0.0","46860864","wem/bandit_single","A21SIPO89DP66I","gain","7","","72","H","0","img/none_selected.jpg","0","0","1","0.324785045","","false","166","0.324785045","","main_expt","0.01017739848","","0.4201800218","","0.4229734844","","","","","","",""
"47","","bandit","242","532213","0.0-204.0-0.0","46860864","wem/bandit_single","A21SIPO89DP66I","gain","7","","72","H","0","img/none_selected.jpg","0","0","1","0.3339304688","","false","167","0.3339304688","","main_expt","0.0129517719","","0.4430085171","","0.4474449943","","","","","","",""
"40","","bandit","243","534035","0.0-205.0-0.0","46860864","wem/bandit_single","A21SIPO89DP66I","gain","7","","72","H","0","img/none_selected.jpg","0","0","1","0.3351003476","","false","168","0.3351003476","","main_expt","0.009045291763","","0.4526671473","","0.4458086367","","","","","","",""
"239","","bandit","244","536089","0.0-206.0-0.0","46860864","wem/bandit_single","A21SIPO89DP66I","gain","7","","72","H","0","img/none_selected.jpg","0","0","1","0.3556935824","","false","169","0.3556935824","","main_expt","0.01553154223","","0.4477525289","","0.4619433307","","","","","","",""
"42","","bandit","245","537935","0.0-207.0-0.0","46860864","wem/bandit_single","A21SIPO89DP66I","gain","7","","72","H","0","img/none_selected.jpg","1","0","0","0.3690608098","","false","170","0.3690608098","","main_expt","0.01787531072","","0.41154262","","0.4703570947","","","","","","",""
"86","","bandit","246","539817","0.0-208.0-0.0","46860864","wem/bandit_single","A21SIPO89DP66I","gain","7","","72","H","0","img/none_selected.jpg","1","0","0","0.3631266209","","false","171","0.3631266209","","main_expt","0.01316551092","","0.37868858","","0.474742395","","","","","","",""
"156","","bandit","247","541770","0.0-209.0-0.0","46860864","wem/bandit_single","A21SIPO89DP66I","gain","7","","72","H","0","img/none_selected.jpg","0","0","1","0.3392191481","","false","172","0.3392191481","","main_expt","0.0172037691","","0.3971498268","","0.4773845315","","","","","","",""
"125","","bandit","248","543694","0.0-210.0-0.0","46860864","wem/bandit_single","A21SIPO89DP66I","gain","7","","72","H","0","img/none_selected.jpg","1","0","0","0.2931772585","","false","173","0.2931772585","","main_expt","0.01427011775","","0.4319579383","","0.4680058345","","","","","","",""
"30","","bandit","249","545504","0.0-211.0-0.0","46860864","wem/bandit_single","A21SIPO89DP66I","gain","7","","72","H","0","img/none_selected.jpg","0","0","1","0.2750831853","","false","174","0.2750831853","","main_expt","0.01057019218","","0.4174714043","","0.4561145842","","","","","","",""
"134","","bandit","250","547432","0.0-212.0-0.0","46860864","wem/bandit_single","A21SIPO89DP66I","gain","7","","72","H","0","img/none_selected.jpg","0","0","1","0.2997345097","","false","175","0.2997345097","","main_expt","0.007255369755","","0.3846013355","","0.472279608","","","","","","",""
"25","","bandit","251","549260","0.0-213.0-0.0","46860864","wem/bandit_single","A21SIPO89DP66I","gain","7","","72","H","0","img/none_selected.jpg","1","0","0","0.3402413884","","false","176","0.3402413884","","main_expt","0.01305273867","","0.4019342833","","0.4602447812","","","","","","",""
"111","","bandit","252","551160","0.0-214.0-0.0","46860864","wem/bandit_single","A21SIPO89DP66I","gain","7","","72","H","0","img/none_selected.jpg","0","0","1","0.3099882557","","false","177","0.3099882557","","main_expt","0.0133150908","","0.4211485366","","0.4343313091","","","","","","",""
"32","","bandit","253","552977","0.0-215.0-0.0","46860864","wem/bandit_single","A21SIPO89DP66I","gain","7","","72","H","0","img/none_selected.jpg","1","0","0","0.2761175095","","false","178","0.2761175095","","main_expt","0.01259822705","","0.4133977621","","0.4048428007","","","","","","",""
"136","","bandit","254","554921","0.0-216.0-0.0","46860864","wem/bandit_single","A21SIPO89DP66I","gain","7","","72","H","0","img/none_selected.jpg","0","0","1","0.3053987856","","false","179","0.3053987856","","main_expt","0.008971211221","","0.4395013083","","0.3826353834","","","","","","",""
"178","","bandit","255","556894","0.0-217.0-0.0","46860864","wem/bandit_single","A21SIPO89DP66I","gain","7","","72","H","0","img/none_selected.jpg","0","0","1","0.291880519","","false","180","0.291880519","","main_expt","0.01053614943","","0.4385200931","","0.3352628501","","","","","","",""
"72","","bandit","256","558762","0.0-218.0-0.0","46860864","wem/bandit_single","A21SIPO89DP66I","gain","7","","72","H","0","img/none_selected.jpg","1","0","0","0.298429346","","false","181","0.298429346","","main_expt","0.01184041186","","0.4225113135","","0.2990499081","","","","","","",""
"345","","bandit","257","560896","0.0-219.0-0.0","46860864","wem/bandit_single","A21SIPO89DP66I","gain","7","","72","H","0","img/none_selected.jpg","0","0","1","0.3343264324","","false","182","0.3343264324","","main_expt","0.03042574256","","0.3723799893","","0.3698835663","","","","","","",""
"39","","bandit","258","562748","0.0-220.0-0.0","46860864","wem/bandit_single","A21SIPO89DP66I","gain","7","","72","H","0","img/none_selected.jpg","0","0","1","0.2890729732","","false","183","0.2890729732","","main_expt","0.03286829004","","0.3790924375","","0.3849917371","","","","","","",""
"79","","bandit","259","564630","0.0-221.0-0.0","46860864","wem/bandit_single","A21SIPO89DP66I","gain","7","","72","H","0","img/none_selected.jpg","0","0","1","0.1975841231","","false","184","0.1975841231","","main_expt","0.05565884368","","0.4122006093","","0.3560661239","","","","","","",""
"32","","bandit","260","566454","0.0-222.0-0.0","46860864","wem/bandit_single","A21SIPO89DP66I","gain","7","","72","H","0","img/none_selected.jpg","0","0","1","0.213981158","","false","185","0.213981158","","main_expt","0.05703602855","","0.3681720139","","0.3637043243","","","","","","",""
"52","","bandit","261","568306","0.0-223.0-0.0","46860864","wem/bandit_single","A21SIPO89DP66I","gain","7","","72","H","0","img/none_selected.jpg","0","0","1","0.1690135127","","false","186","0.1690135127","","main_expt","0.08167625523","","0.3735732413","","0.370254809","","","","","","",""
"102","","bandit","262","570210","0.0-224.0-0.0","46860864","wem/bandit_single","A21SIPO89DP66I","gain","7","","72","H","0","img/none_selected.jpg","1","0","0","0.2606776113","","false","187","0.2606776113","","main_expt","0.08146612985","","0.3763431734","","0.3451477914","","","","","","",""
"637","","bandit","263","572650","0.0-225.0-0.0","46860864","wem/bandit_single","A21SIPO89DP66I","gain","7","","72","H","0","img/none_selected.jpg","0","0","1","0.2431197375","","false","188","0.2431197375","","main_expt","0.09365986726","","0.3515668436","","0.3939300048","","","","","","",""
"157","","bandit","264","574615","0.0-226.0-0.0","46860864","wem/bandit_single","A21SIPO89DP66I","gain","7","","72","H","0","img/none_selected.jpg","1","0","0","0.2308206277","","false","189","0.2308206277","","main_expt","0.09268069957","","0.3343836861","","0.4136030152","","","","","","",""
"370","","bandit","265","576793","0.0-227.0-0.0","46860864","wem/bandit_single","A21SIPO89DP66I","gain","7","","72","H","0","img/none_selected.jpg","0","0","1","0.2025271702","","false","190","0.2025271702","","main_expt","0.08594859785","","0.2525345787","","0.4261376259","","","","","","",""
"149","","bandit","266","578736","0.0-228.0-0.0","46860864","wem/bandit_single","A21SIPO89DP66I","gain","7","","72","H","0","img/none_selected.jpg","0","0","1","0.2751540988","","false","191","0.2751540988","","main_expt","0.08932588753","","0.2685183708","","0.3908696756","","","","","","",""
"58","","bandit","267","580612","0.0-229.0-0.0","46860864","wem/bandit_single","A21SIPO89DP66I","gain","7","","72","H","0","img/none_selected.jpg","1","0","0","0.2569606715","","false","192","0.2569606715","","main_expt","0.1064261942","","0.2572514827","","0.4106222578","","","","","","",""
"27","","bandit","268","582430","0.0-230.0-0.0","46860864","wem/bandit_single","A21SIPO89DP66I","gain","7","","72","H","0","img/none_selected.jpg","0","0","1","0.2874900681","","false","193","0.2874900681","","main_expt","0.1536879749","","0.1969756064","","0.4282135821","","","","","","",""
"79","","bandit","269","584338","0.0-231.0-0.0","46860864","wem/bandit_single","A21SIPO89DP66I","gain","7","","72","H","0","img/none_selected.jpg","0","0","1","0.1735349233","","false","194","0.1735349233","","main_expt","0.1389913839","","0.2134952627","","0.4423695223","","","","","","",""
"446","","bandit","270","586589","0.0-232.0-0.0","46860864","wem/bandit_single","A21SIPO89DP66I","gain","7","","76","L","3","","0","0","1","0.4594299266","","false","195","0.1922880567","","main_expt","0.1439418744","","0.1620875807","","0.4594299266","","","","","","",""
"147","","bandit","271","588529","0.0-233.0-0.0","46860864","wem/bandit_single","A21SIPO89DP66I","gain","7","","76","L","3","","0","0","1","0.4446405127","","false","196","0.180833075","","main_expt","0.131143091","","0.166822232","","0.4446405127","","","","","","",""
"212","","bandit","272","590554","0.0-234.0-0.0","46860864","wem/bandit_single","A21SIPO89DP66I","gain","7","","76","L","3","","1","0","0","0.4559667881","","false","197","0.2213655201","","main_expt","0.1358316141","","0.1951417713","","0.4559667881","","","","","","",""
"183","","bandit","273","592540","0.0-235.0-0.0","46860864","wem/bandit_single","A21SIPO89DP66I","gain","7","","76","L","3","","0","0","1","0.4760465659","","false","198","0.1886922679","","main_expt","0.1271866158","","0.1946571809","","0.4760465659","","","","","","",""
"143","","bandit","274","594463","0.0-236.0-0.0","46860864","wem/bandit_single","A21SIPO89DP66I","gain","7","","76","L","3","","0","0","1","0.4682530898","","false","199","0.1960792333","","main_expt","0.1427164763","","0.125569753","","0.4682530898","","","","","","",""
"55","","bandit","275","596296","0.0-237.0-0.0","46860864","wem/bandit_single","A21SIPO89DP66I","gain","7","","76","L","3","","1","0","0","0.4722721777","","false","200","0.2093645874","","main_expt","0.1465126473","","0.110010897","","0.4722721777","","","","","","",""
"78","","bandit","276","598204","0.0-238.0-0.0","46860864","wem/bandit_single","A21SIPO89DP66I","gain","7","","76","L","3","","0","0","1","0.4739800601","","false","201","0.1673165995","","main_expt","0.1271257608","","0.1280762957","","0.4739800601","","","","","","",""
"158","","bandit","277","600158","0.0-239.0-0.0","46860864","wem/bandit_single","A21SIPO89DP66I","gain","7","","76","L","3","","0","0","1","0.479726886","","false","202","0.2086438453","","main_expt","0.08657179739","","0.1402913484","","0.479726886","","","","","","",""
"87","","bandit","278","602050","0.0-240.0-0.0","46860864","wem/bandit_single","A21SIPO89DP66I","gain","7","","76","L","3","","1","0","0","0.4642372742","","false","203","0.1973992815","","main_expt","0.09313456927","","0.2217412738","","0.4642372742","","","","","","",""
"135","","bandit","279","603973","0.0-241.0-0.0","46860864","wem/bandit_single","A21SIPO89DP66I","gain","7","","76","L","3","","0","0","1","0.4560882558","","false","204","0.2256674954","","main_expt","0.1497906572","","0.2231628045","","0.4560882558","","","","","","",""
"7","","bandit","280","605790","0.0-242.0-0.0","46860864","wem/bandit_single","A21SIPO89DP66I","gain","7","","76","L","3","","1","0","0","0.4525737262","","false","205","0.2163874892","","main_expt","0.1829644856","","0.2170181201","","0.4525737262","","","","","","",""
"55","","bandit","281","607641","0.0-243.0-0.0","46860864","wem/bandit_single","A21SIPO89DP66I","gain","7","","76","L","3","","1","0","0","0.4550624295","","false","206","0.2197086186","","main_expt","0.1612057882","","0.2796725078","","0.4550624295","","","","","","",""
"357","","bandit","282","609808","0.0-244.0-0.0","46860864","wem/bandit_single","A21SIPO89DP66I","gain","7","","76","L","3","","0","0","1","0.4723612306","","false","207","0.2065154411","","main_expt","0.1697938272","","0.2817680811","","0.4723612306","","","","","","",""
"173","","bandit","283","611776","0.0-245.0-0.0","46860864","wem/bandit_single","A21SIPO89DP66I","gain","7","","76","L","3","","0","0","1","0.4766034411","","false","208","0.1685179651","","main_expt","0.1559958766","","0.2823403198","","0.4766034411","","","","","","",""
"139","","bandit","284","613701","0.0-246.0-0.0","46860864","wem/bandit_single","A21SIPO89DP66I","gain","7","","76","L","3","","0","0","1","0.483515399","","false","209","0.138461816","","main_expt","0.1446830505","","0.3618902866","","0.483515399","","","","","","",""
"23","","bandit","285","615515","0.0-247.0-0.0","46860864","wem/bandit_single","A21SIPO89DP66I","gain","7","","76","L","3","","0","0","1","0.4880418707","","false","210","0.1494322788","","main_expt","0.1231196185","","0.373554641","","0.4880418707","","","","","","",""
"161","","bandit","286","617448","0.0-248.0-0.0","46860864","wem/bandit_single","A21SIPO89DP66I","gain","7","","76","L","3","","0","0","1","0.4802592994","","false","211","0.1799359977","","main_expt","0.1456244431","","0.4160488284","","0.4802592994","","","","","","",""
"63","","bandit","287","619300","0.0-249.0-0.0","46860864","wem/bandit_single","A21SIPO89DP66I","gain","7","","76","L","3","","1","0","0","0.4738887763","","false","212","0.1810857181","","main_expt","0.1656867557","","0.381710399","","0.4738887763","","","","","","",""
"251","","bandit","288","621353","0.0-250.0-0.0","46860864","wem/bandit_single","A21SIPO89DP66I","gain","7","","76","L","3","","0","0","1","0.4808850683","","false","213","0.1615137558","","main_expt","0.224977978","","0.3769148707","","0.4808850683","","","","","","",""
"144","","bandit","289","623297","0.0-251.0-0.0","46860864","wem/bandit_single","A21SIPO89DP66I","gain","7","","76","L","3","","0","0","1","0.4825694391","","false","214","0.1650702933","","main_expt","0.307554285","","0.3476207329","","0.4825694391","","","","","","",""
"45","","bandit","290","625119","0.0-252.0-0.0","46860864","wem/bandit_single","A21SIPO89DP66I","gain","7","","76","L","3","","0","0","1","0.4847107186","","false","215","0.1804791034","","main_expt","0.3638187162","","0.3089741626","","0.4847107186","","","","","","",""
"27","","bandit","291","626935","0.0-253.0-0.0","46860864","wem/bandit_single","A21SIPO89DP66I","gain","7","","76","L","3","","0","0","1","0.4809007894","","false","216","0.1573161505","","main_expt","0.3543809852","","0.3674618518","","0.4809007894","","","","","","",""
"32","","bandit","292","628758","0.0-254.0-0.0","46860864","wem/bandit_single","A21SIPO89DP66I","gain","7","","76","L","3","","1","0","0","0.4741770765","","false","217","0.1434716653","","main_expt","0.3301156576","","0.3283657719","","0.4741770765","","","","","","",""
"73","","bandit","293","630624","0.0-255.0-0.0","46860864","wem/bandit_single","A21SIPO89DP66I","gain","7","","76","L","3","","1","0","0","0.4819245576","","false","218","0.1911838451","","main_expt","0.3132999057","","0.3302734852","","0.4819245576","","","","","","",""
"72","","bandit","294","632495","0.0-256.0-0.0","46860864","wem/bandit_single","A21SIPO89DP66I","gain","7","","76","L","3","","0","0","1","0.4793241995","","false","219","0.1441129831","","main_expt","0.2205266592","","0.3554571327","","0.4793241995","","","","","","",""
"177","","bandit","295","634449","0.0-257.0-0.0","46860864","wem/bandit_single","A21SIPO89DP66I","gain","7","","75","K","2","","0","0","1","0.319330444","","false","220","0.1920309772","","main_expt","0.2167078271","","0.319330444","","0.4713672071","","","","","","",""
"86","","bandit","296","636325","0.0-258.0-0.0","46860864","wem/bandit_single","A21SIPO89DP66I","gain","7","","75","K","2","","0","0","1","0.3105046037","","false","221","0.1770810464","","main_expt","0.2038989409","","0.3105046037","","0.4728071858","","","","","","",""
"162","","bandit","297","638291","0.0-259.0-0.0","46860864","wem/bandit_single","A21SIPO89DP66I","gain","7","","75","K","2","","0","0","1","0.2971369975","","false","222","0.1726735039","","main_expt","0.18760722","","0.2971369975","","0.4742115633","","","","","","",""
"146","","bandit","298","640240","0.0-260.0-0.0","46860864","wem/bandit_single","A21SIPO89DP66I","gain","7","","75","K","2","","0","0","1","0.2924153056","","false","223","0.1935596247","","main_expt","0.1794058889","","0.2924153056","","0.4606319974","","","","","","",""
"325","","bandit","299","642374","0.0-261.0-0.0","46860864","wem/bandit_single","A21SIPO89DP66I","gain","7","","75","K","2","","1","0","0","0.3251713444","","false","224","0.184290804","","main_expt","0.1973287288","","0.3251713444","","0.4796626282","","","","","","",""
"133","","bandit","300","644308","0.0-262.0-0.0","46860864","wem/bandit_single","A21SIPO89DP66I","gain","7","","75","K","2","","1","0","0","0.3191667618","","false","225","0.1182631535","","main_expt","0.1657141015","","0.3191667618","","0.4770938662","","","","","","",""
"226","","bandit","301","646343","0.0-263.0-0.0","46860864","wem/bandit_single","A21SIPO89DP66I","gain","7","","75","K","2","","0","0","1","0.3163975521","","false","226","0.1243406576","","main_expt","0.1333985498","","0.3163975521","","0.4753940461","","","","","","",""
"112","","bandit","302","648250","0.0-264.0-0.0","46860864","wem/bandit_single","A21SIPO89DP66I","gain","7","","75","K","2","","1","0","0","0.3153023093","","false","227","0.1887705619","","main_expt","0.1426718429","","0.3153023093","","0.4692559414","","","","","","",""
"85","","bandit","303","650123","0.0-265.0-0.0","46860864","wem/bandit_single","A21SIPO89DP66I","gain","7","","75","K","2","","0","0","1","0.252814401","","false","228","0.1594511678","","main_expt","0.1510234048","","0.252814401","","0.4549715312","","","","","","",""
"48","","bandit","304","651984","0.0-266.0-0.0","46860864","wem/bandit_single","A21SIPO89DP66I","gain","7","","75","K","2","","0","0","1","0.2830586582","","false","229","0.1582092687","","main_expt","0.1786638104","","0.2830586582","","0.4818432606","","","","","","",""
"86","","bandit","305","653880","0.0-267.0-0.0","46860864","wem/bandit_single","A21SIPO89DP66I","gain","7","","75","K","2","","0","0","1","0.2124451555","","false","230","0.149178519","","main_expt","0.1564383184","","0.2124451555","","0.4542350274","","","","","","",""
"129","","bandit","306","655794","0.0-268.0-0.0","46860864","wem/bandit_single","A21SIPO89DP66I","gain","7","","75","K","2","","0","0","1","0.1175217461","","false","231","0.2063022429","","main_expt","0.1398607303","","0.1175217461","","0.4646494747","","","","","","",""
"135","","bandit","307","657712","0.0-269.0-0.0","46860864","wem/bandit_single","A21SIPO89DP66I","gain","7","","75","K","2","","0","0","1","0.144677577","","false","232","0.2424934828","","main_expt","0.1323980205","","0.144677577","","0.4617677548","","","","","","",""
"126","","bandit","308","659644","0.0-270.0-0.0","46860864","wem/bandit_single","A21SIPO89DP66I","gain","7","","75","K","2","","0","0","1","0.1555092754","","false","233","0.2404462099","","main_expt","0.1510374747","","0.1555092754","","0.4535872836","","","","","","",""
"38","","bandit","309","661471","0.0-271.0-0.0","46860864","wem/bandit_single","A21SIPO89DP66I","gain","7","","75","K","2","","0","0","1","0.1250762939","","false","234","0.1830028502","","main_expt","0.133247495","","0.1250762939","","0.4297764401","","","","","","",""
"3","","bandit","310","663269","0.0-272.0-0.0","46860864","wem/bandit_single","A21SIPO89DP66I","gain","7","","75","K","2","","0","0","1","0.1094925358","","false","235","0.2197419317","","main_expt","0.1666928205","","0.1094925358","","0.4335441617","","","","","","",""
"124","","bandit","311","665203","0.0-273.0-0.0","46860864","wem/bandit_single","A21SIPO89DP66I","gain","7","","75","K","2","","0","0","1","0.09099935704","","false","236","0.2537285896","","main_expt","0.1772374327","","0.09099935704","","0.4390497594","","","","","","",""
"75","","bandit","312","667074","0.0-274.0-0.0","46860864","wem/bandit_single","A21SIPO89DP66I","gain","7","","75","K","2","","1","0","0","0.07445530481","","false","237","0.2967198922","","main_expt","0.2093850131","","0.07445530481","","0.4557250369","","","","","","",""
"144","","bandit","313","669003","0.0-275.0-0.0","46860864","wem/bandit_single","A21SIPO89DP66I","gain","7","","75","K","2","","0","0","1","0.1160826651","","false","238","0.2716881628","","main_expt","0.2323540058","","0.1160826651","","0.4712934341","","","","","","",""
"27","","bandit","314","670831","0.0-276.0-0.0","46860864","wem/bandit_single","A21SIPO89DP66I","gain","7","","75","K","2","","0","0","1","0.1935594103","","false","239","0.2840113657","","main_expt","0.2527052166","","0.1935594103","","0.4744109467","","","","","","",""
"43","","bandit","315","672668","0.0-277.0-0.0","46860864","wem/bandit_single","A21SIPO89DP66I","gain","7","","75","K","2","","0","0","1","0.2305108235","","false","240","0.3274134878","","main_expt","0.2429338356","","0.2305108235","","0.4856904038","","","","","","",""
"41","","bandit","316","674513","0.0-278.0-0.0","46860864","wem/bandit_single","A21SIPO89DP66I","gain","7","","75","K","2","","0","0","1","0.23744922","","false","241","0.3106351565","","main_expt","0.2422046893","","0.23744922","","0.474377245","","","","","","",""
"96","","bandit","317","676404","0.0-279.0-0.0","46860864","wem/bandit_single","A21SIPO89DP66I","gain","7","","75","K","2","","1","0","0","0.2644088126","","false","242","0.276301991","","main_expt","0.1974588069","","0.2644088126","","0.4699498903","","","","","","",""
"423","","bandit","318","678656","0.0-280.0-0.0","46860864","wem/bandit_single","A21SIPO89DP66I","gain","7","","75","K","2","","1","0","0","0.3029471314","","false","243","0.2682550828","","main_expt","0.1697106736","","0.3029471314","","0.4696131401","","","","","","",""
"67","","bandit","319","680538","0.0-281.0-0.0","46860864","wem/bandit_single","A21SIPO89DP66I","gain","7","","75","K","2","","0","0","1","0.2869027424","","false","244","0.2717267912","","main_expt","0.1495066821","","0.2869027424","","0.4519085084","","","","","","",""
"70","","bandit","320","682409","0.0-282.0-0.0","46860864","wem/bandit_single","A21SIPO89DP66I","gain","7","","75","K","2","","1","0","0","0.2928347339","","false","245","0.2480355477","","main_expt","0.1664551864","","0.2928347339","","0.4620487724","","","","","","",""
"48","","bandit","321","684257","0.0-283.0-0.0","46860864","wem/bandit_single","A21SIPO89DP66I","gain","7","","75","K","2","","0","0","1","0.2537870262","","false","246","0.2978011657","","main_expt","0.1660340973","","0.2537870262","","0.4553277256","","","","","","",""
"451","","bandit","322","686518","0.0-284.0-0.0","46860864","wem/bandit_single","A21SIPO89DP66I","gain","7","","75","K","2","","0","0","1","0.220788829","","false","247","0.3183795364","","main_expt","0.2232834288","","0.220788829","","0.4470790686","","","","","","",""
"28","","bandit","323","688342","0.0-285.0-0.0","46860864","wem/bandit_single","A21SIPO89DP66I","gain","7","","75","K","2","","0","0","1","0.2260039815","","false","248","0.3496285813","","main_expt","0.2337066106","","0.2260039815","","0.4370243233","","","","","","",""
"333","","bandit","324","690473","0.0-286.0-0.0","46860864","wem/bandit_single","A21SIPO89DP66I","gain","7","","75","K","2","","0","0","1","0.2536259712","","false","249","0.3450691196","","main_expt","0.2555848542","","0.2536259712","","0.4344986606","","","","","","",""
"3","","bandit","325","692250","0.0-287.0-0.0","46860864","wem/bandit_single","A21SIPO89DP66I","gain","7","","75","K","2","","0","0","1","0.2748463286","","false","250","0.3451339369","","main_expt","0.2423579198","","0.2748463286","","0.4418367533","","","","","","",""
"81","","bandit","326","694123","0.0-288.0-0.0","46860864","wem/bandit_single","A21SIPO89DP66I","gain","7","","72","H","0","img/none_selected.jpg","0","0","1","0.3928119302","","false","251","0.3928119302","","main_expt","0.2275025436","","0.2623633266","","0.4227475224","","","","","","",""
"391","","bandit","327","696330","0.0-289.0-0.0","46860864","wem/bandit_single","A21SIPO89DP66I","gain","7","","72","H","0","img/none_selected.jpg","1","0","0","0.3926241496","","false","252","0.3926241496","","main_expt","0.2868871138","","0.3173920108","","0.423648384","","","","","","",""
"313","","bandit","328","698439","0.0-290.0-0.0","46860864","wem/bandit_single","A21SIPO89DP66I","gain","7","","72","H","0","img/none_selected.jpg","0","0","1","0.4074069762","","false","253","0.4074069762","","main_expt","0.2719675916","","0.3172059241","","0.4321428437","","","","","","",""
"472","","bandit","329","700731","0.0-291.0-0.0","46860864","wem/bandit_single","A21SIPO89DP66I","gain","7","","72","H","0","img/none_selected.jpg","1","0","0","0.3831412703","","false","254","0.3831412703","","main_expt","0.3118638267","","0.3200237469","","0.4621147124","","","","","","",""
"344","","bandit","330","702873","0.0-292.0-0.0","46860864","wem/bandit_single","A21SIPO89DP66I","gain","7","","72","H","0","img/none_selected.jpg","0","0","1","0.3639457665","","false","255","0.3639457665","","main_expt","0.2103897122","","0.3358809316","","0.4586218194","","","","","","",""
"199","","bandit","331","704862","0.0-293.0-0.0","46860864","wem/bandit_single","A21SIPO89DP66I","gain","7","","72","H","0","img/none_selected.jpg","1","0","0","0.3353936822","","false","256","0.3353936822","","main_expt","0.2053105091","","0.3288682213","","0.4661438042","","","","","","",""
"331","","bandit","332","706998","0.0-294.0-0.0","46860864","wem/bandit_single","A21SIPO89DP66I","gain","7","","72","H","0","img/none_selected.jpg","0","0","1","0.3457786028","","false","257","0.3457786028","","main_expt","0.2101260802","","0.3298558235","","0.4746145216","","","","","","",""
"366","","bandit","333","709150","0.0-295.0-0.0","46860864","wem/bandit_single","A21SIPO89DP66I","gain","7","","72","H","0","img/none_selected.jpg","1","0","0","0.3336199161","","false","258","0.3336199161","","main_expt","0.251470712","","0.3544886593","","0.479590246","","","","","","",""
"251","","bandit","334","711215","0.0-296.0-0.0","46860864","wem/bandit_single","A21SIPO89DP66I","gain","7","","72","H","0","img/none_selected.jpg","0","0","1","0.3182937175","","false","259","0.3182937175","","main_expt","0.2320991284","","0.3380036538","","0.4543592645","","","","","","",""
"664","","bandit","335","713693","0.0-297.0-0.0","46860864","wem/bandit_single","A21SIPO89DP66I","gain","7","","72","H","0","img/none_selected.jpg","0","0","1","0.3004718715","","false","260","0.3004718715","","main_expt","0.2850429488","","0.2797544445","","0.4591910344","","","","","","",""
"210","","bandit","336","715708","0.0-298.0-0.0","46860864","wem/bandit_single","A21SIPO89DP66I","gain","7","","72","H","0","img/none_selected.jpg","0","0","1","0.2969538951","","false","261","0.2969538951","","main_expt","0.3396488321","","0.2594239605","","0.4416244086","","","","","","",""
"1105","","bandit","337","718620","0.0-299.0-0.0","46860864","wem/bandit_single","A21SIPO89DP66I","gain","7","","72","H","0","img/none_selected.jpg","0","0","1","0.336502974","","false","262","0.336502974","","main_expt","0.243241633","","0.2804023839","","0.410126596","","","","","","",""
"513","","bandit","338","720948","0.0-300.0-0.0","46860864","wem/bandit_single","A21SIPO89DP66I","gain","7","","72","H","0","img/none_selected.jpg","0","0","1","0.3417757729","","false","263","0.3417757729","","main_expt","0.221101122","","0.2526654216","","0.3852167719","","","","","","",""
"461","","bandit","339","723200","0.0-301.0-0.0","46860864","wem/bandit_single","A21SIPO89DP66I","gain","7","","72","H","0","img/none_selected.jpg","1","0","0","0.3288238543","","false","264","0.3288238543","","main_expt","0.2475963948","","0.2262009497","","0.4048243192","","","","","","",""
"479","","bandit","340","725459","0.0-302.0-0.0","46860864","wem/bandit_single","A21SIPO89DP66I","gain","7","","72","H","0","img/none_selected.jpg","0","0","1","0.2661945806","","false","265","0.2661945806","","main_expt","0.2472156829","","0.2111455706","","0.3671025299","","","","","","",""
"612","","bandit","341","727879","0.0-303.0-0.0","46860864","wem/bandit_single","A21SIPO89DP66I","gain","7","","72","H","0","img/none_selected.jpg","0","0","1","0.2831053071","","false","266","0.2831053071","","main_expt","0.2257792125","","0.1816972253","","0.366792141","","","","","","",""
"541","","bandit","342","730219","0.0-304.0-0.0","46860864","wem/bandit_single","A21SIPO89DP66I","gain","7","","72","H","0","img/none_selected.jpg","0","0","1","0.2814616526","","false","267","0.2814616526","","main_expt","0.2434052149","","0.08996407949","","0.3187551676","","","","","","",""
"372","","bandit","343","732389","0.0-305.0-0.0","46860864","wem/bandit_single","A21SIPO89DP66I","gain","7","","72","H","0","img/none_selected.jpg","0","0","1","0.2698532634","","false","268","0.2698532634","","main_expt","0.2472891614","","0.08316088703","","0.2992927481","","","","","","",""
"378","","bandit","344","734567","0.0-306.0-0.0","46860864","wem/bandit_single","A21SIPO89DP66I","gain","7","","72","H","0","img/none_selected.jpg","1","0","0","0.332936287","","false","269","0.332936287","","main_expt","0.2592343403","","0.132755096","","0.3158706852","","","","","","",""
"314","","bandit","345","736686","0.0-307.0-0.0","46860864","wem/bandit_single","A21SIPO89DP66I","gain","7","","72","H","0","img/none_selected.jpg","0","0","1","0.3520051328","","false","270","0.3520051328","","main_expt","0.2626766442","","0.1295257529","","0.3399881701","","","","","","",""
"271","","bandit","346","738769","0.0-308.0-0.0","46860864","wem/bandit_single","A21SIPO89DP66I","gain","7","","72","H","0","img/none_selected.jpg","1","0","0","0.319936882","","false","271","0.319936882","","main_expt","0.2889536683","","0.1243547369","","0.3425846673","","","","","","",""
"723","","bandit","347","741291","0.0-309.0-0.0","46860864","wem/bandit_single","A21SIPO89DP66I","gain","7","","72","H","0","img/none_selected.jpg","1","0","0","0.3526338178","","false","272","0.3526338178","","main_expt","0.3519527746","","0.1129401117","","0.3661992365","","","","","","",""
"462","","bandit","348","743556","0.0-310.0-0.0","46860864","wem/bandit_single","A21SIPO89DP66I","gain","7","","72","H","0","img/none_selected.jpg","0","0","1","0.3661190652","","false","273","0.3661190652","","main_expt","0.3142239271","","0.07602588951","","0.3548292996","","","","","","",""
"405","","bandit","349","745775","0.0-311.0-0.0","46860864","wem/bandit_single","A21SIPO89DP66I","gain","7","","72","H","0","img/none_selected.jpg","0","0","1","0.3531355024","","false","274","0.3531355024","","main_expt","0.2858465014","","0.08326080211","","0.3015993901","","","","","","",""
"1108","","bandit","350","748670","0.0-312.0-0.0","46860864","wem/bandit_single","A21SIPO89DP66I","gain","7","","72","H","0","img/none_selected.jpg","0","0","1","0.3710682781","","false","275","0.3710682781","","main_expt","0.2833142968","","0.1117875064","","0.3074537736","","","","","","",""
"406","","bandit","351","750899","0.0-313.0-0.0","46860864","wem/bandit_single","A21SIPO89DP66I","gain","7","","72","H","0","img/none_selected.jpg","0","0","1","0.3039620657","","false","276","0.3039620657","","main_expt","0.303505508","","0.1087564456","","0.2995557441","","","","","","",""
"976","","bandit","352","753672","0.0-314.0-0.0","46860864","wem/bandit_single","A21SIPO89DP66I","gain","7","","72","H","0","img/none_selected.jpg","0","0","1","0.3661174243","","false","277","0.3661174243","","main_expt","0.2503405658","","0.1402577261","","0.3372524479","","","","","","",""
"2379","","bandit","353","757869","0.0-315.0-0.0","46860864","wem/bandit_single","A21SIPO89DP66I","gain","7","","72","H","0","img/none_selected.jpg","0","0","1","0.3603903852","","false","278","0.3603903852","","main_expt","0.2575241406","","0.1639331241","","0.3941332117","","","","","","",""
"907","","bandit","354","760577","0.0-316.0-0.0","46860864","wem/bandit_single","A21SIPO89DP66I","gain","7","","72","H","0","img/none_selected.jpg","0","0","1","0.3865241344","","false","279","0.3865241344","","main_expt","0.2537993043","","0.08855821706","","0.369807449","","","","","","",""
"222","","bandit","355","762606","0.0-317.0-0.0","46860864","wem/bandit_single","A21SIPO89DP66I","gain","7","","72","H","0","img/none_selected.jpg","1","0","0","0.3941828848","","false","280","0.3941828848","","main_expt","0.1734094061","","0.1116659285","","0.3726167961","","","","","","",""
"700","","bandit","356","765118","0.0-318.0-0.0","46860864","wem/bandit_single","A21SIPO89DP66I","gain","7","","72","H","0","img/none_selected.jpg","0","0","1","0.4060440919","","false","281","0.4060440919","","main_expt","0.1846732939","","0.1032088387","","0.3849966858","","","","","","",""
"155","","bandit","357","767090","0.0-319.0-0.0","46860864","wem/bandit_single","A21SIPO89DP66I","gain","7","","72","H","0","img/none_selected.jpg","1","0","0","0.3855255831","","false","282","0.3855255831","","main_expt","0.1808782366","","0.1449157137","","0.4081920515","","","","","","",""
"1105","","bandit","358","769973","0.0-320.0-0.0","46860864","wem/bandit_single","A21SIPO89DP66I","gain","7","","72","H","0","img/none_selected.jpg","0","0","1","0.3694157076","","false","283","0.3694157076","","main_expt","0.1375342675","","0.1649674285","","0.3930572229","","","","","","",""
"373","","bandit","359","772155","0.0-321.0-0.0","46860864","wem/bandit_single","A21SIPO89DP66I","gain","7","","72","H","0","img/none_selected.jpg","0","0","1","0.4137550783","","false","284","0.4137550783","","main_expt","0.1029306966","","0.1373277791","","0.379410926","","","","","","",""
"629","","bandit","360","774591","0.0-322.0-0.0","46860864","wem/bandit_single","A21SIPO89DP66I","gain","7","","72","H","0","img/none_selected.jpg","0","0","1","0.4268254387","","false","285","0.4268254387","","main_expt","0.08821361919","","0.1616488504","","0.3947179778","","","","","","",""
"486","","bandit","361","776883","0.0-323.0-0.0","46860864","wem/bandit_single","A21SIPO89DP66I","gain","7","","72","H","0","img/none_selected.jpg","0","0","1","0.4115685589","","false","286","0.4115685589","","main_expt","0.08321279743","","0.1306737704","","0.4036344472","","","","","","",""
"1371","","bandit","362","780036","0.0-324.0-0.0","46860864","wem/bandit_single","A21SIPO89DP66I","gain","7","","72","H","0","img/none_selected.jpg","0","0","1","0.3828423493","","false","287","0.3828423493","","main_expt","0.0595967864","","0.2059275786","","0.4025981517","","","","","","",""
"580","","bandit","363","782423","0.0-325.0-0.0","46860864","wem/bandit_single","A21SIPO89DP66I","gain","7","","72","H","0","img/none_selected.jpg","0","0","1","0.4121581376","","false","288","0.4121581376","","main_expt","0.06539189492","","0.1892738114","","0.4183513528","","","","","","",""
"356","","bandit","364","784586","0.0-326.0-0.0","46860864","wem/bandit_single","A21SIPO89DP66I","gain","7","","72","H","0","img/none_selected.jpg","1","0","0","0.4227758831","","false","289","0.4227758831","","main_expt","0.06484578344","","0.1656659279","","0.4516793017","","","","","","",""
"298","","bandit","365","786690","0.0-327.0-0.0","46860864","wem/bandit_single","A21SIPO89DP66I","gain","7","","72","H","0","img/none_selected.jpg","0","0","1","0.4149367164","","false","290","0.4149367164","","main_expt","0.06626982825","","0.1814252587","","0.4112115972","","","","","","",""
"93","","bandit","366","788604","0.0-328.0-0.0","46860864","wem/bandit_single","A21SIPO89DP66I","gain","7","","76","L","3","","0","0","1","0.4372982331","","false","291","0.399757838","","main_expt","0.1096348163","","0.2385479929","","0.4372982331","","","","","","",""
"194","","bandit","367","790601","0.0-329.0-0.0","46860864","wem/bandit_single","A21SIPO89DP66I","gain","7","","76","L","3","","1","0","0","0.4238416902","","false","292","0.3846886596","","main_expt","0.1604398542","","0.2322046479","","0.4238416902","","","","","","",""
"272","","bandit","368","792670","0.0-330.0-0.0","46860864","wem/bandit_single","A21SIPO89DP66I","gain","7","","76","L","3","","1","0","0","0.4034354509","","false","293","0.3364000065","","main_expt","0.1714651471","","0.223393304","","0.4034354509","","","","","","",""
"163","","bandit","369","794651","0.0-331.0-0.0","46860864","wem/bandit_single","A21SIPO89DP66I","gain","7","","76","L","3","","0","0","1","0.4093667064","","false","294","0.3545739736","","main_expt","0.1378543876","","0.2290093083","","0.4093667064","","","","","","",""
"115","","bandit","370","796562","0.0-332.0-0.0","46860864","wem/bandit_single","A21SIPO89DP66I","gain","7","","76","L","3","","0","0","1","0.4294791191","","false","295","0.2891777922","","main_expt","0.1243446737","","0.2875464899","","0.4294791191","","","","","","",""
