"rt","responses","trial_type","trial_index","time_elapsed","internal_node_id","subjID","study","MID","cond","drift","key_press","respCharCode","respKey","respChoiceNum","respChoice","gems","bombs","no_reward","GemPrChosen","BombPrChosen","practice","trial_counter","WinPr_0","LosePr_0","trial_label","WinPr_1","LosePr_1","WinPr_2","LosePr_2","WinPr_3","LosePr_3","Q0","Q1","Q2","gender","age","ethnicity"
"69698","{""Q0"":""A38N2MBXP7IOPS""}","survey-text","0","69708","0.0-0.0","46885927","wem/bandit_single","A38N2MBXP7IOPS","pain","3","","","","","","","","","","","","","","","","","","","","","","","","","","",""
"1790","","text","1","72504","0.0-1.0","46885927","wem/bandit_single","A38N2MBXP7IOPS","pain","3","32","","","","","","","","","","","","","","","","","","","","","","","","","",""
"12612","","text","2","85118","0.0-2.0","46885927","wem/bandit_single","A38N2MBXP7IOPS","pain","3","32","","","","","","","","","","","","","","","","","","","","","","","","","",""
"44003","","text","3","129124","0.0-3.0","46885927","wem/bandit_single","A38N2MBXP7IOPS","pain","3","32","","","","","","","","","","","","","","","","","","","","","","","","","",""
"12121","","text","4","141246","0.0-4.0","46885927","wem/bandit_single","A38N2MBXP7IOPS","pain","3","32","","","","","","","","","","","","","","","","","","","","","","","","","",""
"8329","","text","5","149576","0.0-5.0","46885927","wem/bandit_single","A38N2MBXP7IOPS","pain","3","32","","","","","","","","","","","","","","","","","","","","","","","","","",""
"9364","","text","6","158942","0.0-6.0","46885927","wem/bandit_single","A38N2MBXP7IOPS","pain","3","32","","","","","","","","","","","","","","","","","","","","","","","","","",""
"6285","","text","7","165227","0.0-7.0","46885927","wem/bandit_single","A38N2MBXP7IOPS","pain","3","32","","","","","","","","","","","","","","","","","","","","","","","","","",""
"4661","","text","8","169890","0.0-8.0","46885927","wem/bandit_single","A38N2MBXP7IOPS","pain","3","32","","","","","","","","","","","","","","","","","","","","","","","","","",""
"6320","","text","9","176211","0.0-9.0","46885927","wem/bandit_single","A38N2MBXP7IOPS","pain","3","32","","","","","","","","","","","","","","","","","","","","","","","","","",""
"7308","","text","10","183520","0.0-10.0","46885927","wem/bandit_single","A38N2MBXP7IOPS","pain","3","32","","","","","","","","","","","","","","","","","","","","","","","","","",""
"13679","","text","11","197200","0.0-11.0","46885927","wem/bandit_single","A38N2MBXP7IOPS","pain","3","32","","","","","","","","","","","","","","","","","","","","","","","","","",""
"2168","","bandit","12","200881","0.0-12.0-0.0","46885927","wem/bandit_single","A38N2MBXP7IOPS","pain","3","","74","J","0","img/none_selected_demo.jpg","0","0","1","0","0","true","0","0","0","","","","","","","","","","","","",""
"1158","","bandit","13","203798","0.0-13.0-0.0","46885927","wem/bandit_single","A38N2MBXP7IOPS","pain","3","","75","K","0","img/none_selected_demo.jpg","0","0","1","0","0","true","0","0","0","","","","","","","","","","","","",""
"2684","","text","14","206736","0.0-14.0","46885927","wem/bandit_single","A38N2MBXP7IOPS","pain","3","32","","","","","","","","","","","","","","","","","","","","","","","","","",""
"2461","","text","15","209199","0.0-15.0","46885927","wem/bandit_single","A38N2MBXP7IOPS","pain","3","32","","","","","","","","","","","","","","","","","","","","","","","","","",""
"4263","","text","16","213463","0.0-16.0","46885927","wem/bandit_single","A38N2MBXP7IOPS","pain","3","32","","","","","","","","","","","","","","","","","","","","","","","","","",""
"2879","","text","17","216343","0.0-17.0","46885927","wem/bandit_single","A38N2MBXP7IOPS","pain","3","32","","","","","","","","","","","","","","","","","","","","","","","","","",""
"2999","","bandit","18","220848","0.0-18.0-0.0","46885927","wem/bandit_single","A38N2MBXP7IOPS","pain","3","","74","J","0","img/none_selected_demo.jpg","0","0","1","0","0.8","true","0","0","0.8","80_20_practice","0","0.2","","","","","","","","","",""
"982","","bandit","19","223590","0.0-18.0-1.0","46885927","wem/bandit_single","A38N2MBXP7IOPS","pain","3","","75","K","1","","0","0","1","0","0.2","true","0","0","0.8","80_20_practice","0","0.2","","","","","","","","","",""
"2492","","bandit","20","227840","0.0-18.0-2.0","46885927","wem/bandit_single","A38N2MBXP7IOPS","pain","3","","74","J","0","img/none_selected_demo.jpg","0","1","0","0","0.8","true","0","0","0.8","80_20_practice","0","0.2","","","","","","","","","",""
"561","","bandit","21","230159","0.0-18.0-3.0","46885927","wem/bandit_single","A38N2MBXP7IOPS","pain","3","","74","J","0","img/none_selected_demo.jpg","0","1","0","0","0.8","true","0","0","0.8","80_20_practice","0","0.2","","","","","","","","","",""
"667","","bandit","22","232586","0.0-18.0-4.0","46885927","wem/bandit_single","A38N2MBXP7IOPS","pain","3","","74","J","0","img/none_selected_demo.jpg","0","1","0","0","0.8","true","0","0","0.8","80_20_practice","0","0.2","","","","","","","","","",""
"775","","bandit","23","235120","0.0-18.0-5.0","46885927","wem/bandit_single","A38N2MBXP7IOPS","pain","3","","74","J","0","img/none_selected_demo.jpg","0","0","1","0","0.8","true","0","0","0.8","80_20_practice","0","0.2","","","","","","","","","",""
"1409","","bandit","24","238287","0.0-18.0-6.0","46885927","wem/bandit_single","A38N2MBXP7IOPS","pain","3","","75","K","1","","0","0","1","0","0.2","true","0","0","0.8","80_20_practice","0","0.2","","","","","","","","","",""
"89","","bandit","25","240135","0.0-18.0-7.0","46885927","wem/bandit_single","A38N2MBXP7IOPS","pain","3","","74","J","0","img/none_selected_demo.jpg","0","1","0","0","0.8","true","0","0","0.8","80_20_practice","0","0.2","","","","","","","","","",""
"242","","bandit","26","242136","0.0-18.0-8.0","46885927","wem/bandit_single","A38N2MBXP7IOPS","pain","3","","75","K","1","","0","0","1","0","0.2","true","0","0","0.8","80_20_practice","0","0.2","","","","","","","","","",""
"228","","bandit","27","244122","0.0-18.0-9.0","46885927","wem/bandit_single","A38N2MBXP7IOPS","pain","3","","74","J","0","img/none_selected_demo.jpg","0","1","0","0","0.8","true","0","0","0.8","80_20_practice","0","0.2","","","","","","","","","",""
"583","","bandit","28","246463","0.0-18.0-10.0","46885927","wem/bandit_single","A38N2MBXP7IOPS","pain","3","","74","J","0","img/none_selected_demo.jpg","0","0","1","0","0.8","true","0","0","0.8","80_20_practice","0","0.2","","","","","","","","","",""
"776","","bandit","29","248999","0.0-18.0-11.0","46885927","wem/bandit_single","A38N2MBXP7IOPS","pain","3","","75","K","1","","0","0","1","0","0.2","true","0","0","0.8","80_20_practice","0","0.2","","","","","","","","","",""
"194","","bandit","30","250950","0.0-18.0-12.0","46885927","wem/bandit_single","A38N2MBXP7IOPS","pain","3","","75","K","1","","0","0","1","0","0.2","true","0","0","0.8","80_20_practice","0","0.2","","","","","","","","","",""
"753","","bandit","31","253464","0.0-18.0-13.0","46885927","wem/bandit_single","A38N2MBXP7IOPS","pain","3","","74","J","0","img/none_selected_demo.jpg","0","1","0","0","0.8","true","0","0","0.8","80_20_practice","0","0.2","","","","","","","","","",""
"242","","bandit","32","255464","0.0-18.0-14.0","46885927","wem/bandit_single","A38N2MBXP7IOPS","pain","3","","74","J","0","img/none_selected_demo.jpg","0","1","0","0","0.8","true","0","0","0.8","80_20_practice","0","0.2","","","","","","","","","",""
"2519","","bandit","33","259742","0.0-18.0-15.0","46885927","wem/bandit_single","A38N2MBXP7IOPS","pain","3","","74","J","0","img/none_selected_demo.jpg","0","0","1","0","0.8","true","0","0","0.8","80_20_practice","0","0.2","","","","","","","","","",""
"162","","bandit","34","261663","0.0-18.0-16.0","46885927","wem/bandit_single","A38N2MBXP7IOPS","pain","3","","75","K","1","","0","0","1","0","0.2","true","0","0","0.8","80_20_practice","0","0.2","","","","","","","","","",""
"296","","bandit","35","263718","0.0-18.0-17.0","46885927","wem/bandit_single","A38N2MBXP7IOPS","pain","3","","74","J","0","img/none_selected_demo.jpg","0","1","0","0","0.8","true","0","0","0.8","80_20_practice","0","0.2","","","","","","","","","",""
"644","","bandit","36","266121","0.0-18.0-18.0","46885927","wem/bandit_single","A38N2MBXP7IOPS","pain","3","","74","J","0","img/none_selected_demo.jpg","0","1","0","0","0.8","true","0","0","0.8","80_20_practice","0","0.2","","","","","","","","","",""
"2167","","bandit","37","270044","0.0-18.0-19.0","46885927","wem/bandit_single","A38N2MBXP7IOPS","pain","3","","74","J","0","img/none_selected_demo.jpg","0","1","0","0","0.8","true","0","0","0.8","80_20_practice","0","0.2","","","","","","","","","",""
"5588","","text","38","275885","0.0-19.0","46885927","wem/bandit_single","A38N2MBXP7IOPS","pain","3","32","","","","","","","","","","","","","","","","","","","","","","","","","",""
"6274","","bandit","39","283666","0.0-20.0-0.0","46885927","wem/bandit_single","A38N2MBXP7IOPS","pain","3","","74","J","0","img/none_selected_demo.jpg","0","0","1","0","0","true","0","0","0","","0","0","","","","","","","","","",""
"3999","","text","40","287920","0.0-21.0","46885927","wem/bandit_single","A38N2MBXP7IOPS","pain","3","32","","","","","","","","","","","","","","","","","","","","","","","","","",""
"3156","","text","41","291078","0.0-22.0","46885927","wem/bandit_single","A38N2MBXP7IOPS","pain","3","32","","","","","","","","","","","","","","","","","","","","","","","","","",""
"2157","","text","42","293238","0.0-23.0","46885927","wem/bandit_single","A38N2MBXP7IOPS","pain","3","32","","","","","","","","","","","","","","","","","","","","","","","","","",""
"1838","","text","43","295077","0.0-24.0","46885927","wem/bandit_single","A38N2MBXP7IOPS","pain","3","32","","","","","","","","","","","","","","","","","","","","","","","","","",""
"3800","","text","44","298880","0.0-25.0","46885927","wem/bandit_single","A38N2MBXP7IOPS","pain","3","32","","","","","","","","","","","","","","","","","","","","","","","","","",""
"2901","","text","45","301782","0.0-26.0","46885927","wem/bandit_single","A38N2MBXP7IOPS","pain","3","32","","","","","","","","","","","","","","","","","","","","","","","","","",""
"2805","","text","46","304590","0.0-27.0","46885927","wem/bandit_single","A38N2MBXP7IOPS","pain","3","32","","","","","","","","","","","","","","","","","","","","","","","","","",""
"2126","","text","47","306718","0.0-28.0","46885927","wem/bandit_single","A38N2MBXP7IOPS","pain","3","32","","","","","","","","","","","","","","","","","","","","","","","","","",""
"1588","","text","48","308309","0.0-29.0","46885927","wem/bandit_single","A38N2MBXP7IOPS","pain","3","32","","","","","","","","","","","","","","","","","","","","","","","","","",""
"1248","","text","49","309560","0.0-30.0","46885927","wem/bandit_single","A38N2MBXP7IOPS","pain","3","32","","","","","","","","","","","","","","","","","","","","","","","","","",""
"4175","","text","50","313738","0.0-31.0","46885927","wem/bandit_single","A38N2MBXP7IOPS","pain","3","32","","","","","","","","","","","","","","","","","","","","","","","","","",""
"2373","","bandit","51","317618","0.0-32.0-0.0","46885927","wem/bandit_single","A38N2MBXP7IOPS","pain","3","","72","H","0","img/none_selected.jpg","0","1","0","0","0.8","true","0","0","0.8","full_practice","0","0.2","0","0.6","0","0.2","","","","","",""
"730","","bandit","52","320105","0.0-32.0-1.0","46885927","wem/bandit_single","A38N2MBXP7IOPS","pain","3","","75","K","2","","0","0","1","0","0.6","true","0","0","0.8","full_practice","0","0.2","0","0.6","0","0.2","","","","","",""
"307","","bandit","53","322171","0.0-32.0-2.0","46885927","wem/bandit_single","A38N2MBXP7IOPS","pain","3","","76","L","3","","0","0","1","0","0.2","true","0","0","0.8","full_practice","0","0.2","0","0.6","0","0.2","","","","","",""
"1167","","bandit","54","325097","0.0-32.0-3.0","46885927","wem/bandit_single","A38N2MBXP7IOPS","pain","3","","72","H","0","img/none_selected.jpg","0","0","1","0","0.8","true","0","0","0.8","full_practice","0","0.2","0","0.6","0","0.2","","","","","",""
"1138","","bandit","55","327993","0.0-32.0-4.0","46885927","wem/bandit_single","A38N2MBXP7IOPS","pain","3","","74","J","1","","0","0","1","0","0.2","true","0","0","0.8","full_practice","0","0.2","0","0.6","0","0.2","","","","","",""
"120","","bandit","56","329872","0.0-32.0-5.0","46885927","wem/bandit_single","A38N2MBXP7IOPS","pain","3","","72","H","0","img/none_selected.jpg","0","1","0","0","0.8","true","0","0","0.8","full_practice","0","0.2","0","0.6","0","0.2","","","","","",""
"410","","bandit","57","332040","0.0-32.0-6.0","46885927","wem/bandit_single","A38N2MBXP7IOPS","pain","3","","72","H","0","img/none_selected.jpg","0","1","0","0","0.8","true","0","0","0.8","full_practice","0","0.2","0","0.6","0","0.2","","","","","",""
"292","","bandit","58","334090","0.0-32.0-7.0","46885927","wem/bandit_single","A38N2MBXP7IOPS","pain","3","","72","H","0","img/none_selected.jpg","0","1","0","0","0.8","true","0","0","0.8","full_practice","0","0.2","0","0.6","0","0.2","","","","","",""
"218","","bandit","59","336064","0.0-32.0-8.0","46885927","wem/bandit_single","A38N2MBXP7IOPS","pain","3","","72","H","0","img/none_selected.jpg","0","1","0","0","0.8","true","0","0","0.8","full_practice","0","0.2","0","0.6","0","0.2","","","","","",""
"322","","bandit","60","338143","0.0-32.0-9.0","46885927","wem/bandit_single","A38N2MBXP7IOPS","pain","3","","72","H","0","img/none_selected.jpg","0","1","0","0","0.8","true","0","0","0.8","full_practice","0","0.2","0","0.6","0","0.2","","","","","",""
"265","","bandit","61","340170","0.0-32.0-10.0","46885927","wem/bandit_single","A38N2MBXP7IOPS","pain","3","","72","H","0","img/none_selected.jpg","0","1","0","0","0.8","true","0","0","0.8","full_practice","0","0.2","0","0.6","0","0.2","","","","","",""
"231","","bandit","62","342160","0.0-32.0-11.0","46885927","wem/bandit_single","A38N2MBXP7IOPS","pain","3","","72","H","0","img/none_selected.jpg","0","0","1","0","0.8","true","0","0","0.8","full_practice","0","0.2","0","0.6","0","0.2","","","","","",""
"468","","bandit","63","344387","0.0-32.0-12.0","46885927","wem/bandit_single","A38N2MBXP7IOPS","pain","3","","74","J","1","","0","0","1","0","0.2","true","0","0","0.8","full_practice","0","0.2","0","0.6","0","0.2","","","","","",""
"831","","bandit","64","346976","0.0-32.0-13.0","46885927","wem/bandit_single","A38N2MBXP7IOPS","pain","3","","76","L","3","","0","0","1","0","0.2","true","0","0","0.8","full_practice","0","0.2","0","0.6","0","0.2","","","","","",""
"216","","bandit","65","348951","0.0-32.0-14.0","46885927","wem/bandit_single","A38N2MBXP7IOPS","pain","3","","75","K","2","","0","0","1","0","0.6","true","0","0","0.8","full_practice","0","0.2","0","0.6","0","0.2","","","","","",""
"545","","bandit","66","351255","0.0-32.0-15.0","46885927","wem/bandit_single","A38N2MBXP7IOPS","pain","3","","74","J","1","","0","1","0","0","0.2","true","0","0","0.8","full_practice","0","0.2","0","0.6","0","0.2","","","","","",""
"258","","bandit","67","353272","0.0-32.0-16.0","46885927","wem/bandit_single","A38N2MBXP7IOPS","pain","3","","74","J","1","","0","0","1","0","0.2","true","0","0","0.8","full_practice","0","0.2","0","0.6","0","0.2","","","","","",""
"379","","bandit","68","355410","0.0-32.0-17.0","46885927","wem/bandit_single","A38N2MBXP7IOPS","pain","3","","74","J","1","","0","1","0","0","0.2","true","0","0","0.8","full_practice","0","0.2","0","0.6","0","0.2","","","","","",""
"232","","bandit","69","357400","0.0-32.0-18.0","46885927","wem/bandit_single","A38N2MBXP7IOPS","pain","3","","74","J","1","","0","0","1","0","0.2","true","0","0","0.8","full_practice","0","0.2","0","0.6","0","0.2","","","","","",""
"520","","bandit","70","359680","0.0-32.0-19.0","46885927","wem/bandit_single","A38N2MBXP7IOPS","pain","3","","74","J","1","","0","0","1","0","0.2","true","0","0","0.8","full_practice","0","0.2","0","0.6","0","0.2","","","","","",""
"3111","","text","71","363048","0.0-33.0","46885927","wem/bandit_single","A38N2MBXP7IOPS","pain","3","32","","","","","","","","","","","","","","","","","","","","","","","","","",""
"7003","","text","72","371054","0.0-34.0","46885927","wem/bandit_single","A38N2MBXP7IOPS","pain","3","32","","","","","","","","","","","","","","","","","","","","","","","","","",""
"1595","","text","73","372653","0.0-35.0","46885927","wem/bandit_single","A38N2MBXP7IOPS","pain","3","32","","","","","","","","","","","","","","","","","","","","","","","","","",""
"2349","","text","74","375005","0.0-36.0","46885927","wem/bandit_single","A38N2MBXP7IOPS","pain","3","32","","","","","","","","","","","","","","","","","","","","","","","","","",""
"1740","","text","75","376748","0.0-37.0","46885927","wem/bandit_single","A38N2MBXP7IOPS","pain","3","32","","","","","","","","","","","","","","","","","","","","","","","","","",""
"1780","","bandit","76","380037","0.0-38.0-0.0","46885927","wem/bandit_single","A38N2MBXP7IOPS","pain","3","","72","H","0","img/none_selected.jpg","0","1","0","","0.2015711498","false","1","","0.2015711498","main_expt","","0.2211287853","","0.3417032333","","0.06813583588","","","","","",""
"279","","bandit","77","382077","0.0-39.0-0.0","46885927","wem/bandit_single","A38N2MBXP7IOPS","pain","3","","72","H","0","img/none_selected.jpg","0","0","1","","0.1868286341","false","2","","0.1868286341","main_expt","","0.2921894834","","0.3935143322","","0.08840771113","","","","","",""
"1560","","bandit","78","385395","0.0-40.0-0.0","46885927","wem/bandit_single","A38N2MBXP7IOPS","pain","3","","74","J","1","","0","0","1","","0.2712314767","false","3","","0.2285659085","main_expt","","0.2712314767","","0.3247841161","","0.14311428","","","","","",""
"497","","bandit","79","387651","0.0-41.0-0.0","46885927","wem/bandit_single","A38N2MBXP7IOPS","pain","3","","76","L","3","","0","0","1","","0.1389033164","false","4","","0.2587006496","main_expt","","0.3501044345","","0.3524809632","","0.1389033164","","","","","",""
"250","","bandit","80","389659","0.0-42.0-0.0","46885927","wem/bandit_single","A38N2MBXP7IOPS","pain","3","","75","K","2","","0","1","0","","0.3243282494","false","5","","0.2238216231","main_expt","","0.3826883046","","0.3243282494","","0.1064755534","","","","","",""
"136","","bandit","81","391556","0.0-43.0-0.0","46885927","wem/bandit_single","A38N2MBXP7IOPS","pain","3","","75","K","2","","0","1","0","","0.3856520047","false","6","","0.2114086621","main_expt","","0.3538977559","","0.3856520047","","0.07607549968","","","","","",""
"378","","bandit","82","393693","0.0-44.0-0.0","46885927","wem/bandit_single","A38N2MBXP7IOPS","pain","3","","75","K","2","","0","1","0","","0.3595299576","false","7","","0.225256176","main_expt","","0.3911179113","","0.3595299576","","0.0490522351","","","","","",""
"366","","bandit","83","395818","0.0-45.0-0.0","46885927","wem/bandit_single","A38N2MBXP7IOPS","pain","3","","75","K","2","","0","0","1","","0.2908809246","false","8","","0.1920600422","main_expt","","0.3378010318","","0.2908809246","","0.04564729275","","","","","",""
"282","","bandit","84","397860","0.0-46.0-0.0","46885927","wem/bandit_single","A38N2MBXP7IOPS","pain","3","","72","H","0","img/none_selected.jpg","0","0","1","","0.222474992","false","9","","0.222474992","main_expt","","0.3584091786","","0.3401169694","","0.05361883364","","","","","",""
"184","","bandit","85","399803","0.0-47.0-0.0","46885927","wem/bandit_single","A38N2MBXP7IOPS","pain","3","","72","H","0","img/none_selected.jpg","0","0","1","","0.1720297318","false","10","","0.1720297318","main_expt","","0.3822252457","","0.370347707","","0.05689605437","","","","","",""
"239","","bandit","86","401803","0.0-48.0-0.0","46885927","wem/bandit_single","A38N2MBXP7IOPS","pain","3","","74","J","1","","0","0","1","","0.4003480189","false","11","","0.1672236423","main_expt","","0.4003480189","","0.3385652673","","0.05596529361","","","","","",""
"290","","bandit","87","403852","0.0-49.0-0.0","46885927","wem/bandit_single","A38N2MBXP7IOPS","pain","3","","75","K","2","","0","1","0","","0.3433253296","false","12","","0.1908353862","main_expt","","0.4035898181","","0.3433253296","","0.07455145674","","","","","",""
"183","","bandit","88","405794","0.0-50.0-0.0","46885927","wem/bandit_single","A38N2MBXP7IOPS","pain","3","","75","K","2","","0","1","0","","0.3306460316","false","13","","0.1373256951","main_expt","","0.3939267589","","0.3306460316","","0.1061797552","","","","","",""
"347","","bandit","89","407898","0.0-51.0-0.0","46885927","wem/bandit_single","A38N2MBXP7IOPS","pain","3","","75","K","2","","0","0","1","","0.3423394156","false","14","","0.1605467602","main_expt","","0.4058751809","","0.3423394156","","0.09003395111","","","","","",""
"746","","bandit","90","410403","0.0-52.0-0.0","46885927","wem/bandit_single","A38N2MBXP7IOPS","pain","3","","74","J","1","","0","0","1","","0.3784768297","false","15","","0.1270826231","main_expt","","0.3784768297","","0.3514631564","","0.09190110762","","","","","",""
"433","","bandit","91","412596","0.0-53.0-0.0","46885927","wem/bandit_single","A38N2MBXP7IOPS","pain","3","","76","L","3","","0","0","1","","0.1119147711","false","16","","0.1659789958","main_expt","","0.3742197382","","0.3763865137","","0.1119147711","","","","","",""
"344","","bandit","92","414698","0.0-54.0-0.0","46885927","wem/bandit_single","A38N2MBXP7IOPS","pain","3","","72","H","0","img/none_selected.jpg","0","0","1","","0.1810296119","false","17","","0.1810296119","main_expt","","0.3738750299","","0.3613216018","","0.1268228496","","","","","",""
"168","","bandit","93","416627","0.0-55.0-0.0","46885927","wem/bandit_single","A38N2MBXP7IOPS","pain","3","","74","J","1","","0","0","1","","0.30878177","false","18","","0.2209588372","main_expt","","0.30878177","","0.3354311471","","0.160542793","","","","","",""
"207","","bandit","94","418594","0.0-56.0-0.0","46885927","wem/bandit_single","A38N2MBXP7IOPS","pain","3","","76","L","3","","0","1","0","","0.1913020378","false","19","","0.1577150754","main_expt","","0.3257740717","","0.3151580681","","0.1913020378","","","","","",""
"258","","bandit","95","420611","0.0-57.0-0.0","46885927","wem/bandit_single","A38N2MBXP7IOPS","pain","3","","76","L","3","","0","1","0","","0.2201213849","false","20","","0.2368366468","main_expt","","0.2780557495","","0.2633525784","","0.2201213849","","","","","",""
"296","","bandit","96","422666","0.0-58.0-0.0","46885927","wem/bandit_single","A38N2MBXP7IOPS","pain","3","","76","L","3","","0","0","1","","0.1747441944","false","21","","0.1692925459","main_expt","","0.2552615423","","0.2730255539","","0.1747441944","","","","","",""
"595","","bandit","97","425021","0.0-59.0-0.0","46885927","wem/bandit_single","A38N2MBXP7IOPS","pain","3","","72","H","0","img/none_selected.jpg","0","1","0","","0.144462955","false","22","","0.144462955","main_expt","","0.2862558775","","0.2366183143","","0.1407764438","","","","","",""
"149","","bandit","98","426930","0.0-60.0-0.0","46885927","wem/bandit_single","A38N2MBXP7IOPS","pain","3","","72","H","0","img/none_selected.jpg","0","1","0","","0.1928882479","false","23","","0.1928882479","main_expt","","0.290674517","","0.2193011186","","0.1444197889","","","","","",""
"298","","bandit","99","428985","0.0-61.0-0.0","46885927","wem/bandit_single","A38N2MBXP7IOPS","pain","3","","72","H","0","img/none_selected.jpg","0","0","1","","0.2077361259","false","24","","0.2077361259","main_expt","","0.2669553567","","0.2058852999","","0.1898422889","","","","","",""
"288","","bandit","100","431035","0.0-62.0-0.0","46885927","wem/bandit_single","A38N2MBXP7IOPS","pain","3","","76","L","3","","0","0","1","","0.2319991336","false","25","","0.2580980749","main_expt","","0.2134469473","","0.2377147794","","0.2319991336","","","","","",""
"417","","bandit","101","433209","0.0-63.0-0.0","46885927","wem/bandit_single","A38N2MBXP7IOPS","pain","3","","75","K","2","","0","1","0","","0.3017638279","false","26","","0.2593960467","main_expt","","0.2027981442","","0.3017638279","","0.2140617454","","","","","",""
"123","","bandit","102","435092","0.0-64.0-0.0","46885927","wem/bandit_single","A38N2MBXP7IOPS","pain","3","","75","K","2","","0","0","1","","0.2647551657","false","27","","0.2913294918","main_expt","","0.1669761534","","0.2647551657","","0.2186733942","","","","","",""
"31","","bandit","103","436881","0.0-65.0-0.0","46885927","wem/bandit_single","A38N2MBXP7IOPS","pain","3","","72","H","0","img/none_selected.jpg","0","0","1","","0.2838721205","false","28","","0.2838721205","main_expt","","0.1301617017","","0.2864353885","","0.2573772923","","","","","",""
"153","","bandit","104","438793","0.0-66.0-0.0","46885927","wem/bandit_single","A38N2MBXP7IOPS","pain","3","","74","J","1","","0","0","1","","0.1540227795","false","29","","0.2225595658","main_expt","","0.1540227795","","0.2669447337","","0.2563684882","","","","","",""
"177","","bandit","105","440730","0.0-67.0-0.0","46885927","wem/bandit_single","A38N2MBXP7IOPS","pain","3","","76","L","3","","0","1","0","","0.3180657859","false","30","","0.2450998207","main_expt","","0.1290956128","","0.242519946","","0.3180657859","","","","","",""
"192","","bandit","106","442682","0.0-68.0-0.0","46885927","wem/bandit_single","A38N2MBXP7IOPS","pain","3","","76","L","3","","0","1","0","","0.3391977199","false","31","","0.2358374841","main_expt","","0.157476084","","0.1808952067","","0.3391977199","","","","","",""
"320","","bandit","107","444762","0.0-69.0-0.0","46885927","wem/bandit_single","A38N2MBXP7IOPS","pain","3","","76","L","3","","0","0","1","","0.3655242212","false","32","","0.2465538883","main_expt","","0.1667461438","","0.1490402933","","0.3655242212","","","","","",""
"32","","bandit","108","446554","0.0-70.0-0.0","46885927","wem/bandit_single","A38N2MBXP7IOPS","pain","3","","72","H","0","img/none_selected.jpg","0","0","1","","0.2479029149","false","33","","0.2479029149","main_expt","","0.1698659255","","0.1607825008","","0.3476833293","","","","","",""
"591","","bandit","109","448905","0.0-71.0-0.0","46885927","wem/bandit_single","A38N2MBXP7IOPS","pain","3","","75","K","2","","0","0","1","","0.2019438485","false","34","","0.1813792252","main_expt","","0.1830702822","","0.2019438485","","0.3287357547","","","","","",""
"378","","bandit","110","451042","0.0-72.0-0.0","46885927","wem/bandit_single","A38N2MBXP7IOPS","pain","3","","74","J","1","","0","0","1","","0.1648441896","false","35","","0.1507873856","main_expt","","0.1648441896","","0.1187506792","","0.3568635533","","","","","",""
"32","","bandit","111","452833","0.0-73.0-0.0","46885927","wem/bandit_single","A38N2MBXP7IOPS","pain","3","","72","H","0","img/none_selected.jpg","0","1","0","","0.185146395","false","36","","0.185146395","main_expt","","0.1702375356","","0.107122158","","0.2559818432","","","","","",""
"168","","bandit","112","454762","0.0-74.0-0.0","46885927","wem/bandit_single","A38N2MBXP7IOPS","pain","3","","72","H","0","img/none_selected.jpg","0","0","1","","0.1995500277","false","37","","0.1995500277","main_expt","","0.1248493821","","0.1462043769","","0.2095103509","","","","","",""
"257","","bandit","113","456777","0.0-75.0-0.0","46885927","wem/bandit_single","A38N2MBXP7IOPS","pain","3","","74","J","1","","0","0","1","","0.1806095344","false","38","","0.2324476024","main_expt","","0.1806095344","","0.1562864446","","0.1824107212","","","","","",""
"415","","bandit","114","458953","0.0-76.0-0.0","46885927","wem/bandit_single","A38N2MBXP7IOPS","pain","3","","75","K","2","","0","0","1","","0.1425148763","false","39","","0.2374336796","main_expt","","0.1636381498","","0.1425148763","","0.180532013","","","","","",""
"192","","bandit","115","460904","0.0-77.0-0.0","46885927","wem/bandit_single","A38N2MBXP7IOPS","pain","3","","76","L","3","","0","1","0","","0.209403608","false","40","","0.1871034738","main_expt","","0.128328165","","0.1332413707","","0.209403608","","","","","",""
"113","","bandit","116","462777","0.0-78.0-0.0","46885927","wem/bandit_single","A38N2MBXP7IOPS","pain","3","","76","L","3","","0","0","1","","0.1790729352","false","41","","0.1923798107","main_expt","","0.1128848486","","0.170838957","","0.1790729352","","","","","",""
"882","","bandit","117","465420","0.0-79.0-0.0","46885927","wem/bandit_single","A38N2MBXP7IOPS","pain","3","","72","H","0","img/none_selected.jpg","0","0","1","","0.2175202152","false","42","","0.2175202152","main_expt","","0.1024028154","","0.221577246","","0.1586268334","","","","","",""
"150","","bandit","118","467329","0.0-80.0-0.0","46885927","wem/bandit_single","A38N2MBXP7IOPS","pain","3","","74","J","1","","0","1","0","","0.1842117743","false","43","","0.199004634","main_expt","","0.1842117743","","0.2937465132","","0.1953085145","","","","","",""
"89","","bandit","119","469176","0.0-81.0-0.0","46885927","wem/bandit_single","A38N2MBXP7IOPS","pain","3","","74","J","1","","0","0","1","","0.2398699605","false","44","","0.1979694218","main_expt","","0.2398699605","","0.2473378206","","0.229373846","","","","","",""
"288","","bandit","120","471225","0.0-82.0-0.0","46885927","wem/bandit_single","A38N2MBXP7IOPS","pain","3","","75","K","2","","0","0","1","","0.2911711657","false","45","","0.1992427108","main_expt","","0.2666943954","","0.2911711657","","0.2387173179","","","","","",""
"192","","bandit","121","473178","0.0-83.0-0.0","46885927","wem/bandit_single","A38N2MBXP7IOPS","pain","3","","72","H","0","img/none_selected.jpg","0","0","1","","0.2240306516","false","46","","0.2240306516","main_expt","","0.3187479261","","0.2520057509","","0.2142046797","","","","","",""
"471","","bandit","122","475409","0.0-84.0-0.0","46885927","wem/bandit_single","A38N2MBXP7IOPS","pain","3","","76","L","3","","0","0","1","","0.2454335886","false","47","","0.2065012218","main_expt","","0.3190608455","","0.2527148282","","0.2454335886","","","","","",""
"520","","bandit","123","477689","0.0-85.0-0.0","46885927","wem/bandit_single","A38N2MBXP7IOPS","pain","3","","75","K","2","","0","0","1","","0.273334487","false","48","","0.1926440163","main_expt","","0.3135096665","","0.273334487","","0.2810950816","","","","","",""
"1120","","bandit","124","480568","0.0-86.0-0.0","46885927","wem/bandit_single","A38N2MBXP7IOPS","pain","3","","74","J","1","","0","1","0","","0.3341811191","false","49","","0.1670810943","main_expt","","0.3341811191","","0.3181736471","","0.2547597437","","","","","",""
"217","","bandit","125","482544","0.0-87.0-0.0","46885927","wem/bandit_single","A38N2MBXP7IOPS","pain","3","","74","J","1","","0","0","1","","0.3459923598","false","50","","0.1198069869","main_expt","","0.3459923598","","0.3806153608","","0.224323175","","","","","",""
"297","","bandit","126","484601","0.0-88.0-0.0","46885927","wem/bandit_single","A38N2MBXP7IOPS","pain","3","","74","J","1","","0","1","0","","0.3331953563","false","51","","0.103394302","main_expt","","0.3331953563","","0.3949296296","","0.2755477452","","","","","",""
"121","","bandit","127","486480","0.0-89.0-0.0","46885927","wem/bandit_single","A38N2MBXP7IOPS","pain","3","","74","J","1","","0","0","1","","0.3915962888","false","52","","0.1018912343","main_expt","","0.3915962888","","0.3544293331","","0.3022170302","","","","","",""
"423","","bandit","128","488663","0.0-90.0-0.0","46885927","wem/bandit_single","A38N2MBXP7IOPS","pain","3","","74","J","1","","0","0","1","","0.3984086051","false","53","","0.07233269407","main_expt","","0.3984086051","","0.3007967805","","0.2886203433","","","","","",""
"394","","bandit","129","490816","0.0-91.0-0.0","46885927","wem/bandit_single","A38N2MBXP7IOPS","pain","3","","75","K","2","","0","0","1","","0.3376398899","false","54","","0.09210147888","main_expt","","0.4181407331","","0.3376398899","","0.3072524501","","","","","",""
"111","","bandit","130","492689","0.0-92.0-0.0","46885927","wem/bandit_single","A38N2MBXP7IOPS","pain","3","","76","L","3","","0","0","1","","0.3847595325","false","55","","0.08866102842","main_expt","","0.3964386999","","0.3625264345","","0.3847595325","","","","","",""
"1622","","bandit","131","496073","0.0-93.0-0.0","46885927","wem/bandit_single","A38N2MBXP7IOPS","pain","3","","72","H","0","img/none_selected.jpg","0","1","0","","0.1208391037","false","56","","0.1208391037","main_expt","","0.4043277199","","0.313137485","","0.4008313728","","","","","",""
"398","","bandit","132","498232","0.0-94.0-0.0","46885927","wem/bandit_single","A38N2MBXP7IOPS","pain","3","","72","H","0","img/none_selected.jpg","0","0","1","","0.1429525169","false","57","","0.1429525169","main_expt","","0.3232173094","","0.3287581384","","0.3763680666","","","","","",""
"422","","bandit","133","500415","0.0-95.0-0.0","46885927","wem/bandit_single","A38N2MBXP7IOPS","pain","3","","74","J","1","","0","1","0","","0.3352595409","false","58","","0.1800007821","main_expt","","0.3352595409","","0.2891608333","","0.3630839511","","","","","",""
"721","","bandit","134","502895","0.0-96.0-0.0","46885927","wem/bandit_single","A38N2MBXP7IOPS","pain","3","","75","K","2","","0","1","0","","0.2228703537","false","59","","0.1168587732","main_expt","","0.3423270404","","0.2228703537","","0.3166885591","","","","","",""
"624","","bandit","135","505279","0.0-97.0-0.0","46885927","wem/bandit_single","A38N2MBXP7IOPS","pain","3","","75","K","2","","0","0","1","","0.2694349638","false","60","","0.08966050757","main_expt","","0.3326485747","","0.2694349638","","0.3339947878","","","","","",""
"289","","bandit","136","507328","0.0-98.0-0.0","46885927","wem/bandit_single","A38N2MBXP7IOPS","pain","3","","76","L","3","","0","1","0","","0.3559621948","false","61","","0.06827284498","main_expt","","0.3239501662","","0.3291501217","","0.3559621948","","","","","",""
"146","","bandit","137","509234","0.0-99.0-0.0","46885927","wem/bandit_single","A38N2MBXP7IOPS","pain","3","","76","L","3","","0","0","1","","0.3565904981","false","62","","0.0870528816","main_expt","","0.3140158541","","0.3516688484","","0.3565904981","","","","","",""
"342","","bandit","138","511337","0.0-100.0-0.0","46885927","wem/bandit_single","A38N2MBXP7IOPS","pain","3","","75","K","2","","0","0","1","","0.3662001291","false","63","","0.07384780705","main_expt","","0.2896297009","","0.3662001291","","0.3766945074","","","","","",""
"272","","bandit","139","513368","0.0-101.0-0.0","46885927","wem/bandit_single","A38N2MBXP7IOPS","pain","3","","74","J","1","","0","1","0","","0.2848001348","false","64","","0.09386223648","main_expt","","0.2848001348","","0.3986377969","","0.4038560084","","","","","",""
"199","","bandit","140","515327","0.0-102.0-0.0","46885927","wem/bandit_single","A38N2MBXP7IOPS","pain","3","","74","J","1","","0","1","0","","0.2621939157","false","65","","0.08656227431","main_expt","","0.2621939157","","0.4284050928","","0.4081833366","","","","","",""
"111","","bandit","141","517200","0.0-103.0-0.0","46885927","wem/bandit_single","A38N2MBXP7IOPS","pain","3","","74","J","1","","0","0","1","","0.2218985249","false","66","","0.1254260964","main_expt","","0.2218985249","","0.4295130084","","0.4111507483","","","","","",""
"63","","bandit","142","519022","0.0-104.0-0.0","46885927","wem/bandit_single","A38N2MBXP7IOPS","pain","3","","72","H","0","img/none_selected.jpg","0","0","1","","0.0848557225","false","67","","0.0848557225","main_expt","","0.2203007364","","0.4192215244","","0.3731562577","","","","","",""
"465","","bandit","143","521246","0.0-105.0-0.0","46885927","wem/bandit_single","A38N2MBXP7IOPS","pain","3","","72","H","0","img/none_selected.jpg","0","0","1","","0.1277621339","false","68","","0.1277621339","main_expt","","0.2163243509","","0.4617344849","","0.3471707475","","","","","",""
"1065","","bandit","144","524071","0.0-106.0-0.0","46885927","wem/bandit_single","A38N2MBXP7IOPS","pain","3","","72","H","0","img/none_selected.jpg","0","0","1","","0.1425885083","false","69","","0.1425885083","main_expt","","0.1552451017","","0.4496684627","","0.3163780081","","","","","",""
"71","","bandit","145","525903","0.0-107.0-0.0","46885927","wem/bandit_single","A38N2MBXP7IOPS","pain","3","","76","L","3","","0","0","1","","0.2872849644","false","70","","0.1765985622","main_expt","","0.144295094","","0.4572021165","","0.2872849644","","","","","",""
"472","","bandit","146","528134","0.0-108.0-0.0","46885927","wem/bandit_single","A38N2MBXP7IOPS","pain","3","","76","L","3","","0","0","1","","0.300298776","false","71","","0.1520060204","main_expt","","0.1823242822","","0.457930868","","0.300298776","","","","","",""
"201","","bandit","147","530095","0.0-109.0-0.0","46885927","wem/bandit_single","A38N2MBXP7IOPS","pain","3","","75","K","2","","0","0","1","","0.4687468973","false","72","","0.09933583891","main_expt","","0.144478384","","0.4687468973","","0.3280152389","","","","","",""
"120","","bandit","148","531975","0.0-110.0-0.0","46885927","wem/bandit_single","A38N2MBXP7IOPS","pain","3","","74","J","1","","0","0","1","","0.1420634247","false","73","","0.1087995109","main_expt","","0.1420634247","","0.4707862587","","0.2758062481","","","","","",""
"503","","bandit","149","534239","0.0-111.0-0.0","46885927","wem/bandit_single","A38N2MBXP7IOPS","pain","3","","72","H","0","img/none_selected.jpg","0","0","1","","0.150223613","false","74","","0.150223613","main_expt","","0.1358649702","","0.4602293826","","0.3370537031","","","","","",""
"327","","bandit","150","536327","0.0-112.0-0.0","46885927","wem/bandit_single","A38N2MBXP7IOPS","pain","3","","74","J","1","","0","0","1","","0.09700523291","false","75","","0.1945690608","main_expt","","0.09700523291","","0.439891953","","0.3323795279","","","","","",""
"399","","bandit","151","538487","0.0-113.0-0.0","46885927","wem/bandit_single","A38N2MBXP7IOPS","pain","3","","75","K","2","","0","1","0","","0.4424180744","false","76","","0.2454913388","main_expt","","0.07829726083","","0.4424180744","","0.3822428931","","","","","",""
"186","","bandit","152","540430","0.0-114.0-0.0","46885927","wem/bandit_single","A38N2MBXP7IOPS","pain","3","","75","K","2","","0","0","1","","0.4066280348","false","77","","0.2181262922","main_expt","","0.08460916486","","0.4066280348","","0.4136836411","","","","","",""
"41","","bandit","153","542231","0.0-115.0-0.0","46885927","wem/bandit_single","A38N2MBXP7IOPS","pain","3","","76","L","3","","0","0","1","","0.4505469687","false","78","","0.2500794828","main_expt","","0.0875988483","","0.3969262671","","0.4505469687","","","","","",""
"249","","bandit","154","544240","0.0-116.0-0.0","46885927","wem/bandit_single","A38N2MBXP7IOPS","pain","3","","72","H","0","img/none_selected.jpg","0","0","1","","0.2021405589","false","79","","0.2021405589","main_expt","","0.06491107755","","0.4119020232","","0.4251749511","","","","","",""
"166","","bandit","155","546167","0.0-117.0-0.0","46885927","wem/bandit_single","A38N2MBXP7IOPS","pain","3","","72","H","0","img/none_selected.jpg","0","0","1","","0.1654874554","false","80","","0.1654874554","main_expt","","0.1021818806","","0.3797331509","","0.3976376265","","","","","",""
"151","","bandit","156","548077","0.0-118.0-0.0","46885927","wem/bandit_single","A38N2MBXP7IOPS","pain","3","","74","J","1","","0","0","1","","0.07175209231","false","81","","0.1281487551","main_expt","","0.07175209231","","0.4024270851","","0.409462467","","","","","",""
"490","","bandit","157","550327","0.0-119.0-0.0","46885927","wem/bandit_single","A38N2MBXP7IOPS","pain","3","","76","L","3","","0","0","1","","0.4541942335","false","82","","0.1167166884","main_expt","","0.04651379375","","0.3976574516","","0.4541942335","","","","","",""
"78","","bandit","158","552166","0.0-120.0-0.0","46885927","wem/bandit_single","A38N2MBXP7IOPS","pain","3","","75","K","2","","0","0","1","","0.3749492802","false","83","","0.1426109787","main_expt","","0.03148502893","","0.3749492802","","0.4452160763","","","","","",""
"560","","bandit","159","554487","0.0-121.0-0.0","46885927","wem/bandit_single","A38N2MBXP7IOPS","pain","3","","74","J","1","","0","0","1","","0.05186863446","false","84","","0.121887906","main_expt","","0.05186863446","","0.4021863709","","0.438985114","","","","","",""
"110","","bandit","160","556359","0.0-122.0-0.0","46885927","wem/bandit_single","A38N2MBXP7IOPS","pain","3","","75","K","2","","0","0","1","","0.3624574422","false","85","","0.1361926199","main_expt","","0.04986731509","","0.3624574422","","0.4331173667","","","","","",""
"53","","bandit","161","558173","0.0-123.0-0.0","46885927","wem/bandit_single","A38N2MBXP7IOPS","pain","3","","75","K","2","","0","0","1","","0.387939101","false","86","","0.1287871674","main_expt","","0.05891938772","","0.387939101","","0.447547065","","","","","",""
"31","","bandit","162","559965","0.0-124.0-0.0","46885927","wem/bandit_single","A38N2MBXP7IOPS","pain","3","","76","L","3","","0","1","0","","0.4451560311","false","87","","0.13112728","main_expt","","0.06619539979","","0.3949621072","","0.4451560311","","","","","",""
"447","","bandit","163","562174","0.0-125.0-0.0","46885927","wem/bandit_single","A38N2MBXP7IOPS","pain","3","","76","L","3","","0","1","0","","0.4010299359","false","88","","0.1385028762","main_expt","","0.03553047297","","0.3789082299","","0.4010299359","","","","","",""
"111","","bandit","164","564046","0.0-126.0-0.0","46885927","wem/bandit_single","A38N2MBXP7IOPS","pain","3","","76","L","3","","0","0","1","","0.430672582","false","89","","0.1377901848","main_expt","","0.03983007571","","0.3718344374","","0.430672582","","","","","",""
"174","","bandit","165","565983","0.0-127.0-0.0","46885927","wem/bandit_single","A38N2MBXP7IOPS","pain","3","","72","H","0","img/none_selected.jpg","0","0","1","","0.1642812903","false","90","","0.1642812903","main_expt","","0.02618566652","","0.4341719303","","0.4063924327","","","","","",""
"335","","bandit","166","568078","0.0-128.0-0.0","46885927","wem/bandit_single","A38N2MBXP7IOPS","pain","3","","75","K","2","","0","1","0","","0.4538289377","false","91","","0.2115922749","main_expt","","0.03325063158","","0.4538289377","","0.4115689239","","","","","",""
"399","","bandit","167","570238","0.0-129.0-0.0","46885927","wem/bandit_single","A38N2MBXP7IOPS","pain","3","","75","K","2","","0","1","0","","0.4508501544","false","92","","0.1819790886","main_expt","","0.02042352937","","0.4508501544","","0.4195244723","","","","","",""
"240","","bandit","168","572240","0.0-130.0-0.0","46885927","wem/bandit_single","A38N2MBXP7IOPS","pain","3","","75","K","2","","0","1","0","","0.4548943395","false","93","","0.2039146085","main_expt","","0.01887694535","","0.4548943395","","0.3976010387","","","","","",""
"165","","bandit","169","574165","0.0-131.0-0.0","46885927","wem/bandit_single","A38N2MBXP7IOPS","pain","3","","75","K","2","","0","0","1","","0.4646086811","false","94","","0.2307813202","main_expt","","0.02367451168","","0.4646086811","","0.3668479885","","","","","",""
"111","","bandit","170","576038","0.0-132.0-0.0","46885927","wem/bandit_single","A38N2MBXP7IOPS","pain","3","","72","H","0","img/none_selected.jpg","0","0","1","","0.2213313998","false","95","","0.2213313998","main_expt","","0.02723032617","","0.467541367","","0.3332342888","","","","","",""
"359","","bandit","171","578157","0.0-133.0-0.0","46885927","wem/bandit_single","A38N2MBXP7IOPS","pain","3","","76","L","3","","0","1","0","","0.2884910782","false","96","","0.2568515079","main_expt","","0.02648196594","","0.4642351642","","0.2884910782","","","","","",""
"177","","bandit","172","580093","0.0-134.0-0.0","46885927","wem/bandit_single","A38N2MBXP7IOPS","pain","3","","76","L","3","","0","0","1","","0.2656891479","false","97","","0.2699845376","main_expt","","0.01585024216","","0.4467755515","","0.2656891479","","","","","",""
"536","","bandit","173","582390","0.0-135.0-0.0","46885927","wem/bandit_single","A38N2MBXP7IOPS","pain","3","","72","H","0","img/none_selected.jpg","0","0","1","","0.2797451528","false","98","","0.2797451528","main_expt","","0.01169409205","","0.4056350907","","0.2595300749","","","","","",""
"455","","bandit","174","584606","0.0-136.0-0.0","46885927","wem/bandit_single","A38N2MBXP7IOPS","pain","3","","74","J","1","","0","0","1","","0.01197913588","false","99","","0.3187705275","main_expt","","0.01197913588","","0.339742379","","0.2519900202","","","","","",""
"158","","bandit","175","586526","0.0-137.0-0.0","46885927","wem/bandit_single","A38N2MBXP7IOPS","pain","3","","75","K","2","","0","0","1","","0.3381167522","false","100","","0.3570824245","main_expt","","0.01759776774","","0.3381167522","","0.2523409295","","","","","",""
"54","","bandit","176","588342","0.0-138.0-0.0","46885927","wem/bandit_single","A38N2MBXP7IOPS","pain","3","","76","L","3","","0","0","1","","0.2146893193","false","101","","0.3489468272","main_expt","","0.04295615511","","0.2803213009","","0.2146893193","","","","","",""
"736","","bandit","177","590838","0.0-139.0-0.0","46885927","wem/bandit_single","A38N2MBXP7IOPS","pain","3","","72","H","0","img/none_selected.jpg","0","1","0","","0.3015799625","false","102","","0.3015799625","main_expt","","0.06572998715","","0.317644571","","0.1843767259","","","","","",""
"223","","bandit","178","592821","0.0-140.0-0.0","46885927","wem/bandit_single","A38N2MBXP7IOPS","pain","3","","72","H","0","img/none_selected.jpg","0","0","1","","0.2656450655","false","103","","0.2656450655","main_expt","","0.1043212589","","0.3024927185","","0.2108432206","","","","","",""
"463","","bandit","179","595045","0.0-141.0-0.0","46885927","wem/bandit_single","A38N2MBXP7IOPS","pain","3","","74","J","1","","0","0","1","","0.07063930719","false","104","","0.261155182","main_expt","","0.07063930719","","0.3339077782","","0.26792014","","","","","",""
"462","","bandit","180","597267","0.0-142.0-0.0","46885927","wem/bandit_single","A38N2MBXP7IOPS","pain","3","","76","L","3","","0","0","1","","0.3302583292","false","105","","0.2794756432","main_expt","","0.09992353171","","0.2966783269","","0.3302583292","","","","","",""
"119","","bandit","181","599149","0.0-143.0-0.0","46885927","wem/bandit_single","A38N2MBXP7IOPS","pain","3","","76","L","3","","0","1","0","","0.3099187861","false","106","","0.2719827923","main_expt","","0.1074399807","","0.3722996478","","0.3099187861","","","","","",""
"191","","bandit","182","601101","0.0-144.0-0.0","46885927","wem/bandit_single","A38N2MBXP7IOPS","pain","3","","76","L","3","","0","0","1","","0.3526315454","false","107","","0.2614179637","main_expt","","0.1398361659","","0.3764369168","","0.3526315454","","","","","",""
"169","","bandit","183","603031","0.0-145.0-0.0","46885927","wem/bandit_single","A38N2MBXP7IOPS","pain","3","","75","K","2","","0","0","1","","0.3221289315","false","108","","0.3154283329","main_expt","","0.1503356919","","0.3221289315","","0.3741147492","","","","","",""
"91","","bandit","184","604884","0.0-146.0-0.0","46885927","wem/bandit_single","A38N2MBXP7IOPS","pain","3","","75","K","2","","0","0","1","","0.3394272446","false","109","","0.3965133924","main_expt","","0.1554773292","","0.3394272446","","0.3775387023","","","","","",""
"112","","bandit","185","606757","0.0-147.0-0.0","46885927","wem/bandit_single","A38N2MBXP7IOPS","pain","3","","74","J","1","","0","0","1","","0.1862379276","false","110","","0.4096679205","main_expt","","0.1862379276","","0.3108194313","","0.3603169275","","","","","",""
"334","","bandit","186","608852","0.0-148.0-0.0","46885927","wem/bandit_single","A38N2MBXP7IOPS","pain","3","","72","H","0","img/none_selected.jpg","0","0","1","","0.4107972434","false","111","","0.4107972434","main_expt","","0.2096222548","","0.2754643313","","0.3492898999","","","","","",""
"110","","bandit","187","610724","0.0-149.0-0.0","46885927","wem/bandit_single","A38N2MBXP7IOPS","pain","3","","72","H","0","img/none_selected.jpg","0","0","1","","0.4229867006","false","112","","0.4229867006","main_expt","","0.2432579143","","0.2906444469","","0.3332089306","","","","","",""
"87","","bandit","188","612572","0.0-150.0-0.0","46885927","wem/bandit_single","A38N2MBXP7IOPS","pain","3","","72","H","0","img/none_selected.jpg","0","1","0","","0.4045712819","false","113","","0.4045712819","main_expt","","0.1721880852","","0.3006146448","","0.3450976056","","","","","",""
"264","","bandit","189","614596","0.0-151.0-0.0","46885927","wem/bandit_single","A38N2MBXP7IOPS","pain","3","","72","H","0","img/none_selected.jpg","0","1","0","","0.3821667802","false","114","","0.3821667802","main_expt","","0.2081909003","","0.2668468313","","0.3725565121","","","","","",""
"207","","bandit","190","616565","0.0-152.0-0.0","46885927","wem/bandit_single","A38N2MBXP7IOPS","pain","3","","72","H","0","img/none_selected.jpg","0","1","0","","0.3342096713","false","115","","0.3342096713","main_expt","","0.272711811","","0.3032344037","","0.3789561431","","","","","",""
"254","","bandit","191","618579","0.0-153.0-0.0","46885927","wem/bandit_single","A38N2MBXP7IOPS","pain","3","","72","H","0","img/none_selected.jpg","0","1","0","","0.3475890958","false","116","","0.3475890958","main_expt","","0.2801201945","","0.279678247","","0.3829881954","","","","","",""
"216","","bandit","192","620557","0.0-154.0-0.0","46885927","wem/bandit_single","A38N2MBXP7IOPS","pain","3","","72","H","0","img/none_selected.jpg","0","0","1","","0.3545652452","false","117","","0.3545652452","main_expt","","0.3615324036","","0.2762620489","","0.3872477479","","","","","",""
"334","","bandit","193","622652","0.0-155.0-0.0","46885927","wem/bandit_single","A38N2MBXP7IOPS","pain","3","","76","L","3","","0","1","0","","0.3952603005","false","118","","0.3542043025","main_expt","","0.3615177178","","0.2880572365","","0.3952603005","","","","","",""
"384","","bandit","194","624799","0.0-156.0-0.0","46885927","wem/bandit_single","A38N2MBXP7IOPS","pain","3","","76","L","3","","0","1","0","","0.3838673248","false","119","","0.3471352845","main_expt","","0.3875935955","","0.2807620685","","0.3838673248","","","","","",""
"331","","bandit","195","626893","0.0-157.0-0.0","46885927","wem/bandit_single","A38N2MBXP7IOPS","pain","3","","76","L","3","","0","1","0","","0.4148997213","false","120","","0.3343169965","main_expt","","0.4052723714","","0.2811576832","","0.4148997213","","","","","",""
"454","","bandit","196","629107","0.0-158.0-0.0","46885927","wem/bandit_single","A38N2MBXP7IOPS","pain","3","","76","L","3","","0","1","0","","0.4184259471","false","121","","0.3595120763","main_expt","","0.44462971","","0.3016455194","","0.4184259471","","","","","",""
"255","","bandit","197","631124","0.0-159.0-0.0","46885927","wem/bandit_single","A38N2MBXP7IOPS","pain","3","","76","L","3","","0","0","1","","0.4271141924","false","122","","0.3296914373","main_expt","","0.4338931322","","0.3161331551","","0.4271141924","","","","","",""
"510","","bandit","198","633395","0.0-160.0-0.0","46885927","wem/bandit_single","A38N2MBXP7IOPS","pain","3","","72","H","0","img/none_selected.jpg","0","1","0","","0.3369167856","false","123","","0.3369167856","main_expt","","0.4248885798","","0.2882518765","","0.3994299035","","","","","",""
"168","","bandit","199","635325","0.0-161.0-0.0","46885927","wem/bandit_single","A38N2MBXP7IOPS","pain","3","","72","H","0","img/none_selected.jpg","0","0","1","","0.3181772373","false","124","","0.3181772373","main_expt","","0.3773411534","","0.3426101702","","0.4319292606","","","","","",""
"12","","bandit","200","637101","0.0-162.0-0.0","46885927","wem/bandit_single","A38N2MBXP7IOPS","pain","3","","75","K","2","","0","0","1","","0.3623178769","false","125","","0.3285823626","main_expt","","0.3322500489","","0.3623178769","","0.4228137624","","","","","",""
"123","","bandit","201","638987","0.0-163.0-0.0","46885927","wem/bandit_single","A38N2MBXP7IOPS","pain","3","","75","K","2","","0","0","1","","0.3487147863","false","126","","0.3203566048","main_expt","","0.3742157909","","0.3487147863","","0.4445824992","","","","","",""
"144","","bandit","202","640892","0.0-164.0-0.0","46885927","wem/bandit_single","A38N2MBXP7IOPS","pain","3","","74","J","1","","0","0","1","","0.3851047317","false","127","","0.3852478983","main_expt","","0.3851047317","","0.4137567253","","0.4525048151","","","","","",""
"117","","bandit","203","642772","0.0-165.0-0.0","46885927","wem/bandit_single","A38N2MBXP7IOPS","pain","3","","74","J","1","","0","0","1","","0.4043255462","false","128","","0.3389365807","main_expt","","0.4043255462","","0.3814482247","","0.4692783601","","","","","",""
"120","","bandit","204","644653","0.0-166.0-0.0","46885927","wem/bandit_single","A38N2MBXP7IOPS","pain","3","","74","J","1","","0","1","0","","0.4123407707","false","129","","0.3137404055","main_expt","","0.4123407707","","0.4168244781","","0.4168961411","","","","","",""
"414","","bandit","205","646830","0.0-167.0-0.0","46885927","wem/bandit_single","A38N2MBXP7IOPS","pain","3","","74","J","1","","0","0","1","","0.4046971735","false","130","","0.3258581953","main_expt","","0.4046971735","","0.4365918222","","0.3790243023","","","","","",""
"136","","bandit","206","648725","0.0-168.0-0.0","46885927","wem/bandit_single","A38N2MBXP7IOPS","pain","3","","75","K","2","","0","0","1","","0.4389841863","false","131","","0.2883577813","main_expt","","0.4461276952","","0.4389841863","","0.4049885765","","","","","",""
"91","","bandit","207","650580","0.0-169.0-0.0","46885927","wem/bandit_single","A38N2MBXP7IOPS","pain","3","","75","K","2","","0","0","1","","0.4152650591","false","132","","0.3560589507","main_expt","","0.4611465992","","0.4152650591","","0.4146365962","","","","","",""
"181","","bandit","208","652524","0.0-170.0-0.0","46885927","wem/bandit_single","A38N2MBXP7IOPS","pain","3","","75","K","2","","0","1","0","","0.4542457407","false","133","","0.358394082","main_expt","","0.4798080461","","0.4542457407","","0.3895917514","","","","","",""
"269","","bandit","209","654556","0.0-171.0-0.0","46885927","wem/bandit_single","A38N2MBXP7IOPS","pain","3","","75","K","2","","0","1","0","","0.4598844585","false","134","","0.3605573227","main_expt","","0.4536835414","","0.4598844585","","0.4031985028","","","","","",""
"173","","bandit","210","656491","0.0-172.0-0.0","46885927","wem/bandit_single","A38N2MBXP7IOPS","pain","3","","75","K","2","","0","0","1","","0.4690925783","false","135","","0.3695471057","main_expt","","0.4297718384","","0.4690925783","","0.3950250086","","","","","",""
"382","","bandit","211","658636","0.0-173.0-0.0","46885927","wem/bandit_single","A38N2MBXP7IOPS","pain","3","","72","H","0","img/none_selected.jpg","0","0","1","","0.4060603524","false","136","","0.4060603524","main_expt","","0.4047290025","","0.4382452635","","0.3958408827","","","","","",""
"109","","bandit","212","660506","0.0-174.0-0.0","46885927","wem/bandit_single","A38N2MBXP7IOPS","pain","3","","72","H","0","img/none_selected.jpg","0","0","1","","0.3977168634","false","137","","0.3977168634","main_expt","","0.4062789173","","0.4469583278","","0.4025558346","","","","","",""
"103","","bandit","213","662372","0.0-175.0-0.0","46885927","wem/bandit_single","A38N2MBXP7IOPS","pain","3","","72","H","0","img/none_selected.jpg","0","1","0","","0.3884520433","false","138","","0.3884520433","main_expt","","0.3893267926","","0.44739429","","0.3901350715","","","","","",""
"15","","bandit","214","664148","0.0-176.0-0.0","46885927","wem/bandit_single","A38N2MBXP7IOPS","pain","3","","72","H","0","img/none_selected.jpg","0","0","1","","0.3517782966","false","139","","0.3517782966","main_expt","","0.3355070849","","0.4329330235","","0.4069565875","","","","","",""
"4","","bandit","215","665915","0.0-177.0-0.0","46885927","wem/bandit_single","A38N2MBXP7IOPS","pain","3","","76","L","3","","0","0","1","","0.4384632306","false","140","","0.3147433726","main_expt","","0.3033729388","","0.4427321083","","0.4384632306","","","","","",""
"149","","bandit","216","667826","0.0-178.0-0.0","46885927","wem/bandit_single","A38N2MBXP7IOPS","pain","3","","76","L","3","","0","0","1","","0.4513823692","false","141","","0.315874603","main_expt","","0.3495942718","","0.4630674526","","0.4513823692","","","","","",""
"78","","bandit","217","669664","0.0-179.0-0.0","46885927","wem/bandit_single","A38N2MBXP7IOPS","pain","3","","76","L","3","","0","0","1","","0.4477105457","false","142","","0.2660579121","main_expt","","0.373744609","","0.4678156034","","0.4477105457","","","","","",""
"159","","bandit","218","671587","0.0-180.0-0.0","46885927","wem/bandit_single","A38N2MBXP7IOPS","pain","3","","76","L","3","","0","0","1","","0.4399018081","false","143","","0.2791435274","main_expt","","0.3983109068","","0.4556942345","","0.4399018081","","","","","",""
"134","","bandit","219","673482","0.0-181.0-0.0","46885927","wem/bandit_single","A38N2MBXP7IOPS","pain","3","","76","L","3","","0","0","1","","0.3929519584","false","144","","0.3232226047","main_expt","","0.4290647624","","0.4606745253","","0.3929519584","","","","","",""
"197","","bandit","220","675442","0.0-182.0-0.0","46885927","wem/bandit_single","A38N2MBXP7IOPS","pain","3","","72","H","0","img/none_selected.jpg","0","1","0","","0.2863527335","false","145","","0.2863527335","main_expt","","0.4360055891","","0.4493721712","","0.3638959839","","","","","",""
"326","","bandit","221","677530","0.0-183.0-0.0","46885927","wem/bandit_single","A38N2MBXP7IOPS","pain","3","","72","H","0","img/none_selected.jpg","0","0","1","","0.2399582054","false","146","","0.2399582054","main_expt","","0.4408793748","","0.411205332","","0.3109408856","","","","","",""
"235","","bandit","222","679530","0.0-184.0-0.0","46885927","wem/bandit_single","A38N2MBXP7IOPS","pain","3","","72","H","0","img/none_selected.jpg","0","0","1","","0.2186627863","false","147","","0.2186627863","main_expt","","0.4152856751","","0.4091009254","","0.303790043","","","","","",""
"182","","bandit","223","681475","0.0-185.0-0.0","46885927","wem/bandit_single","A38N2MBXP7IOPS","pain","3","","72","H","0","img/none_selected.jpg","0","1","0","","0.233860686","false","148","","0.233860686","main_expt","","0.400149315","","0.3878952866","","0.2836070719","","","","","",""
"276","","bandit","224","683515","0.0-186.0-0.0","46885927","wem/bandit_single","A38N2MBXP7IOPS","pain","3","","72","H","0","img/none_selected.jpg","0","0","1","","0.2752018233","false","149","","0.2752018233","main_expt","","0.4081055764","","0.39239053","","0.2132997302","","","","","",""
"180","","bandit","225","685458","0.0-187.0-0.0","46885927","wem/bandit_single","A38N2MBXP7IOPS","pain","3","","72","H","0","img/none_selected.jpg","0","0","1","","0.2306982087","false","150","","0.2306982087","main_expt","","0.3946041437","","0.3869122725","","0.1906505553","","","","","",""
"109","","bandit","226","687329","0.0-188.0-0.0","46885927","wem/bandit_single","A38N2MBXP7IOPS","pain","3","","72","H","0","img/none_selected.jpg","0","0","1","","0.272940168","false","151","","0.272940168","main_expt","","0.3517385329","","0.3562084687","","0.1887938372","","","","","",""
"462","","bandit","227","689553","0.0-189.0-0.0","46885927","wem/bandit_single","A38N2MBXP7IOPS","pain","3","","74","J","1","","0","0","1","","0.33807167","false","152","","0.246833375","main_expt","","0.33807167","","0.3975166132","","0.1452925277","","","","","",""
"222","","bandit","228","691538","0.0-190.0-0.0","46885927","wem/bandit_single","A38N2MBXP7IOPS","pain","3","","74","J","1","","0","0","1","","0.3507556502","false","153","","0.2555278221","main_expt","","0.3507556502","","0.4221253747","","0.1236287895","","","","","",""
"141","","bandit","229","693442","0.0-191.0-0.0","46885927","wem/bandit_single","A38N2MBXP7IOPS","pain","3","","74","J","1","","0","1","0","","0.3484399371","false","154","","0.1964980564","main_expt","","0.3484399371","","0.3887365422","","0.119712108","","","","","",""
"318","","bandit","230","695522","0.0-192.0-0.0","46885927","wem/bandit_single","A38N2MBXP7IOPS","pain","3","","74","J","1","","0","0","1","","0.4023996329","false","155","","0.2158986014","main_expt","","0.4023996329","","0.3935049101","","0.1638630184","","","","","",""
"125","","bandit","231","697409","0.0-193.0-0.0","46885927","wem/bandit_single","A38N2MBXP7IOPS","pain","3","","74","J","1","","0","0","1","","0.3489947109","false","156","","0.2269609611","main_expt","","0.3489947109","","0.4185769797","","0.138562935","","","","","",""
"271","","bandit","232","699444","0.0-194.0-0.0","46885927","wem/bandit_single","A38N2MBXP7IOPS","pain","3","","75","K","2","","0","0","1","","0.412821327","false","157","","0.2997599927","main_expt","","0.3223479281","","0.412821327","","0.1424057266","","","","","",""
"299","","bandit","233","701505","0.0-195.0-0.0","46885927","wem/bandit_single","A38N2MBXP7IOPS","pain","3","","75","K","2","","0","1","0","","0.4433072999","false","158","","0.2608946303","main_expt","","0.3334556671","","0.4433072999","","0.1068688432","","","","","",""
"341","","bandit","234","703609","0.0-196.0-0.0","46885927","wem/bandit_single","A38N2MBXP7IOPS","pain","3","","75","K","2","","0","0","1","","0.4600675837","false","159","","0.2927903113","main_expt","","0.3686402331","","0.4600675837","","0.08394897778","","","","","",""
"822","","bandit","235","706192","0.0-197.0-0.0","46885927","wem/bandit_single","A38N2MBXP7IOPS","pain","3","","76","L","3","","0","0","1","","0.09909711901","false","160","","0.3165869591","main_expt","","0.3711838842","","0.449399373","","0.09909711901","","","","","",""
"383","","bandit","236","708337","0.0-198.0-0.0","46885927","wem/bandit_single","A38N2MBXP7IOPS","pain","3","","72","H","0","img/none_selected.jpg","0","0","1","","0.3355773311","false","161","","0.3355773311","main_expt","","0.385982022","","0.4303005813","","0.09256485174","","","","","",""
"295","","bandit","237","710395","0.0-199.0-0.0","46885927","wem/bandit_single","A38N2MBXP7IOPS","pain","3","","72","H","0","img/none_selected.jpg","0","0","1","","0.3801839585","false","162","","0.3801839585","main_expt","","0.3435676447","","0.4319487415","","0.07550585721","","","","","",""
"891","","bandit","238","713050","0.0-200.0-0.0","46885927","wem/bandit_single","A38N2MBXP7IOPS","pain","3","","74","J","1","","0","1","0","","0.3840292687","false","163","","0.3796909961","main_expt","","0.3840292687","","0.4459750046","","0.08055395315","","","","","",""
"429","","bandit","239","715242","0.0-201.0-0.0","46885927","wem/bandit_single","A38N2MBXP7IOPS","pain","3","","74","J","1","","0","0","1","","0.3427058888","false","164","","0.3657353238","main_expt","","0.3427058888","","0.4529977304","","0.07824920034","","","","","",""
"109","","bandit","240","717113","0.0-202.0-0.0","46885927","wem/bandit_single","A38N2MBXP7IOPS","pain","3","","74","J","1","","0","0","1","","0.3258967388","false","165","","0.3937598932","main_expt","","0.3258967388","","0.4472909282","","0.08439791844","","","","","",""
"188","","bandit","241","719065","0.0-203.0-0.0","46885927","wem/bandit_single","A38N2MBXP7IOPS","pain","3","","75","K","2","","0","1","0","","0.4399772256","false","166","","0.3914196171","main_expt","","0.2704303424","","0.4399772256","","0.05039915739","","","","","",""
"223","","bandit","242","721050","0.0-204.0-0.0","46885927","wem/bandit_single","A38N2MBXP7IOPS","pain","3","","75","K","2","","0","0","1","","0.4636729032","false","167","","0.3919877423","main_expt","","0.3205555932","","0.4636729032","","0.05759530337","","","","","",""
"300","","bandit","243","723113","0.0-205.0-0.0","46885927","wem/bandit_single","A38N2MBXP7IOPS","pain","3","","76","L","3","","0","0","1","","0.04992464654","false","168","","0.3647459683","main_expt","","0.3639109947","","0.4437796743","","0.04992464654","","","","","",""
"133","","bandit","244","725009","0.0-206.0-0.0","46885927","wem/bandit_single","A38N2MBXP7IOPS","pain","3","","76","L","3","","0","0","1","","0.03416660819","false","169","","0.4058418149","main_expt","","0.3733582142","","0.456101387","","0.03416660819","","","","","",""
"269","","bandit","245","727039","0.0-207.0-0.0","46885927","wem/bandit_single","A38N2MBXP7IOPS","pain","3","","74","J","1","","0","0","1","","0.3832331311","false","170","","0.3998590153","main_expt","","0.3832331311","","0.4571218852","","0.01917125828","","","","","",""
"1646","","bandit","246","730447","0.0-208.0-0.0","46885927","wem/bandit_single","A38N2MBXP7IOPS","pain","3","","74","J","1","","0","0","1","","0.3815339887","false","171","","0.3887500458","main_expt","","0.3815339887","","0.445510323","","0.02244253376","","","","","",""
"319","","bandit","247","732529","0.0-209.0-0.0","46885927","wem/bandit_single","A38N2MBXP7IOPS","pain","3","","72","H","0","img/none_selected.jpg","0","1","0","","0.4102182378","false","172","","0.4102182378","main_expt","","0.3471775219","","0.4280794999","","0.02619280326","","","","","",""
"237","","bandit","248","734529","0.0-210.0-0.0","46885927","wem/bandit_single","A38N2MBXP7IOPS","pain","3","","72","H","0","img/none_selected.jpg","0","0","1","","0.3895773165","false","173","","0.3895773165","main_expt","","0.340289466","","0.4379780546","","0.0218428458","","","","","",""
"917","","bandit","249","737210","0.0-211.0-0.0","46885927","wem/bandit_single","A38N2MBXP7IOPS","pain","3","","74","J","1","","0","0","1","","0.3280863639","false","174","","0.3826402373","main_expt","","0.3280863639","","0.4160926905","","0.02840617367","","","","","",""
"193","","bandit","250","739168","0.0-212.0-0.0","46885927","wem/bandit_single","A38N2MBXP7IOPS","pain","3","","75","K","2","","0","0","1","","0.44195178","false","175","","0.38572844","main_expt","","0.3782643392","","0.44195178","","0.0268928826","","","","","",""
"165","","bandit","251","741096","0.0-213.0-0.0","46885927","wem/bandit_single","A38N2MBXP7IOPS","pain","3","","76","L","3","","0","0","1","","0.04471375276","false","176","","0.3566605828","main_expt","","0.3714875018","","0.4469840309","","0.04471375276","","","","","",""
"325","","bandit","252","743183","0.0-214.0-0.0","46885927","wem/bandit_single","A38N2MBXP7IOPS","pain","3","","76","L","3","","0","0","1","","0.04508647299","false","177","","0.3736379944","main_expt","","0.3110573775","","0.4732589693","","0.04508647299","","","","","",""
"230","","bandit","253","745178","0.0-215.0-0.0","46885927","wem/bandit_single","A38N2MBXP7IOPS","pain","3","","75","K","2","","0","0","1","","0.4716065645","false","178","","0.3835263095","main_expt","","0.3725785744","","0.4716065645","","0.07342594821","","","","","",""
"395","","bandit","254","747336","0.0-216.0-0.0","46885927","wem/bandit_single","A38N2MBXP7IOPS","pain","3","","74","J","1","","0","0","1","","0.4143512522","false","179","","0.3531759074","main_expt","","0.4143512522","","0.4724187392","","0.08189943715","","","","","",""
"437","","bandit","255","749535","0.0-217.0-0.0","46885927","wem/bandit_single","A38N2MBXP7IOPS","pain","3","","74","J","1","","0","0","1","","0.4240428135","false","180","","0.3185705061","main_expt","","0.4240428135","","0.4551908631","","0.07894611151","","","","","",""
"1353","","bandit","256","752650","0.0-218.0-0.0","46885927","wem/bandit_single","A38N2MBXP7IOPS","pain","3","","74","J","1","","0","0","1","","0.4394908049","false","181","","0.2823592255","main_expt","","0.4394908049","","0.456416976","","0.06982230443","","","","","",""
"68","","bandit","257","754480","0.0-219.0-0.0","46885927","wem/bandit_single","A38N2MBXP7IOPS","pain","3","","75","K","2","","0","1","0","","0.4525945541","false","182","","0.2741397005","main_expt","","0.4180692962","","0.4525945541","","0.06674639092","","","","","",""
"182","","bandit","258","756424","0.0-220.0-0.0","46885927","wem/bandit_single","A38N2MBXP7IOPS","pain","3","","75","K","2","","0","1","0","","0.4439654651","false","183","","0.2936799338","main_expt","","0.4468782907","","0.4439654651","","0.04008595334","","","","","",""
"165","","bandit","259","758351","0.0-221.0-0.0","46885927","wem/bandit_single","A38N2MBXP7IOPS","pain","3","","75","K","2","","0","1","0","","0.4366406792","false","184","","0.3027831177","main_expt","","0.4489540851","","0.4366406792","","0.04652727321","","","","","",""
"137","","bandit","260","760250","0.0-222.0-0.0","46885927","wem/bandit_single","A38N2MBXP7IOPS","pain","3","","75","K","2","","0","1","0","","0.4282468188","false","185","","0.3180510168","main_expt","","0.4669005471","","0.4282468188","","0.05033673313","","","","","",""
"339","","bandit","261","762352","0.0-223.0-0.0","46885927","wem/bandit_single","A38N2MBXP7IOPS","pain","3","","75","K","2","","0","1","0","","0.4249990568","false","186","","0.3285352945","main_expt","","0.419417397","","0.4249990568","","0.03009771755","","","","","",""
"318","","bandit","262","764432","0.0-224.0-0.0","46885927","wem/bandit_single","A38N2MBXP7IOPS","pain","3","","75","K","2","","0","1","0","","0.4159118542","false","187","","0.3278715557","main_expt","","0.3735271503","","0.4159118542","","0.02601150791","","","","","",""
"189","","bandit","263","766384","0.0-225.0-0.0","46885927","wem/bandit_single","A38N2MBXP7IOPS","pain","3","","75","K","2","","0","1","0","","0.4294829221","false","188","","0.3408065186","main_expt","","0.3339942922","","0.4294829221","","0.02389042297","","","","","",""
"102","","bandit","264","768249","0.0-226.0-0.0","46885927","wem/bandit_single","A38N2MBXP7IOPS","pain","3","","75","K","2","","0","1","0","","0.4183094629","false","189","","0.3335894225","main_expt","","0.3200911101","","0.4183094629","","0.02303770395","","","","","",""
"172","","bandit","265","770184","0.0-227.0-0.0","46885927","wem/bandit_single","A38N2MBXP7IOPS","pain","3","","75","K","2","","0","0","1","","0.3769048436","false","190","","0.2560009578","main_expt","","0.379511296","","0.3769048436","","0.0156858998","","","","","",""
"143","","bandit","266","772087","0.0-228.0-0.0","46885927","wem/bandit_single","A38N2MBXP7IOPS","pain","3","","76","L","3","","0","0","1","","0.02184200568","false","191","","0.2422543603","main_expt","","0.3475909393","","0.3654839124","","0.02184200568","","","","","",""
"390","","bandit","267","774240","0.0-229.0-0.0","46885927","wem/bandit_single","A38N2MBXP7IOPS","pain","3","","72","H","0","img/none_selected.jpg","0","0","1","","0.2479432207","false","192","","0.2479432207","main_expt","","0.3248483226","","0.4158526776","","0.04159540118","","","","","",""
"277","","bandit","268","776279","0.0-230.0-0.0","46885927","wem/bandit_single","A38N2MBXP7IOPS","pain","3","","72","H","0","img/none_selected.jpg","0","0","1","","0.2198669916","false","193","","0.2198669916","main_expt","","0.3530355579","","0.4294001388","","0.02418359434","","","","","",""
"237","","bandit","269","778278","0.0-231.0-0.0","46885927","wem/bandit_single","A38N2MBXP7IOPS","pain","3","","74","J","1","","0","1","0","","0.3613612536","false","194","","0.1832858475","main_expt","","0.3613612536","","0.421006879","","0.03036789999","","","","","",""
"214","","bandit","270","780256","0.0-232.0-0.0","46885927","wem/bandit_single","A38N2MBXP7IOPS","pain","3","","74","J","1","","0","0","1","","0.3712676973","false","195","","0.1758973168","main_expt","","0.3712676973","","0.3993762185","","0.0328032794","","","","","",""
"436","","bandit","271","782456","0.0-233.0-0.0","46885927","wem/bandit_single","A38N2MBXP7IOPS","pain","3","","75","K","2","","0","1","0","","0.3953591144","false","196","","0.1472052011","main_expt","","0.3797177139","","0.3953591144","","0.03367124179","","","","","",""
"136","","bandit","272","784354","0.0-234.0-0.0","46885927","wem/bandit_single","A38N2MBXP7IOPS","pain","3","","75","K","2","","0","1","0","","0.4186523265","false","197","","0.09357285733","main_expt","","0.3703437648","","0.4186523265","","0.03515804352","","","","","",""
"26","","bandit","273","786143","0.0-235.0-0.0","46885927","wem/bandit_single","A38N2MBXP7IOPS","pain","3","","75","K","2","","0","0","1","","0.4334783576","false","198","","0.1466532231","main_expt","","0.3269028648","","0.4334783576","","0.0474911349","","","","","",""
"13","","bandit","274","787919","0.0-236.0-0.0","46885927","wem/bandit_single","A38N2MBXP7IOPS","pain","3","","75","K","2","","0","0","1","","0.452916177","false","199","","0.1745555733","main_expt","","0.2972028605","","0.452916177","","0.04758635843","","","","","",""
"84","","bandit","275","789767","0.0-237.0-0.0","46885927","wem/bandit_single","A38N2MBXP7IOPS","pain","3","","75","K","2","","0","0","1","","0.4652130485","false","200","","0.1496088854","main_expt","","0.2548635421","","0.4652130485","","0.06637193447","","","","","",""
"189","","bandit","276","791718","0.0-238.0-0.0","46885927","wem/bandit_single","A38N2MBXP7IOPS","pain","3","","76","L","3","","0","0","1","","0.03961336895","false","201","","0.1144678821","main_expt","","0.2360204523","","0.4544628945","","0.03961336895","","","","","",""
"102","","bandit","277","793583","0.0-239.0-0.0","46885927","wem/bandit_single","A38N2MBXP7IOPS","pain","3","","76","L","3","","0","0","1","","0.04217273593","false","202","","0.08314182588","main_expt","","0.1847208139","","0.4346785174","","0.04217273593","","","","","",""
"109","","bandit","278","795455","0.0-240.0-0.0","46885927","wem/bandit_single","A38N2MBXP7IOPS","pain","3","","76","L","3","","0","0","1","","0.03601881868","false","203","","0.1008304514","main_expt","","0.1740418795","","0.4340895374","","0.03601881868","","","","","",""
"380","","bandit","279","797598","0.0-241.0-0.0","46885927","wem/bandit_single","A38N2MBXP7IOPS","pain","3","","72","H","0","img/none_selected.jpg","0","0","1","","0.1170364225","false","204","","0.1170364225","main_expt","","0.1469060572","","0.4398780919","","0.04663301139","","","","","",""
"414","","bandit","280","799774","0.0-242.0-0.0","46885927","wem/bandit_single","A38N2MBXP7IOPS","pain","3","","72","H","0","img/none_selected.jpg","0","0","1","","0.1228414706","false","205","","0.1228414706","main_expt","","0.1162446513","","0.4001316318","","0.04643109282","","","","","",""
"277","","bandit","281","801815","0.0-243.0-0.0","46885927","wem/bandit_single","A38N2MBXP7IOPS","pain","3","","74","J","1","","0","1","0","","0.1289033918","false","206","","0.1574749647","main_expt","","0.1289033918","","0.4347617828","","0.06886832812","","","","","",""
"262","","bandit","282","803838","0.0-244.0-0.0","46885927","wem/bandit_single","A38N2MBXP7IOPS","pain","3","","74","J","1","","0","0","1","","0.1261822501","false","207","","0.1922173773","main_expt","","0.1261822501","","0.4383015813","","0.0600143171","","","","","",""
"598","","bandit","283","806199","0.0-245.0-0.0","46885927","wem/bandit_single","A38N2MBXP7IOPS","pain","3","","75","K","2","","0","1","0","","0.4038237536","false","208","","0.1673160211","main_expt","","0.1024795668","","0.4038237536","","0.04637571639","","","","","",""
"148","","bandit","284","808110","0.0-246.0-0.0","46885927","wem/bandit_single","A38N2MBXP7IOPS","pain","3","","75","K","2","","0","1","0","","0.3890753365","false","209","","0.1269527993","main_expt","","0.1129838087","","0.3890753365","","0.04040360689","","","","","",""
"190","","bandit","285","810061","0.0-247.0-0.0","46885927","wem/bandit_single","A38N2MBXP7IOPS","pain","3","","75","K","2","","0","1","0","","0.3792373644","false","210","","0.1114377498","main_expt","","0.1562804612","","0.3792373644","","0.02069644656","","","","","",""
"142","","bandit","286","811966","0.0-248.0-0.0","46885927","wem/bandit_single","A38N2MBXP7IOPS","pain","3","","75","K","2","","0","1","0","","0.3780611868","false","211","","0.1155820846","main_expt","","0.1363837251","","0.3780611868","","0.03173395488","","","","","",""
"132","","bandit","287","813860","0.0-249.0-0.0","46885927","wem/bandit_single","A38N2MBXP7IOPS","pain","3","","75","K","2","","0","0","1","","0.3483689532","false","212","","0.1553323518","main_expt","","0.09358237554","","0.3483689532","","0.02469601981","","","","","",""
"153","","bandit","288","815775","0.0-250.0-0.0","46885927","wem/bandit_single","A38N2MBXP7IOPS","pain","3","","76","L","3","","0","0","1","","0.04258417901","false","213","","0.2062901667","main_expt","","0.05743859841","","0.2874103991","","0.04258417901","","","","","",""
"36","","bandit","289","817574","0.0-251.0-0.0","46885927","wem/bandit_single","A38N2MBXP7IOPS","pain","3","","76","L","3","","0","1","0","","0.05493755721","false","214","","0.2076956631","main_expt","","0.05800100084","","0.2620706088","","0.05493755721","","","","","",""
"181","","bandit","290","819519","0.0-252.0-0.0","46885927","wem/bandit_single","A38N2MBXP7IOPS","pain","3","","76","L","3","","0","0","1","","0.08978059799","false","215","","0.2609492508","main_expt","","0.05413405856","","0.2855520155","","0.08978059799","","","","","",""
"100","","bandit","291","821383","0.0-253.0-0.0","46885927","wem/bandit_single","A38N2MBXP7IOPS","pain","3","","72","H","0","img/none_selected.jpg","0","1","0","","0.2500101786","false","216","","0.2500101786","main_expt","","0.03942357166","","0.2916786734","","0.09809121306","","","","","",""
"52","","bandit","292","823198","0.0-254.0-0.0","46885927","wem/bandit_single","A38N2MBXP7IOPS","pain","3","","72","H","0","img/none_selected.jpg","0","1","0","","0.2748248586","false","217","","0.2748248586","main_expt","","0.03801572204","","0.2823685681","","0.1427848958","","","","","",""
"36","","bandit","293","824997","0.0-255.0-0.0","46885927","wem/bandit_single","A38N2MBXP7IOPS","pain","3","","72","H","0","img/none_selected.jpg","0","0","1","","0.311954441","false","218","","0.311954441","main_expt","","0.03890441123","","0.2423520158","","0.1570322525","","","","","",""
"135","","bandit","294","826895","0.0-256.0-0.0","46885927","wem/bandit_single","A38N2MBXP7IOPS","pain","3","","74","J","1","","0","0","1","","0.01887456362","false","219","","0.3632760336","main_expt","","0.01887456362","","0.2949403562","","0.1805036953","","","","","",""
"244","","bandit","295","828902","0.0-257.0-0.0","46885927","wem/bandit_single","A38N2MBXP7IOPS","pain","3","","74","J","1","","0","0","1","","0.02149820142","false","220","","0.3369908474","main_expt","","0.02149820142","","0.3123592507","","0.1305519061","","","","","",""
"548","","bandit","296","831214","0.0-258.0-0.0","46885927","wem/bandit_single","A38N2MBXP7IOPS","pain","3","","75","K","2","","0","0","1","","0.3184432139","false","221","","0.3047504054","main_expt","","0.03528878979","","0.3184432139","","0.09039333473","","","","","",""
"244","","bandit","297","833222","0.0-259.0-0.0","46885927","wem/bandit_single","A38N2MBXP7IOPS","pain","3","","74","J","1","","0","0","1","","0.03906528797","false","222","","0.3107799438","main_expt","","0.03906528797","","0.3596246423","","0.0801847008","","","","","",""
"445","","bandit","298","835430","0.0-260.0-0.0","46885927","wem/bandit_single","A38N2MBXP7IOPS","pain","3","","72","H","0","img/none_selected.jpg","0","0","1","","0.3359374044","false","223","","0.3359374044","main_expt","","0.04285152396","","0.3048299186","","0.08930296305","","","","","",""
"821","","bandit","299","838013","0.0-261.0-0.0","46885927","wem/bandit_single","A38N2MBXP7IOPS","pain","3","","72","H","0","img/none_selected.jpg","0","0","1","","0.354776332","false","224","","0.354776332","main_expt","","0.03308098724","","0.3097637171","","0.0783544472","","","","","",""
"950","","bandit","300","840726","0.0-262.0-0.0","46885927","wem/bandit_single","A38N2MBXP7IOPS","pain","3","","76","L","3","","0","0","1","","0.05733223117","false","225","","0.3747964846","main_expt","","0.03318257961","","0.3313621339","","0.05733223117","","","","","",""
"43","","bandit","301","842533","0.0-263.0-0.0","46885927","wem/bandit_single","A38N2MBXP7IOPS","pain","3","","76","L","3","","0","0","1","","0.09472546141","false","226","","0.3530330239","main_expt","","0.02568716964","","0.2611013425","","0.09472546141","","","","","",""
"341","","bandit","302","844637","0.0-264.0-0.0","46885927","wem/bandit_single","A38N2MBXP7IOPS","pain","3","","76","L","3","","0","0","1","","0.08353253247","false","227","","0.3299445106","main_expt","","0.03534330031","","0.2761398934","","0.08353253247","","","","","",""
"420","","bandit","303","846821","0.0-265.0-0.0","46885927","wem/bandit_single","A38N2MBXP7IOPS","pain","3","","75","K","2","","0","1","0","","0.2358148364","false","228","","0.3286020352","main_expt","","0.03702628412","","0.2358148364","","0.06220105415","","","","","",""
"172","","bandit","304","848756","0.0-266.0-0.0","46885927","wem/bandit_single","A38N2MBXP7IOPS","pain","3","","75","K","2","","0","1","0","","0.2091128555","false","229","","0.3178943429","main_expt","","0.03077125553","","0.2091128555","","0.06639782905","","","","","",""
"95","","bandit","305","850613","0.0-267.0-0.0","46885927","wem/bandit_single","A38N2MBXP7IOPS","pain","3","","75","K","2","","0","1","0","","0.181986641","false","230","","0.3254915512","main_expt","","0.03752036101","","0.181986641","","0.07029464087","","","","","",""
"165","","bandit","306","852541","0.0-268.0-0.0","46885927","wem/bandit_single","A38N2MBXP7IOPS","pain","3","","75","K","2","","0","0","1","","0.1599443191","false","231","","0.3298497064","main_expt","","0.02736090244","","0.1599443191","","0.07612781315","","","","","",""
"1078","","bandit","307","855381","0.0-269.0-0.0","46885927","wem/bandit_single","A38N2MBXP7IOPS","pain","3","","72","H","0","img/none_selected.jpg","0","0","1","","0.300331178","false","232","","0.300331178","main_expt","","0.02154887034","","0.125214013","","0.04325191911","","","","","",""
"50","","bandit","308","857195","0.0-270.0-0.0","46885927","wem/bandit_single","A38N2MBXP7IOPS","pain","3","","72","H","0","img/none_selected.jpg","0","0","1","","0.3357562734","false","233","","0.3357562734","main_expt","","0.0228348974","","0.134118517","","0.04039924652","","","","","",""
"543","","bandit","309","859500","0.0-271.0-0.0","46885927","wem/bandit_single","A38N2MBXP7IOPS","pain","3","","74","J","1","","0","0","1","","0.01030782054","false","234","","0.3257461803","main_expt","","0.01030782054","","0.1238594142","","0.0435796211","","","","","",""
"204","","bandit","310","861470","0.0-272.0-0.0","46885927","wem/bandit_single","A38N2MBXP7IOPS","pain","3","","74","J","1","","0","0","1","","0.02615737471","false","235","","0.3534766227","main_expt","","0.02615737471","","0.1141846942","","0.02315237623","","","","","",""
"365","","bandit","311","863596","0.0-273.0-0.0","46885927","wem/bandit_single","A38N2MBXP7IOPS","pain","3","","74","J","1","","0","0","1","","0.0224272094","false","236","","0.3733068719","main_expt","","0.0224272094","","0.1101280349","","0.02010779399","","","","","",""
"573","","bandit","312","865932","0.0-274.0-0.0","46885927","wem/bandit_single","A38N2MBXP7IOPS","pain","3","","75","K","2","","0","0","1","","0.09079266978","false","237","","0.4105295152","main_expt","","0.02679999918","","0.09079266978","","0.01796146932","","","","","",""
"152","","bandit","313","867848","0.0-275.0-0.0","46885927","wem/bandit_single","A38N2MBXP7IOPS","pain","3","","75","K","2","","0","0","1","","0.1365862295","false","238","","0.4225156592","main_expt","","0.07542988795","","0.1365862295","","0.0167141813","","","","","",""
"386","","bandit","314","869995","0.0-276.0-0.0","46885927","wem/bandit_single","A38N2MBXP7IOPS","pain","3","","76","L","3","","0","0","1","","0.03283355296","false","239","","0.4360895212","main_expt","","0.09772903","","0.1846819155","","0.03283355296","","","","","",""
"855","","bandit","315","872613","0.0-277.0-0.0","46885927","wem/bandit_single","A38N2MBXP7IOPS","pain","3","","72","H","0","img/none_selected.jpg","0","1","0","","0.423514393","false","240","","0.423514393","main_expt","","0.1044145256","","0.1795044078","","0.05325110434","","","","","",""
"91","","bandit","316","874468","0.0-278.0-0.0","46885927","wem/bandit_single","A38N2MBXP7IOPS","pain","3","","72","H","0","img/none_selected.jpg","0","0","1","","0.3824942702","false","241","","0.3824942702","main_expt","","0.109937241","","0.1522343712","","0.04551940083","","","","","",""
"124","","bandit","317","876357","0.0-279.0-0.0","46885927","wem/bandit_single","A38N2MBXP7IOPS","pain","3","","72","H","0","img/none_selected.jpg","0","0","1","","0.3758562762","false","242","","0.3758562762","main_expt","","0.09239004846","","0.1433696576","","0.05503183359","","","","","",""
"117","","bandit","318","878238","0.0-280.0-0.0","46885927","wem/bandit_single","A38N2MBXP7IOPS","pain","3","","72","H","0","img/none_selected.jpg","0","0","1","","0.2984655584","false","243","","0.2984655584","main_expt","","0.1014218366","","0.1427577162","","0.04467871076","","","","","",""
"491","","bandit","319","880492","0.0-281.0-0.0","46885927","wem/bandit_single","A38N2MBXP7IOPS","pain","3","","74","J","1","","0","0","1","","0.192841162","false","244","","0.2901672904","main_expt","","0.192841162","","0.1340795621","","0.06552455376","","","","","",""
"156","","bandit","320","882412","0.0-282.0-0.0","46885927","wem/bandit_single","A38N2MBXP7IOPS","pain","3","","75","K","2","","0","0","1","","0.1469719784","false","245","","0.2495050599","main_expt","","0.1953250812","","0.1469719784","","0.1005127954","","","","","",""
"708","","bandit","321","884884","0.0-283.0-0.0","46885927","wem/bandit_single","A38N2MBXP7IOPS","pain","3","","72","H","0","img/none_selected.jpg","0","0","1","","0.2406773486","false","246","","0.2406773486","main_expt","","0.1865380945","","0.140914489","","0.11534406","","","","","",""
"132","","bandit","322","886780","0.0-284.0-0.0","46885927","wem/bandit_single","A38N2MBXP7IOPS","pain","3","","72","H","0","img/none_selected.jpg","0","0","1","","0.2265306157","false","247","","0.2265306157","main_expt","","0.221100819","","0.1592666071","","0.08579934652","","","","","",""
"100","","bandit","323","888644","0.0-285.0-0.0","46885927","wem/bandit_single","A38N2MBXP7IOPS","pain","3","","74","J","1","","0","0","1","","0.2106100544","false","248","","0.2000380921","main_expt","","0.2106100544","","0.2210893918","","0.08554071629","","","","","",""
"491","","bandit","324","890901","0.0-286.0-0.0","46885927","wem/bandit_single","A38N2MBXP7IOPS","pain","3","","75","K","2","","0","0","1","","0.2306666851","false","249","","0.1920984986","main_expt","","0.2172535859","","0.2306666851","","0.07137080198","","","","","",""
"9","","bandit","325","892675","0.0-287.0-0.0","46885927","wem/bandit_single","A38N2MBXP7IOPS","pain","3","","75","K","2","","0","0","1","","0.2422322172","false","250","","0.1624135027","main_expt","","0.1953648199","","0.2422322172","","0.06874505311","","","","","",""
"38","","bandit","326","894476","0.0-288.0-0.0","46885927","wem/bandit_single","A38N2MBXP7IOPS","pain","3","","75","K","2","","0","0","1","","0.2425189851","false","251","","0.2057369507","main_expt","","0.2129795833","","0.2425189851","","0.04927492375","","","","","",""
"491","","bandit","327","896732","0.0-289.0-0.0","46885927","wem/bandit_single","A38N2MBXP7IOPS","pain","3","","76","L","3","","0","0","1","","0.0504542679","false","252","","0.26034901","main_expt","","0.2271134102","","0.1980379423","","0.0504542679","","","","","",""
"452","","bandit","328","898948","0.0-290.0-0.0","46885927","wem/bandit_single","A38N2MBXP7IOPS","pain","3","","76","L","3","","0","0","1","","0.0313618618","false","253","","0.1886300366","main_expt","","0.2152809257","","0.2040952335","","0.0313618618","","","","","",""
"141","","bandit","329","900851","0.0-291.0-0.0","46885927","wem/bandit_single","A38N2MBXP7IOPS","pain","3","","76","L","3","","0","0","1","","0.0191685034","false","254","","0.1978078828","main_expt","","0.2065685424","","0.1621407843","","0.0191685034","","","","","",""
"181","","bandit","330","902795","0.0-292.0-0.0","46885927","wem/bandit_single","A38N2MBXP7IOPS","pain","3","","72","H","0","img/none_selected.jpg","0","0","1","","0.1544468143","false","255","","0.1544468143","main_expt","","0.2000715388","","0.1817956319","","0.01882474885","","","","","",""
"187","","bandit","331","904747","0.0-293.0-0.0","46885927","wem/bandit_single","A38N2MBXP7IOPS","pain","3","","72","H","0","img/none_selected.jpg","0","0","1","","0.1552120094","false","256","","0.1552120094","main_expt","","0.1997851389","","0.1796151025","","0.01765542058","","","","","",""
"139","","bandit","332","906651","0.0-294.0-0.0","46885927","wem/bandit_single","A38N2MBXP7IOPS","pain","3","","72","H","0","img/none_selected.jpg","0","1","0","","0.1337291471","false","257","","0.1337291471","main_expt","","0.1965173465","","0.1874922979","","0.0162265086","","","","","",""
"139","","bandit","333","908554","0.0-295.0-0.0","46885927","wem/bandit_single","A38N2MBXP7IOPS","pain","3","","72","H","0","img/none_selected.jpg","0","0","1","","0.1279332347","false","258","","0.1279332347","main_expt","","0.1816932188","","0.2152410464","","0.01630278654","","","","","",""
"43","","bandit","334","910362","0.0-296.0-0.0","46885927","wem/bandit_single","A38N2MBXP7IOPS","pain","3","","72","H","0","img/none_selected.jpg","0","0","1","","0.152418206","false","259","","0.152418206","main_expt","","0.2275026539","","0.2311433436","","0.0149919991","","","","","",""
"508","","bandit","335","912635","0.0-297.0-0.0","46885927","wem/bandit_single","A38N2MBXP7IOPS","pain","3","","74","J","1","","0","1","0","","0.1798156178","false","260","","0.1100328583","main_expt","","0.1798156178","","0.1621257941","","0.02225913397","","","","","",""
"140","","bandit","336","914540","0.0-298.0-0.0","46885927","wem/bandit_single","A38N2MBXP7IOPS","pain","3","","74","J","1","","0","0","1","","0.187122726","false","261","","0.1537012171","main_expt","","0.187122726","","0.1219102136","","0.02865634389","","","","","",""
"122","","bandit","337","916427","0.0-299.0-0.0","46885927","wem/bandit_single","A38N2MBXP7IOPS","pain","3","","74","J","1","","0","0","1","","0.1507521212","false","262","","0.1302597035","main_expt","","0.1507521212","","0.1667536199","","0.03173788073","","","","","",""
"556","","bandit","338","918746","0.0-300.0-0.0","46885927","wem/bandit_single","A38N2MBXP7IOPS","pain","3","","74","J","1","","0","0","1","","0.1374951011","false","263","","0.1297736826","main_expt","","0.1374951011","","0.1361259709","","0.04250990858","","","","","",""
"413","","bandit","339","920923","0.0-301.0-0.0","46885927","wem/bandit_single","A38N2MBXP7IOPS","pain","3","","75","K","2","","0","0","1","","0.1217381733","false","264","","0.1326654045","main_expt","","0.1158818852","","0.1217381733","","0.056503948","","","","","",""
"548","","bandit","340","923234","0.0-302.0-0.0","46885927","wem/bandit_single","A38N2MBXP7IOPS","pain","3","","75","K","2","","0","0","1","","0.1258265959","false","265","","0.1586413096","main_expt","","0.1147359408","","0.1258265959","","0.07592662832","","","","","",""
"372","","bandit","341","925370","0.0-303.0-0.0","46885927","wem/bandit_single","A38N2MBXP7IOPS","pain","3","","75","K","2","","0","0","1","","0.1445769791","false","266","","0.1496521415","main_expt","","0.09491002089","","0.1445769791","","0.1002340293","","","","","",""
"276","","bandit","342","927410","0.0-304.0-0.0","46885927","wem/bandit_single","A38N2MBXP7IOPS","pain","3","","72","H","0","img/none_selected.jpg","0","0","1","","0.1410052581","false","267","","0.1410052581","main_expt","","0.1181284109","","0.1014120844","","0.1526998269","","","","","",""
"181","","bandit","343","929355","0.0-305.0-0.0","46885927","wem/bandit_single","A38N2MBXP7IOPS","pain","3","","72","H","0","img/none_selected.jpg","0","0","1","","0.145208313","false","268","","0.145208313","main_expt","","0.1054434992","","0.06386630904","","0.1340815566","","","","","",""
"531","","bandit","344","931651","0.0-306.0-0.0","46885927","wem/bandit_single","A38N2MBXP7IOPS","pain","3","","72","H","0","img/none_selected.jpg","0","1","0","","0.1387339362","false","269","","0.1387339362","main_expt","","0.1307900039","","0.03725778621","","0.1350059692","","","","","",""
"226","","bandit","345","933642","0.0-307.0-0.0","46885927","wem/bandit_single","A38N2MBXP7IOPS","pain","3","","72","H","0","img/none_selected.jpg","0","0","1","","0.1822325734","false","270","","0.1822325734","main_expt","","0.1444746669","","0.02825676517","","0.1008257698","","","","","",""
"492","","bandit","346","935898","0.0-308.0-0.0","46885927","wem/bandit_single","A38N2MBXP7IOPS","pain","3","","72","H","0","img/none_selected.jpg","0","0","1","","0.1752825828","false","271","","0.1752825828","main_expt","","0.1622504114","","0.02967844624","","0.1257425884","","","","","",""
"276","","bandit","347","937938","0.0-309.0-0.0","46885927","wem/bandit_single","A38N2MBXP7IOPS","pain","3","","76","L","3","","0","0","1","","0.1363444874","false","272","","0.1572277832","main_expt","","0.1814673171","","0.03051557875","","0.1363444874","","","","","",""
"28","","bandit","348","939730","0.0-310.0-0.0","46885927","wem/bandit_single","A38N2MBXP7IOPS","pain","3","","76","L","3","","0","0","1","","0.1090842693","false","273","","0.1609880977","main_expt","","0.1930303076","","0.0408401102","","0.1090842693","","","","","",""
"548","","bandit","349","942042","0.0-311.0-0.0","46885927","wem/bandit_single","A38N2MBXP7IOPS","pain","3","","76","L","3","","0","0","1","","0.1397265487","false","274","","0.2228580822","main_expt","","0.1704680895","","0.03240614182","","0.1397265487","","","","","",""
"347","","bandit","350","944155","0.0-312.0-0.0","46885927","wem/bandit_single","A38N2MBXP7IOPS","pain","3","","76","L","3","","0","0","1","","0.210641606","false","275","","0.2126640298","main_expt","","0.1785534293","","0.04120982645","","0.210641606","","","","","",""
"466","","bandit","351","946387","0.0-313.0-0.0","46885927","wem/bandit_single","A38N2MBXP7IOPS","pain","3","","74","J","1","","0","0","1","","0.1843971019","false","276","","0.2006548762","main_expt","","0.1843971019","","0.04353307789","","0.1523626192","","","","","",""
"314","","bandit","352","948465","0.0-314.0-0.0","46885927","wem/bandit_single","A38N2MBXP7IOPS","pain","3","","74","J","1","","0","0","1","","0.2042268453","false","277","","0.1986275587","main_expt","","0.2042268453","","0.0172565486","","0.16102954","","","","","",""
"431","","bandit","353","950659","0.0-315.0-0.0","46885927","wem/bandit_single","A38N2MBXP7IOPS","pain","3","","75","K","2","","0","0","1","","0.02582715814","false","278","","0.1321506531","main_expt","","0.1609113936","","0.02582715814","","0.1166001048","","","","","",""
"385","","bandit","354","952810","0.0-316.0-0.0","46885927","wem/bandit_single","A38N2MBXP7IOPS","pain","3","","75","K","2","","0","0","1","","0.03609925784","false","279","","0.2112193978","main_expt","","0.1604878733","","0.03609925784","","0.1427402012","","","","","",""
"482","","bandit","355","955057","0.0-317.0-0.0","46885927","wem/bandit_single","A38N2MBXP7IOPS","pain","3","","75","K","2","","0","0","1","","0.02629944548","false","280","","0.1872216356","main_expt","","0.1678567182","","0.02629944548","","0.1524149458","","","","","",""
"244","","bandit","356","957065","0.0-318.0-0.0","46885927","wem/bandit_single","A38N2MBXP7IOPS","pain","3","","75","K","2","","0","0","1","","0.01890368782","false","281","","0.1635487084","main_expt","","0.1338700362","","0.01890368782","","0.1638207856","","","","","",""
"345","","bandit","357","959177","0.0-319.0-0.0","46885927","wem/bandit_single","A38N2MBXP7IOPS","pain","3","","75","K","2","","0","0","1","","0.01508823693","false","282","","0.1576359327","main_expt","","0.2010661714","","0.01508823693","","0.1055747009","","","","","",""
"53","","bandit","358","960996","0.0-320.0-0.0","46885927","wem/bandit_single","A38N2MBXP7IOPS","pain","3","","76","L","3","","0","0","1","","0.1121395768","false","283","","0.21861051","main_expt","","0.1763159594","","0.01359220223","","0.1121395768","","","","","",""
"465","","bandit","359","963226","0.0-321.0-0.0","46885927","wem/bandit_single","A38N2MBXP7IOPS","pain","3","","76","L","3","","0","0","1","","0.1110051372","false","284","","0.180487154","main_expt","","0.2379754842","","0.01691173417","","0.1110051372","","","","","",""
"306","","bandit","360","965298","0.0-322.0-0.0","46885927","wem/bandit_single","A38N2MBXP7IOPS","pain","3","","76","L","3","","0","0","1","","0.1746572204","false","285","","0.1641106304","main_expt","","0.2769670592","","0.01734240677","","0.1746572204","","","","","",""
"130","","bandit","361","967194","0.0-323.0-0.0","46885927","wem/bandit_single","A38N2MBXP7IOPS","pain","3","","76","L","3","","0","0","1","","0.2038956484","false","286","","0.1866508097","main_expt","","0.3002963297","","0.01574531315","","0.2038956484","","","","","",""
"289","","bandit","362","969249","0.0-324.0-0.0","46885927","wem/bandit_single","A38N2MBXP7IOPS","pain","3","","72","H","0","img/none_selected.jpg","0","0","1","","0.1339791425","false","287","","0.1339791425","main_expt","","0.2804215723","","0.011703364","","0.2396876396","","","","","",""
"1391","","bandit","363","972405","0.0-325.0-0.0","46885927","wem/bandit_single","A38N2MBXP7IOPS","pain","3","","72","H","0","img/none_selected.jpg","0","1","0","","0.1910191906","false","288","","0.1910191906","main_expt","","0.2873948651","","0.01499165326","","0.2300823482","","","","","",""
"16","","bandit","364","974186","0.0-326.0-0.0","46885927","wem/bandit_single","A38N2MBXP7IOPS","pain","3","","72","H","0","img/none_selected.jpg","0","0","1","","0.1987886011","false","289","","0.1987886011","main_expt","","0.3383825142","","0.01307353483","","0.2697946193","","","","","",""
"386","","bandit","365","976337","0.0-327.0-0.0","46885927","wem/bandit_single","A38N2MBXP7IOPS","pain","3","","72","H","0","img/none_selected.jpg","0","1","0","","0.2163493667","false","290","","0.2163493667","main_expt","","0.3597664772","","0.005839555229","","0.3030113395","","","","","",""
"435","","bandit","366","978536","0.0-328.0-0.0","46885927","wem/bandit_single","A38N2MBXP7IOPS","pain","3","","72","H","0","img/none_selected.jpg","0","0","1","","0.1987756658","false","291","","0.1987756658","main_expt","","0.3684517111","","0.00760433752","","0.2903670118","","","","","",""
"389","","bandit","367","980689","0.0-329.0-0.0","46885927","wem/bandit_single","A38N2MBXP7IOPS","pain","3","","72","H","0","img/none_selected.jpg","0","1","0","","0.1996771378","false","292","","0.1996771378","main_expt","","0.3471931258","","0.01807310376","","0.3219279298","","","","","",""
"388","","bandit","368","982844","0.0-330.0-0.0","46885927","wem/bandit_single","A38N2MBXP7IOPS","pain","3","","72","H","0","img/none_selected.jpg","0","0","1","","0.2067525645","false","293","","0.2067525645","main_expt","","0.3742872252","","0.02882206876","","0.2585416619","","","","","",""
"424","","bandit","369","985034","0.0-331.0-0.0","46885927","wem/bandit_single","A38N2MBXP7IOPS","pain","3","","72","H","0","img/none_selected.jpg","0","0","1","","0.230585761","false","294","","0.230585761","main_expt","","0.3937541296","","0.02728804169","","0.3093607287","","","","","",""
"155","","bandit","370","986952","0.0-332.0-0.0","46885927","wem/bandit_single","A38N2MBXP7IOPS","pain","3","","75","K","2","","0","0","1","","0.01545304162","false","295","","0.1936278336","main_expt","","0.3331550888","","0.01545304162","","0.315069057","","","","","",""
"453","","bandit","371","989168","0.0-333.0-0.0","46885927","wem/bandit_single","A38N2MBXP7IOPS","pain","3","","75","K","2","","0","0","1","","0.01463146341","false","296","","0.1733248866","main_expt","","0.3564327955","","0.01463146341","","0.3556215031","","","","","",""
