"rt","responses","trial_type","trial_index","time_elapsed","internal_node_id","subjID","study","MID","cond","drift","key_press","respCharCode","respKey","respChoiceNum","respChoice","gems","bombs","no_reward","GemPrChosen","BombPrChosen","practice","trial_counter","WinPr_0","LosePr_0","trial_label","WinPr_1","LosePr_1","WinPr_2","LosePr_2","WinPr_3","LosePr_3","Q0","Q1","Q2","gender","age","ethnicity"
"16727","{""Q0"":""A15781PHGW377Y""}","survey-text","0","16743","0.0-0.0","47608206","wem/bandit_single","A15781PHGW377Y","gain","8","","","","","","","","","","","","","","","","","","","","","","","","","","",""
"6815","","text","1","24570","0.0-1.0","47608206","wem/bandit_single","A15781PHGW377Y","gain","8","32","","","","","","","","","","","","","","","","","","","","","","","","","",""
"10525","","text","2","35099","0.0-2.0","47608206","wem/bandit_single","A15781PHGW377Y","gain","8","32","","","","","","","","","","","","","","","","","","","","","","","","","",""
"25071","","text","3","60175","0.0-3.0","47608206","wem/bandit_single","A15781PHGW377Y","gain","8","32","","","","","","","","","","","","","","","","","","","","","","","","","",""
"20181","","text","4","80363","0.0-4.0","47608206","wem/bandit_single","A15781PHGW377Y","gain","8","32","","","","","","","","","","","","","","","","","","","","","","","","","",""
"16393","","text","5","96761","0.0-5.0","47608206","wem/bandit_single","A15781PHGW377Y","gain","8","32","","","","","","","","","","","","","","","","","","","","","","","","","",""
"7980","","text","6","104744","0.0-6.0","47608206","wem/bandit_single","A15781PHGW377Y","gain","8","32","","","","","","","","","","","","","","","","","","","","","","","","","",""
"5453","","text","7","110199","0.0-7.0","47608206","wem/bandit_single","A15781PHGW377Y","gain","8","32","","","","","","","","","","","","","","","","","","","","","","","","","",""
"4558","","text","8","114760","0.0-8.0","47608206","wem/bandit_single","A15781PHGW377Y","gain","8","32","","","","","","","","","","","","","","","","","","","","","","","","","",""
"5212","","text","9","119977","0.0-9.0","47608206","wem/bandit_single","A15781PHGW377Y","gain","8","32","","","","","","","","","","","","","","","","","","","","","","","","","",""
"32825","","text","10","152810","0.0-10.0","47608206","wem/bandit_single","A15781PHGW377Y","gain","8","32","","","","","","","","","","","","","","","","","","","","","","","","","",""
"11111","","text","11","163928","0.0-11.0","47608206","wem/bandit_single","A15781PHGW377Y","gain","8","32","","","","","","","","","","","","","","","","","","","","","","","","","",""
"2387","","bandit","12","167842","0.0-12.0-0.0","47608206","wem/bandit_single","A15781PHGW377Y","gain","8","","74","J","0","img/none_selected_demo.jpg","0","0","1","0","0","true","0","0","0","","","","","","","","","","","","",""
"343","","bandit","13","169977","0.0-13.0-0.0","47608206","wem/bandit_single","A15781PHGW377Y","gain","8","","75","K","0","img/none_selected_demo.jpg","0","0","1","0","0","true","0","0","0","","","","","","","","","","","","",""
"2548","","text","14","172790","0.0-14.0","47608206","wem/bandit_single","A15781PHGW377Y","gain","8","32","","","","","","","","","","","","","","","","","","","","","","","","","",""
"2461","","text","15","175254","0.0-15.0","47608206","wem/bandit_single","A15781PHGW377Y","gain","8","32","","","","","","","","","","","","","","","","","","","","","","","","","",""
"6077","","text","16","181334","0.0-16.0","47608206","wem/bandit_single","A15781PHGW377Y","gain","8","32","","","","","","","","","","","","","","","","","","","","","","","","","",""
"3514","","text","17","184853","0.0-17.0","47608206","wem/bandit_single","A15781PHGW377Y","gain","8","32","","","","","","","","","","","","","","","","","","","","","","","","","",""
"1839","","bandit","18","188229","0.0-18.0-0.0","47608206","wem/bandit_single","A15781PHGW377Y","gain","8","","74","J","0","img/none_selected_demo.jpg","0","0","1","0.8","0","true","0","0.8","0","80_20_practice","0.2","0","","","","","","","","","",""
"1376","","bandit","19","191397","0.0-18.0-1.0","47608206","wem/bandit_single","A15781PHGW377Y","gain","8","","74","J","0","img/none_selected_demo.jpg","1","0","0","0.8","0","true","0","0.8","0","80_20_practice","0.2","0","","","","","","","","","",""
"1476","","bandit","20","194670","0.0-18.0-2.0","47608206","wem/bandit_single","A15781PHGW377Y","gain","8","","74","J","0","img/none_selected_demo.jpg","1","0","0","0.8","0","true","0","0.8","0","80_20_practice","0.2","0","","","","","","","","","",""
"824","","bandit","21","197292","0.0-18.0-3.0","47608206","wem/bandit_single","A15781PHGW377Y","gain","8","","74","J","0","img/none_selected_demo.jpg","1","0","0","0.8","0","true","0","0.8","0","80_20_practice","0.2","0","","","","","","","","","",""
"1134","","bandit","22","200225","0.0-18.0-4.0","47608206","wem/bandit_single","A15781PHGW377Y","gain","8","","74","J","0","img/none_selected_demo.jpg","1","0","0","0.8","0","true","0","0.8","0","80_20_practice","0.2","0","","","","","","","","","",""
"806","","bandit","23","202813","0.0-18.0-5.0","47608206","wem/bandit_single","A15781PHGW377Y","gain","8","","74","J","0","img/none_selected_demo.jpg","1","0","0","0.8","0","true","0","0.8","0","80_20_practice","0.2","0","","","","","","","","","",""
"564","","bandit","24","205358","0.0-18.0-6.0","47608206","wem/bandit_single","A15781PHGW377Y","gain","8","","74","J","0","img/none_selected_demo.jpg","1","0","0","0.8","0","true","0","0.8","0","80_20_practice","0.2","0","","","","","","","","","",""
"445","","bandit","25","207588","0.0-18.0-7.0","47608206","wem/bandit_single","A15781PHGW377Y","gain","8","","74","J","0","img/none_selected_demo.jpg","1","0","0","0.8","0","true","0","0.8","0","80_20_practice","0.2","0","","","","","","","","","",""
"198","","bandit","26","209583","0.0-18.0-8.0","47608206","wem/bandit_single","A15781PHGW377Y","gain","8","","74","J","0","img/none_selected_demo.jpg","1","0","0","0.8","0","true","0","0.8","0","80_20_practice","0.2","0","","","","","","","","","",""
"202","","bandit","27","211565","0.0-18.0-9.0","47608206","wem/bandit_single","A15781PHGW377Y","gain","8","","75","K","1","","1","0","0","0.2","0","true","0","0.8","0","80_20_practice","0.2","0","","","","","","","","","",""
"1355","","bandit","28","214719","0.0-18.0-10.0","47608206","wem/bandit_single","A15781PHGW377Y","gain","8","","74","J","0","img/none_selected_demo.jpg","1","0","0","0.8","0","true","0","0.8","0","80_20_practice","0.2","0","","","","","","","","","",""
"234","","bandit","29","216729","0.0-18.0-11.0","47608206","wem/bandit_single","A15781PHGW377Y","gain","8","","74","J","0","img/none_selected_demo.jpg","1","0","0","0.8","0","true","0","0.8","0","80_20_practice","0.2","0","","","","","","","","","",""
"242","","bandit","30","218763","0.0-18.0-12.0","47608206","wem/bandit_single","A15781PHGW377Y","gain","8","","74","J","0","img/none_selected_demo.jpg","1","0","0","0.8","0","true","0","0.8","0","80_20_practice","0.2","0","","","","","","","","","",""
"478","","bandit","31","221019","0.0-18.0-13.0","47608206","wem/bandit_single","A15781PHGW377Y","gain","8","","75","K","1","","0","0","1","0.2","0","true","0","0.8","0","80_20_practice","0.2","0","","","","","","","","","",""
"146","","bandit","32","222953","0.0-18.0-14.0","47608206","wem/bandit_single","A15781PHGW377Y","gain","8","","74","J","0","img/none_selected_demo.jpg","1","0","0","0.8","0","true","0","0.8","0","80_20_practice","0.2","0","","","","","","","","","",""
"192","","bandit","33","224933","0.0-18.0-15.0","47608206","wem/bandit_single","A15781PHGW377Y","gain","8","","74","J","0","img/none_selected_demo.jpg","1","0","0","0.8","0","true","0","0.8","0","80_20_practice","0.2","0","","","","","","","","","",""
"85","","bandit","34","226807","0.0-18.0-16.0","47608206","wem/bandit_single","A15781PHGW377Y","gain","8","","74","J","0","img/none_selected_demo.jpg","1","0","0","0.8","0","true","0","0.8","0","80_20_practice","0.2","0","","","","","","","","","",""
"1220","","bandit","35","229816","0.0-18.0-17.0","47608206","wem/bandit_single","A15781PHGW377Y","gain","8","","74","J","0","img/none_selected_demo.jpg","1","0","0","0.8","0","true","0","0.8","0","80_20_practice","0.2","0","","","","","","","","","",""
"176","","bandit","36","231782","0.0-18.0-18.0","47608206","wem/bandit_single","A15781PHGW377Y","gain","8","","74","J","0","img/none_selected_demo.jpg","1","0","0","0.8","0","true","0","0.8","0","80_20_practice","0.2","0","","","","","","","","","",""
"83","","bandit","37","233654","0.0-18.0-19.0","47608206","wem/bandit_single","A15781PHGW377Y","gain","8","","75","K","1","","1","0","0","0.2","0","true","0","0.8","0","80_20_practice","0.2","0","","","","","","","","","",""
"5124","","text","38","239035","0.0-19.0","47608206","wem/bandit_single","A15781PHGW377Y","gain","8","32","","","","","","","","","","","","","","","","","","","","","","","","","",""
"2860","","bandit","39","243435","0.0-20.0-0.0","47608206","wem/bandit_single","A15781PHGW377Y","gain","8","","74","J","0","img/none_selected_demo.jpg","0","0","1","0","0","true","0","0","0","","0","0","","","","","","","","","",""
"5952","","text","40","249653","0.0-21.0","47608206","wem/bandit_single","A15781PHGW377Y","gain","8","32","","","","","","","","","","","","","","","","","","","","","","","","","",""
"7404","","text","41","257063","0.0-22.0","47608206","wem/bandit_single","A15781PHGW377Y","gain","8","32","","","","","","","","","","","","","","","","","","","","","","","","","",""
"3014","","text","42","260087","0.0-23.0","47608206","wem/bandit_single","A15781PHGW377Y","gain","8","32","","","","","","","","","","","","","","","","","","","","","","","","","",""
"2854","","text","43","262951","0.0-24.0","47608206","wem/bandit_single","A15781PHGW377Y","gain","8","32","","","","","","","","","","","","","","","","","","","","","","","","","",""
"9239","","text","44","272197","0.0-25.0","47608206","wem/bandit_single","A15781PHGW377Y","gain","8","32","","","","","","","","","","","","","","","","","","","","","","","","","",""
"4472","","text","45","276676","0.0-26.0","47608206","wem/bandit_single","A15781PHGW377Y","gain","8","32","","","","","","","","","","","","","","","","","","","","","","","","","",""
"5082","","text","46","281763","0.0-27.0","47608206","wem/bandit_single","A15781PHGW377Y","gain","8","32","","","","","","","","","","","","","","","","","","","","","","","","","",""
"3452","","text","47","285220","0.0-28.0","47608206","wem/bandit_single","A15781PHGW377Y","gain","8","32","","","","","","","","","","","","","","","","","","","","","","","","","",""
"4824","","text","48","290051","0.0-29.0","47608206","wem/bandit_single","A15781PHGW377Y","gain","8","32","","","","","","","","","","","","","","","","","","","","","","","","","",""
"2571","","text","49","292628","0.0-30.0","47608206","wem/bandit_single","A15781PHGW377Y","gain","8","32","","","","","","","","","","","","","","","","","","","","","","","","","",""
"3914","","text","50","296547","0.0-31.0","47608206","wem/bandit_single","A15781PHGW377Y","gain","8","32","","","","","","","","","","","","","","","","","","","","","","","","","",""
"3958","","bandit","51","302029","0.0-32.0-0.0","47608206","wem/bandit_single","A15781PHGW377Y","gain","8","","75","K","2","","0","0","1","0.6","0","true","0","0.8","0","full_practice","0.2","0","0.6","0","0.2","0","","","","","",""
"1098","","bandit","52","304914","0.0-32.0-1.0","47608206","wem/bandit_single","A15781PHGW377Y","gain","8","","72","H","0","img/none_selected.jpg","0","0","1","0.8","0","true","0","0.8","0","full_practice","0.2","0","0.6","0","0.2","0","","","","","",""
"275","","bandit","53","306988","0.0-32.0-2.0","47608206","wem/bandit_single","A15781PHGW377Y","gain","8","","74","J","1","","1","0","0","0.2","0","true","0","0.8","0","full_practice","0.2","0","0.6","0","0.2","0","","","","","",""
"133","","bandit","54","308892","0.0-32.0-3.0","47608206","wem/bandit_single","A15781PHGW377Y","gain","8","","76","L","3","","0","0","1","0.2","0","true","0","0.8","0","full_practice","0.2","0","0.6","0","0.2","0","","","","","",""
"155","","bandit","55","310841","0.0-32.0-4.0","47608206","wem/bandit_single","A15781PHGW377Y","gain","8","","74","J","1","","0","0","1","0.2","0","true","0","0.8","0","full_practice","0.2","0","0.6","0","0.2","0","","","","","",""
"300","","bandit","56","312916","0.0-32.0-5.0","47608206","wem/bandit_single","A15781PHGW377Y","gain","8","","74","J","1","","0","0","1","0.2","0","true","0","0.8","0","full_practice","0.2","0","0.6","0","0.2","0","","","","","",""
"1282","","bandit","57","315989","0.0-32.0-6.0","47608206","wem/bandit_single","A15781PHGW377Y","gain","8","","75","K","2","","0","0","1","0.6","0","true","0","0.8","0","full_practice","0.2","0","0.6","0","0.2","0","","","","","",""
"176","","bandit","58","317955","0.0-32.0-7.0","47608206","wem/bandit_single","A15781PHGW377Y","gain","8","","72","H","0","img/none_selected.jpg","1","0","0","0.8","0","true","0","0.8","0","full_practice","0.2","0","0.6","0","0.2","0","","","","","",""
"210","","bandit","59","319936","0.0-32.0-8.0","47608206","wem/bandit_single","A15781PHGW377Y","gain","8","","72","H","0","img/none_selected.jpg","1","0","0","0.8","0","true","0","0.8","0","full_practice","0.2","0","0.6","0","0.2","0","","","","","",""
"230","","bandit","60","321964","0.0-32.0-9.0","47608206","wem/bandit_single","A15781PHGW377Y","gain","8","","72","H","0","img/none_selected.jpg","1","0","0","0.8","0","true","0","0.8","0","full_practice","0.2","0","0.6","0","0.2","0","","","","","",""
"103","","bandit","61","323871","0.0-32.0-10.0","47608206","wem/bandit_single","A15781PHGW377Y","gain","8","","72","H","0","img/none_selected.jpg","1","0","0","0.8","0","true","0","0.8","0","full_practice","0.2","0","0.6","0","0.2","0","","","","","",""
"1276","","bandit","62","326956","0.0-32.0-11.0","47608206","wem/bandit_single","A15781PHGW377Y","gain","8","","76","L","3","","0","0","1","0.2","0","true","0","0.8","0","full_practice","0.2","0","0.6","0","0.2","0","","","","","",""
"133","","bandit","63","328908","0.0-32.0-12.0","47608206","wem/bandit_single","A15781PHGW377Y","gain","8","","72","H","0","img/none_selected.jpg","1","0","0","0.8","0","true","0","0.8","0","full_practice","0.2","0","0.6","0","0.2","0","","","","","",""
"121","","bandit","64","330824","0.0-32.0-13.0","47608206","wem/bandit_single","A15781PHGW377Y","gain","8","","72","H","0","img/none_selected.jpg","1","0","0","0.8","0","true","0","0.8","0","full_practice","0.2","0","0.6","0","0.2","0","","","","","",""
"111","","bandit","65","332731","0.0-32.0-14.0","47608206","wem/bandit_single","A15781PHGW377Y","gain","8","","72","H","0","img/none_selected.jpg","0","0","1","0.8","0","true","0","0.8","0","full_practice","0.2","0","0.6","0","0.2","0","","","","","",""
"456","","bandit","66","335002","0.0-32.0-15.0","47608206","wem/bandit_single","A15781PHGW377Y","gain","8","","75","K","2","","0","0","1","0.6","0","true","0","0.8","0","full_practice","0.2","0","0.6","0","0.2","0","","","","","",""
"153","","bandit","67","336940","0.0-32.0-16.0","47608206","wem/bandit_single","A15781PHGW377Y","gain","8","","74","J","1","","0","0","1","0.2","0","true","0","0.8","0","full_practice","0.2","0","0.6","0","0.2","0","","","","","",""
"148","","bandit","68","338891","0.0-32.0-17.0","47608206","wem/bandit_single","A15781PHGW377Y","gain","8","","76","L","3","","0","0","1","0.2","0","true","0","0.8","0","full_practice","0.2","0","0.6","0","0.2","0","","","","","",""
"285","","bandit","69","340966","0.0-32.0-18.0","47608206","wem/bandit_single","A15781PHGW377Y","gain","8","","72","H","0","img/none_selected.jpg","0","0","1","0.8","0","true","0","0.8","0","full_practice","0.2","0","0.6","0","0.2","0","","","","","",""
"225","","bandit","70","342976","0.0-32.0-19.0","47608206","wem/bandit_single","A15781PHGW377Y","gain","8","","76","L","3","","0","0","1","0.2","0","true","0","0.8","0","full_practice","0.2","0","0.6","0","0.2","0","","","","","",""
"2924","","text","71","346162","0.0-33.0","47608206","wem/bandit_single","A15781PHGW377Y","gain","8","32","","","","","","","","","","","","","","","","","","","","","","","","","",""
"12285","","text","72","359458","0.0-34.0","47608206","wem/bandit_single","A15781PHGW377Y","gain","8","32","","","","","","","","","","","","","","","","","","","","","","","","","",""
"7799","","text","73","367265","0.0-35.0","47608206","wem/bandit_single","A15781PHGW377Y","gain","8","32","","","","","","","","","","","","","","","","","","","","","","","","","",""
"8441","","text","74","375714","0.0-36.0","47608206","wem/bandit_single","A15781PHGW377Y","gain","8","32","","","","","","","","","","","","","","","","","","","","","","","","","",""
"6457","","text","75","382177","0.0-37.0","47608206","wem/bandit_single","A15781PHGW377Y","gain","8","32","","","","","","","","","","","","","","","","","","","","","","","","","",""
"1927","","bandit","76","385627","0.0-38.0-0.0","47608206","wem/bandit_single","A15781PHGW377Y","gain","8","","75","K","2","","1","0","0","0.4519399214","","false","1","0.2895646149","","main_expt","0.461186604","","0.4519399214","","0.2726752288","","","","","","",""
"298","","bandit","77","387718","0.0-39.0-0.0","47608206","wem/bandit_single","A15781PHGW377Y","gain","8","","75","K","2","","1","0","0","0.4414774062","","false","2","0.3162770887","","main_expt","0.4745384616","","0.4414774062","","0.2373300031","","","","","","",""
"191","","bandit","78","389684","0.0-40.0-0.0","47608206","wem/bandit_single","A15781PHGW377Y","gain","8","","75","K","2","","0","0","1","0.4248782664","","false","3","0.3445892231","","main_expt","0.476270309","","0.4248782664","","0.2268539811","","","","","","",""
"942","","bandit","79","392413","0.0-41.0-0.0","47608206","wem/bandit_single","A15781PHGW377Y","gain","8","","75","K","2","","0","0","1","0.3797460064","","false","4","0.318720175","","main_expt","0.4750198572","","0.3797460064","","0.2312911009","","","","","","",""
"163","","bandit","80","394366","0.0-42.0-0.0","47608206","wem/bandit_single","A15781PHGW377Y","gain","8","","76","L","3","","0","0","1","0.1875260819","","false","5","0.2768356494","","main_expt","0.4711191004","","0.3747955817","","0.1875260819","","","","","","",""
"169","","bandit","81","396312","0.0-43.0-0.0","47608206","wem/bandit_single","A15781PHGW377Y","gain","8","","72","H","0","img/none_selected.jpg","0","0","1","0.2660169375","","false","6","0.2660169375","","main_expt","0.4561500297","","0.3434652127","","0.190272436","","","","","","",""
"202","","bandit","82","398310","0.0-44.0-0.0","47608206","wem/bandit_single","A15781PHGW377Y","gain","8","","74","J","1","","1","0","0","0.4549462182","","false","7","0.3364590491","","main_expt","0.4549462182","","0.3450192323","","0.1912500229","","","","","","",""
"157","","bandit","83","400244","0.0-45.0-0.0","47608206","wem/bandit_single","A15781PHGW377Y","gain","8","","74","J","1","","0","0","1","0.4738433377","","false","8","0.2814314702","","main_expt","0.4738433377","","0.3319287687","","0.2317086102","","","","","","",""
"385","","bandit","84","402431","0.0-46.0-0.0","47608206","wem/bandit_single","A15781PHGW377Y","gain","8","","72","H","0","img/none_selected.jpg","0","0","1","0.172204453","","false","9","0.172204453","","main_expt","0.4719526371","","0.3592879842","","0.2732709622","","","","","","",""
"118","","bandit","85","404467","0.0-47.0-0.0","47608206","wem/bandit_single","A15781PHGW377Y","gain","8","","75","K","2","","1","0","0","0.4119036765","","false","10","0.1714760066","","main_expt","0.4102917743","","0.4119036765","","0.2369361721","","","","","","",""
"85","","bandit","86","406344","0.0-48.0-0.0","47608206","wem/bandit_single","A15781PHGW377Y","gain","8","","75","K","2","","0","0","1","0.440335537","","false","11","0.1477319919","","main_expt","0.4247485268","","0.440335537","","0.2428480584","","","","","","",""
"156","","bandit","87","408300","0.0-49.0-0.0","47608206","wem/bandit_single","A15781PHGW377Y","gain","8","","76","L","3","","0","0","1","0.3127978045","","false","12","0.1195530135","","main_expt","0.3805001106","","0.4198069009","","0.3127978045","","","","","","",""
"144","","bandit","88","410227","0.0-50.0-0.0","47608206","wem/bandit_single","A15781PHGW377Y","gain","8","","74","J","1","","1","0","0","0.3922463094","","false","13","0.1097065617","","main_expt","0.3922463094","","0.4095272681","","0.3411181312","","","","","","",""
"144","","bandit","89","412147","0.0-51.0-0.0","47608206","wem/bandit_single","A15781PHGW377Y","gain","8","","75","K","2","","1","0","0","0.4393311008","","false","14","0.1146709003","","main_expt","0.3385893542","","0.4393311008","","0.3547490374","","","","","","",""
"83","","bandit","90","414018","0.0-52.0-0.0","47608206","wem/bandit_single","A15781PHGW377Y","gain","8","","74","J","1","","0","0","1","0.2580729479","","false","15","0.105598426","","main_expt","0.2580729479","","0.4232641195","","0.3447780093","","","","","","",""
"307","","bandit","91","416126","0.0-53.0-0.0","47608206","wem/bandit_single","A15781PHGW377Y","gain","8","","74","J","1","","0","0","1","0.3126944558","","false","16","0.1085338479","","main_expt","0.3126944558","","0.408879381","","0.3451486401","","","","","","",""
"152","","bandit","92","418074","0.0-54.0-0.0","47608206","wem/bandit_single","A15781PHGW377Y","gain","8","","72","H","0","img/none_selected.jpg","0","0","1","0.1267686316","","false","17","0.1267686316","","main_expt","0.3693960878","","0.376774317","","0.3788599072","","","","","","",""
"43","","bandit","93","419915","0.0-55.0-0.0","47608206","wem/bandit_single","A15781PHGW377Y","gain","8","","75","K","2","","1","0","0","0.4245824949","","false","18","0.2161611973","","main_expt","0.3881723811","","0.4245824949","","0.3977159439","","","","","","",""
"87","","bandit","94","421818","0.0-56.0-0.0","47608206","wem/bandit_single","A15781PHGW377Y","gain","8","","75","K","2","","0","0","1","0.4391895307","","false","19","0.2028493804","","main_expt","0.3762380044","","0.4391895307","","0.3885232362","","","","","","",""
"89","","bandit","95","423705","0.0-57.0-0.0","47608206","wem/bandit_single","A15781PHGW377Y","gain","8","","76","L","3","","1","0","0","0.3985462001","","false","20","0.2258994585","","main_expt","0.3842023068","","0.4621127774","","0.3985462001","","","","","","",""
"154","","bandit","96","425640","0.0-58.0-0.0","47608206","wem/bandit_single","A15781PHGW377Y","gain","8","","75","K","2","","0","0","1","0.4621164646","","false","21","0.1591174119","","main_expt","0.3509270449","","0.4621164646","","0.349749023","","","","","","",""
"121","","bandit","97","427574","0.0-59.0-0.0","47608206","wem/bandit_single","A15781PHGW377Y","gain","8","","74","J","1","","0","0","1","0.3777441782","","false","22","0.1526874152","","main_expt","0.3777441782","","0.4347396303","","0.3437713834","","","","","","",""
"382","","bandit","98","429727","0.0-60.0-0.0","47608206","wem/bandit_single","A15781PHGW377Y","gain","8","","76","L","3","","1","0","0","0.3608333873","","false","23","0.1461335862","","main_expt","0.3799964268","","0.43496863","","0.3608333873","","","","","","",""
"164","","bandit","99","431661","0.0-61.0-0.0","47608206","wem/bandit_single","A15781PHGW377Y","gain","8","","76","L","3","","0","0","1","0.3832767268","","false","24","0.194032511","","main_expt","0.4097073291","","0.43684491","","0.3832767268","","","","","","",""
"229","","bandit","100","433673","0.0-62.0-0.0","47608206","wem/bandit_single","A15781PHGW377Y","gain","8","","72","H","0","img/none_selected.jpg","1","0","0","0.1913779305","","false","25","0.1913779305","","main_expt","0.4196977393","","0.3785768995","","0.3839685871","","","","","","",""
"118","","bandit","101","435562","0.0-63.0-0.0","47608206","wem/bandit_single","A15781PHGW377Y","gain","8","","76","L","3","","0","0","1","0.3871157951","","false","26","0.2830828826","","main_expt","0.3798545817","","0.3754964585","","0.3871157951","","","","","","",""
"91","","bandit","102","437434","0.0-64.0-0.0","47608206","wem/bandit_single","A15781PHGW377Y","gain","8","","72","H","0","img/none_selected.jpg","0","0","1","0.3268824087","","false","27","0.3268824087","","main_expt","0.3531061786","","0.3964499655","","0.4093540125","","","","","","",""
"187","","bandit","103","439417","0.0-65.0-0.0","47608206","wem/bandit_single","A15781PHGW377Y","gain","8","","74","J","1","","0","0","1","0.3327392046","","false","28","0.3092871108","","main_expt","0.3327392046","","0.4243602908","","0.3781829904","","","","","","",""
"174","","bandit","104","441380","0.0-66.0-0.0","47608206","wem/bandit_single","A15781PHGW377Y","gain","8","","75","K","2","","1","0","0","0.4296462108","","false","29","0.299803321","","main_expt","0.2799969064","","0.4296462108","","0.3633234486","","","","","","",""
"159","","bandit","105","443315","0.0-67.0-0.0","47608206","wem/bandit_single","A15781PHGW377Y","gain","8","","75","K","2","","0","0","1","0.4442153724","","false","30","0.3318792252","","main_expt","0.225268033","","0.4442153724","","0.395486831","","","","","","",""
"143","","bandit","106","445233","0.0-68.0-0.0","47608206","wem/bandit_single","A15781PHGW377Y","gain","8","","76","L","3","","0","0","1","0.353932484","","false","31","0.3274080626","","main_expt","0.2195205817","","0.4425075274","","0.353932484","","","","","","",""
"163","","bandit","107","447184","0.0-69.0-0.0","47608206","wem/bandit_single","A15781PHGW377Y","gain","8","","72","H","0","img/none_selected.jpg","1","0","0","0.3233555863","","false","32","0.3233555863","","main_expt","0.2569702332","","0.4038806219","","0.3902442546","","","","","","",""
"129","","bandit","108","449102","0.0-70.0-0.0","47608206","wem/bandit_single","A15781PHGW377Y","gain","8","","72","H","0","img/none_selected.jpg","0","0","1","0.3836123675","","false","33","0.3836123675","","main_expt","0.2914027765","","0.4283701542","","0.3727342875","","","","","","",""
"134","","bandit","109","451005","0.0-71.0-0.0","47608206","wem/bandit_single","A15781PHGW377Y","gain","8","","75","K","2","","0","0","1","0.4332078231","","false","34","0.4200589335","","main_expt","0.2667004126","","0.4332078231","","0.3940120807","","","","","","",""
"181","","bandit","110","452987","0.0-72.0-0.0","47608206","wem/bandit_single","A15781PHGW377Y","gain","8","","74","J","1","","1","0","0","0.3112773703","","false","35","0.4280145355","","main_expt","0.3112773703","","0.3861361583","","0.3682756201","","","","","","",""
"249","","bandit","111","455029","0.0-73.0-0.0","47608206","wem/bandit_single","A15781PHGW377Y","gain","8","","74","J","1","","0","0","1","0.3158013471","","false","36","0.3696194815","","main_expt","0.3158013471","","0.3176889815","","0.4136743311","","","","","","",""
"252","","bandit","112","457058","0.0-74.0-0.0","47608206","wem/bandit_single","A15781PHGW377Y","gain","8","","72","H","0","img/none_selected.jpg","0","0","1","0.3567242832","","false","37","0.3567242832","","main_expt","0.3348696363","","0.3333355096","","0.449594317","","","","","","",""
"43","","bandit","113","458884","0.0-75.0-0.0","47608206","wem/bandit_single","A15781PHGW377Y","gain","8","","76","L","3","","1","0","0","0.4427192246","","false","38","0.3139752797","","main_expt","0.2967031697","","0.3613286773","","0.4427192246","","","","","","",""
"176","","bandit","114","460834","0.0-76.0-0.0","47608206","wem/bandit_single","A15781PHGW377Y","gain","8","","72","H","0","img/none_selected.jpg","0","0","1","0.2884672813","","false","39","0.2884672813","","main_expt","0.2816090282","","0.3354588101","","0.4375360897","","","","","","",""
"261","","bandit","115","462893","0.0-77.0-0.0","47608206","wem/bandit_single","A15781PHGW377Y","gain","8","","76","L","3","","1","0","0","0.452648821","","false","40","0.3253538103","","main_expt","0.2900329111","","0.4044898685","","0.452648821","","","","","","",""
"120","","bandit","116","464813","0.0-78.0-0.0","47608206","wem/bandit_single","A15781PHGW377Y","gain","8","","76","L","3","","1","0","0","0.4689255384","","false","41","0.2782289032","","main_expt","0.3160732104","","0.3615903795","","0.4689255384","","","","","","",""
"70","","bandit","117","466683","0.0-79.0-0.0","47608206","wem/bandit_single","A15781PHGW377Y","gain","8","","76","L","3","","1","0","0","0.470096522","","false","42","0.2378060085","","main_expt","0.370849222","","0.3239257876","","0.470096522","","","","","","",""
"136","","bandit","118","468602","0.0-80.0-0.0","47608206","wem/bandit_single","A15781PHGW377Y","gain","8","","76","L","3","","1","0","0","0.4349244256","","false","43","0.2250536993","","main_expt","0.385301305","","0.2907144625","","0.4349244256","","","","","","",""
"57","","bandit","119","470458","0.0-81.0-0.0","47608206","wem/bandit_single","A15781PHGW377Y","gain","8","","76","L","3","","1","0","0","0.4316966947","","false","44","0.2132249492","","main_expt","0.416838688","","0.2937558929","","0.4316966947","","","","","","",""
"7","","bandit","120","472252","0.0-82.0-0.0","47608206","wem/bandit_single","A15781PHGW377Y","gain","8","","76","L","3","","1","0","0","0.4526201082","","false","45","0.2669052982","","main_expt","0.3927526088","","0.3667346614","","0.4526201082","","","","","","",""
"91","","bandit","121","474124","0.0-83.0-0.0","47608206","wem/bandit_single","A15781PHGW377Y","gain","8","","76","L","3","","1","0","0","0.4696962879","","false","46","0.259601005","","main_expt","0.3789336214","","0.4084803937","","0.4696962879","","","","","","",""
"129","","bandit","122","476011","0.0-84.0-0.0","47608206","wem/bandit_single","A15781PHGW377Y","gain","8","","76","L","3","","0","0","1","0.4591824552","","false","47","0.2442503122","","main_expt","0.3994803113","","0.3956447052","","0.4591824552","","","","","","",""
"136","","bandit","123","477946","0.0-85.0-0.0","47608206","wem/bandit_single","A15781PHGW377Y","gain","8","","74","J","1","","0","0","1","0.3570668153","","false","48","0.2427668164","","main_expt","0.3570668153","","0.3859230678","","0.4548607847","","","","","","",""
"461","","bandit","124","480193","0.0-86.0-0.0","47608206","wem/bandit_single","A15781PHGW377Y","gain","8","","75","K","2","","0","0","1","0.394993817","","false","49","0.218731525","","main_expt","0.3500417472","","0.394993817","","0.4625410341","","","","","","",""
"146","","bandit","125","482096","0.0-87.0-0.0","47608206","wem/bandit_single","A15781PHGW377Y","gain","8","","72","H","0","img/none_selected.jpg","0","0","1","0.2187604329","","false","50","0.2187604329","","main_expt","0.3110114061","","0.4358915385","","0.4620574215","","","","","","",""
"196","","bandit","126","484077","0.0-88.0-0.0","47608206","wem/bandit_single","A15781PHGW377Y","gain","8","","76","L","3","","1","0","0","0.4573118055","","false","51","0.2764450854","","main_expt","0.3165374422","","0.4437026926","","0.4573118055","","","","","","",""
"436","","bandit","127","486494","0.0-89.0-0.0","47608206","wem/bandit_single","A15781PHGW377Y","gain","8","","76","L","3","","0","0","1","0.4577170033","","false","52","0.2735561336","","main_expt","0.3212783944","","0.4357441266","","0.4577170033","","","","","","",""
"165","","bandit","128","488444","0.0-90.0-0.0","47608206","wem/bandit_single","A15781PHGW377Y","gain","8","","74","J","1","","1","0","0","0.3079714244","","false","53","0.2558353256","","main_expt","0.3079714244","","0.3926545571","","0.4599667981","","","","","","",""
"247","","bandit","129","490488","0.0-91.0-0.0","47608206","wem/bandit_single","A15781PHGW377Y","gain","8","","76","L","3","","1","0","0","0.4598989899","","false","54","0.2856473895","","main_expt","0.3538619638","","0.3841940555","","0.4598989899","","","","","","",""
"156","","bandit","130","492423","0.0-92.0-0.0","47608206","wem/bandit_single","A15781PHGW377Y","gain","8","","74","J","1","","0","0","1","0.3390258849","","false","55","0.3110799389","","main_expt","0.3390258849","","0.3733442546","","0.4371040197","","","","","","",""
"204","","bandit","131","494420","0.0-93.0-0.0","47608206","wem/bandit_single","A15781PHGW377Y","gain","8","","76","L","3","","0","0","1","0.3889704242","","false","56","0.2862995849","","main_expt","0.3282580673","","0.3500738246","","0.3889704242","","","","","","",""
"162","","bandit","132","496376","0.0-94.0-0.0","47608206","wem/bandit_single","A15781PHGW377Y","gain","8","","75","K","2","","1","0","0","0.3265916347","","false","57","0.3029349154","","main_expt","0.3014999451","","0.3265916347","","0.4089883961","","","","","","",""
"174","","bandit","133","498335","0.0-95.0-0.0","47608206","wem/bandit_single","A15781PHGW377Y","gain","8","","76","L","3","","0","0","1","0.3682078294","","false","58","0.282602966","","main_expt","0.2895525025","","0.3203483638","","0.3682078294","","","","","","",""
"147","","bandit","134","500239","0.0-96.0-0.0","47608206","wem/bandit_single","A15781PHGW377Y","gain","8","","75","K","2","","0","0","1","0.258324817","","false","59","0.3271218703","","main_expt","0.2538740387","","0.258324817","","0.426053772","","","","","","",""
"115","","bandit","135","502143","0.0-97.0-0.0","47608206","wem/bandit_single","A15781PHGW377Y","gain","8","","74","J","1","","1","0","0","0.2509640494","","false","60","0.2978757068","","main_expt","0.2509640494","","0.2527557167","","0.4175969639","","","","","","",""
"370","","bandit","136","504295","0.0-98.0-0.0","47608206","wem/bandit_single","A15781PHGW377Y","gain","8","","74","J","1","","1","0","0","0.1930295055","","false","61","0.1922553384","","main_expt","0.1930295055","","0.2925705146","","0.4124946444","","","","","","",""
"236","","bandit","137","506322","0.0-99.0-0.0","47608206","wem/bandit_single","A15781PHGW377Y","gain","8","","72","H","0","img/none_selected.jpg","0","0","1","0.1408400783","","false","62","0.1408400783","","main_expt","0.1259826115","","0.310648962","","0.4077217862","","","","","","",""
"145","","bandit","138","508257","0.0-100.0-0.0","47608206","wem/bandit_single","A15781PHGW377Y","gain","8","","76","L","3","","0","0","1","0.4258821936","","false","63","0.1779610645","","main_expt","0.1388804293","","0.3175489896","","0.4258821936","","","","","","",""
"99","","bandit","139","510144","0.0-101.0-0.0","47608206","wem/bandit_single","A15781PHGW377Y","gain","8","","74","J","1","","0","0","1","0.1412297375","","false","64","0.1733040919","","main_expt","0.1412297375","","0.2756852574","","0.4314195329","","","","","","",""
"83","","bandit","140","512023","0.0-102.0-0.0","47608206","wem/bandit_single","A15781PHGW377Y","gain","8","","75","K","2","","0","0","1","0.2798966648","","false","65","0.1669650696","","main_expt","0.07856201072","","0.2798966648","","0.4174082156","","","","","","",""
"25","","bandit","141","513849","0.0-103.0-0.0","47608206","wem/bandit_single","A15781PHGW377Y","gain","8","","72","H","0","img/none_selected.jpg","0","0","1","0.1439674443","","false","66","0.1439674443","","main_expt","0.04493535693","","0.2440426105","","0.4396479182","","","","","","",""
"28","","bandit","142","515666","0.0-104.0-0.0","47608206","wem/bandit_single","A15781PHGW377Y","gain","8","","76","L","3","","0","0","1","0.4080198752","","false","67","0.1892066175","","main_expt","0.06268984171","","0.2630461485","","0.4080198752","","","","","","",""
"12","","bandit","143","517459","0.0-105.0-0.0","47608206","wem/bandit_single","A15781PHGW377Y","gain","8","","74","J","1","","0","0","1","0.0976634122","","false","68","0.1994174399","","main_expt","0.0976634122","","0.2456224984","","0.4137299856","","","","","","",""
"237","","bandit","144","519473","0.0-106.0-0.0","47608206","wem/bandit_single","A15781PHGW377Y","gain","8","","74","J","1","","0","0","1","0.1303859095","","false","69","0.1624567358","","main_expt","0.1303859095","","0.328759159","","0.3938947582","","","","","","",""
"459","","bandit","145","521718","0.0-107.0-0.0","47608206","wem/bandit_single","A15781PHGW377Y","gain","8","","74","J","1","","0","0","1","0.09159795462","","false","70","0.203142037","","main_expt","0.09159795462","","0.3063762308","","0.3876621225","","","","","","",""
"251","","bandit","146","523762","0.0-108.0-0.0","47608206","wem/bandit_single","A15781PHGW377Y","gain","8","","75","K","2","","0","0","1","0.3509026903","","false","71","0.218187973","","main_expt","0.07422050438","","0.3509026903","","0.3788053019","","","","","","",""
"224","","bandit","147","525744","0.0-109.0-0.0","47608206","wem/bandit_single","A15781PHGW377Y","gain","8","","76","L","3","","1","0","0","0.3632611749","","false","72","0.2357875668","","main_expt","0.05420033029","","0.3695940198","","0.3632611749","","","","","","",""
"284","","bandit","148","527820","0.0-110.0-0.0","47608206","wem/bandit_single","A15781PHGW377Y","gain","8","","76","L","3","","0","0","1","0.3121818875","","false","73","0.1951490082","","main_expt","0.04794676006","","0.3532210052","","0.3121818875","","","","","","",""
"534","","bandit","149","530143","0.0-111.0-0.0","47608206","wem/bandit_single","A15781PHGW377Y","gain","8","","74","J","1","","0","0","1","0.03645121522","","false","74","0.208621177","","main_expt","0.03645121522","","0.3780170277","","0.3385624816","","","","","","",""
"403","","bandit","150","532343","0.0-112.0-0.0","47608206","wem/bandit_single","A15781PHGW377Y","gain","8","","72","H","0","img/none_selected.jpg","0","0","1","0.2016482668","","false","75","0.2016482668","","main_expt","0.04346784694","","0.3141643986","","0.3393964734","","","","","","",""
"172","","bandit","151","534293","0.0-113.0-0.0","47608206","wem/bandit_single","A15781PHGW377Y","gain","8","","75","K","2","","0","0","1","0.3520496016","","false","76","0.2495615647","","main_expt","0.05697420644","","0.3520496016","","0.3489067358","","","","","","",""
"122","","bandit","152","536210","0.0-114.0-0.0","47608206","wem/bandit_single","A15781PHGW377Y","gain","8","","76","L","3","","0","0","1","0.3502211764","","false","77","0.2225386599","","main_expt","0.05831686642","","0.2628688268","","0.3502211764","","","","","","",""
"208","","bandit","153","538192","0.0-115.0-0.0","47608206","wem/bandit_single","A15781PHGW377Y","gain","8","","74","J","1","","0","0","1","0.0396837938","","false","78","0.2525784454","","main_expt","0.0396837938","","0.2856335909","","0.2979424841","","","","","","",""
"226","","bandit","154","540204","0.0-116.0-0.0","47608206","wem/bandit_single","A15781PHGW377Y","gain","8","","76","L","3","","0","0","1","0.2779986596","","false","79","0.2691825077","","main_expt","0.03651397352","","0.3052483479","","0.2779986596","","","","","","",""
"260","","bandit","155","542249","0.0-117.0-0.0","47608206","wem/bandit_single","A15781PHGW377Y","gain","8","","72","H","0","img/none_selected.jpg","0","0","1","0.2749696362","","false","80","0.2749696362","","main_expt","0.0570793957","","0.2809417262","","0.2681941829","","","","","","",""
"378","","bandit","156","544416","0.0-118.0-0.0","47608206","wem/bandit_single","A15781PHGW377Y","gain","8","","75","K","2","","1","0","0","0.2639407754","","false","81","0.291945729","","main_expt","0.05597964966","","0.2639407754","","0.2536714586","","","","","","",""
"240","","bandit","157","546428","0.0-119.0-0.0","47608206","wem/bandit_single","A15781PHGW377Y","gain","8","","75","K","2","","0","0","1","0.3352417475","","false","82","0.2804178179","","main_expt","0.0589745046","","0.3352417475","","0.1904528106","","","","","","",""
"292","","bandit","158","548488","0.0-120.0-0.0","47608206","wem/bandit_single","A15781PHGW377Y","gain","8","","76","L","3","","1","0","0","0.2497062266","","false","83","0.2253075454","","main_expt","0.04461225985","","0.3246721101","","0.2497062266","","","","","","",""
"192","","bandit","159","550469","0.0-121.0-0.0","47608206","wem/bandit_single","A15781PHGW377Y","gain","8","","75","K","2","","0","0","1","0.3082112656","","false","84","0.2475548924","","main_expt","0.04600221485","","0.3082112656","","0.2960017758","","","","","","",""
"76","","bandit","160","552340","0.0-122.0-0.0","47608206","wem/bandit_single","A15781PHGW377Y","gain","8","","76","L","3","","0","0","1","0.2677312645","","false","85","0.2443994903","","main_expt","0.04782026086","","0.2733186338","","0.2677312645","","","","","","",""
"269","","bandit","161","554410","0.0-123.0-0.0","47608206","wem/bandit_single","A15781PHGW377Y","gain","8","","75","K","2","","0","0","1","0.2595222796","","false","86","0.2112262296","","main_expt","0.05551660222","","0.2595222796","","0.2764415163","","","","","","",""
"193","","bandit","162","556397","0.0-124.0-0.0","47608206","wem/bandit_single","A15781PHGW377Y","gain","8","","72","H","0","img/none_selected.jpg","1","0","0","0.2188998383","","false","87","0.2188998383","","main_expt","0.04708869331","","0.2256999028","","0.324022149","","","","","","",""
"261","","bandit","163","558456","0.0-125.0-0.0","47608206","wem/bandit_single","A15781PHGW377Y","gain","8","","72","H","0","img/none_selected.jpg","0","0","1","0.2197891412","","false","88","0.2197891412","","main_expt","0.02844544313","","0.1990670624","","0.3109963835","","","","","","",""
"425","","bandit","164","560655","0.0-126.0-0.0","47608206","wem/bandit_single","A15781PHGW377Y","gain","8","","76","L","3","","1","0","0","0.324941543","","false","89","0.1264972534","","main_expt","0.02947982339","","0.2125628639","","0.324941543","","","","","","",""
"209","","bandit","165","562652","0.0-127.0-0.0","47608206","wem/bandit_single","A15781PHGW377Y","gain","8","","76","L","3","","0","0","1","0.3309337967","","false","90","0.09492746395","","main_expt","0.01544371513","","0.2335475446","","0.3309337967","","","","","","",""
"197","","bandit","166","564634","0.0-128.0-0.0","47608206","wem/bandit_single","A15781PHGW377Y","gain","8","","72","H","0","img/none_selected.jpg","0","0","1","0.0779798764","","false","91","0.0779798764","","main_expt","0.02662688154","","0.2803997126","","0.2419508287","","","","","","",""
"134","","bandit","167","566552","0.0-129.0-0.0","47608206","wem/bandit_single","A15781PHGW377Y","gain","8","","75","K","2","","0","0","1","0.2771315147","","false","92","0.1178574791","","main_expt","0.03471523835","","0.2771315147","","0.2040869203","","","","","","",""
"138","","bandit","168","568487","0.0-130.0-0.0","47608206","wem/bandit_single","A15781PHGW377Y","gain","8","","76","L","3","","0","0","1","0.1936143615","","false","93","0.1199697814","","main_expt","0.0252433293","","0.3069544445","","0.1936143615","","","","","","",""
"315","","bandit","169","570577","0.0-131.0-0.0","47608206","wem/bandit_single","A15781PHGW377Y","gain","8","","75","K","2","","0","0","1","0.2585327286","","false","94","0.1351842626","","main_expt","0.02873343753","","0.2585327286","","0.2296452841","","","","","","",""
"145","","bandit","170","572480","0.0-132.0-0.0","47608206","wem/bandit_single","A15781PHGW377Y","gain","8","","74","J","1","","0","0","1","0.03754278977","","false","95","0.1229387465","","main_expt","0.03754278977","","0.2043747222","","0.3009770616","","","","","","",""
"114","","bandit","171","574383","0.0-133.0-0.0","47608206","wem/bandit_single","A15781PHGW377Y","gain","8","","72","H","0","img/none_selected.jpg","1","0","0","0.1341504272","","false","96","0.1341504272","","main_expt","0.02045008397","","0.2149370614","","0.3664634414","","","","","","",""
"114","","bandit","172","576286","0.0-134.0-0.0","47608206","wem/bandit_single","A15781PHGW377Y","gain","8","","72","H","0","img/none_selected.jpg","0","0","1","0.08646330057","","false","97","0.08646330057","","main_expt","0.01282395838","","0.1294523689","","0.3476641925","","","","","","",""
"146","","bandit","173","578205","0.0-135.0-0.0","47608206","wem/bandit_single","A15781PHGW377Y","gain","8","","76","L","3","","0","0","1","0.3885632826","","false","98","0.07731746448","","main_expt","0.02206163243","","0.1653870254","","0.3885632826","","","","","","",""
"68","","bandit","174","580047","0.0-136.0-0.0","47608206","wem/bandit_single","A15781PHGW377Y","gain","8","","75","K","2","","0","0","1","0.187235433","","false","99","0.05048608161","","main_expt","0.03016500256","","0.187235433","","0.3222143249","","","","","","",""
"178","","bandit","175","581996","0.0-137.0-0.0","47608206","wem/bandit_single","A15781PHGW377Y","gain","8","","72","H","0","img/none_selected.jpg","0","0","1","0.03970728334","","false","100","0.03970728334","","main_expt","0.03237578522","","0.1583251777","","0.3386714995","","","","","","",""
"149","","bandit","176","583930","0.0-138.0-0.0","47608206","wem/bandit_single","A15781PHGW377Y","gain","8","","74","J","1","","0","0","1","0.03241037075","","false","101","0.02108340439","","main_expt","0.03241037075","","0.1337381207","","0.3131396166","","","","","","",""
"966","","bandit","177","586676","0.0-139.0-0.0","47608206","wem/bandit_single","A15781PHGW377Y","gain","8","","76","L","3","","1","0","0","0.3417288757","","false","102","0.05244648731","","main_expt","0.06000215667","","0.1163639012","","0.3417288757","","","","","","",""
"364","","bandit","178","588829","0.0-140.0-0.0","47608206","wem/bandit_single","A15781PHGW377Y","gain","8","","72","H","0","img/none_selected.jpg","0","0","1","0.04574159302","","false","103","0.04574159302","","main_expt","0.08726741307","","0.1118657557","","0.3582654759","","","","","","",""
"222","","bandit","179","590825","0.0-141.0-0.0","47608206","wem/bandit_single","A15781PHGW377Y","gain","8","","74","J","1","","0","0","1","0.1067467257","","false","104","0.05033190662","","main_expt","0.1067467257","","0.1501499683","","0.3409136392","","","","","","",""
"261","","bandit","180","592870","0.0-142.0-0.0","47608206","wem/bandit_single","A15781PHGW377Y","gain","8","","76","L","3","","1","0","0","0.3532992837","","false","105","0.1076128494","","main_expt","0.1004566838","","0.1354733374","","0.3532992837","","","","","","",""
"269","","bandit","181","594945","0.0-143.0-0.0","47608206","wem/bandit_single","A15781PHGW377Y","gain","8","","76","L","3","","1","0","0","0.335683565","","false","106","0.06740855405","","main_expt","0.1055318719","","0.1727398631","","0.335683565","","","","","","",""
"239","","bandit","182","596987","0.0-144.0-0.0","47608206","wem/bandit_single","A15781PHGW377Y","gain","8","","76","L","3","","1","0","0","0.3924059951","","false","107","0.06658027063","","main_expt","0.1236328269","","0.1474174257","","0.3924059951","","","","","","",""
"243","","bandit","183","599015","0.0-145.0-0.0","47608206","wem/bandit_single","A15781PHGW377Y","gain","8","","76","L","3","","0","0","1","0.3626054341","","false","108","0.0777756245","","main_expt","0.1301170461","","0.1683059408","","0.3626054341","","","","","","",""
"216","","bandit","184","601178","0.0-146.0-0.0","47608206","wem/bandit_single","A15781PHGW377Y","gain","8","","75","K","2","","0","0","1","0.1972223025","","false","109","0.1117823495","","main_expt","0.1507941036","","0.1972223025","","0.3806857721","","","","","","",""
"130","","bandit","185","603134","0.0-147.0-0.0","47608206","wem/bandit_single","A15781PHGW377Y","gain","8","","76","L","3","","1","0","0","0.3452619283","","false","110","0.08710900622","","main_expt","0.1647590848","","0.2085186414","","0.3452619283","","","","","","",""
"234","","bandit","186","605164","0.0-148.0-0.0","47608206","wem/bandit_single","A15781PHGW377Y","gain","8","","76","L","3","","0","0","1","0.3653509784","","false","111","0.107183683","","main_expt","0.1574612326","","0.1811180602","","0.3653509784","","","","","","",""
"274","","bandit","187","607238","0.0-149.0-0.0","47608206","wem/bandit_single","A15781PHGW377Y","gain","8","","74","J","1","","0","0","1","0.1406493921","","false","112","0.1099425133","","main_expt","0.1406493921","","0.222295219","","0.3435522482","","","","","","",""
"105","","bandit","188","609141","0.0-150.0-0.0","47608206","wem/bandit_single","A15781PHGW377Y","gain","8","","76","L","3","","1","0","0","0.3424956272","","false","113","0.1457634924","","main_expt","0.1367300214","","0.254178783","","0.3424956272","","","","","","",""
"228","","bandit","189","611168","0.0-151.0-0.0","47608206","wem/bandit_single","A15781PHGW377Y","gain","8","","72","H","0","img/none_selected.jpg","1","0","0","0.09824844824","","false","114","0.09824844824","","main_expt","0.1534665218","","0.2315882939","","0.3353894863","","","","","","",""
"223","","bandit","190","613165","0.0-152.0-0.0","47608206","wem/bandit_single","A15781PHGW377Y","gain","8","","76","L","3","","0","0","1","0.3965113255","","false","115","0.07202874502","","main_expt","0.1890238391","","0.2079629003","","0.3965113255","","","","","","",""
"207","","bandit","191","615161","0.0-153.0-0.0","47608206","wem/bandit_single","A15781PHGW377Y","gain","8","","72","H","0","img/none_selected.jpg","0","0","1","0.08386797302","","false","116","0.08386797302","","main_expt","0.1480670238","","0.2117584369","","0.3889101716","","","","","","",""
"277","","bandit","192","617223","0.0-154.0-0.0","47608206","wem/bandit_single","A15781PHGW377Y","gain","8","","75","K","2","","1","0","0","0.1897465023","","false","117","0.1223406282","","main_expt","0.1450369027","","0.1897465023","","0.412290601","","","","","","",""
"157","","bandit","193","619170","0.0-155.0-0.0","47608206","wem/bandit_single","A15781PHGW377Y","gain","8","","76","L","3","","1","0","0","0.4090296977","","false","118","0.1131974311","","main_expt","0.1525061225","","0.2162179109","","0.4090296977","","","","","","",""
"109","","bandit","194","621073","0.0-156.0-0.0","47608206","wem/bandit_single","A15781PHGW377Y","gain","8","","74","J","1","","0","0","1","0.1327940691","","false","119","0.1214903214","","main_expt","0.1327940691","","0.1954464435","","0.3900906375","","","","","","",""
"76","","bandit","195","622930","0.0-157.0-0.0","47608206","wem/bandit_single","A15781PHGW377Y","gain","8","","76","L","3","","1","0","0","0.3722828095","","false","120","0.1379734046","","main_expt","0.1517026744","","0.2433439763","","0.3722828095","","","","","","",""
"93","","bandit","196","624817","0.0-158.0-0.0","47608206","wem/bandit_single","A15781PHGW377Y","gain","8","","75","K","2","","1","0","0","0.2093375247","","false","121","0.1537473387","","main_expt","0.09770447215","","0.2093375247","","0.3593952677","","","","","","",""
"92","","bandit","197","626690","0.0-159.0-0.0","47608206","wem/bandit_single","A15781PHGW377Y","gain","8","","76","L","3","","0","0","1","0.3670381393","","false","122","0.1654199468","","main_expt","0.1084092314","","0.2030857612","","0.3670381393","","","","","","",""
"70","","bandit","198","628545","0.0-160.0-0.0","47608206","wem/bandit_single","A15781PHGW377Y","gain","8","","75","K","2","","0","0","1","0.1810532848","","false","123","0.1908187881","","main_expt","0.1828660492","","0.1810532848","","0.3587286137","","","","","","",""
"428","","bandit","199","630745","0.0-161.0-0.0","47608206","wem/bandit_single","A15781PHGW377Y","gain","8","","72","H","0","img/none_selected.jpg","1","0","0","0.2229551501","","false","124","0.2229551501","","main_expt","0.1743556658","","0.1582229448","","0.3492740793","","","","","","",""
"277","","bandit","200","632835","0.0-162.0-0.0","47608206","wem/bandit_single","A15781PHGW377Y","gain","8","","76","L","3","","0","0","1","0.3031262708","","false","125","0.2354127912","","main_expt","0.2091647646","","0.1223239468","","0.3031262708","","","","","","",""
"107","","bandit","201","634722","0.0-163.0-0.0","47608206","wem/bandit_single","A15781PHGW377Y","gain","8","","75","K","2","","1","0","0","0.08912034734","","false","126","0.25119817","","main_expt","0.2089783764","","0.08912034734","","0.3272336491","","","","","","",""
"86","","bandit","202","636595","0.0-164.0-0.0","47608206","wem/bandit_single","A15781PHGW377Y","gain","8","","72","H","0","img/none_selected.jpg","0","0","1","0.2312690923","","false","127","0.2312690923","","main_expt","0.21334071","","0.05948163","","0.3153677968","","","","","","",""
"248","","bandit","203","638640","0.0-165.0-0.0","47608206","wem/bandit_single","A15781PHGW377Y","gain","8","","76","L","3","","0","0","1","0.3317710332","","false","128","0.2741150261","","main_expt","0.1916283041","","0.06525821595","","0.3317710332","","","","","","",""
"168","","bandit","204","640589","0.0-166.0-0.0","47608206","wem/bandit_single","A15781PHGW377Y","gain","8","","75","K","2","","0","0","1","0.04677418535","","false","129","0.2804264122","","main_expt","0.1810604207","","0.04677418535","","0.3818586719","","","","","","",""
"114","","bandit","205","642492","0.0-167.0-0.0","47608206","wem/bandit_single","A15781PHGW377Y","gain","8","","74","J","1","","0","0","1","0.1492319935","","false","130","0.2746384559","","main_expt","0.1492319935","","0.04931785787","","0.3778611376","","","","","","",""
"101","","bandit","206","644379","0.0-168.0-0.0","47608206","wem/bandit_single","A15781PHGW377Y","gain","8","","72","H","0","img/none_selected.jpg","0","0","1","0.3052944487","","false","131","0.3052944487","","main_expt","0.129351286","","0.03231589458","","0.3745485054","","","","","","",""
"67","","bandit","207","646236","0.0-169.0-0.0","47608206","wem/bandit_single","A15781PHGW377Y","gain","8","","75","K","2","","0","0","1","0.0374336399","","false","132","0.2871604017","","main_expt","0.1020216346","","0.0374336399","","0.3901944836","","","","","","",""
"19","","bandit","208","648047","0.0-170.0-0.0","47608206","wem/bandit_single","A15781PHGW377Y","gain","8","","76","L","3","","0","0","1","0.3245875462","","false","133","0.2262434135","","main_expt","0.1100395313","","0.04583961862","","0.3245875462","","","","","","",""
"129","","bandit","209","649949","0.0-171.0-0.0","47608206","wem/bandit_single","A15781PHGW377Y","gain","8","","74","J","1","","0","0","1","0.1078381017","","false","134","0.2020687113","","main_expt","0.1078381017","","0.04150300199","","0.2794858075","","","","","","",""
"194","","bandit","210","651937","0.0-172.0-0.0","47608206","wem/bandit_single","A15781PHGW377Y","gain","8","","75","K","2","","0","0","1","0.04663842542","","false","135","0.2168620662","","main_expt","0.1093486249","","0.04663842542","","0.2867414221","","","","","","",""
"290","","bandit","211","654035","0.0-173.0-0.0","47608206","wem/bandit_single","A15781PHGW377Y","gain","8","","75","K","2","","0","0","1","0.06291357963","","false","136","0.151139006","","main_expt","0.1246456113","","0.06291357963","","0.2388941587","","","","","","",""
"460","","bandit","212","656298","0.0-174.0-0.0","47608206","wem/bandit_single","A15781PHGW377Y","gain","8","","76","L","3","","0","0","1","0.2301747732","","false","137","0.1452995234","","main_expt","0.1167447495","","0.0848669819","","0.2301747732","","","","","","",""
"164","","bandit","213","658264","0.0-175.0-0.0","47608206","wem/bandit_single","A15781PHGW377Y","gain","8","","74","J","1","","0","0","1","0.1357570265","","false","138","0.1599176777","","main_expt","0.1357570265","","0.1250360552","","0.2344721482","","","","","","",""
"134","","bandit","214","660199","0.0-176.0-0.0","47608206","wem/bandit_single","A15781PHGW377Y","gain","8","","72","H","0","img/none_selected.jpg","0","0","1","0.1704699841","","false","139","0.1704699841","","main_expt","0.1616689495","","0.122190115","","0.2351335283","","","","","","",""
"90","","bandit","215","662085","0.0-177.0-0.0","47608206","wem/bandit_single","A15781PHGW377Y","gain","8","","72","H","0","img/none_selected.jpg","0","0","1","0.1142956015","","false","140","0.1142956015","","main_expt","0.1979747013","","0.08666030548","","0.2876903143","","","","","","",""
"235","","bandit","216","664136","0.0-178.0-0.0","47608206","wem/bandit_single","A15781PHGW377Y","gain","8","","75","K","2","","0","0","1","0.09967801986","","false","141","0.1206890816","","main_expt","0.1708965128","","0.09967801986","","0.2865732071","","","","","","",""
"131","","bandit","217","666071","0.0-179.0-0.0","47608206","wem/bandit_single","A15781PHGW377Y","gain","8","","76","L","3","","0","0","1","0.248943806","","false","142","0.1324259923","","main_expt","0.204481367","","0.1125289611","","0.248943806","","","","","","",""
"240","","bandit","218","668092","0.0-180.0-0.0","47608206","wem/bandit_single","A15781PHGW377Y","gain","8","","74","J","1","","0","0","1","0.1861099789","","false","143","0.09892217097","","main_expt","0.1861099789","","0.1467602081","","0.2839045407","","","","","","",""
"99","","bandit","219","669963","0.0-181.0-0.0","47608206","wem/bandit_single","A15781PHGW377Y","gain","8","","74","J","1","","0","0","1","0.1956465744","","false","144","0.1577744197","","main_expt","0.1956465744","","0.1467522766","","0.3150250783","","","","","","",""
"214","","bandit","220","671976","0.0-182.0-0.0","47608206","wem/bandit_single","A15781PHGW377Y","gain","8","","75","K","2","","1","0","0","0.118212248","","false","145","0.1392006829","","main_expt","0.2622876922","","0.118212248","","0.3090395899","","","","","","",""
"102","","bandit","221","673894","0.0-183.0-0.0","47608206","wem/bandit_single","A15781PHGW377Y","gain","8","","75","K","2","","0","0","1","0.1089879874","","false","146","0.1262993523","","main_expt","0.304745079","","0.1089879874","","0.3122039877","","","","","","",""
"184","","bandit","222","675875","0.0-184.0-0.0","47608206","wem/bandit_single","A15781PHGW377Y","gain","8","","76","L","3","","0","0","1","0.2959619691","","false","147","0.1970652478","","main_expt","0.2888799162","","0.1200469816","","0.2959619691","","","","","","",""
"91","","bandit","223","677763","0.0-185.0-0.0","47608206","wem/bandit_single","A15781PHGW377Y","gain","8","","72","H","0","img/none_selected.jpg","0","0","1","0.2502259542","","false","148","0.2502259542","","main_expt","0.2290209364","","0.1276189258","","0.2395536641","","","","","","",""
"86","","bandit","224","679635","0.0-186.0-0.0","47608206","wem/bandit_single","A15781PHGW377Y","gain","8","","74","J","1","","0","0","1","0.1626908122","","false","149","0.264890558","","main_expt","0.1626908122","","0.1280703092","","0.2650868272","","","","","","",""
"275","","bandit","225","681710","0.0-187.0-0.0","47608206","wem/bandit_single","A15781PHGW377Y","gain","8","","75","K","2","","0","0","1","0.1260403861","","false","150","0.2458403893","","main_expt","0.1958031623","","0.1260403861","","0.2986082654","","","","","","",""
"63","","bandit","226","683566","0.0-188.0-0.0","47608206","wem/bandit_single","A15781PHGW377Y","gain","8","","75","K","2","","0","0","1","0.1472493067","","false","151","0.3021038309","","main_expt","0.2110526716","","0.1472493067","","0.2843767109","","","","","","",""
"176","","bandit","227","685564","0.0-189.0-0.0","47608206","wem/bandit_single","A15781PHGW377Y","gain","8","","76","L","3","","0","0","1","0.2910803031","","false","152","0.2863751765","","main_expt","0.239542308","","0.1256460397","","0.2910803031","","","","","","",""
"131","","bandit","228","687481","0.0-190.0-0.0","47608206","wem/bandit_single","A15781PHGW377Y","gain","8","","75","K","2","","0","0","1","0.1567097088","","false","153","0.250244768","","main_expt","0.2781725502","","0.1567097088","","0.2910028656","","","","","","",""
"117","","bandit","229","689385","0.0-191.0-0.0","47608206","wem/bandit_single","A15781PHGW377Y","gain","8","","74","J","1","","1","0","0","0.228047793","","false","154","0.2127808211","","main_expt","0.228047793","","0.1473662378","","0.2845613835","","","","","","",""
"198","","bandit","230","691382","0.0-192.0-0.0","47608206","wem/bandit_single","A15781PHGW377Y","gain","8","","74","J","1","","0","0","1","0.2683949018","","false","155","0.205053704","","main_expt","0.2683949018","","0.1466549972","","0.2707345723","","","","","","",""
"105","","bandit","231","693284","0.0-193.0-0.0","47608206","wem/bandit_single","A15781PHGW377Y","gain","8","","76","L","3","","0","0","1","0.3156720475","","false","156","0.1648482415","","main_expt","0.3192141369","","0.1127453184","","0.3156720475","","","","","","",""
"119","","bandit","232","695204","0.0-194.0-0.0","47608206","wem/bandit_single","A15781PHGW377Y","gain","8","","72","H","0","img/none_selected.jpg","0","0","1","0.1888047422","","false","157","0.1888047422","","main_expt","0.3402823895","","0.1577506677","","0.3101066834","","","","","","",""
"11","","bandit","233","696998","0.0-195.0-0.0","47608206","wem/bandit_single","A15781PHGW377Y","gain","8","","74","J","1","","0","0","1","0.2944958958","","false","158","0.1759444775","","main_expt","0.2944958958","","0.177177298","","0.3236654942","","","","","","",""
"8","","bandit","234","698792","0.0-196.0-0.0","47608206","wem/bandit_single","A15781PHGW377Y","gain","8","","75","K","2","","1","0","0","0.1693510486","","false","159","0.2066832709","","main_expt","0.3007248388","","0.1693510486","","0.2735657487","","","","","","",""
"362","","bandit","235","700960","0.0-197.0-0.0","47608206","wem/bandit_single","A15781PHGW377Y","gain","8","","75","K","2","","0","0","1","0.1230292859","","false","160","0.2570817279","","main_expt","0.3179332055","","0.1230292859","","0.2384912546","","","","","","",""
"142","","bandit","236","702910","0.0-198.0-0.0","47608206","wem/bandit_single","A15781PHGW377Y","gain","8","","74","J","1","","0","0","1","0.2506164635","","false","161","0.2244749933","","main_expt","0.2506164635","","0.07903667538","","0.2615252743","","","","","","",""
"354","","bandit","237","705063","0.0-199.0-0.0","47608206","wem/bandit_single","A15781PHGW377Y","gain","8","","76","L","3","","0","0","1","0.2187643747","","false","162","0.23263707","","main_expt","0.2858836385","","0.1136507332","","0.2187643747","","","","","","",""
"152","","bandit","238","707012","0.0-200.0-0.0","47608206","wem/bandit_single","A15781PHGW377Y","gain","8","","72","H","0","img/none_selected.jpg","0","0","1","0.2287127565","","false","163","0.2287127565","","main_expt","0.2848163613","","0.1137116213","","0.1909081127","","","","","","",""
"154","","bandit","239","708963","0.0-201.0-0.0","47608206","wem/bandit_single","A15781PHGW377Y","gain","8","","74","J","1","","1","0","0","0.2688566635","","false","164","0.2303253206","","main_expt","0.2688566635","","0.1254102563","","0.1808716434","","","","","","",""
"167","","bandit","240","710929","0.0-202.0-0.0","47608206","wem/bandit_single","A15781PHGW377Y","gain","8","","74","J","1","","0","0","1","0.2921202554","","false","165","0.2771057403","","main_expt","0.2921202554","","0.1216805934","","0.2118073572","","","","","","",""
"206","","bandit","241","712909","0.0-203.0-0.0","47608206","wem/bandit_single","A15781PHGW377Y","gain","8","","75","K","2","","0","0","1","0.1291529517","","false","166","0.2371810998","","main_expt","0.3143591269","","0.1291529517","","0.2410554973","","","","","","",""
"161","","bandit","242","714859","0.0-204.0-0.0","47608206","wem/bandit_single","A15781PHGW377Y","gain","8","","72","H","0","img/none_selected.jpg","0","0","1","0.2349122652","","false","167","0.2349122652","","main_expt","0.2892924204","","0.1535345887","","0.2574005288","","","","","","",""
"161","","bandit","243","716809","0.0-205.0-0.0","47608206","wem/bandit_single","A15781PHGW377Y","gain","8","","76","L","3","","0","0","1","0.2729884233","","false","168","0.1959020284","","main_expt","0.2786305655","","0.1435034989","","0.2729884233","","","","","","",""
"369","","bandit","244","718961","0.0-206.0-0.0","47608206","wem/bandit_single","A15781PHGW377Y","gain","8","","74","J","1","","0","0","1","0.246803054","","false","169","0.1899859579","","main_expt","0.246803054","","0.1957458285","","0.2625821735","","","","","","",""
"151","","bandit","245","720911","0.0-207.0-0.0","47608206","wem/bandit_single","A15781PHGW377Y","gain","8","","76","L","3","","0","0","1","0.3100542845","","false","170","0.2213833812","","main_expt","0.2375021307","","0.1308867566","","0.3100542845","","","","","","",""
"87","","bandit","246","722783","0.0-208.0-0.0","47608206","wem/bandit_single","A15781PHGW377Y","gain","8","","76","L","3","","1","0","0","0.3083945368","","false","171","0.1589997081","","main_expt","0.2965678991","","0.1422271972","","0.3083945368","","","","","","",""
"190","","bandit","247","724764","0.0-209.0-0.0","47608206","wem/bandit_single","A15781PHGW377Y","gain","8","","74","J","1","","0","0","1","0.2696718616","","false","172","0.1669714507","","main_expt","0.2696718616","","0.1541925874","","0.3929186772","","","","","","",""
"177","","bandit","248","726745","0.0-210.0-0.0","47608206","wem/bandit_single","A15781PHGW377Y","gain","8","","76","L","3","","0","0","1","0.4107736206","","false","173","0.1699847696","","main_expt","0.2576521005","","0.1416394444","","0.4107736206","","","","","","",""
"421","","bandit","249","728986","0.0-211.0-0.0","47608206","wem/bandit_single","A15781PHGW377Y","gain","8","","75","K","2","","0","0","1","0.1207830423","","false","174","0.202136981","","main_expt","0.2839516933","","0.1207830423","","0.4267170337","","","","","","",""
"140","","bandit","250","730898","0.0-212.0-0.0","47608206","wem/bandit_single","A15781PHGW377Y","gain","8","","76","L","3","","1","0","0","0.420504823","","false","175","0.1863880777","","main_expt","0.2932452363","","0.1636312712","","0.420504823","","","","","","",""
"329","","bandit","251","733018","0.0-213.0-0.0","47608206","wem/bandit_single","A15781PHGW377Y","gain","8","","72","H","0","img/none_selected.jpg","1","0","0","0.1426909825","","false","176","0.1426909825","","main_expt","0.3118313574","","0.186569684","","0.3956962169","","","","","","",""
"227","","bandit","252","735050","0.0-214.0-0.0","47608206","wem/bandit_single","A15781PHGW377Y","gain","8","","72","H","0","img/none_selected.jpg","0","0","1","0.1335645184","","false","177","0.1335645184","","main_expt","0.3378695823","","0.1089038478","","0.3834761318","","","","","","",""
"152","","bandit","253","737011","0.0-215.0-0.0","47608206","wem/bandit_single","A15781PHGW377Y","gain","8","","76","L","3","","1","0","0","0.4167112469","","false","178","0.09719791569","","main_expt","0.3234122319","","0.08465244813","","0.4167112469","","","","","","",""
"316","","bandit","254","739134","0.0-216.0-0.0","47608206","wem/bandit_single","A15781PHGW377Y","gain","8","","72","H","0","img/none_selected.jpg","0","0","1","0.07123289457","","false","179","0.07123289457","","main_expt","0.3281528324","","0.1015747644","","0.4370197561","","","","","","",""
"207","","bandit","255","741113","0.0-217.0-0.0","47608206","wem/bandit_single","A15781PHGW377Y","gain","8","","75","K","2","","0","0","1","0.1277953302","","false","180","0.05555663239","","main_expt","0.340497037","","0.1277953302","","0.3776598584","","","","","","",""
"132","","bandit","256","743032","0.0-218.0-0.0","47608206","wem/bandit_single","A15781PHGW377Y","gain","8","","76","L","3","","1","0","0","0.3636519722","","false","181","0.04396828199","","main_expt","0.3007371283","","0.1854921141","","0.3636519722","","","","","","",""
"197","","bandit","257","745013","0.0-219.0-0.0","47608206","wem/bandit_single","A15781PHGW377Y","gain","8","","74","J","1","","1","0","0","0.3190136055","","false","182","0.02691259782","","main_expt","0.3190136055","","0.2273529654","","0.3246411676","","","","","","",""
"140","","bandit","258","746963","0.0-220.0-0.0","47608206","wem/bandit_single","A15781PHGW377Y","gain","8","","76","L","3","","0","0","1","0.3187018958","","false","183","0.04807599522","","main_expt","0.322323442","","0.2600234541","","0.3187018958","","","","","","",""
"203","","bandit","259","748960","0.0-221.0-0.0","47608206","wem/bandit_single","A15781PHGW377Y","gain","8","","74","J","1","","0","0","1","0.3086696071","","false","184","0.05076165442","","main_expt","0.3086696071","","0.2689652485","","0.3497063737","","","","","","",""
"173","","bandit","260","750910","0.0-222.0-0.0","47608206","wem/bandit_single","A15781PHGW377Y","gain","8","","75","K","2","","0","0","1","0.2646203852","","false","185","0.1128087831","","main_expt","0.3146814862","","0.2646203852","","0.3334532315","","","","","","",""
"239","","bandit","261","753039","0.0-223.0-0.0","47608206","wem/bandit_single","A15781PHGW377Y","gain","8","","72","H","0","img/none_selected.jpg","1","0","0","0.1592260056","","false","186","0.1592260056","","main_expt","0.3353274036","","0.2038557162","","0.3511592443","","","","","","",""
"118","","bandit","262","754951","0.0-224.0-0.0","47608206","wem/bandit_single","A15781PHGW377Y","gain","8","","74","J","1","","1","0","0","0.331036234","","false","187","0.2195828404","","main_expt","0.331036234","","0.2643634763","","0.3758503369","","","","","","",""
"183","","bandit","263","756947","0.0-225.0-0.0","47608206","wem/bandit_single","A15781PHGW377Y","gain","8","","76","L","3","","0","0","1","0.3951098987","","false","188","0.214856838","","main_expt","0.3061178756","","0.2137054787","","0.3951098987","","","","","","",""
"169","","bandit","264","758913","0.0-226.0-0.0","47608206","wem/bandit_single","A15781PHGW377Y","gain","8","","72","H","0","img/none_selected.jpg","1","0","0","0.2103369464","","false","189","0.2103369464","","main_expt","0.3455914038","","0.2349639762","","0.3766733461","","","","","","",""
"140","","bandit","265","760847","0.0-227.0-0.0","47608206","wem/bandit_single","A15781PHGW377Y","gain","8","","74","J","1","","0","0","1","0.3734842368","","false","190","0.1932940482","","main_expt","0.3734842368","","0.2067261929","","0.3974997784","","","","","","",""
"94","","bandit","266","762735","0.0-228.0-0.0","47608206","wem/bandit_single","A15781PHGW377Y","gain","8","","75","K","2","","0","0","1","0.275245882","","false","191","0.2285646161","","main_expt","0.3648323685","","0.275245882","","0.4174686418","","","","","","",""
"145","","bandit","267","764684","0.0-229.0-0.0","47608206","wem/bandit_single","A15781PHGW377Y","gain","8","","72","H","0","img/none_selected.jpg","0","0","1","0.2589031043","","false","192","0.2589031043","","main_expt","0.3339781981","","0.306220044","","0.3963748123","","","","","","",""
"276","","bandit","268","766744","0.0-230.0-0.0","47608206","wem/bandit_single","A15781PHGW377Y","gain","8","","76","L","3","","1","0","0","0.3921748604","","false","193","0.2195537535","","main_expt","0.3342714415","","0.3035773814","","0.3921748604","","","","","","",""
"221","","bandit","269","768756","0.0-231.0-0.0","47608206","wem/bandit_single","A15781PHGW377Y","gain","8","","74","J","1","","1","0","0","0.3241295504","","false","194","0.2027550427","","main_expt","0.3241295504","","0.2510827831","","0.3580841109","","","","","","",""
"184","","bandit","270","770754","0.0-232.0-0.0","47608206","wem/bandit_single","A15781PHGW377Y","gain","8","","75","K","2","","0","0","1","0.2455858858","","false","195","0.1862287394","","main_expt","0.3116310431","","0.2455858858","","0.3508589263","","","","","","",""
"59","","bandit","271","772594","0.0-233.0-0.0","47608206","wem/bandit_single","A15781PHGW377Y","gain","8","","72","H","0","img/none_selected.jpg","0","0","1","0.1892299528","","false","196","0.1892299528","","main_expt","0.3757707762","","0.2514601016","","0.3580593089","","","","","","",""
"299","","bandit","272","774684","0.0-234.0-0.0","47608206","wem/bandit_single","A15781PHGW377Y","gain","8","","74","J","1","","1","0","0","0.3510132286","","false","197","0.2217707201","","main_expt","0.3510132286","","0.2735270373","","0.325214339","","","","","","",""
"114","","bandit","273","776602","0.0-235.0-0.0","47608206","wem/bandit_single","A15781PHGW377Y","gain","8","","76","L","3","","1","0","0","0.3214736551","","false","198","0.2622368769","","main_expt","0.3775824693","","0.1856542716","","0.3214736551","","","","","","",""
"627","","bandit","274","779036","0.0-236.0-0.0","47608206","wem/bandit_single","A15781PHGW377Y","gain","8","","75","K","2","","0","0","1","0.1439471636","","false","199","0.2566369559","","main_expt","0.3591355879","","0.1439471636","","0.3134841864","","","","","","",""
"95","","bandit","275","780908","0.0-237.0-0.0","47608206","wem/bandit_single","A15781PHGW377Y","gain","8","","74","J","1","","1","0","0","0.4329566742","","false","200","0.2405232655","","main_expt","0.4329566742","","0.1920673188","","0.3484934822","","","","","","",""
"158","","bandit","276","782858","0.0-238.0-0.0","47608206","wem/bandit_single","A15781PHGW377Y","gain","8","","76","L","3","","1","0","0","0.3509587021","","false","201","0.191632201","","main_expt","0.4316294991","","0.2139557707","","0.3509587021","","","","","","",""
"223","","bandit","277","784870","0.0-239.0-0.0","47608206","wem/bandit_single","A15781PHGW377Y","gain","8","","74","J","1","","1","0","0","0.4446061493","","false","202","0.1860277461","","main_expt","0.4446061493","","0.2411081829","","0.3472711197","","","","","","",""
"166","","bandit","278","787005","0.0-240.0-0.0","47608206","wem/bandit_single","A15781PHGW377Y","gain","8","","76","L","3","","0","0","1","0.3501901851","","false","203","0.1959395152","","main_expt","0.4350640844","","0.2229679022","","0.3501901851","","","","","","",""
"397","","bandit","279","789207","0.0-241.0-0.0","47608206","wem/bandit_single","A15781PHGW377Y","gain","8","","72","H","0","img/none_selected.jpg","0","0","1","0.1909798814","","false","204","0.1909798814","","main_expt","0.4511953558","","0.2094072873","","0.4021923856","","","","","","",""
"14","","bandit","280","791017","0.0-242.0-0.0","47608206","wem/bandit_single","A15781PHGW377Y","gain","8","","75","K","2","","0","0","1","0.2061243076","","false","205","0.1952925147","","main_expt","0.4444608137","","0.2061243076","","0.4103624794","","","","","","",""
"147","","bandit","281","792951","0.0-243.0-0.0","47608206","wem/bandit_single","A15781PHGW377Y","gain","8","","74","J","1","","0","0","1","0.4174874576","","false","206","0.2333477628","","main_expt","0.4174874576","","0.1830656651","","0.3884407208","","","","","","",""
"245","","bandit","282","794996","0.0-244.0-0.0","47608206","wem/bandit_single","A15781PHGW377Y","gain","8","","76","L","3","","0","0","1","0.4205181933","","false","207","0.2366383375","","main_expt","0.4473837798","","0.1806213093","","0.4205181933","","","","","","",""
"138","","bandit","283","796930","0.0-245.0-0.0","47608206","wem/bandit_single","A15781PHGW377Y","gain","8","","74","J","1","","0","0","1","0.4423282801","","false","208","0.2588239296","","main_expt","0.4423282801","","0.1547428587","","0.39705837","","","","","","",""
"52","","bandit","284","798773","0.0-246.0-0.0","47608206","wem/bandit_single","A15781PHGW377Y","gain","8","","75","K","2","","0","0","1","0.1633509089","","false","209","0.2109346514","","main_expt","0.4495798672","","0.1633509089","","0.3763678409","","","","","","",""
"101","","bandit","285","800674","0.0-247.0-0.0","47608206","wem/bandit_single","A15781PHGW377Y","gain","8","","72","H","0","img/none_selected.jpg","0","0","1","0.2352346414","","false","210","0.2352346414","","main_expt","0.4604116181","","0.194224154","","0.329669689","","","","","","",""
"747","","bandit","286","803218","0.0-248.0-0.0","47608206","wem/bandit_single","A15781PHGW377Y","gain","8","","72","H","0","img/none_selected.jpg","1","0","0","0.1919095989","","false","211","0.1919095989","","main_expt","0.4515605979","","0.1428536625","","0.3234151823","","","","","","",""
"203","","bandit","287","805212","0.0-249.0-0.0","47608206","wem/bandit_single","A15781PHGW377Y","gain","8","","76","L","3","","0","0","1","0.346289724","","false","212","0.2511997366","","main_expt","0.3796359761","","0.1876263767","","0.346289724","","","","","","",""
"110","","bandit","288","807118","0.0-250.0-0.0","47608206","wem/bandit_single","A15781PHGW377Y","gain","8","","72","H","0","img/none_selected.jpg","0","0","1","0.2247602752","","false","213","0.2247602752","","main_expt","0.4098311692","","0.1767426991","","0.3579646626","","","","","","",""
"107","","bandit","289","809019","0.0-251.0-0.0","47608206","wem/bandit_single","A15781PHGW377Y","gain","8","","75","K","2","","0","0","1","0.1997003326","","false","214","0.2078026042","","main_expt","0.3758430492","","0.1997003326","","0.3871938136","","","","","","",""
"64","","bandit","290","811058","0.0-252.0-0.0","47608206","wem/bandit_single","A15781PHGW377Y","gain","8","","74","J","1","","1","0","0","0.3391734167","","false","215","0.2000367883","","main_expt","0.3391734167","","0.1753208105","","0.4072701047","","","","","","",""
"69","","bandit","291","812918","0.0-253.0-0.0","47608206","wem/bandit_single","A15781PHGW377Y","gain","8","","72","H","0","img/none_selected.jpg","0","0","1","0.1850279066","","false","216","0.1850279066","","main_expt","0.3292806148","","0.1526073348","","0.4139997029","","","","","","",""
"101","","bandit","292","814807","0.0-254.0-0.0","47608206","wem/bandit_single","A15781PHGW377Y","gain","8","","74","J","1","","1","0","0","0.3672552775","","false","217","0.1862329662","","main_expt","0.3672552775","","0.1885901152","","0.4058129166","","","","","","",""
"53","","bandit","293","816647","0.0-255.0-0.0","47608206","wem/bandit_single","A15781PHGW377Y","gain","8","","75","K","2","","0","0","1","0.2068683321","","false","218","0.2076422808","","main_expt","0.3540988412","","0.2068683321","","0.3831507141","","","","","","",""
"74","","bandit","294","818519","0.0-256.0-0.0","47608206","wem/bandit_single","A15781PHGW377Y","gain","8","","74","J","1","","1","0","0","0.3705907093","","false","219","0.1693095695","","main_expt","0.3705907093","","0.1830460615","","0.3975704748","","","","","","",""
"100","","bandit","295","820407","0.0-257.0-0.0","47608206","wem/bandit_single","A15781PHGW377Y","gain","8","","76","L","3","","0","0","1","0.420208779","","false","220","0.1643321708","","main_expt","0.4071767116","","0.1510464272","","0.420208779","","","","","","",""
"101","","bandit","296","822295","0.0-258.0-0.0","47608206","wem/bandit_single","A15781PHGW377Y","gain","8","","74","J","1","","0","0","1","0.4000591573","","false","221","0.1755642267","","main_expt","0.4000591573","","0.1195154075","","0.4277126104","","","","","","",""
"77","","bandit","297","824167","0.0-259.0-0.0","47608206","wem/bandit_single","A15781PHGW377Y","gain","8","","75","K","2","","1","0","0","0.1322821073","","false","222","0.2047466037","","main_expt","0.4257242725","","0.1322821073","","0.4098861052","","","","","","",""
"116","","bandit","298","826070","0.0-260.0-0.0","47608206","wem/bandit_single","A15781PHGW377Y","gain","8","","74","J","1","","0","0","1","0.4084538547","","false","223","0.1261696039","","main_expt","0.4084538547","","0.1634864242","","0.3865692481","","","","","","",""
"358","","bandit","299","828222","0.0-261.0-0.0","47608206","wem/bandit_single","A15781PHGW377Y","gain","8","","72","H","0","img/none_selected.jpg","0","0","1","0.1671605087","","false","224","0.1671605087","","main_expt","0.3756333804","","0.1927622759","","0.3942994903","","","","","","",""
"126","","bandit","300","830141","0.0-262.0-0.0","47608206","wem/bandit_single","A15781PHGW377Y","gain","8","","76","L","3","","0","0","1","0.3444994861","","false","225","0.1498322393","","main_expt","0.3977261909","","0.1949177646","","0.3444994861","","","","","","",""
"129","","bandit","301","832044","0.0-263.0-0.0","47608206","wem/bandit_single","A15781PHGW377Y","gain","8","","75","K","2","","0","0","1","0.1675301724","","false","226","0.106170416","","main_expt","0.3876796808","","0.1675301724","","0.4042132592","","","","","","",""
"126","","bandit","302","834064","0.0-264.0-0.0","47608206","wem/bandit_single","A15781PHGW377Y","gain","8","","75","K","2","","0","0","1","0.163375113","","false","227","0.0897934899","","main_expt","0.3213858912","","0.163375113","","0.3906229402","","","","","","",""
"147","","bandit","303","836006","0.0-265.0-0.0","47608206","wem/bandit_single","A15781PHGW377Y","gain","8","","74","J","1","","0","0","1","0.3331191915","","false","228","0.09443294629","","main_expt","0.3331191915","","0.195474145","","0.3417164876","","","","","","",""
"230","","bandit","304","838034","0.0-266.0-0.0","47608206","wem/bandit_single","A15781PHGW377Y","gain","8","","75","K","2","","0","0","1","0.2410354958","","false","229","0.0848669953","","main_expt","0.308496805","","0.2410354958","","0.3222205624","","","","","","",""
"153","","bandit","305","840000","0.0-267.0-0.0","47608206","wem/bandit_single","A15781PHGW377Y","gain","8","","72","H","0","img/none_selected.jpg","0","0","1","0.0701458292","","false","230","0.0701458292","","main_expt","0.2734654059","","0.2567648542","","0.3442672336","","","","","","",""
"155","","bandit","306","841949","0.0-268.0-0.0","47608206","wem/bandit_single","A15781PHGW377Y","gain","8","","76","L","3","","0","0","1","0.3164459362","","false","231","0.1251282835","","main_expt","0.292212981","","0.2304241664","","0.3164459362","","","","","","",""
"413","","bandit","307","844150","0.0-269.0-0.0","47608206","wem/bandit_single","A15781PHGW377Y","gain","8","","74","J","1","","0","0","1","0.2516656152","","false","232","0.1124912266","","main_expt","0.2516656152","","0.2264886823","","0.3396906789","","","","","","",""
"1","","bandit","308","846115","0.0-270.0-0.0","47608206","wem/bandit_single","A15781PHGW377Y","gain","8","","75","K","2","","1","0","0","0.1892320941","","false","233","0.1535494164","","main_expt","0.2563877418","","0.1892320941","","0.3008540409","","","","","","",""
"216","","bandit","309","848143","0.0-271.0-0.0","47608206","wem/bandit_single","A15781PHGW377Y","gain","8","","75","K","2","","0","0","1","0.1556895318","","false","234","0.1389628654","","main_expt","0.283882603","","0.1556895318","","0.2767988229","","","","","","",""
"204","","bandit","310","850156","0.0-272.0-0.0","47608206","wem/bandit_single","A15781PHGW377Y","gain","8","","76","L","3","","1","0","0","0.2507781603","","false","235","0.1680793718","","main_expt","0.2758852766","","0.1976044491","","0.2507781603","","","","","","",""
"695","","bandit","311","852651","0.0-273.0-0.0","47608206","wem/bandit_single","A15781PHGW377Y","gain","8","","72","H","0","img/none_selected.jpg","0","0","1","0.2037097706","","false","236","0.2037097706","","main_expt","0.2434452049","","0.1468950029","","0.3091667607","","","","","","",""
"47","","bandit","312","854477","0.0-274.0-0.0","47608206","wem/bandit_single","A15781PHGW377Y","gain","8","","74","J","1","","0","0","1","0.2405517979","","false","237","0.1897176974","","main_expt","0.2405517979","","0.1365515699","","0.2883211118","","","","","","",""
"285","","bandit","313","856551","0.0-275.0-0.0","47608206","wem/bandit_single","A15781PHGW377Y","gain","8","","75","K","2","","1","0","0","0.1527077476","","false","238","0.2317710791","","main_expt","0.2260832521","","0.1527077476","","0.2756444762","","","","","","",""
"162","","bandit","314","858501","0.0-276.0-0.0","47608206","wem/bandit_single","A15781PHGW377Y","gain","8","","76","L","3","","0","0","1","0.3061346513","","false","239","0.2206906913","","main_expt","0.2061693665","","0.1315224722","","0.3061346513","","","","","","",""
"258","","bandit","315","860560","0.0-277.0-0.0","47608206","wem/bandit_single","A15781PHGW377Y","gain","8","","75","K","2","","0","0","1","0.1398926963","","false","240","0.2155283076","","main_expt","0.2203195159","","0.1398926963","","0.3274201615","","","","","","",""
"217","","bandit","316","862573","0.0-278.0-0.0","47608206","wem/bandit_single","A15781PHGW377Y","gain","8","","72","H","0","img/none_selected.jpg","1","0","0","0.2386015387","","false","241","0.2386015387","","main_expt","0.2230507071","","0.1698873683","","0.2838770346","","","","","","",""
"303","","bandit","317","864678","0.0-279.0-0.0","47608206","wem/bandit_single","A15781PHGW377Y","gain","8","","75","K","2","","0","0","1","0.1693915972","","false","242","0.2178179326","","main_expt","0.1834748297","","0.1693915972","","0.261873528","","","","","","",""
"165","","bandit","318","866645","0.0-280.0-0.0","47608206","wem/bandit_single","A15781PHGW377Y","gain","8","","72","H","0","img/none_selected.jpg","0","0","1","0.2209910316","","false","243","0.2209910316","","main_expt","0.1450766806","","0.2011280514","","0.2346518895","","","","","","",""
"309","","bandit","319","868753","0.0-281.0-0.0","47608206","wem/bandit_single","A15781PHGW377Y","gain","8","","74","J","1","","0","0","1","0.1407015906","","false","244","0.2202366047","","main_expt","0.1407015906","","0.283074141","","0.2253303202","","","","","","",""
"239","","bandit","320","870779","0.0-282.0-0.0","47608206","wem/bandit_single","A15781PHGW377Y","gain","8","","76","L","3","","1","0","0","0.2379184421","","false","245","0.2369425358","","main_expt","0.1386250556","","0.2960363525","","0.2379184421","","","","","","",""
"208","","bandit","321","872775","0.0-283.0-0.0","47608206","wem/bandit_single","A15781PHGW377Y","gain","8","","75","K","2","","0","0","1","0.2985154159","","false","246","0.2437218948","","main_expt","0.1561911267","","0.2985154159","","0.1704118475","","","","","","",""
"145","","bandit","322","874710","0.0-284.0-0.0","47608206","wem/bandit_single","A15781PHGW377Y","gain","8","","76","L","3","","1","0","0","0.1520093858","","false","247","0.2573167276","","main_expt","0.251644506","","0.3159682012","","0.1520093858","","","","","","",""
"213","","bandit","323","876722","0.0-285.0-0.0","47608206","wem/bandit_single","A15781PHGW377Y","gain","8","","74","J","1","","0","0","1","0.2541276422","","false","248","0.255349996","","main_expt","0.2541276422","","0.2937445921","","0.1246217458","","","","","","",""
"168","","bandit","324","878688","0.0-286.0-0.0","47608206","wem/bandit_single","A15781PHGW377Y","gain","8","","76","L","3","","0","0","1","0.1525969556","","false","249","0.2866877344","","main_expt","0.1924412691","","0.2794909668","","0.1525969556","","","","","","",""
"274","","bandit","325","880762","0.0-287.0-0.0","47608206","wem/bandit_single","A15781PHGW377Y","gain","8","","72","H","0","img/none_selected.jpg","0","0","1","0.2330780591","","false","250","0.2330780591","","main_expt","0.1397358892","","0.2327966623","","0.1500628479","","","","","","",""
"176","","bandit","326","882729","0.0-288.0-0.0","47608206","wem/bandit_single","A15781PHGW377Y","gain","8","","75","K","2","","0","0","1","0.2595602212","","false","251","0.2580196572","","main_expt","0.1362233376","","0.2595602212","","0.1141396938","","","","","","",""
"210","","bandit","327","884709","0.0-289.0-0.0","47608206","wem/bandit_single","A15781PHGW377Y","gain","8","","76","L","3","","0","0","1","0.1476089834","","false","252","0.2003146692","","main_expt","0.1796418735","","0.2715763176","","0.1476089834","","","","","","",""
"260","","bandit","328","886770","0.0-290.0-0.0","47608206","wem/bandit_single","A15781PHGW377Y","gain","8","","74","J","1","","0","0","1","0.1833608075","","false","253","0.1651092288","","main_expt","0.1833608075","","0.3146654463","","0.175183139","","","","","","",""
"213","","bandit","329","888767","0.0-291.0-0.0","47608206","wem/bandit_single","A15781PHGW377Y","gain","8","","76","L","3","","0","0","1","0.1916323123","","false","254","0.1413675546","","main_expt","0.1983034343","","0.3037610447","","0.1916323123","","","","","","",""
"269","","bandit","330","890824","0.0-292.0-0.0","47608206","wem/bandit_single","A15781PHGW377Y","gain","8","","72","H","0","img/none_selected.jpg","0","0","1","0.1801919014","","false","255","0.1801919014","","main_expt","0.2286544637","","0.287825992","","0.1888714334","","","","","","",""
"128","","bandit","331","892743","0.0-293.0-0.0","47608206","wem/bandit_single","A15781PHGW377Y","gain","8","","75","K","2","","0","0","1","0.2673332977","","false","256","0.1883387327","","main_expt","0.2502735072","","0.2673332977","","0.2338577058","","","","","","",""
"129","","bandit","332","894661","0.0-294.0-0.0","47608206","wem/bandit_single","A15781PHGW377Y","gain","8","","76","L","3","","0","0","1","0.2235288738","","false","257","0.1757220287","","main_expt","0.2657937058","","0.2867614738","","0.2235288738","","","","","","",""
"131","","bandit","333","896565","0.0-295.0-0.0","47608206","wem/bandit_single","A15781PHGW377Y","gain","8","","74","J","1","","0","0","1","0.2326681124","","false","258","0.1817694486","","main_expt","0.2326681124","","0.2432485896","","0.2256298632","","","","","","",""
"21","","bandit","334","898358","0.0-296.0-0.0","47608206","wem/bandit_single","A15781PHGW377Y","gain","8","","76","L","3","","1","0","0","0.229367941","","false","259","0.1938363466","","main_expt","0.2128848171","","0.2433124215","","0.229367941","","","","","","",""
"99","","bandit","335","900230","0.0-297.0-0.0","47608206","wem/bandit_single","A15781PHGW377Y","gain","8","","74","J","1","","0","0","1","0.261065439","","false","260","0.2129025296","","main_expt","0.261065439","","0.202057327","","0.2585863351","","","","","","",""
"115","","bandit","336","902339","0.0-298.0-0.0","47608206","wem/bandit_single","A15781PHGW377Y","gain","8","","76","L","3","","0","0","1","0.2748644017","","false","261","0.1931457884","","main_expt","0.2693274395","","0.163702413","","0.2748644017","","","","","","",""
"728","","bandit","337","904864","0.0-299.0-0.0","47608206","wem/bandit_single","A15781PHGW377Y","gain","8","","72","H","0","img/none_selected.jpg","0","0","1","0.183306516","","false","262","0.183306516","","main_expt","0.3386888623","","0.1317961998","","0.288340978","","","","","","",""
"171","","bandit","338","906829","0.0-300.0-0.0","47608206","wem/bandit_single","A15781PHGW377Y","gain","8","","75","K","2","","0","0","1","0.09680570831","","false","263","0.1293037787","","main_expt","0.3645909238","","0.09680570831","","0.3151532186","","","","","","",""
"156","","bandit","339","908779","0.0-301.0-0.0","47608206","wem/bandit_single","A15781PHGW377Y","gain","8","","76","L","3","","0","0","1","0.2931268787","","false","264","0.1386072774","","main_expt","0.3437159196","","0.08846786375","","0.2931268787","","","","","","",""
"138","","bandit","340","910715","0.0-302.0-0.0","47608206","wem/bandit_single","A15781PHGW377Y","gain","8","","74","J","1","","1","0","0","0.3644358952","","false","265","0.1511252148","","main_expt","0.3644358952","","0.08556864258","","0.3131275506","","","","","","",""
"225","","bandit","341","912742","0.0-303.0-0.0","47608206","wem/bandit_single","A15781PHGW377Y","gain","8","","76","L","3","","0","0","1","0.336523231","","false","266","0.2186772706","","main_expt","0.3904852039","","0.0706515048","","0.336523231","","","","","","",""
"309","","bandit","342","914864","0.0-304.0-0.0","47608206","wem/bandit_single","A15781PHGW377Y","gain","8","","74","J","1","","0","0","1","0.3896615427","","false","267","0.2625163009","","main_expt","0.3896615427","","0.0747424838","","0.2850369317","","","","","","",""
"378","","bandit","343","917031","0.0-305.0-0.0","47608206","wem/bandit_single","A15781PHGW377Y","gain","8","","75","K","2","","1","0","0","0.112617448","","false","268","0.3140442454","","main_expt","0.4017278216","","0.112617448","","0.3163307124","","","","","","",""
"307","","bandit","344","919138","0.0-306.0-0.0","47608206","wem/bandit_single","A15781PHGW377Y","gain","8","","75","K","2","","0","0","1","0.1406639307","","false","269","0.3069084364","","main_expt","0.370996795","","0.1406639307","","0.2956683275","","","","","","",""
"264","","bandit","345","921212","0.0-307.0-0.0","47608206","wem/bandit_single","A15781PHGW377Y","gain","8","","74","J","1","","0","0","1","0.4255483526","","false","270","0.2814908846","","main_expt","0.4255483526","","0.1398727949","","0.3574655381","","","","","","",""
"476","","bandit","346","923474","0.0-308.0-0.0","47608206","wem/bandit_single","A15781PHGW377Y","gain","8","","72","H","0","img/none_selected.jpg","0","0","1","0.3060786573","","false","271","0.3060786573","","main_expt","0.3948114384","","0.1430486157","","0.3969117111","","","","","","",""
"246","","bandit","347","925517","0.0-309.0-0.0","47608206","wem/bandit_single","A15781PHGW377Y","gain","8","","76","L","3","","1","0","0","0.3938657786","","false","272","0.3555003363","","main_expt","0.3713372483","","0.1872928851","","0.3938657786","","","","","","",""
"149","","bandit","348","927499","0.0-310.0-0.0","47608206","wem/bandit_single","A15781PHGW377Y","gain","8","","74","J","1","","0","0","1","0.3650537767","","false","273","0.3980140183","","main_expt","0.3650537767","","0.1769074474","","0.3903330825","","","","","","",""
"174","","bandit","349","929449","0.0-311.0-0.0","47608206","wem/bandit_single","A15781PHGW377Y","gain","8","","76","L","3","","0","0","1","0.4236793781","","false","274","0.4077181827","","main_expt","0.3414565802","","0.1820324592","","0.4236793781","","","","","","",""
"144","","bandit","350","931398","0.0-312.0-0.0","47608206","wem/bandit_single","A15781PHGW377Y","gain","8","","75","K","2","","0","0","1","0.1923133529","","false","275","0.4142369189","","main_expt","0.3027622838","","0.1923133529","","0.4320968281","","","","","","",""
"129","","bandit","351","933317","0.0-313.0-0.0","47608206","wem/bandit_single","A15781PHGW377Y","gain","8","","72","H","0","img/none_selected.jpg","0","0","1","0.4250096067","","false","276","0.4250096067","","main_expt","0.3125082267","","0.1917589367","","0.4017915655","","","","","","",""
"224","","bandit","352","935329","0.0-314.0-0.0","47608206","wem/bandit_single","A15781PHGW377Y","gain","8","","76","L","3","","0","0","1","0.3548215972","","false","277","0.4378988515","","main_expt","0.348890663","","0.1667093518","","0.3548215972","","","","","","",""
"119","","bandit","353","937478","0.0-315.0-0.0","47608206","wem/bandit_single","A15781PHGW377Y","gain","8","","74","J","1","","0","0","1","0.3341457036","","false","278","0.4323676568","","main_expt","0.3341457036","","0.1695638059","","0.3683165275","","","","","","",""
"333","","bandit","354","939620","0.0-316.0-0.0","47608206","wem/bandit_single","A15781PHGW377Y","gain","8","","76","L","3","","0","0","1","0.3750953637","","false","279","0.4391545144","","main_expt","0.2341959149","","0.1696283439","","0.3750953637","","","","","","",""
"197","","bandit","355","941617","0.0-317.0-0.0","47608206","wem/bandit_single","A15781PHGW377Y","gain","8","","75","K","2","","0","0","1","0.09227733008","","false","280","0.4467207207","","main_expt","0.1839622844","","0.09227733008","","0.3557095414","","","","","","",""
"88","","bandit","356","943489","0.0-318.0-0.0","47608206","wem/bandit_single","A15781PHGW377Y","gain","8","","72","H","0","img/none_selected.jpg","0","0","1","0.3922333676","","false","281","0.3922333676","","main_expt","0.1303375237","","0.08059064446","","0.374333358","","","","","","",""
"452","","bandit","357","945721","0.0-319.0-0.0","47608206","wem/bandit_single","A15781PHGW377Y","gain","8","","75","K","2","","0","0","1","0.06236597977","","false","282","0.4243132136","","main_expt","0.07449941097","","0.06236597977","","0.3786855632","","","","","","",""
"223","","bandit","358","947732","0.0-320.0-0.0","47608206","wem/bandit_single","A15781PHGW377Y","gain","8","","76","L","3","","1","0","0","0.437514669","","false","283","0.4187362854","","main_expt","0.08783129911","","0.07782340279","","0.437514669","","","","","","",""
"182","","bandit","359","949698","0.0-321.0-0.0","47608206","wem/bandit_single","A15781PHGW377Y","gain","8","","74","J","1","","0","0","1","0.08228152097","","false","284","0.422543139","","main_expt","0.08228152097","","0.07564660971","","0.410198323","","","","","","",""
"247","","bandit","360","951725","0.0-322.0-0.0","47608206","wem/bandit_single","A15781PHGW377Y","gain","8","","72","H","0","img/none_selected.jpg","1","0","0","0.434302279","","false","285","0.434302279","","main_expt","0.09246744832","","0.08237135124","","0.3777139522","","","","","","",""
"171","","bandit","361","953676","0.0-323.0-0.0","47608206","wem/bandit_single","A15781PHGW377Y","gain","8","","76","L","3","","0","0","1","0.3841171753","","false","286","0.4094725029","","main_expt","0.08394792075","","0.05670298638","","0.3841171753","","","","","","",""
"221","","bandit","362","955687","0.0-324.0-0.0","47608206","wem/bandit_single","A15781PHGW377Y","gain","8","","72","H","0","img/none_selected.jpg","1","0","0","0.3778080042","","false","287","0.3778080042","","main_expt","0.1021913287","","0.06647452785","","0.3641862554","","","","","","",""
"258","","bandit","363","957732","0.0-325.0-0.0","47608206","wem/bandit_single","A15781PHGW377Y","gain","8","","75","K","2","","0","0","1","0.04859701272","","false","288","0.3671495563","","main_expt","0.1188664616","","0.04859701272","","0.3192590496","","","","","","",""
"150","","bandit","364","959666","0.0-326.0-0.0","47608206","wem/bandit_single","A15781PHGW377Y","gain","8","","76","L","3","","1","0","0","0.3384054944","","false","289","0.3622055636","","main_expt","0.1050513492","","0.04246321062","","0.3384054944","","","","","","",""
"119","","bandit","365","961782","0.0-327.0-0.0","47608206","wem/bandit_single","A15781PHGW377Y","gain","8","","72","H","0","img/none_selected.jpg","1","0","0","0.3616647964","","false","290","0.3616647964","","main_expt","0.1304324694","","0.08307379137","","0.329366118","","","","","","",""
"334","","bandit","366","963926","0.0-328.0-0.0","47608206","wem/bandit_single","A15781PHGW377Y","gain","8","","74","J","1","","0","0","1","0.09707891459","","false","291","0.3521760992","","main_expt","0.09707891459","","0.09664054691","","0.38061917","","","","","","",""
"133","","bandit","367","965859","0.0-329.0-0.0","47608206","wem/bandit_single","A15781PHGW377Y","gain","8","","76","L","3","","0","0","1","0.3703624541","","false","292","0.3062989856","","main_expt","0.1166693976","","0.1089287446","","0.3703624541","","","","","","",""
"133","","bandit","368","967762","0.0-330.0-0.0","47608206","wem/bandit_single","A15781PHGW377Y","gain","8","","72","H","0","img/none_selected.jpg","1","0","0","0.2594623792","","false","293","0.2594623792","","main_expt","0.1448282665","","0.1426967363","","0.3554666564","","","","","","",""
"247","","bandit","369","969790","0.0-331.0-0.0","47608206","wem/bandit_single","A15781PHGW377Y","gain","8","","75","K","2","","0","0","1","0.08295656842","","false","294","0.2666401727","","main_expt","0.1486412875","","0.08295656842","","0.3976604504","","","","","","",""
"118","","bandit","370","971709","0.0-332.0-0.0","47608206","wem/bandit_single","A15781PHGW377Y","gain","8","","76","L","3","","0","0","1","0.3567340825","","false","295","0.2160621863","","main_expt","0.1266024918","","0.07441347029","","0.3567340825","","","","","","",""
"305","","bandit","371","973799","0.0-333.0-0.0","47608206","wem/bandit_single","A15781PHGW377Y","gain","8","","72","H","0","img/none_selected.jpg","1","0","0","0.1924669582","","false","296","0.1924669582","","main_expt","0.1499702932","","0.08167080543","","0.3802278382","","","","","","",""
"210","","bandit","372","975796","0.0-334.0-0.0","47608206","wem/bandit_single","A15781PHGW377Y","gain","8","","75","K","2","","0","0","1","0.06721412472","","false","297","0.2572135825","","main_expt","0.1124444021","","0.06721412472","","0.3764104085","","","","","","",""
"138","","bandit","373","977730","0.0-335.0-0.0","47608206","wem/bandit_single","A15781PHGW377Y","gain","8","","72","H","0","img/none_selected.jpg","0","0","1","0.2660288188","","false","298","0.2660288188","","main_expt","0.122133656","","0.1106754059","","0.3801851674","","","","","","",""
"262","","bandit","374","979805","0.0-336.0-0.0","47608206","wem/bandit_single","A15781PHGW377Y","gain","8","","74","J","1","","0","0","1","0.1064281731","","false","299","0.2708303459","","main_expt","0.1064281731","","0.146580741","","0.37372938","","","","","","",""
